userAcceleration.x,userAcceleration.y,userAcceleration.z,rotationRate.x,rotationRate.y,rotationRate.z,label,subject
-0.0005418000000002,0.0099336000000012,-0.0054975999999998,-0.0028769999999996,-0.0018967999999991,0.0010536,0,sub_3
-0.0025958000000001,0.0061644000000012,-0.0088449999999998,-0.0005857999999996,-0.0061745999999991,0.0070484,0,sub_3
-0.0036322000000001,0.0023706000000012,-0.0105375999999998,0.0019416000000003,-0.0078861999999991,0.010478,0,sub_3
-0.0041886000000001,9.60000000122252e-06,-0.0111307999999999,0.0042864000000003,-0.0070233999999991,0.0096302,0,sub_3
-0.0035694000000001,-0.0016877999999987,-0.0114257999999999,0.0060026000000003,-0.0057235999999991,0.006641,0,sub_3
-0.0014760000000001,-0.0021005999999987,-0.0101085999999999,0.0064534000000003,-0.0037939999999991,0.0032234,0,sub_3
0.0005211999999997,-0.0020477999999987,-0.0079895999999999,0.0054124000000003,-0.0012207999999991,8.200000000069502e-06,0,sub_3
0.0032167999999997,-0.0008185999999987,-0.0056253999999999,0.0030818000000003,0.0011532000000008,-0.0032219999999999,0,sub_3
0.0053003999999997,0.0012974000000012,-0.0038995999999999,0.0009512000000003,0.0026656000000008,-0.0043131999999999,0,sub_3
0.0072101999999997,0.0023158000000011,-0.0030547999999999,-0.0005507999999996,0.0035288000000008,-0.0034763999999999,0,sub_3
0.0070317999999997,0.0023418000000012,-0.0028239999999999,-0.0014203999999996,0.0037464000000008,-0.0015659999999999,0,sub_3
0.0072267999999997,0.0028524000000012,-0.0030767999999999,-0.0020775999999996,0.0033258000000008,-8.059999999991026e-05,0,sub_3
0.0070541999999997,0.0027574000000012,-0.0040999999999999,-0.0016651999999996,0.0024626000000008,0.0022736,0,sub_3
0.0060775999999997,0.0018650000000012,-0.0052997999999998,-0.0003993999999996,0.0009598000000009,0.0039936,0,sub_3
0.0038293999999997,0.0010842000000012,-0.0064779999999998,0.0006588000000003,9.960000000093372e-05,0.0050704,0,sub_3
0.0032245999999997,0.0010578000000012,-0.0072633999999998,0.0013018000000003,0.0001000000000009,0.004434,0,sub_3
0.0024111999999997,0.0012844000000012,-0.0080119999999998,0.0023644000000003,-0.000314599999999,0.002942,0,sub_3
0.0010013999999997,0.0012486000000012,-0.0084103999999998,0.0032136000000003,-0.000728399999999,0.0014484000000001,0,sub_3
0.0006175999999997,0.0014502000000012,-0.0088029999999999,0.0029950000000003,-0.000926999999999,0.0003744000000001,0,sub_3
0.0008497999999997,0.0014126000000012,-0.0090707999999999,0.0023498000000003,-0.0009119999999991,-0.0004891999999998,0,sub_3
0.0010091999999997,0.0016634000000012,-0.0090799999999999,0.0016996000000003,-0.0013257999999991,-0.0007111999999998,0,sub_3
0.0013895999999997,0.0012430000000012,-0.0088519999999998,0.0008462000000003,-0.0011105999999991,-0.0005037999999998,0,sub_3
0.0030695999999997,0.0008360000000012,-0.0081123999999998,-0.0002177999999996,-0.0006797999999991,-0.0007253999999999,0,sub_3
0.0035981999999997,0.0007428000000012,-0.0073185999999998,-0.0014965999999995,0.0012502000000008,-0.0005285999999999,0,sub_3
0.0039223999999997,0.0011862000000011,-0.0065235999999998,-0.0023447999999995,0.0033944000000008,-0.0009699999999999,0,sub_3
0.0040413999999997,0.0013486000000011,-0.0061535999999998,-0.0027653999999995,0.0057502000000008,-0.0014087999999999,0,sub_3
0.0039467999999997,0.0017316000000012,-0.0052931999999998,-0.0034003999999995,0.0072572000000008,-0.0024887999999999,0,sub_3
0.0033027999999997,0.0024140000000011,-0.0050973999999998,-0.0036103999999995,0.0087608000000008,-0.0031385999999999,0,sub_3
0.0028141999999997,0.0024656000000011,-0.0057009999999998,-0.0036083999999996,0.0087626000000008,-0.0035657999999999,0,sub_3
0.0027947999999997,0.0019382000000012,-0.0062811999999998,-0.0038265999999996,0.0079104000000008,-0.0033525999999999,0,sub_3
0.0026765999999997,0.0012330000000012,-0.0066567999999998,-0.0042503999999996,0.0079144000000008,-0.0039963999999999,0,sub_3
0.0025613999999997,0.0016854000000011,-0.0067861999999998,-0.0033967999999996,0.0083358000000008,-0.0035635999999999,0,sub_3
0.0020711999999997,0.0008460000000012,-0.0072775999999998,-0.0033945999999996,0.0072628000000008,-0.0029087999999999,0,sub_3
0.0023271999999997,-6.079999999879758e-05,-0.0070093999999998,-0.0038133999999996,0.0072574000000008,-0.0024719999999999,0,sub_3
0.0024431999999997,-0.0001199999999987,-0.0069075999999998,-0.0035871999999996,0.0074662000000008,-0.0028855999999999,0,sub_3
0.0017639999999997,-0.0001845999999987,-0.0067169999999998,-0.0031543999999996,0.0070318000000008,-0.0024423999999999,0,sub_3
0.0015017999999997,-0.0014041999999987,-0.0067367999999999,-0.0037855999999996,0.0066036000000008,-0.0026475999999999,0,sub_3
0.0018493999999997,-0.0012805999999987,-0.0066277999999999,-0.0042017999999996,0.0078878000000008,-0.0037203999999998,0,sub_3
0.0023385999999997,-0.0001151999999987,-0.0067067999999999,-0.0044025999999995,0.0087484000000008,-0.0056457999999998,0,sub_3
0.0023151999999997,0.0006586000000012,-0.0066051999999998,-0.0043949999999995,0.0096040000000008,-0.0065013999999998,0,sub_3
0.0027541999999997,0.0012532000000012,-0.0060109999999998,-0.0052435999999995,0.0093982000000008,-0.0073579999999998,0,sub_3
0.0031261999999997,0.0018272000000012,-0.0062721999999998,-0.0063083999999995,0.0089782000000008,-0.0077885999999998,0,sub_3
0.0034343999999997,0.0027226000000012,-0.0062513999999998,-0.0067369999999995,0.0083404000000008,-0.0075735999999998,0,sub_3
0.0029969999999997,0.0020936000000012,-0.0060937999999998,-0.0065303999999996,0.0076962000000008,-0.0062857999999998,0,sub_3
0.0028023999999997,0.0017770000000012,-0.0053095999999998,-0.0069619999999995,0.0070560000000008,-0.0054297999999998,0,sub_3
0.0028965999999997,0.0014390000000012,-0.0058039999999998,-0.0067515999999995,0.0066282000000008,-0.0052141999999998,0,sub_3
0.0029941999999997,0.0017356000000012,-0.0056949999999998,-0.0052627999999995,0.0064066000000008,-0.0043487999999998,0,sub_3
0.0029307999999997,0.0016806000000012,-0.0056153999999998,-0.0035671999999995,0.0051172000000008,-0.0030533999999998,0,sub_3
0.0027117999999997,0.0025164000000012,-0.0055407999999998,-0.0022975999999995,0.0036160000000008,-0.0019751999999998,0,sub_3
0.0026031999999997,0.0033032000000012,-0.0063765999999999,-0.0014527999999995,0.0025422000000008,-0.0009003999999999,0,sub_3
0.0027551999999997,0.0043020000000012,-0.0067035999999999,-0.0010327999999996,0.0016840000000008,-4.259999999991016e-05,0,sub_3
0.0024621999999997,0.0038792000000012,-0.0065951999999999,-0.0012463999999996,0.0012584000000008,-0.0002579999999999,0,sub_3
0.0023275999999997,0.0031378000000012,-0.0070483999999999,-0.0020951999999996,0.0019002000000008,-0.0004791999999999,0,sub_3
0.0021957999999997,0.0016312000000012,-0.0073923999999998,-0.0029419999999996,0.0027578000000008,-0.0011271999999999,0,sub_3
0.0024195999999997,0.0004462000000012,-0.0074755999999998,-0.0035771999999996,0.0031888000000008,-0.0017731999999999,0,sub_3
0.0025295999999997,-0.0005827999999987,-0.0071255999999998,-0.0033621999999996,0.0038234000000008,-0.0015585999999999,0,sub_3
0.0031005999999997,-0.0008399999999987,-0.0071527999999998,-0.0035747999999996,0.0042466000000008,-0.0013467999999999,0,sub_3
0.0033931999999997,-0.0005433999999987,-0.0064019999999998,-0.0035703999999996,0.0046724000000008,-0.0019877999999999,0,sub_3
0.0036131999999997,0.0004784000000012,-0.0062667999999999,-0.0035667999999996,0.0048852000000008,-0.0026285999999999,0,sub_3
0.0031555999999997,0.0013710000000012,-0.0054647999999999,-0.0029211999999996,0.0055218000000008,-0.0032655999999999,0,sub_3
0.0030779999999997,0.0016814000000012,-0.0053123999999998,-0.0031305999999996,0.0059504000000008,-0.0036947999999998,0,sub_3
0.0019639999999997,0.0025346000000012,-0.0060021999999998,-0.0033429999999996,0.0061642000000008,-0.0036965999999998,0,sub_3
0.0016177999999997,0.0018910000000012,-0.0067851999999998,-0.0039887999999996,0.0055248000000008,-0.0030593999999998,0,sub_3
0.0018445999999997,0.0013228000000012,-0.0070503999999998,-0.0044113999999996,0.0055064000000008,-0.0024149999999998,0,sub_3
0.0023403999999997,0.0007714000000012,-0.0075077999999998,-0.0041881999999995,0.0063396000000008,-0.0021943999999998,0,sub_3
0.0020147999999997,0.0003920000000012,-0.0071721999999998,-0.0037515999999995,0.0063232000000008,-0.0028257999999999,0,sub_3
0.0026449999999997,-0.0006291999999987,-0.0062287999999998,-0.0035359999999995,0.0052396000000008,-0.0028163999999998,0,sub_3
0.0030271999999997,-2.2799999998757408e-05,-0.0056441999999998,-0.0022495999999995,0.0052168000000008,-0.0025873999999998,0,sub_3
0.0028957999999997,0.0003786000000012,-0.0053881999999999,-0.0005473999999995,0.0047822000000008,-0.0019339999999998,0,sub_3
0.0026301999999997,0.0001348000000012,-0.0051189999999998,-0.0001329999999996,0.0030720000000008,-0.0008605999999998,0,sub_3
0.0026009999999997,0.0006044000000012,-0.0054703999999998,0.0004994000000003,0.0022142000000008,-5.999999998901415e-07,0,sub_3
0.0028181999999997,0.0015684000000012,-0.0058777999999998,0.0011526000000003,0.0019698000000009,1.740000000008987e-05,0,sub_3
0.0024623999999997,0.0023124000000012,-0.0061521999999998,0.0013780000000003,0.0010894000000009,-0.0003939999999999,0,sub_3
0.0027233999999997,0.0022526000000012,-0.0059465999999998,0.0013854000000003,-0.000431199999999,-0.0003789999999999,0,sub_3
0.0026159999999997,0.0020130000000012,-0.0064749999999998,0.0016042000000003,-0.002166399999999,-0.0001485999999999,0,sub_3
0.0027713999999997,0.0012896000000012,-0.0065761999999998,0.0009676000000003,-0.003687999999999,0.0007166,0,sub_3
0.0029799999999997,0.0007768000000012,-0.0072757999999998,0.0009618000000003,-0.0043295999999991,0.0013582,0,sub_3
0.0027823999999997,-0.0003253999999987,-0.0072881999999998,0.0009590000000003,-0.0047565999999991,0.0015722000000001,0,sub_3
0.0027175999999997,-0.0006221999999987,-0.0071913999999999,0.0007476000000003,-0.0047541999999991,0.0011434000000001,0,sub_3
0.0031113999999997,4.520000000122269e-05,-0.0071637999999998,0.0003236000000003,-0.004537799999999,0.0007128000000001,0,sub_3
0.0035407999999997,0.0006280000000012,-0.0069831999999998,0.0007738000000003,-0.004143799999999,0.0003054000000001,0,sub_3
0.0034263999999997,0.0006494000000012,-0.0066491999999998,0.0014326000000003,-0.004603599999999,0.0001144000000001,0,sub_3
0.0037027999999997,0.0011436000000012,-0.0061805999999998,0.0016646000000003,-0.004849599999999,0.0001338000000001,0,sub_3
0.0034829999999997,0.0019676000000012,-0.0060475999999998,0.0021080000000003,-0.005310199999999,0.0003686000000001,0,sub_3
0.0034977999999997,0.0024694000000012,-0.0061979999999999,0.0029802000000003,-0.0055585999999991,0.0003926000000001,0,sub_3
0.0029571999999997,0.0029530000000012,-0.0062605999999999,0.0034022000000003,-0.006200999999999,0.0008238000000001,0,sub_3
0.0025427999999997,0.0029436000000012,-0.0060611999999999,0.0031850000000003,-0.006628199999999,0.0012502000000001,0,sub_3
0.0025825999999997,0.0028488000000012,-0.0064301999999998,0.0033926000000003,-0.006846199999999,0.0023202,0,sub_3
0.0029161999999997,0.0023898000000012,-0.0071791999999998,0.0036176000000003,-0.007092999999999,0.0036188,0,sub_3
0.0025219999999997,0.0015038000000012,-0.0067065999999998,0.0036312000000003,-0.007337199999999,0.0044884,0,sub_3
0.0023739999999997,0.0007296000000012,-0.0070257999999998,0.0038620000000003,-0.0071543999999991,0.0049318,0,sub_3
0.0025327999999997,0.0007072000000012,-0.0070755999999998,0.0045214000000003,-0.0067591999999991,0.0051642,0,sub_3
0.0028037999999997,0.0005572000000012,-0.0069697999999998,0.0043302000000003,-0.0065707999999991,0.0045364,0,sub_3
0.0028731999999997,0.0007256000000012,-0.0064217999999998,0.0041264000000003,-0.0057127999999991,0.003252,0,sub_3
0.0031233999999997,0.0004626000000012,-0.0070499999999998,0.0034930000000003,-0.0048557999999991,0.0026056,0,sub_3
0.0032141999999997,0.0002286000000012,-0.0071895999999998,0.0022386000000004,-0.0042397999999991,0.0019702,0,sub_3
0.0035109999999997,0.0001056000000012,-0.0068933999999998,0.0014160000000004,-0.0027719999999991,0.0011232,0,sub_3
0.0032075999999997,0.0009566000000012,-0.0069449999999998,0.0016534000000003,-0.0021627999999991,0.0009256,0,sub_3
0.0029945999999997,0.0006300000000012,-0.0064853999999998,0.0018774000000003,-0.0034753999999991,0.0017986,0,sub_3
0.0034195999999997,0.0008232000000012,-0.0057697999999998,0.0021042000000003,-0.004361199999999,0.0024574,0,sub_3
0.0033351999999997,0.0007130000000012,-0.0053313999999998,0.0040140000000003,-0.005862599999999,0.0033274,0,sub_3
0.0028327999999997,0.0007296000000012,-0.0058373999999998,0.0050664000000003,-0.007576799999999,0.0048324,0,sub_3
0.0024237999999997,-0.0001883999999987,-0.0058477999999998,0.0048482000000003,-0.008004599999999,0.0054724,0,sub_3
0.0020595999999997,-0.0001401999999987,-0.0067547999999998,0.0046588000000003,-0.006536199999999,0.0050546,0,sub_3
0.0013619999999997,3.1200000001222654e-05,-0.0072977999999998,0.0042560000000003,-0.0054913999999991,0.0042086,0,sub_3
0.0018489999999997,0.0008888000000012,-0.0075161999999999,0.0034302000000003,-0.0038051999999991,0.0031452,0,sub_3
0.0017495999999997,0.0008156000000012,-0.0073737999999999,0.0025978000000003,-0.0033981999999991,0.0022972,0,sub_3
0.0018643999999997,0.0008316000000012,-0.0072747999999999,0.0023998000000003,-0.0038473999999991,0.0018818,0,sub_3
0.0019883999999997,0.0006042000000012,-0.0064013999999999,0.0015482000000003,-0.0038425999999991,0.0014486,0,sub_3
0.0025113999999997,0.0006692000000012,-0.0064635999999999,0.0015520000000003,-0.0032025999999991,0.0012342,0,sub_3
0.0020673999999997,-5.519999999875737e-05,-0.0059429999999999,0.0009130000000003,-0.002775199999999,0.0014428,0,sub_3
0.0023639999999997,-8.399999998757373e-06,-0.0056181999999999,0.0002786000000003,-0.001918999999999,0.0010098,0,sub_3
0.0027889999999997,4.860000000124263e-05,-0.0059255999999999,7.840000000036616e-05,-0.000862399999999,0.0010136,0,sub_3
0.0025127999999997,0.0006276000000012,-0.0063927999999999,0.0009392000000003,-0.000663399999999,0.0014532,0,sub_3
0.0017985999999997,0.0009952000000012,-0.0059683999999999,0.0011552000000003,-0.001527399999999,0.0018896,0,sub_3
0.0023833999999997,0.0016330000000012,-0.0063519999999999,0.0013768000000003,-0.001749599999999,0.0016844,0,sub_3
0.0023151999999997,0.0019050000000012,-0.0063639999999998,0.0015994000000003,-0.001546599999999,0.0016924,0,sub_3
0.0020401999999997,0.0022284000000012,-0.0061459999999998,0.0020280000000003,-0.001333999999999,0.0014816,0,sub_3
0.0024669999999997,0.0019494000000011,-0.0066833999999998,0.0013880000000003,-0.001756199999999,0.0010504,0,sub_3
0.0025323999999997,0.0011034000000011,-0.0067427999999998,0.0011758000000003,-0.0013225999999991,0.0010482,0,sub_3
0.0025007999999997,0.0008646000000011,-0.0072089999999998,0.0011712000000003,-0.0017437999999991,0.0014756,0,sub_3
0.0026985999999997,0.0004650000000011,-0.0074677999999999,0.0011666000000003,-0.0021649999999991,0.0019032,0,sub_3
0.0028037999999997,0.0002584000000012,-0.0076931999999999,0.0009524000000003,-0.0021575999999991,0.0019014,0,sub_3
0.0030751999999997,0.0001440000000012,-0.0073901999999999,0.0007402000000003,-0.0019361999999991,0.0016858,0,sub_3
0.0036925999999997,0.0008602000000012,-0.0070619999999999,0.0009544000000003,-0.0021483999999991,0.0012602,0,sub_3
0.0038221999999997,0.0014302000000012,-0.0061125999999999,0.0007478000000003,-0.0012927999999991,0.0006168,0,sub_3
0.0029109999999997,0.0018552000000012,-0.0056717999999999,0.0007554000000003,-0.0002247999999991,-2.559999999993015e-05,0,sub_3
0.0028801999999997,0.0018216000000012,-0.0063045999999999,0.0005410000000003,-0.000224999999999,0.0001866,0,sub_3
0.0034591999999997,0.0019472000000012,-0.0061645999999999,0.0001082000000004,0.0002190000000009,0.0001762,0,sub_3
0.0037771999999997,0.0020756000000012,-0.0063345999999999,-0.0003167999999995,0.0017310000000009,-0.0004761999999999,0,sub_3
0.0033947999999997,0.0022056000000012,-0.0063707999999999,0.0003106000000004,0.0013166000000009,0.000163,0,sub_3
0.0043733999999997,0.0015460000000012,-0.0063897999999998,0.0005046000000004,-0.000375599999999,0.0010146,0,sub_3
0.0050271999999997,0.0016308000000012,-0.0057889999999998,0.0009198000000003,-0.0010005999999991,0.0012252,0,sub_3
0.0040097999999997,0.0018616000000012,-0.0060587999999998,0.0021934000000003,-0.0016475999999991,0.0020896,0,sub_3
0.0027927999999997,0.0016512000000012,-0.0065885999999998,0.0032468000000003,-0.0029363999999991,0.0038078,0,sub_3
0.0024481999999997,0.0006298000000012,-0.0070529999999998,0.0030174000000003,-0.0031259999999991,0.004008,0,sub_3
0.0023049999999997,0.0015034000000012,-0.0071231999999998,0.0027958000000003,-0.0022477999999991,0.0035658,0,sub_3
0.0018045999999997,0.0016064000000012,-0.0069681999999998,0.0029998000000003,-0.0017961999999991,0.0029136,0,sub_3
0.0017445999999997,0.0010724000000012,-0.0061145999999999,0.0027780000000003,-0.0013423999999991,0.0020448,0,sub_3
0.0024315999999997,0.0007072000000012,-0.0053257999999999,0.0019144000000003,-0.0015247999999991,0.0009586,0,sub_3
0.0029155999999997,0.0007390000000012,-0.0054771999999999,0.0006362000000003,-0.0017307999999991,0.000309,0,sub_3
0.0030369999999997,0.0002234000000012,-0.0057635999999998,-9.9999999961407e-07,-0.0015137999999991,-0.0001229999999999,0,sub_3
0.0029509999999997,-0.0004991999999987,-0.0058343999999998,-0.0004257999999996,-0.0010861999999991,-0.0001263999999999,0,sub_3
0.0031071999999997,-0.0008601999999987,-0.0062631999999998,-0.0008505999999996,-0.0008707999999991,-0.0003433999999998,0,sub_3
0.0031365999999997,-0.0005433999999987,-0.0065111999999998,-0.0012877999999996,-0.0004193999999991,-0.0005729999999998,0,sub_3
0.0031923999999997,1.0000000012225057e-06,-0.0064995999999998,-0.0008705999999996,0.0004540000000008,-0.0005835999999998,0,sub_3
0.0030371999999997,0.0002076000000012,-0.0061079999999998,-0.0002467999999996,0.0002598000000008,-0.0001639999999999,0,sub_3
0.0027831999999997,0.0009228000000012,-0.0060481999999998,-0.0002609999999996,-0.0001427999999991,-0.0003895999999999,0,sub_3
0.0027629999999997,0.0017796000000012,-0.0066277999999998,-0.0004885999999996,9.220000000089375e-05,2.3600000000070268e-05,0,sub_3
0.0028461999999997,0.0019820000000012,-0.0066543999999998,-6.2799999999614e-05,-0.000122399999999,2.6800000000070257e-05,0,sub_3
0.0024855999999997,0.0018620000000012,-0.0064589999999998,0.0001496000000003,-0.000548399999999,-0.0001847999999999,0,sub_3
0.0023835999999997,0.0014548000000012,-0.0071165999999998,0.0003516000000003,-0.000743199999999,-0.0004071999999999,0,sub_3
0.0026939999999997,0.0014438000000012,-0.0074383999999998,0.0001228000000003,-0.001152199999999,8.600000000070226e-06,0,sub_3
0.0027697999999997,0.0009452000000012,-0.0073907999999998,0.0001066000000003,-0.001987399999999,0.0002128,0,sub_3
0.0027401999999997,0.0005420000000012,-0.0074069999999998,9.1200000000386e-05,-0.002184999999999,0.0008436,0,sub_3
0.0033679999999997,0.0004662000000012,-0.0074341999999998,7.880000000038601e-05,-0.002167799999999,0.0010468,0,sub_3
0.0035145999999997,0.0010024000000012,-0.0070851999999998,-0.0003459999999996,-0.001740199999999,0.0010434,0,sub_3
0.0036133999999997,0.0009818000000012,-0.0066215999999998,-0.0003421999999996,-0.001100199999999,0.000829,0,sub_3
0.0036897999999997,0.0014008000000012,-0.0064021999999999,-0.0001231999999996,-0.000246999999999,0.0004022000000001,0,sub_3
0.0037633999999997,0.0014562000000012,-0.0063545999999999,-0.0001267999999996,0.0001970000000009,-0.0004613999999998,0,sub_3
0.0028773999999997,0.0011994000000012,-0.0062237999999999,7.920000000038602e-05,0.0004248000000008,-0.0006821999999998,0,sub_3
0.0030431999999997,0.0006416000000012,-0.0063521999999999,-0.0005711999999996,0.0002284000000008,-0.0006947999999998,0,sub_3
0.0032213999999997,0.0002816000000012,-0.0064781999999999,-0.0005755999999996,0.0006716000000008,-0.0013445999999998,0,sub_3
0.0029333999999997,0.0003264000000012,-0.0060917999999999,-0.0003657999999996,0.0013272000000008,-0.0019933999999999,0,sub_3
0.0029773999999997,0.0004574000000012,-0.0061853999999999,-0.0001599999999996,0.0008952000000008,-0.0007093999999999,0,sub_3
0.0034435999999997,0.0005742000000012,-0.0061773999999999,-0.0001647999999996,0.0004664000000009,-6.799999999992984e-05,0,sub_3
0.0030537999999997,0.0007778000000012,-0.0058647999999999,0.0008992000000003,3.5600000000913635e-05,0.0001536,0,sub_3
0.0026849999999997,0.0012000000000012,-0.0055265999999999,0.0017302000000003,-0.000814599999999,0.0018604,0,sub_3
0.0024903999999997,0.0007664000000012,-0.0056369999999999,0.0027756000000003,-0.001876999999999,0.0031418,0,sub_3
0.0021503999999997,0.0009492000000012,-0.0054701999999999,0.0031952000000003,-0.001863199999999,0.0022808000000001,0,sub_3
0.0024783999999997,0.0011688000000012,-0.0058743999999998,0.0031898000000003,-0.0014217999999991,0.0014164000000001,0,sub_3
0.0027561999999997,0.0014952000000012,-0.0061249999999998,0.0033960000000003,-0.0007705999999991,0.0011940000000001,0,sub_3
0.0027825999999997,0.0014940000000012,-0.0059357999999998,0.0023338000000003,-0.0005503999999991,0.0003316000000001,0,sub_3
0.0032593999999997,0.0017466000000012,-0.0058803999999998,0.0004172000000003,-0.0003279999999991,-0.0003229999999998,0,sub_3
0.0036955999999997,0.0014258000000012,-0.0058097999999998,-0.0008611999999996,-0.0001095999999991,-0.0005457999999999,0,sub_3
0.0038771999999997,0.0012526000000012,-0.0056921999999999,-0.0010725999999995,0.0003172000000008,-0.0005477999999999,0,sub_3
0.0037465999999997,0.0009160000000012,-0.0052451999999999,-0.0012919999999995,0.0005426000000008,-0.0009841999999999,0,sub_3
0.0037221999999997,0.0005948000000012,-0.0057025999999999,-0.0015123999999995,0.0005548000000008,-0.0014201999999999,0,sub_3
0.0037459999999997,0.0010482000000012,-0.0058987999999999,-0.0010935999999995,0.0007762000000008,-0.0014247999999999,0,sub_3
0.0031239999999997,0.0014988000000012,-0.0063775999999998,-0.0004641999999995,0.0009942000000008,-0.0007869999999999,0,sub_3
0.0021113999999997,0.0020190000000012,-0.0061577999999998,-0.0002643999999996,0.0003624000000008,-0.0003647999999999,0,sub_3
0.0019717999999997,0.0026082000000012,-0.0063283999999998,-0.0004797999999996,0.0003614000000008,6.10000000000702e-05,0,sub_3
0.0017011999999997,0.0032166000000012,-0.0064419999999998,-5.199999999963402e-05,0.0005730000000008,6.36000000000702e-05,0,sub_3
0.0014997999999997,0.0029206000000012,-0.0065413999999998,-5.979999999963404e-05,0.0003666000000008,0.0002728,0,sub_3
0.0014825999999997,0.0024192000000012,-0.0061003999999999,-0.0002791999999996,0.0001628000000008,5.340000000007021e-05,0,sub_3
0.0017069999999997,0.0019326000000012,-0.0062171999999998,-0.0007119999999996,0.0003842000000008,0.0002592,0,sub_3
0.0016469999999997,0.0016306000000012,-0.0063961999999998,-0.0007197999999995,-3.439999999910633e-05,0.0002552,0,sub_3
0.0012691999999997,0.0013836000000012,-0.0060417999999998,-0.0007285999999995,-0.0002415999999991,0.0006782,0,sub_3
0.0015371999999997,0.0011200000000012,-0.0054619999999998,-0.0003017999999995,-0.0002429999999991,0.0006812,0,sub_3
0.0019455999999997,0.0010444000000012,-0.0054357999999998,-0.0003007999999996,-0.0002421999999991,0.0004674,0,sub_3
0.0022935999999997,0.0012670000000012,-0.0057309999999998,0.0001288000000003,-0.0002411999999991,-0.0001705999999999,0,sub_3
0.0031109999999997,0.0011772000000012,-0.0055223999999998,-8.179999999959404e-05,-2.5599999999106328e-05,-0.0005995999999999,0,sub_3
0.0035415999999997,0.0009930000000012,-0.0056573999999999,-0.0002957999999995,0.0001960000000008,-0.0010311999999999,0,sub_3
0.0039955999999997,0.0010280000000012,-0.0062415999999999,-0.0007261999999995,-8.599999999106328e-06,-0.0012499999999999,0,sub_3
0.0036217999999997,0.0013416000000012,-0.0061037999999999,-0.0005135999999995,0.0004238000000008,-0.0014651999999998,0,sub_3
0.0035209999999997,0.0011206000000012,-0.0057623999999999,-0.0005161999999995,0.0008552000000008,-0.0012545999999998,0,sub_3
0.0024887999999997,0.0008680000000012,-0.0068205999999999,-0.0005225999999995,0.0008586000000008,-0.0006161999999998,0,sub_3
0.0030705999999997,0.0005754000000012,-0.0069885999999999,-0.0007331999999995,0.0012864000000009,-0.0008317999999998,0,sub_3
0.0024143999999997,0.0013092000000012,-0.0067671999999999,-8.259999999959402e-05,0.0032032000000008,-0.0012569999999998,0,sub_3
0.0023007999999997,0.0013942000000012,-0.0079019999999999,-8.999999999959401e-05,0.0032036000000008,-0.0004051999999998,0,sub_3
