userAcceleration.x,userAcceleration.y,userAcceleration.z,rotationRate.x,rotationRate.y,rotationRate.z,label,subject
0.0051345999999997,0.0058352000000011,-0.0114035999999999,2.4000000004199914e-06,-1.979999999908163e-05,0.003296,0,sub_23
0.0044233999999997,0.0055616000000011,-0.0113223999999999,0.0002192000000003,-2.1799999999081648e-05,0.0035066,0,sub_23
0.0044659999999997,0.0050382000000011,-0.0117211999999999,0.0002216000000003,-0.000448399999999,0.0035026,0,sub_23
0.0039005999999997,0.0045136000000011,-0.0119199999999999,-0.0001979999999996,-0.000232599999999,0.0030676,0,sub_23
0.0030497999999997,0.0037992000000011,-0.0114015999999999,-0.0008277999999996,0.0001986000000009,0.0022036,0,sub_23
0.0026801999999997,0.0026270000000012,-0.0114477999999999,-0.0012431999999996,0.0006298000000008,0.0011274,0,sub_23
0.0032205999999997,0.0027850000000012,-0.0116271999999999,-0.0023051999999995,0.0006376000000008,5.180000000006291e-05,0,sub_23
0.0035405999999997,0.0032772000000012,-0.0113311999999999,-0.0027299999999995,0.0006410000000008,-0.0003783999999999,0,sub_23
0.0038435999999997,0.0039404000000012,-0.0111325999999999,-0.0027297999999995,0.0006410000000008,-0.0003783999999999,0,sub_23
0.0037637999999997,0.0048500000000012,-0.0116845999999999,-0.0020887999999995,0.0006360000000008,0.000263,0,sub_23
0.0039985999999997,0.0059352000000012,-0.0112103999999999,-0.0016593999999995,0.0010578000000009,0.0009024,0,sub_23
0.0041975999999997,0.0061668000000012,-0.0111797999999999,-0.0008049999999995,0.0012644000000009,0.0017586,0,sub_23
0.0044343999999997,0.0057796000000012,-0.0113759999999999,-0.0005907999999995,0.0016854000000009,0.0028238,0,sub_23
0.0047291999999997,0.0054144000000011,-0.0116645999999999,-0.0008023999999995,0.0018966000000008,0.003459,0,sub_23
0.0057285999999997,0.0048964000000011,-0.0110365999999999,-0.0012281999999995,0.0018992000000008,0.0032424,0,sub_23
0.0059859999999997,0.0042424000000011,-0.0108505999999999,-0.0014415999999995,0.0016880000000008,0.0030276,0,sub_23
0.0063571999999997,0.0040760000000011,-0.0106771999999998,-0.0018635999999995,0.0016940000000008,0.0019566,0,sub_23
0.0062641999999997,0.0045048000000011,-0.0101229999999998,-0.0020701999999995,0.0019132000000008,0.000673,0,sub_23
0.0060611999999997,0.0048616000000012,-0.0093447999999998,-0.0016343999999995,0.0023408000000009,3.00000000000829e-05,0,sub_23
0.0057829999999997,0.0047938000000011,-0.0099411999999998,-0.0018377999999995,0.0029836000000009,-0.0006177999999999,0,sub_23
0.0063559999999997,0.0047966000000012,-0.0104575999999998,-0.0020409999999995,0.0036266000000009,-0.0012655999999999,0,sub_23
0.0058775999999997,0.0049274000000012,-0.0102993999999999,-0.0024651999999995,0.0036268000000009,-0.0008459999999999,0,sub_23
0.0055269999999997,0.0046332000000012,-0.0112923999999999,-0.0033189999999995,0.0027770000000009,-0.0006417999999999,0,sub_23
0.0053569999999997,0.0044836000000012,-0.0118601999999999,-0.0041817999999995,0.0012862000000009,-4.999999999917137e-06,0,sub_23
0.0050825999999997,0.0046624000000012,-0.0117713999999999,-0.0046179999999995,6.000000000918508e-06,0.0008482,0,sub_23
0.0044821999999997,0.0045500000000012,-0.0106767999999998,-0.0056893999999995,-0.001057599999999,0.0014794,0,sub_23
0.0051079999999997,0.0039232000000012,-0.0108395999999998,-0.0073913999999995,-0.000837199999999,0.0012502,0,sub_23
0.0058315999999997,0.0033608000000012,-0.0101815999999998,-0.0084513999999995,-0.000405199999999,0.0008116,0,sub_23
0.0056955999999997,0.0039242000000012,-0.0108471999999998,-0.0090855999999995,-0.000399799999999,0.0001628,0,sub_23
0.0038995999999997,0.0044684000000012,-0.0106425999999998,-0.0090871999999995,-0.001676799999999,-5.279999999991706e-05,0,sub_23
0.0018405999999997,0.0048746000000012,-0.0113987999999998,-0.0078107999999995,-0.002109399999999,0.0003838,0,sub_23
-0.0001098000000002,0.0053300000000012,-0.0117037999999998,-0.0050397999999995,-0.001909999999999,0.0012572,0,sub_23
-0.0003870000000002,0.0059534000000012,-0.0123739999999998,-0.0026879999999995,-4.599999999061604e-06,0.0021254,0,sub_23
-1.840000000022119e-05,0.0058640000000012,-0.0122017999999998,-0.0007637999999995,0.0012648000000009,0.0025642,0,sub_23
0.0019383999999997,0.0060514000000012,-0.0123707999999998,0.0011668000000004,0.0031740000000009,0.0029976,0,sub_23
0.0038469999999997,0.0057348000000012,-0.0120559999999998,0.0018086000000004,0.0033826000000009,0.0036378,0,sub_23
0.0051013999999997,0.0052656000000012,-0.0111847999999998,0.0015998000000004,0.0035970000000009,0.0036312,0,sub_23
0.0059199999999997,0.0048602000000012,-0.0101561999999999,0.0020302000000004,0.0031718000000009,0.0032026,0,sub_23
0.0072885999999997,0.0040090000000012,-0.0101605999999999,0.0022502000000004,0.0029624000000009,0.0023452,0,sub_23
0.0087569999999997,0.0034780000000012,-0.0100467999999999,0.0016112000000004,0.0021174000000009,0.0012738,0,sub_23
0.0098249999999997,0.0032294000000012,-0.0103513999999999,0.0009770000000004,0.0017012000000009,-0.0004387999999999,0,sub_23
0.0103103999999997,0.0038500000000012,-0.0106693999999999,-0.0003031999999996,0.0004312000000009,-0.0010907999999999,0,sub_23
0.0096149999999997,0.0044852000000012,-0.0109053999999999,-0.0020175999999995,-0.001480799999999,-0.0006767999999999,0,sub_23
0.0082201999999997,0.0049388000000012,-0.0101795999999998,-0.0033085999999995,-0.002760399999999,0.001021,0,sub_23
0.0068579999999997,0.0050922000000012,-0.0101517999999998,-0.0043803999999995,-0.003186999999999,0.002292,0,sub_23
0.0059641999999997,0.0057114000000012,-0.0101273999999998,-0.0043853999999995,-0.003405199999999,0.0037836,0,sub_23
0.0051121999999997,0.0053520000000012,-0.0104621999999998,-0.0035367999999995,-0.003624399999999,0.0046444,0,sub_23
0.0040843999999997,0.0049492000000012,-0.0107311999999998,-0.0026805999999995,-0.002988199999999,0.0046496,0,sub_23
0.0036359999999997,0.0049698000000012,-0.0110581999999999,-0.0016031999999995,-0.002133799999999,0.0031606,0,sub_23
0.0027261999999997,0.0046138000000012,-0.0115791999999999,-0.0007377999999995,-0.001492399999999,0.0018792,0,sub_23
0.0013589999999997,0.0042236000000012,-0.0118491999999999,-0.0002989999999995,-0.000849599999999,0.000595,0,sub_23
0.0009649999999997,0.0043654000000012,-0.0116839999999999,-7.559999999957983e-05,4.400000000898346e-06,-5.019999999991702e-05,0,sub_23
0.0008675999999997,0.0046094000000012,-0.0113953999999999,0.0005696000000004,0.0004284000000008,-5.0999999999917e-05,0,sub_23
0.0013917999999997,0.0044426000000012,-0.0112987999999999,0.0012150000000004,0.0014890000000008,0.0005884,0,sub_23
0.0023001999999997,0.0043630000000012,-0.0111603999999999,0.0018590000000004,0.0025510000000008,0.0008052,0,sub_23
0.0039547999999997,0.0042108000000011,-0.0110693999999998,0.0022876000000004,0.0034000000000008,0.0012344,0,sub_23
0.0052711999999997,0.0045530000000012,-0.0111039999999998,0.0027144000000004,0.0033988000000009,0.0012374,0,sub_23
0.0062677999999997,0.0041538000000012,-0.0112323999999998,0.0020764000000004,0.0031884000000008,0.0012292,0,sub_23
0.0062439999999997,0.0039704000000012,-0.0107993999999998,0.0010086000000004,0.0023402000000008,0.0012188,0,sub_23
0.0065251999999997,0.0045724000000012,-0.0106423999999998,0.0001524000000004,0.0014898000000008,0.0016372,0,sub_23
0.0064005999999997,0.0048476000000012,-0.0107643999999999,-0.0007037999999995,0.0004272000000008,0.0018422,0,sub_23
0.0063183999999997,0.0048488000000012,-0.0108097999999999,-0.0013457999999995,-0.0002109999999991,0.0022618,0,sub_23
0.0058069999999997,0.0051220000000012,-0.0109967999999998,-0.0015639999999995,-0.001062999999999,0.002475,0,sub_23
0.0058091999999997,0.0052016000000012,-0.0114273999999998,-0.0015677999999995,-0.001490599999999,0.0029028,0,sub_23
0.0053249999999997,0.0048420000000012,-0.0115039999999998,-0.0011429999999995,-0.001705799999999,0.0031196,0,sub_23
0.0050883999999997,0.0047974000000012,-0.0113469999999998,-0.0009247999999995,-0.001493399999999,0.0031164,0,sub_23
0.0047217999999997,0.0046192000000012,-0.0114429999999998,-0.0007047999999995,-0.001067199999999,0.0028992,0,sub_23
0.0047087999999997,0.0045554000000012,-0.0114825999999999,-0.0004817999999995,-0.000426199999999,0.0022546,0,sub_23
0.0042287999999997,0.0048594000000012,-0.0117143999999999,-0.0004731999999995,-0.000209599999999,0.0013954,0,sub_23
0.0039423999999997,0.0048438000000012,-0.0118167999999999,-0.0006797999999995,0.0002182000000009,0.0011754,0,sub_23
0.0036209999999997,0.0049034000000012,-0.0120655999999999,-0.0006797999999995,0.0004304000000009,0.0013886,0,sub_23
0.0032561999999997,0.0050446000000012,-0.0120577999999999,-0.0006805999999995,0.0006418000000008,0.0018156,0,sub_23
0.0035119999999997,0.0056474000000012,-0.0114565999999999,-0.0004691999999995,0.0010638000000008,0.002671,0,sub_23
0.0037567999999997,0.0054988000000012,-0.0114465999999999,-4.059999999957995e-05,0.0016970000000008,0.0037372,0,sub_23
0.0045015999999997,0.0051808000000012,-0.0109853999999999,0.0003916000000004,0.0025458000000008,0.0041622,0,sub_23
0.0052455999999997,0.0049536000000012,-0.0104297999999999,0.0006114000000004,0.0033962000000008,0.0043722,0,sub_23
0.0054663999999997,0.0045784000000012,-0.0104749999999998,0.0012590000000004,0.0038216000000009,0.0039448,0,sub_23
0.0054141999999997,0.0040730000000012,-0.0109293999999998,0.0014810000000004,0.0040372000000009,0.0030874,0,sub_23
0.0055761999999997,0.0044050000000012,-0.0107361999999998,0.0010600000000004,0.0042562000000009,0.002016,0,sub_23
0.0051191999999997,0.0045098000000012,-0.0111157999999998,0.0006390000000004,0.0044750000000009,0.0009446,0,sub_23
0.0047431999999997,0.0052480000000012,-0.0112977999999998,0.0006448000000004,0.0046926000000009,-0.0001237999999999,0,sub_23
0.0047775999999997,0.0056792000000012,-0.0110977999999998,0.0006458000000004,0.0049058000000009,-0.0001239999999998,0,sub_23
0.0047653999999997,0.0055360000000012,-0.0107467999999999,0.0002216000000004,0.0051176000000009,0.0005088,0,sub_23
0.0051619999999997,0.0048510000000012,-0.0109339999999999,-0.0004129999999995,0.0057570000000009,0.0009258,0,sub_23
0.0057075999999997,0.0048544000000012,-0.0112005999999999,-0.0006215999999995,0.0061822000000009,0.001346,0,sub_23
0.0060393999999997,0.0042414000000012,-0.0113899999999999,-0.0004043999999995,0.0061804000000008,0.0015562,0,sub_23
0.0068353999999997,0.0034870000000012,-0.0112363999999999,-0.0008255999999995,0.0059706000000008,0.0011212,0,sub_23
0.0071629999999997,0.0034762000000012,-0.0112953999999999,-0.0010329999999995,0.0064012000000009,0.0002646,0,sub_23
0.0071635999999997,0.0039126000000012,-0.0113879999999999,-0.0010279999999995,0.0066180000000008,-0.0005901999999999,0,sub_23
0.0062755999999997,0.0043526000000012,-0.0114559999999999,-0.0012337999999995,0.0068342000000008,-0.0012367999999999,0,sub_23
0.0055781999999997,0.0046506000000012,-0.0115629999999999,-0.0018691999999995,0.0070494000000009,-0.0012455999999998,0,sub_23
0.0043117999999997,0.0051348000000012,-0.0119443999999998,-0.0018671999999995,0.0070474000000009,-0.0008223999999998,0,sub_23
0.0034845999999997,0.0055460000000012,-0.0118819999999998,-0.0018701999999995,0.0064044000000009,2.8800000000103394e-05,0,sub_23
0.0027335999999997,0.0053632000000012,-0.0114231999999998,-0.0018713999999995,0.0059754000000009,0.000666,0,sub_23
0.0023773999999997,0.0049252000000012,-0.0111319999999998,-0.0016647999999995,0.0051198000000009,0.0013094,0,sub_23
0.0027249999999997,0.0049168000000012,-0.0115215999999998,-0.0012409999999995,0.0046914000000009,0.0015264,0,sub_23
0.0038241999999997,0.0051278000000012,-0.0116229999999999,-0.0014487999999995,0.0051218000000009,0.0006698,0,sub_23
0.0050219999999997,0.0049094000000012,-0.0120341999999999,-0.0012207999999995,0.0059790000000009,-0.0008299999999999,0,sub_23
0.0050649999999997,0.0048948000000011,-0.0124393999999999,-0.0014183999999995,0.0068386000000009,-0.0025461999999999,0,sub_23
0.0060721999999997,0.0053108000000012,-0.0119857999999999,-0.0018295999999995,0.0081234000000009,-0.0038373999999999,0,sub_23
0.0063149999999997,0.0052222000000012,-0.0114669999999999,-0.0033037999999995,0.0098396000000009,-0.0055637999999998,0,sub_23
0.0061335999999997,0.0048606000000012,-0.0118765999999999,-0.0045605999999995,0.0128316000000009,-0.0068629999999998,0,sub_23
0.0055771999999997,0.0047298000000012,-0.0117383999999999,-0.0060425999999995,0.0151814000000009,-0.0070899999999998,0,sub_23
0.0054445999999997,0.0047872000000012,-0.0112411999999999,-0.0071105999999995,0.0164576000000009,-0.0056035999999998,0,sub_23
0.0049373999999997,0.0041380000000012,-0.0111095999999999,-0.0084031999999995,0.0160266000000009,-0.0032619999999998,0,sub_23
0.0044415999999997,0.0041136000000012,-0.0102955999999999,-0.0088491999999995,0.0138852000000009,-0.0002757999999999,0,sub_23
0.0038995999999997,0.0042326000000012,-0.0093305999999999,-0.0095231999999995,0.0091854000000009,0.003353,0,sub_23
0.0032663999999997,0.0044458000000012,-0.0092243999999999,-0.0095561999999995,0.0040598000000009,0.0063458,0,sub_23
0.0034931999999997,0.0046878000000012,-0.0094087999999998,-0.0087257999999995,-0.000211599999999,0.0080616,0,sub_23
0.0033281999999997,0.0051224000000012,-0.0100177999999998,-0.0072449999999995,-0.003414599999999,0.0084988,0,sub_23
0.0029159999999997,0.0046850000000012,-0.0104671999999998,-0.0057629999999995,-0.005339799999999,0.0091526,0,sub_23
0.0025747999999997,0.0047880000000012,-0.0104069999999998,-0.0038483999999995,-0.006200399999999,0.0095942,0,sub_23
0.0025971999999997,0.0048036000000012,-0.0109271999999998,-0.0021461999999995,-0.006847399999999,0.0100342,0,sub_23
0.0026269999999997,0.0044542000000011,-0.0114117999999999,-0.0015089999999995,-0.007917599999999,0.0104622,0,sub_23
0.0029927999999997,0.0044246000000011,-0.0116297999999999,-0.0010811999999995,-0.008559399999999,0.0104608,0,sub_23
0.0031609999999997,0.0045468000000011,-0.0118025999999999,-0.0002257999999995,-0.009201799999999,0.0102486,0,sub_23
0.0036119999999997,0.0043096000000011,-0.0119491999999999,0.0002020000000004,-0.009631199999999,0.0104606,0,sub_23
0.0043343999999997,0.0038460000000011,-0.0115739999999999,0.0004154000000004,-0.010060599999999,0.0108848,0,sub_23
0.0055233999999997,0.0038926000000012,-0.0111005999999999,0.0008374000000004,-0.010914999999999,0.0111026,0,sub_23
0.0060285999999997,0.0035498000000012,-0.0106251999999999,0.0008250000000004,-0.013259999999999,0.011533,0,sub_23
0.0070759999999997,0.0037294000000012,-0.0103451999999999,0.0003840000000004,-0.016665999999999,0.011321,0,sub_23
0.0072531999999997,0.0041634000000012,-0.0103995999999999,0.0007978000000004,-0.021139399999999,0.0104706,0,sub_23
0.0070453999999997,0.0038956000000012,-0.0102243999999999,0.0007926000000003,-0.024543399999999,0.008975,0,sub_23
0.0060511999999997,0.0038670000000012,-0.0106839999999999,0.0010084000000003,-0.026455999999999,0.0072652,0,sub_23
0.0062595999999997,0.0041504000000011,-0.0109443999999999,0.0014490000000003,-0.026449399999999,0.0049136,0,sub_23
0.0055113999999997,0.0042442000000011,-0.0112817999999999,0.0018924000000003,-0.025167199999999,0.0032012,0,sub_23
0.0051209999999997,0.0037786000000011,-0.0108569999999999,0.0016972000000003,-0.023240199999999,0.001061,0,sub_23
0.0048607999999997,0.0040276000000012,-0.0114313999999998,0.0017174000000004,-0.021312399999999,-0.0015049999999999,0,sub_23
0.0048009999999997,0.0039160000000011,-0.0110683999999998,0.0019520000000004,-0.019384399999999,-0.0042831999999999,0,sub_23
0.0043649999999997,0.0039468000000012,-0.0112041999999998,0.0021892000000004,-0.017034799999999,-0.0064257999999999,0,sub_23
0.0043949999999997,0.0041662000000012,-0.0118043999999998,0.0026418000000004,-0.013835399999999,-0.0081407999999999,0,sub_23
0.0043171999999997,0.0046992000000011,-0.0121975999999998,0.0028770000000004,-0.010214399999999,-0.0085759999999999,0,sub_23
0.0042739999999997,0.0052746000000011,-0.0117117999999999,0.0026778000000004,-0.007447599999999,-0.0081585999999999,0,sub_23
0.0039037999999997,0.0058858000000012,-0.0113441999999999,0.0024726000000004,-0.004898199999999,-0.0066727999999999,0,sub_23
0.0038251999999997,0.0057574000000012,-0.0113901999999999,0.0020468000000004,-0.003198199999999,-0.0051825999999999,0,sub_23
0.0043033999999997,0.0052510000000012,-0.0104647999999999,0.0016208000000004,-0.002559199999999,-0.0047591999999999,0,sub_23
0.0049723999999997,0.0051198000000012,-0.0107869999999999,0.0016256000000004,-0.002130399999999,-0.0054005999999999,0,sub_23
0.0059023999999997,0.0049776000000012,-0.0107753999999999,0.0016352000000004,-0.001280399999999,-0.0058333999999999,0,sub_23
0.0064759999999997,0.0044990000000012,-0.0111755999999999,0.0014296000000004,-0.001067799999999,-0.0064803999999999,0,sub_23
0.0061341999999997,0.0045340000000012,-0.0109831999999999,0.0014372000000004,-0.000643999999999,-0.0069125999999999,0,sub_23
0.0055257999999997,0.0046008000000012,-0.0121433999999999,0.0005896000000004,-0.000218799999999,-0.0069233999999998,0,sub_23
0.0050553999999997,0.0045514000000012,-0.0124091999999998,-0.0006837999999995,-3.5999999990840667e-06,-0.0073643999999998,0,sub_23
0.0043975999999997,0.0043224000000012,-0.0127605999999998,-0.0006837999999995,-0.000639999999999,-0.0080045999999998,0,sub_23
0.0039259999999997,0.0044392000000012,-0.0128411999999998,-0.0002569999999995,-0.001490399999999,-0.0088549999999998,0,sub_23
0.0036813999999997,0.0043008000000012,-0.0127403999999998,-0.0006815999999995,-0.001911599999999,-0.0097119999999998,0,sub_23
0.0037375999999997,0.0046574000000012,-0.0119831999999998,-3.439999999955991e-05,-0.001914399999999,-0.0103529999999998,0,sub_23
0.0037547999999997,0.0048798000000012,-0.0115123999999998,0.0008270000000004,-0.001068199999999,-0.0103525999999998,0,sub_23
0.0033965999999997,0.0053580000000012,-0.0113803999999998,0.0010512000000004,0.0008438000000009,-0.0099305999999998,0,sub_23
0.0033439999999997,0.0058026000000012,-0.0111147999999999,0.0010582000000004,0.0029654000000009,-0.0084423999999998,0,sub_23
0.0035509999999997,0.0062152000000012,-0.0110313999999999,0.0006296000000004,0.0042322000000009,-0.0058877999999998,0,sub_23
0.0035959999999997,0.0057718000000012,-0.0108459999999999,-0.0004517999999995,0.0042232000000009,-0.0026907999999999,0,sub_23
0.0038557999999997,0.0053662000000012,-0.0108589999999999,-0.0017521999999995,0.0031488000000009,0.0007198,0,sub_23
0.0047291999999997,0.0049556000000012,-0.0109355999999999,-0.0024113999999995,0.0016488000000009,0.0034944,0,sub_23
0.0063295999999997,0.0045464000000011,-0.0115281999999998,-0.0032689999999995,0.0005818000000009,0.0043388,0,sub_23
0.0072625999999997,0.0042240000000011,-0.0110295999999998,-0.0026211999999995,-5.579999999908401e-05,0.0030568,0,sub_23
0.0079391999999997,0.0042818000000012,-0.0105331999999998,-0.0015399999999995,-0.000476399999999,0.0004958,0,sub_23
0.0079877999999997,0.0042686000000011,-0.0101795999999998,-0.0004589999999996,-0.000896999999999,-0.0020651999999998,0,sub_23
0.0072729999999997,0.0043570000000012,-0.0097295999999998,-0.0004505999999996,-0.001743599999999,-0.0037785999999998,0,sub_23
0.0055683999999997,0.0050508000000012,-0.0099221999999999,-0.0006715999999996,-0.003234799999999,-0.0035645999999998,0,sub_23
0.0044853999999997,0.0057648000000012,-0.0109569999999999,-0.0006851999999996,-0.004307599999999,-0.0016405999999998,0,sub_23
0.0034205999999997,0.0062980000000012,-0.0117463999999999,-0.0013397999999996,-0.004530599999999,0.0013460000000001,0,sub_23
0.0026291999999997,0.0061340000000012,-0.0120539999999999,-0.0015599999999995,-0.004754599999999,0.0036884,0,sub_23
0.0021917999999997,0.0058346000000011,-0.0121645999999999,-0.0013459999999995,-0.004336599999999,0.0049648,0,sub_23
0.0023907999999997,0.0051320000000011,-0.0114435999999999,-0.0011241999999995,-0.003487399999999,0.004959,0,sub_23
0.0032031999999997,0.0043786000000012,-0.0114795999999999,-0.0009013999999995,-0.003061599999999,0.0043128,0,sub_23
0.0038741999999997,0.0039292000000012,-0.0115799999999999,0.0001816000000004,-0.002208199999999,0.002604,0,sub_23
0.0048277999999997,0.0038490000000012,-0.0113627999999999,0.0008322000000004,-0.001139999999999,0.0013252,0,sub_23
0.0061343999999997,0.0039838000000012,-0.0118137999999998,0.0010534000000004,-0.000497199999999,0.0002578000000001,0,sub_23
0.0069593999999997,0.0038314000000012,-0.0121901999999998,0.0019164000000004,0.0007818000000009,-0.0005923999999998,0,sub_23
0.0066607999999997,0.0039220000000012,-0.0114321999999998,0.0023576000000004,0.0020632000000009,-0.0016617999999998,0,sub_23
0.0066441999999997,0.0040804000000012,-0.0111431999999998,0.0025758000000004,0.0020636000000009,-0.0018765999999998,0,sub_23
0.0066655999999997,0.0043014000000012,-0.0114773999999998,0.0023664000000004,0.0018526000000009,-0.0020939999999998,0,sub_23
0.0057955999999997,0.0044854000000012,-0.0105317999999999,0.0027950000000004,0.0016376000000009,-0.0018797999999998,0,sub_23
0.0053337999999997,0.0045696000000012,-0.0100257999999998,0.0027932000000004,0.0007840000000009,-0.0014539999999998,0,sub_23
0.0054573999999997,0.0042112000000012,-0.0100863999999998,0.0023628000000004,0.0003580000000009,-0.0010291999999999,0,sub_23
0.0060121999999997,0.0040184000000012,-0.0102637999999998,0.0019372000000004,0.0001484000000009,-0.0014591999999999,0,sub_23
0.0060123999999997,0.0041234000000011,-0.0104297999999998,0.0015134000000004,0.0001528000000009,-0.0021029999999999,0,sub_23
0.0056667999999997,0.0045244000000011,-0.0110601999999998,0.0013020000000004,0.0001556000000009,-0.0025315999999999,0,sub_23
0.0049935999999997,0.0049642000000011,-0.0109631999999999,0.0015140000000004,-0.000909199999999,-0.0023205999999999,0,sub_23
0.0041505999999997,0.0053980000000011,-0.0107775999999999,0.0012962000000004,-0.001975399999999,-0.0014717999999999,0,sub_23
0.0029395999999997,0.0057686000000012,-0.0101777999999999,0.0010774000000004,-0.002405799999999,0.0002308,0,sub_23
0.0024507999999997,0.0056180000000012,-0.0099287999999999,0.0012920000000004,-0.0019829999999991,0.0012944,0,sub_23
0.0028717999999997,0.0049800000000012,-0.0106989999999999,0.0017250000000004,-0.0011323999999991,0.0017178,0,sub_23
0.0034933999999997,0.0046492000000012,-0.0118343999999999,0.0008792000000004,0.0001506000000008,0.0012828,0,sub_23
0.0036031999999997,0.0045434000000012,-0.0117877999999999,0.0010964000000004,0.0001532000000008,0.0004298,0,sub_23
0.0037969999999997,0.0040608000000012,-0.0116387999999999,0.0011034000000004,0.0003708000000008,-0.0002147999999999,0,sub_23
0.0038007999999997,0.0044730000000012,-0.0117179999999999,0.0008904000000004,0.0001588000000009,0.0002078,0,sub_23
0.0040987999999997,0.0050950000000012,-0.0108907999999999,0.0004686000000004,0.0003762000000009,-1.2399999999936767e-05,0,sub_23
0.0044719999999997,0.0049534000000012,-0.0097359999999999,0.0009032000000004,0.0012298000000009,-0.0002273999999999,0,sub_23
0.0048867999999997,0.0048856000000012,-0.0100699999999998,0.0007026000000004,0.0031512000000009,-0.0004481999999999,0,sub_23
0.0049693999999997,0.0057400000000012,-0.0106743999999998,0.0002854000000004,0.0046468000000009,-0.0010939999999999,0,sub_23
0.0049859999999997,0.0060772000000012,-0.0109521999999998,0.0009264000000004,0.0048578000000009,-0.0010897999999999,0,sub_23
0.0041983999999997,0.0059422000000012,-0.0106783999999998,0.0007072000000004,0.0046414000000009,-2.279999999991681e-05,0,sub_23
0.0039749999999997,0.0059172000000012,-0.0107249999999998,0.0004904000000004,0.0042150000000009,0.0010412,0,sub_23
0.0038793999999997,0.0064138000000012,-0.0108519999999998,0.0009118000000004,0.0033602000000009,0.0021102,0,sub_23
0.0043801999999997,0.0060064000000012,-0.0107911999999999,0.0015438000000004,0.0018656000000009,0.0031816,0,sub_23
0.0044061999999997,0.0058604000000012,-0.0105645999999999,0.0017566000000004,0.0010158000000009,0.003181,0,sub_23
0.0052077999999997,0.0054086000000012,-0.0103085999999999,0.0026126000000004,0.0003786000000009,0.0027574,0,sub_23
0.0052561999999997,0.0055246000000012,-0.0104733999999999,0.0034680000000004,0.0008018000000009,0.0027628,0,sub_23
0.0052579999999997,0.0054818000000012,-0.0102635999999999,0.0041090000000004,0.0008006000000009,0.0025536,0,sub_23
