userAcceleration.x,userAcceleration.y,userAcceleration.z,rotationRate.x,rotationRate.y,rotationRate.z,label,subject
0.0133929999999998,0.0078816000000012,0.0089318,-0.0087867999999996,-0.0014651999999991,0.0049372000000001,0,sub_13
0.0123317999999998,0.0053960000000012,0.0120226,-0.0126141999999996,-0.0027275999999991,0.0036294000000001,0,sub_13
0.0123945999999998,0.0044026000000012,0.0143732,-0.0115263999999996,-0.0027269999999991,0.0019270000000001,0,sub_13
0.0132699999999998,0.0034722000000012,0.0170244,-0.0097849999999996,-0.0016557999999991,-0.0016947999999998,0,sub_13
0.0130909999999998,0.0014780000000012,0.0183822,-0.0065345999999996,0.0021824000000008,-0.0059505999999998,0,sub_13
0.0133993999999998,0.0016914000000012,0.017005,-0.0007293999999996,0.0060066000000008,-0.0089067999999998,0,sub_13
0.0144525999999998,0.0024832000000012,0.0151064,0.0033428000000003,0.0079184000000009,-0.0110171999999998,0,sub_13
0.0137663999999998,0.0025608000000012,0.0132104,0.0042070000000003,0.0091980000000008,-0.0120809999999998,0,sub_13
0.0117139999999998,0.0022156000000012,0.0102896,0.0052690000000003,0.0094022000000008,-0.0107919999999998,0,sub_13
0.0110701999999997,0.0029340000000012,0.0086342,0.0065234000000003,0.0068284000000008,-0.0075753999999998,0,sub_13
0.0117011999999997,0.0029422000000012,0.0097016,0.0052304000000003,0.0038328000000008,-0.0058665999999998,0,sub_13
0.0115173999999997,0.0025670000000012,0.0104668,0.0037308000000003,0.0019050000000008,-0.0045879999999998,0,sub_13
0.0127673999999997,0.0038418000000012,0.0115736,0.0035200000000003,0.0006170000000008,-0.0045829999999998,0,sub_13
0.0154897999999998,0.0026314000000012,0.0143516,0.0033190000000003,-0.0012991999999991,-0.0073545999999998,0,sub_13
0.0167639999999998,0.0022396000000012,0.0173178,0.0029140000000003,-0.0021451999999991,-0.0111969999999998,0,sub_13
0.0152963999999998,0.0020760000000012,0.0187596,0.0048496000000003,-0.0004405999999991,-0.0128947999999998,0,sub_13
0.0149849999999998,0.0022116000000012,0.0184384,0.0087008000000003,0.0016772000000008,-0.0130841999999998,0,sub_13
0.0142731999999998,-0.0006477999999987,0.0181226,0.0114756000000003,0.0042148000000008,-0.0107179999999998,0,sub_13
0.0124509999999998,0.0007492000000012,0.0155988,0.0116738000000003,0.0063026000000008,-0.0045173999999998,0,sub_13
0.0112387999999998,0.0014086000000012,0.0123306,0.0107994000000003,0.0075400000000008,0.0021040000000001,0,sub_13
0.0110171999999998,0.0010580000000012,0.0100534,0.0069294000000003,0.0068704000000008,0.0087070000000001,0,sub_13
0.0107949999999998,0.0006294000000012,0.0092432,0.0009228000000003,0.0057814000000008,0.0155092000000001,0,sub_13
0.0100899999999998,0.0014308000000012,0.0087122,-0.0055077999999996,0.0034230000000008,0.0203872000000001,0,sub_13
0.0090695999999998,0.0022288000000012,0.0093906,-0.0102191999999996,0.0021508000000008,0.0229196000000001,0,sub_13
0.0089463999999998,0.0029576000000012,0.0101416,-0.0129977999999996,0.0023684000000008,0.0241818000000001,0,sub_13
0.0107239999999998,0.0046082000000012,0.010319,-0.0138575999999996,0.0015124000000008,0.0235472000000001,0,sub_13
0.0117211999999998,0.0056712000000012,0.011406,-0.0138609999999996,-0.0016781999999991,0.0199306000000001,0,sub_13
0.0121621999999998,0.0072674000000012,0.012734,-0.0127897999999996,-0.0031679999999991,0.0163194000000001,0,sub_13
0.0123343999999998,0.0074634000000012,0.013717,-0.0100039999999996,-0.0031715999999991,0.0125046000000001,0,sub_13
0.0124279999999998,0.0074638000000012,0.0139272,-0.0068017999999996,-0.0038225999999991,0.0104026000000001,0,sub_13
0.0120213999999998,0.0061080000000012,0.0141404,-0.0040211999999996,-0.0040383999999991,0.0087132000000001,0,sub_13
0.0128905999999998,0.0053512000000012,0.0137368,-0.0014539999999996,-0.004253599999999,0.0070222000000001,0,sub_13
0.0130771999999998,0.0044066000000012,0.014507,0.0006894000000003,-0.005101399999999,0.0040472000000001,0,sub_13
0.0141281999999998,0.0040956000000012,0.015422,0.0019822000000003,-0.006367999999999,-1.399999999839724e-06,0,sub_13
0.0152233999999998,0.0039906000000012,0.0164228,0.0024426000000003,-0.006351399999999,-0.0066157999999998,0,sub_13
0.0151595999999998,0.0046454000000012,0.0168054,0.0039748000000003,-0.005485599999999,-0.0134375999999998,0,sub_13
0.0147643999999998,0.0045028000000012,0.0170656,0.0067814000000003,-0.0039925999999991,-0.0183283999999998,0,sub_13
0.0153663999999998,0.0036166000000012,0.0163112,0.0082952000000003,-0.002718399999999,-0.0206641999999998,0,sub_13
0.0156923999999998,0.0036276000000012,0.0152342,0.0091574000000003,-0.001239999999999,-0.0202273999999998,0,sub_13
0.0157105999999997,0.0034396000000012,0.0151254,0.0089382000000003,0.0002410000000009,-0.0174533999999998,0,sub_13
0.0145865999999998,0.0021908000000012,0.0151546,0.0065814000000003,0.0021506000000009,-0.0134129999999998,0,sub_13
0.0123115999999998,0.0009930000000012,0.0138278,0.0029436000000003,0.0044882000000009,-0.0087411999999998,0,sub_13
0.0108985999999998,0.0001554000000012,0.0125776,0.0014392000000003,0.0063780000000008,-0.0044617999999998,0,sub_13
0.0101419999999998,-0.0013903999999987,0.0121554,0.0014294000000003,0.0074146000000008,-0.0012391999999998,0,sub_13
0.0094899999999998,-0.0024905999999987,0.0109244,0.0014168000000003,0.0080244000000008,0.0021976000000001,0,sub_13
0.0095009999999998,-0.0020995999999987,0.0102956,0.0016214000000003,0.0086368000000008,0.0047814000000001,0,sub_13
0.0102477999999998,-0.0002403999999987,0.0106834,0.0014048000000003,0.0094680000000008,0.0062938000000001,0,sub_13
0.0113401999999998,0.0010046000000012,0.0113142,0.0005542000000003,0.0098980000000008,0.0060738000000001,0,sub_13
0.0121629999999998,0.0020470000000012,0.0116556,-0.0011565999999996,0.0088396000000009,0.0058496000000001,0,sub_13
0.0124445999999998,0.0047966000000012,0.012527,-0.0007555999999996,0.0062662000000008,0.0058834000000001,0,sub_13
0.0142457999999998,0.0083682000000012,0.0125438,0.0007142000000003,0.0022054000000008,0.0040040000000001,0,sub_13
0.0153355999999998,0.0086052000000012,0.0131726,0.0011220000000003,-0.0018473999999991,0.0010488000000001,0,sub_13
0.0141279999999998,0.0087192000000012,0.013704,0.0010992000000003,-0.0052653999999991,-0.0004147999999998,0,sub_13
0.0131055999999998,0.0084654000000012,0.0129948,0.0015108000000003,-0.0063439999999991,-0.0012371999999998,0,sub_13
0.0126291999999998,0.0041216000000012,0.0124572,0.0004526000000003,-0.0065447999999991,-0.0033805999999998,0,sub_13
0.0110645999999998,6.960000000127815e-05,0.013625,-0.0006093999999996,-0.0052635999999991,-0.0031761999999998,0,sub_13
0.0099695999999998,-0.0010829999999987,0.0143504,3.560000000034013e-05,-0.0031395999999991,-0.0021061999999998,0,sub_13
0.0100139999999998,-0.0019869999999987,0.0147348,-0.0001701999999996,-0.0003733999999991,-0.0010429999999998,0,sub_13
0.0099801999999998,-0.0016465999999987,0.0154454,-0.0014363999999996,0.0036562000000008,0.0006360000000001,0,sub_13
0.0096519999999998,0.0015052000000012,0.0155684,-0.0007707999999996,0.0102358000000009,0.0023252000000001,0,sub_13
0.0110519999999998,0.0037514000000012,0.0144398,-0.0001091999999996,0.0151144000000008,0.0031622000000001,0,sub_13
0.0117793999999998,0.0059806000000012,0.013109,-0.0005277999999996,0.0170140000000009,0.0039954000000001,0,sub_13
0.0127131999999998,0.0083902000000012,0.012111,-0.0011633999999996,0.0174254000000009,0.0041882000000001,0,sub_13
0.0132783999999998,0.0097366000000012,0.0116168,-0.0013777999999996,0.0161522000000008,0.0031202000000001,0,sub_13
0.0143943999999998,0.0089786000000012,0.0104206,-0.0035249999999996,0.0116916000000008,0.0016154000000001,0,sub_13
0.0139875999999998,0.0067392000000012,0.010604,-0.0050433999999996,0.0042476000000008,-0.0003083999999998,0,sub_13
0.0128717999999998,0.0047550000000012,0.0108292,-0.0063369999999996,-0.0023449999999991,-0.0024647999999998,0,sub_13
0.0119583999999998,0.0023218000000012,0.0100832,-0.0061341999999996,-0.007879199999999,-0.0041847999999998,0,sub_13
0.0119051999999997,0.0006252000000012,0.010337,-0.0057245999999996,-0.014693199999999,-0.0056879999999998,0,sub_13
0.0125583999999997,0.0001702000000012,0.0118576,-0.0057445999999996,-0.021083999999999,-0.0061263999999998,0,sub_13
0.0124045999999997,0.0011592000000012,0.013144,-0.0072515999999996,-0.024704999999999,-0.0052969999999998,0,sub_13
0.0135215999999997,0.0017458000000012,0.0146414,-0.0087575999999996,-0.025771799999999,-0.0035969999999998,0,sub_13
0.0137729999999997,0.0030516000000012,0.0165866,-0.0100405999999996,-0.024496599999999,-0.0016847999999998,0,sub_13
0.0128879999999997,0.0034966000000012,0.0169708,-0.0113199999999996,-0.0202435999999991,0.0008760000000001,0,sub_13
0.0116969999999997,0.0032998000000012,0.0164244,-0.0117401999999996,-0.0149271999999991,0.0032278000000001,0,sub_13
0.0111715999999998,0.0020684000000012,0.014891,-0.0102275999999996,-0.0072721999999991,0.0051628000000001,0,sub_13
0.0104549999999998,0.0009064000000012,0.0141074,-0.0078661999999996,-0.0004733999999991,0.0073186000000001,0,sub_13
0.0108233999999998,-7.679999999874189e-05,0.0132872,-0.0065793999999996,0.0042004000000008,0.0090422000000001,0,sub_13
0.0119219999999998,-0.0007803999999987,0.0131868,-0.0061487999999996,0.0063244000000008,0.0103242000000001,0,sub_13
0.0121195999999998,-0.0002327999999987,0.013663,-0.0063611999999996,0.0078114000000008,0.0116026000000001,0,sub_13
0.0123815999999998,0.0018778000000012,0.0147128,-0.0078565999999996,0.0082392000000008,0.0124462000000001,0,sub_13
0.0131059999999998,0.0038908000000012,0.0143894,-0.0095607999999996,0.0082478000000008,0.0117934000000001,0,sub_13
0.0127795999999998,0.0046212000000012,0.0136752,-0.0110585999999996,0.0069676000000008,0.0100762000000001,0,sub_13
0.0116513999999998,0.0062218000000012,0.0124256,-0.0114875999999996,0.0058976000000008,0.0081526000000001,0,sub_13
0.0105055999999998,0.0070044000000012,0.0110536,-0.0112813999999996,0.0039724000000008,0.0064482000000001,0,sub_13
0.0098739999999998,0.0068200000000012,0.0095154,-0.0110771999999996,0.0016212000000008,0.0047442000000001,0,sub_13
0.0108941999999998,0.0064730000000012,0.00917,-0.0100231999999996,-0.0017975999999991,0.0028338000000001,0,sub_13
0.0128331999999998,0.0063618000000012,0.0096664,-0.0076799999999996,-0.005416599999999,7.740000000016032e-05,0,sub_13
0.0152711999999998,0.0047790000000012,0.0117012,-0.0053309999999996,-0.009030399999999,-0.0039607999999998,0,sub_13
0.0152235999999998,0.0026746000000012,0.0147678,-0.0025507999999996,-0.010525199999999,-0.0077835999999998,0,sub_13
0.0143409999999998,0.0006916000000012,0.0176292,0.0013000000000003,-0.009261599999999,-0.0096795999999998,0,sub_13
0.0122761999999998,-0.0012877999999987,0.0191902,0.0047260000000003,-0.005448399999999,-0.0094453999999998,0,sub_13
0.0103901999999998,-0.0021143999999987,0.018844,0.0064402000000003,0.0004886000000009,-0.0060211999999997,0,sub_13
0.0083901999999998,-0.0015463999999987,0.0173086,0.0068616000000003,0.0066312000000009,0.0003848000000002,0,sub_13
0.0088943999999998,3.9400000001278e-05,0.014438,0.0051460000000003,0.0110858000000008,0.0067764000000001,0,sub_13
0.0096767999999998,0.0021160000000012,0.0105876,0.0006490000000003,0.0121480000000008,0.0114438000000001,0,sub_13
0.0100317999999998,0.0046264000000012,0.0075302,-0.0049235999999996,0.0100234000000008,0.0148260000000001,0,sub_13
0.0096283999999998,0.0060514000000012,0.0066018,-0.0098617999999996,0.0055570000000008,0.0171474000000001,0,sub_13
0.0104609999999998,0.0069234000000012,0.0066034,-0.0135173999999996,-0.0008455999999991,0.0177706000000001,0,sub_13
0.0109051999999998,0.0070132000000012,0.007419,-0.0165319999999996,-0.0085227999999991,0.0169044000000001,0,sub_13
0.0114849999999998,0.0056768000000012,0.0091944,-0.0174157999999996,-0.016846599999999,0.0160538000000001,0,sub_13
0.0110453999999998,0.0032206000000012,0.0121942,-0.0170049999999996,-0.021342599999999,0.0158482000000001,0,sub_13
0.0111501999999998,0.0028976000000012,0.014486,-0.0144451999999996,-0.022861399999999,0.0152266000000001,0,sub_13
0.0115801999999998,0.0017234000000012,0.0157624,-0.0116531999999996,-0.021157399999999,0.0128938000000001,0,sub_13
0.0123115999999998,0.0004030000000012,0.0167342,-0.0080037999999996,-0.0175429999999991,0.0116328000000001,0,sub_13
0.0116343999999998,0.0011714000000012,0.0171636,-0.0043485999999996,-0.012438199999999,0.0105836000000001,0,sub_13
0.0123757999999998,0.0035782000000012,0.0159274,-0.0006701999999996,-0.007733999999999,0.0084690000000001,0,sub_13
0.0130775999999998,0.0041966000000012,0.014647,0.0010812000000003,-0.005363399999999,0.0054894000000001,0,sub_13
0.0120013999999998,0.0049294000000012,0.0135156,0.0017522000000003,-0.004698399999999,0.0037862000000001,0,sub_13
0.0106179999999998,0.0067558000000012,0.0129174,0.0028442000000003,-0.005101199999999,0.0023010000000001,0,sub_13
0.0107885999999998,0.0078318000000012,0.0140918,0.0039476000000003,-0.0040081999999991,-0.0002541999999998,0,sub_13
0.0114029999999998,0.0074484000000012,0.0172352,0.0048338000000003,-0.0035577999999991,-0.0070851999999998,0,sub_13
0.0113251999999998,0.0073588000000012,0.0191794,0.0091770000000003,0.0022240000000008,-0.0181717999999998,0,sub_13
0.0097537999999997,0.0060186000000012,0.0167644,0.0152502000000003,0.0116276000000008,-0.0307463999999998,0,sub_13
0.0123789999999997,0.0035164000000012,0.0130246,0.0207032000000003,0.0254864000000008,-0.0360863999999998,0,sub_13
0.0135317999999997,-0.0016997999999987,0.0093868,0.0256634000000003,0.0380146000000008,-0.0279685999999998,0,sub_13
0.0144663999999998,-0.0069719999999987,0.003405,0.0290570000000003,0.0453906000000008,-0.0087453999999998,0,sub_13
0.0134059999999998,-0.0082611999999987,0.0028532,0.0248916000000003,0.0387066000000008,0.0166386000000001,0,sub_13
0.0118853999999998,-0.0068895999999987,0.0089336,0.0168424000000003,0.0230852000000009,0.0426478000000001,0,sub_13
0.0087555999999998,-0.0028481999999987,0.0136834,0.0122236000000003,0.0060022000000009,0.0563106000000001,0,sub_13
0.0109893999999998,0.0020578000000012,0.0161696,0.0106802000000003,-0.010376199999999,0.0509798000000001,0,sub_13
0.0125555999999998,0.0059440000000012,0.018486,0.0081946000000003,-0.019444599999999,0.0325892000000001,0,sub_13
0.0112503999999998,0.0063054000000012,0.016684,0.0066324000000003,-0.0161461999999991,0.0109846000000001,0,sub_13
0.0123619999999997,0.0074414000000012,0.0140806,0.0095702000000003,-0.0071169999999991,-0.0091003999999998,0,sub_13
0.0138785999999998,0.0063404000000012,0.0128654,0.0096958000000003,-0.0008707999999991,-0.0234329999999998,0,sub_13
0.0124235999999998,0.0086400000000012,0.0120872,0.0078590000000003,0.0021616000000008,-0.0315795999999998,0,sub_13
0.0104453999999997,0.0125674000000012,0.01151,0.0074342000000003,0.0002550000000008,-0.0339301999999998,0,sub_13
0.0131339999999997,0.0138528000000012,0.011173,0.0106146000000003,-0.0029569999999991,-0.0326219999999998,0,sub_13
0.0154663999999998,0.0110696000000012,0.0092838,0.0122938000000003,-0.0036241999999991,-0.0270545999999998,0,sub_13
0.0150027999999998,0.0059106000000012,0.0088464,0.0124584000000003,-0.0051537999999991,-0.0176511999999998,0,sub_13
0.0131103999999998,-0.0023079999999987,0.0107236,0.0098814000000003,-0.004334199999999,-0.0065865999999998,0,sub_13
0.0107275999999998,-0.0083331999999987,0.0145048,0.0083820000000003,-0.000538199999999,0.0051228000000001,0,sub_13
0.0092259999999998,-0.0120609999999987,0.017763,0.0062540000000003,0.0045434000000009,0.0155442000000001,0,sub_13
0.0080019999999998,-0.0125197999999987,0.0207044,0.0017942000000003,0.0092226000000009,0.0221042000000001,0,sub_13
0.0099749999999998,-0.0054935999999987,0.018094,-0.0041343999999996,0.0132926000000009,0.0224592000000001,0,sub_13
0.0124713999999998,0.0016004000000012,0.0135922,-0.0102913999999995,0.0152512000000008,0.0175000000000001,0,sub_13
0.0149937999999998,0.0062330000000012,0.0089764,-0.0156075999999996,0.0138006000000008,0.0119098000000001,0,sub_13
0.0159039999999998,0.0129942000000012,0.005733,-0.0174897999999996,0.0076842000000008,0.0058788000000001,0,sub_13
0.0168679999999998,0.0189586000000012,0.003198,-0.0161695999999996,-0.0014125999999991,-0.0035441999999998,0,sub_13
0.0177743999999998,0.0167838000000012,0.006449,-0.0129241999999996,-0.0113607999999991,-0.0148755999999998,0,sub_13
0.0143087999999998,0.0118832000000012,0.010615,-0.0075605999999996,-0.0196321999999991,-0.0210667999999998,0,sub_13
0.0109511999999998,0.0068592000000012,0.0135894,-0.0024111999999996,-0.0234475999999991,-0.0225649999999998,0,sub_13
0.0098393999999998,-0.0026083999999987,0.0152146,-6.419999999963903e-05,-0.0213337999999991,-0.0204147999999998,0,sub_13
0.0101071999999998,-0.0129575999999987,0.0176448,0.0016380000000003,-0.0162511999999991,-0.0142137999999998,0,sub_13
0.0053919999999998,-0.0168743999999987,0.0197162,0.0031238000000003,-0.0073507999999991,-0.0035325999999998,0,sub_13
0.0043875999999998,-0.0134231999999987,0.0188158,0.0031478000000003,0.0049794000000008,0.0043486000000001,0,sub_13
0.0060375999999998,-0.0082079999999987,0.0170004,0.0031880000000003,0.0147776000000008,0.0060376000000001,0,sub_13
0.0081907999999998,0.0003076000000012,0.015229,0.0027890000000003,0.0165026000000008,0.0023928000000001,0,sub_13
0.0089935999999998,0.0117856000000012,0.0114828,0.0017402000000003,0.0131284000000008,-0.0042409999999998,0,sub_13
0.0115337999999998,0.0195628000000012,0.007458,0.0019670000000003,0.0063506000000008,-0.0132115999999998,0,sub_13
0.0135633999999998,0.0214968000000012,0.0073616,0.0040882000000003,-0.0023681999999991,-0.0191675999999998,0,sub_13
0.0166665999999998,0.0241886000000012,0.0075162,0.0072678000000003,-0.0110981999999991,-0.0231933999999998,0,sub_13
0.0170479999999998,0.0190192000000012,0.0096746,0.0089632000000003,-0.0166315999999991,-0.0261655999999998,0,sub_13
0.0159045999999998,0.0105418000000012,0.0128248,0.0095756000000003,-0.020902399999999,-0.0242329999999998,0,sub_13
0.0139165999999998,0.0008922000000012,0.0147724,0.0105948000000003,-0.019452599999999,-0.0187143999999997,0,sub_13
0.0130605999999998,-0.0084427999999987,0.014813,0.0107758000000003,-0.014803199999999,-0.0134193999999998,0,sub_13
0.0091073999999998,-0.0201147999999987,0.0163354,0.0077600000000003,-0.007380599999999,-0.0062273999999998,0,sub_13
0.0066135999999998,-0.0208555999999987,0.015741,0.0055996000000003,0.0038604000000009,0.0043840000000002,0,sub_13
0.0073887999999998,-0.0174235999999987,0.0142,0.0047462000000003,0.0170304000000008,0.0109426000000001,0,sub_13
0.0088243999999998,-0.0119071999999987,0.013651,0.0005026000000003,0.0259790000000008,0.0145334000000001,0,sub_13
0.0108557999999998,-0.0014689999999987,0.0124756,-0.0035553999999996,0.0285362000000008,0.0179200000000001,0,sub_13
0.0142595999999998,0.0095362000000012,0.0107076,-0.0057025999999996,0.0266218000000008,0.0189756000000001,0,sub_13
0.0170765999999998,0.0160872000000012,0.0093916,-0.0072537999999996,0.0198170000000008,0.0157758000000001,0,sub_13
0.0163783999999998,0.0195308000000012,0.0087558,-0.0081715999999996,0.0106698000000008,0.0117290000000001,0,sub_13
0.0162527999999998,0.0201684000000012,0.0083832,-0.0056801999999996,0.0008698000000008,0.0081340000000001,0,sub_13
0.0152771999999998,0.0146902000000012,0.0089846,-0.0027543999999996,-0.0078637999999991,0.0038998000000001,0,sub_13
0.0115131999999998,0.0081668000000012,0.0099146,-0.0021719999999996,-0.014888199999999,0.0005016000000001,0,sub_13
0.0082291999999998,0.0015166000000012,0.0114272,-0.0019681999999996,-0.0180803999999991,-0.0005609999999998,0,sub_13
0.0070599999999998,-0.0038871999999987,0.0132292,-0.0017557999999996,-0.0170209999999991,0.0007210000000001,0,sub_13
0.0067479999999998,-0.0062731999999987,0.015015,-0.0026067999999996,-0.0129837999999991,0.0009152000000001,0,sub_13
0.0069341999999998,-0.0051749999999987,0.0160414,-0.0032319999999996,-0.0068141999999991,0.0004672000000001,0,sub_13
0.0087573999999997,-0.0015239999999987,0.0159658,-0.0021481999999996,-0.0004365999999991,-0.0001827999999998,0,sub_13
0.0113943999999998,0.0029046000000012,0.014678,-0.0010739999999996,0.0031738000000008,-0.0014703999999998,0,sub_13
0.0139245999999998,0.0066594000000012,0.0133032,-0.0017153999999996,0.0040240000000008,-0.0036209999999998,0,sub_13
0.0151773999999998,0.0089922000000012,0.0121412,-0.0015049999999996,0.0025354000000008,-0.0044721999999998,0,sub_13
0.0154395999999998,0.0104182000000012,0.0119578,-0.0010877999999996,0.0001912000000009,-0.0046797999999998,0,sub_13
0.0156345999999998,0.0088904000000012,0.0120808,0.0004000000000003,-0.000880199999999,-0.0044543999999998,0,sub_13
0.0150923999999998,0.0069462000000012,0.0127968,0.0027462000000003,-0.001313799999999,-0.0046509999999998,0,sub_13
0.0147421999999998,0.0030144000000012,0.0143488,0.0057254000000003,-0.001957799999999,-0.0050431999999998,0,sub_13
0.0135507999999997,6.080000000129749e-05,0.015168,0.0078570000000003,-0.001108399999999,-0.0052297999999998,0,sub_13
0.0124257999999997,-0.0021473999999987,0.0157012,0.0093570000000003,0.0003874000000008,-0.0067033999999998,0,sub_13
0.0118715999999998,-0.0020987999999987,0.0154484,0.0100056000000003,0.0021002000000008,-0.0083967999999998,0,sub_13
0.0108757999999998,-0.0020713999999987,0.0144484,0.0100140000000003,0.0055130000000008,-0.0083877999999998,0,sub_13
0.0094459999999998,-0.0001711999999987,0.0116342,0.0093816000000003,0.0091294000000008,-0.0064739999999998,0,sub_13
0.0094855999999998,0.0018010000000012,0.0089916,0.0074546000000003,0.0093422000000008,-0.0047785999999998,0,sub_13
0.0097903999999997,0.0030048000000012,0.0073658,0.0052980000000003,0.0074194000000008,-0.0015865999999998,0,sub_13
0.0093037999999997,0.0045046000000012,0.0069384,0.0044138000000003,0.0037878000000008,0.0016166000000001,0,sub_13
0.0094899999999997,0.0054090000000012,0.0065958,0.0035128000000003,-0.0011005999999991,0.0033672000000001,0,sub_13
0.0099311999999997,0.0054796000000012,0.0072302,0.0017622000000003,-0.0059825999999991,0.0042572000000001,0,sub_13
0.0109111999999997,0.0048648000000012,0.0087218,-0.0006207999999995,-0.0080967999999991,0.0062076000000001,0,sub_13
0.0115587999999998,0.0049998000000012,0.0094674,-0.0025713999999996,-0.0089341999999991,0.0081594000000001,0,sub_13
0.0117393999999997,0.0030584000000012,0.0096986,-0.0066479999999996,-0.0091207999999991,0.0090272000000001,0,sub_13
0.0123945999999998,0.0011116000000012,0.0111604,-0.0102781999999996,-0.0091107999999991,0.0096428000000001,0,sub_13
0.0131567999999998,-0.0002627999999987,0.0133458,-0.0117849999999996,-0.0086963999999991,0.0102838000000001,0,sub_13
0.0133987999999998,-0.0007583999999987,0.015121,-0.0113601999999996,-0.0063687999999991,0.0102950000000001,0,sub_13
0.0142077999999998,-0.0002955999999987,0.0162576,-0.0113475999999996,-0.0016927999999991,0.0094456000000001,0,sub_13
0.0154789999999998,0.0008840000000012,0.0168528,-0.0109149999999996,0.0017026000000008,0.0088144000000001,0,sub_13
0.0161779999999998,0.0030618000000012,0.0169172,-0.0102805999999996,0.0023286000000008,0.0079746000000001,0,sub_13
0.0162101999999998,0.0050516000000012,0.0171184,-0.0085611999999996,0.0023336000000008,0.0052092000000001,0,sub_13
0.0162121999999998,0.0064752000000012,0.0173924,-0.0055605999999996,1.000000000898546e-06,-0.0001079999999998,0,sub_13
