userAcceleration.x,userAcceleration.y,userAcceleration.z,rotationRate.x,rotationRate.y,rotationRate.z,label,subject
0.0041725999999998,0.0250142000000012,0.0068752,0.0153392000000003,-0.003273199999999,-0.0161205999999998,0,sub_12
0.0040379999999998,0.0240366000000012,0.0070646,0.0131900000000003,-0.002642799999999,-0.0120771999999998,0,sub_12
0.0034497999999998,0.0229796000000012,0.0064368,0.0121078000000003,-0.003079199999999,-0.0080119999999998,0,sub_12
0.0027917999999997,0.0224066000000012,0.006017,0.0123078000000003,-0.003518399999999,-0.0043651999999998,0,sub_12
0.0019953999999997,0.0219836000000012,0.004724,0.0118754000000003,-0.003311999999999,-0.0017919999999998,0,sub_12
0.0005579999999997,0.0214056000000012,0.003459,0.0120888000000003,-0.002890599999999,-0.0002825999999998,0,sub_12
0.0002511999999998,0.0218594000000012,0.0022778,0.0123042000000003,-0.002891799999999,0.0003728000000001,0,sub_12
0.0003295999999998,0.0219010000000012,0.001498,0.0118774000000003,-0.002678199999999,0.0005832000000001,0,sub_12
8.699999999984741e-05,0.0217018000000012,0.0004958,0.0103818000000003,-0.002674599999999,0.0010000000000001,0,sub_12
-0.0003028000000001,0.0216144000000012,0.0007408,0.0080338000000003,-0.002242999999999,0.0016240000000001,0,sub_12
-8.800000000015259e-05,0.0215098000000012,0.0007102,0.0037630000000003,-0.002019199999999,0.0030982000000001,0,sub_12
0.0002019999999998,0.0215114000000012,0.0014162,-0.0011449999999996,-0.000517599999999,0.0052072000000001,0,sub_12
0.0004239999999998,0.0229174000000012,0.0024382,-0.0060537999999996,0.0007712000000009,0.0073166000000001,0,sub_12
0.0015125999999998,0.0237238000000012,0.0033662,-0.0094671999999996,0.0018440000000009,0.0087958000000001,0,sub_12
0.0026365999999998,0.0247904000000012,0.0043494,-0.0116023999999996,0.0016376000000009,0.0094310000000001,0,sub_12
0.0042065999999997,0.0260454000000012,0.0052174,-0.0120337999999996,0.0009982000000009,0.0098562000000001,0,sub_12
0.0062641999999998,0.0265072000000012,0.0065522,-0.0120403999999996,-0.000280799999999,0.0100714000000001,0,sub_12
0.0079371999999998,0.0263664000000012,0.0074258,-0.0124747999999996,-0.001347199999999,0.0107106000000001,0,sub_12
0.0078461999999998,0.0258548000000012,0.0075714,-0.0141913999999996,-0.001986199999999,0.0121950000000001,0,sub_12
0.0065371999999998,0.0246766000000012,0.0072958,-0.0154755999999996,-0.001775799999999,0.0136874000000001,0,sub_12
0.0040671999999998,0.0233216000000012,0.0062762,-0.0159063999999996,-0.001780599999999,0.0149724000000001,0,sub_12
0.0001413999999998,0.0221232000000012,0.0046304,-0.0148405999999996,-0.001787999999999,0.0156270000000001,0,sub_12
-0.0027048000000001,0.0212592000000012,0.0020454,-0.0116383999999996,-0.002436799999999,0.0150154000000001,0,sub_12
-0.0045216000000001,0.0205154000000012,0.0002204,-0.0077909999999996,-0.003295999999999,0.0131268000000001,0,sub_12
-0.0043080000000001,0.0202156000000012,-0.0008545999999999,-0.0050065999999996,-0.003508399999999,0.0105828000000001,0,sub_12
-0.0041308000000001,0.0198922000000012,-0.0007497999999999,-0.0037003999999996,-0.001155599999999,0.0071706000000001,0,sub_12
-0.0023908000000001,0.0201038000000012,-0.0006005999999999,-0.0045337999999996,0.0005628000000009,0.0043852000000001,0,sub_12
-0.0013708000000001,0.0197720000000012,6.920000000004735e-05,-0.0081789999999996,0.0029276000000009,0.0035306000000001,0,sub_12
-0.0010460000000001,0.0200416000000012,0.0007788,-0.0137465999999996,0.0061464000000009,0.0039432000000001,0,sub_12
-0.0009170000000001,0.0210636000000012,0.0020986,-0.0182539999999996,0.0082944000000009,0.0047918000000001,0,sub_12
0.0014059999999998,0.0229592000000012,0.003449,-0.0199953999999996,0.0074552000000009,0.0043818000000001,0,sub_12
0.0032533999999998,0.0243892000000012,0.0049714,-0.0168117999999996,0.0076752000000009,0.0012274000000001,0,sub_12
0.0058691999999998,0.0255860000000012,0.006382,-0.0080415999999996,0.0078764000000009,-0.0034117999999998,0,sub_12
0.0087543999999998,0.0250404000000012,0.007668,0.0028624000000003,0.0080702000000009,-0.0080361999999998,0,sub_12
0.0108225999999998,0.0244736000000012,0.0076248,0.0103382000000003,0.0078388000000008,-0.0099063999999998,0,sub_12
0.0075203999999998,0.0228782000000012,0.0061688,0.0128320000000003,0.0086818000000008,-0.0072781999999998,0,sub_12
0.0032973999999998,0.0211982000000012,0.0038528,0.0097608000000003,0.0080434000000008,-0.0023365999999998,0,sub_12
-0.0019936000000001,0.0206412000000012,0.0022528,0.0013458000000003,0.0057178000000008,0.0029968000000001,0,sub_12
-0.0076048000000001,0.0225086000000012,0.0001506,-0.0070701999999996,0.0019058000000009,0.0070504000000001,0,sub_12
-0.0127092000000001,0.0231556000000012,-0.0010915999999999,-0.0111985999999996,-0.000205599999999,0.0083544000000001,0,sub_12
-0.0123578000000001,0.0232328000000012,-0.0018595999999999,-0.0094963999999996,-0.003186599999999,0.0064474000000001,0,sub_12
-0.0090184000000001,0.0223026000000012,-0.0016523999999999,-0.0030895999999996,-0.005962399999999,0.0024364000000001,0,sub_12
-0.0039682000000001,0.0208342000000012,-0.0009421999999999,0.0084566000000003,-0.007042399999999,-0.0038907999999998,0,sub_12
0.0010181999999998,0.0177162000000012,0.0004898,0.0231632000000003,-0.007261999999999,-0.0123051999999998,0,sub_12
0.0039547999999998,0.0167676000000012,0.0010752,0.0404398000000003,-0.006845599999999,-0.0221979999999998,0,sub_12
0.0037617999999998,0.0170748000000012,0.0013622,0.0572850000000003,-0.007280599999999,-0.0318789999999998,0,sub_12
-0.0016542000000001,0.0190188000000012,-0.0002231999999999,0.0719812000000003,-0.008358399999999,-0.0387969999999998,0,sub_12
-0.0087846000000001,0.0204692000000012,-0.0047919999999999,0.0857892000000003,-0.016042199999999,-0.0446443999999998,0,sub_12
-0.0164270000000001,0.0204498000000012,-0.0074749999999999,0.0979486000000003,-0.025424199999999,-0.0533067999999998,0,sub_12
-0.0179470000000001,0.0204708000000012,-0.0065429999999999,0.1126904000000003,-0.035856399999999,-0.0679319999999998,0,sub_12
-0.0105876000000001,0.0239084000000012,-0.0029733999999999,0.1295936000000003,-0.039038599999999,-0.0838381999999998,0,sub_12
0.0015665999999998,0.0284468000000012,0.0033978,0.1441228000000003,-0.046692599999999,-0.0982595999999998,0,sub_12
0.0180759999999998,0.0337160000000012,0.012403,0.1447904000000003,-0.043044599999999,-0.1031783999999998,0,sub_12
0.0315705999999998,0.0338586000000012,0.0207526,0.1198448000000003,-0.025309599999999,-0.0922707999999998,0,sub_12
0.0388469999999998,0.0324158000000012,0.025003,0.0698800000000003,-0.001169999999999,-0.0629589999999998,0,sub_12
0.0345413999999998,0.0280442000000012,0.023741,0.0051572000000003,0.0197886000000009,-0.0266911999999998,0,sub_12
0.0267805999999998,0.0226588000000012,0.018783,-0.0601845999999996,0.0456486000000009,0.0097798000000001,0,sub_12
0.0099287999999998,0.0176360000000012,0.0102304,-0.1133679999999995,0.0636114000000009,0.0392956000000001,0,sub_12
-0.0048896000000001,0.0194496000000012,-0.0002379999999999,-0.1400971999999996,0.0668286000000008,0.0585214000000001,0,sub_12
-0.0182504000000001,0.0202740000000012,-0.0094247999999999,-0.1429181999999996,0.0604228000000008,0.0659624000000001,0,sub_12
-0.0237938000000001,0.0202160000000012,-0.0142103999999999,-0.1290903999999995,0.0480222000000008,0.0662636000000001,0,sub_12
-0.0254938000000001,0.0187278000000012,-0.0143459999999999,-0.1058501999999995,0.0339126000000008,0.0595822000000001,0,sub_12
-0.0200216000000001,0.0173288000000012,-0.0106863999999999,-0.0774409999999996,0.0236472000000009,0.0460954000000001,0,sub_12
-0.0113550000000001,0.0169138000000012,-0.0052671999999999,-0.0503053999999996,0.0163710000000009,0.0306982000000001,0,sub_12
-0.0020364000000001,0.0180668000000012,0.0005394,-0.0291305999999996,0.0135836000000008,0.0167490000000001,0,sub_12
0.0045267999999998,0.0197384000000012,0.0058358,-0.0156305999999996,0.0157098000000008,0.0061584000000001,0,sub_12
0.0088287999999998,0.0233488000000012,0.0085886,-0.0104675999999996,0.0201856000000008,0.0012750000000001,0,sub_12
0.0098063999999998,0.0254064000000012,0.0101912,-0.0117271999999996,0.0214506000000008,0.0027452000000001,0,sub_12
0.0088611999999998,0.0261538000000012,0.0099386,-0.0123687999999996,0.0195106000000008,0.0059330000000001,0,sub_12
0.0069615999999998,0.0262690000000012,0.0080952,-0.0108833999999996,0.0141622000000008,0.0072172000000001,0,sub_12
0.0026373999999998,0.0257432000000012,0.0055192,-0.0081157999999996,0.0069010000000009,0.0061626000000001,0,sub_12
-0.0003518000000001,0.0241054000000012,0.003086,-0.0036285999999996,0.0002816000000009,0.0029828000000001,0,sub_12
-0.0017628000000001,0.0239846000000012,0.0009188,0.0004234000000003,-0.002705199999999,0.0004512000000001,0,sub_12
-0.0017872000000001,0.0227892000000012,0.0003142,0.0032030000000003,-0.002072999999999,-0.0001711999999998,0,sub_12
-0.0008796000000001,0.0210996000000012,-0.0002689999999999,0.0053348000000003,3.920000000093033e-05,0.0015482000000001,0,sub_12
0.0009753999999998,0.0195906000000012,-0.0007659999999999,0.0036278000000003,0.0030154000000009,0.0036668000000001,0,sub_12
0.0004193999999998,0.0189956000000012,-0.0006649999999999,0.0002186000000003,0.0070628000000009,0.0057722000000001,0,sub_12
-0.0004268000000001,0.0179650000000012,-0.0003663999999999,-0.0042533999999996,0.0104808000000009,0.0063754000000001,0,sub_12
-0.0015296000000001,0.0191746000000012,-0.0005021999999999,-0.0083035999999996,0.0113464000000009,0.0054894000000001,0,sub_12
-0.0025382000000001,0.0206382000000012,-0.0001531999999999,-0.0114925999999996,0.0120044000000009,0.0035434000000001,0,sub_12
-0.0026452000000001,0.0215602000000012,0.0008694,-0.0110551999999996,0.0120122000000009,0.0011964000000001,0,sub_12
-0.0008616000000001,0.0219044000000012,0.0021946,-0.0099873999999996,0.0107362000000009,-0.0002899999999998,0,sub_12
0.0013981999999998,0.0224646000000012,0.0038974,-0.0074327999999996,0.0086002000000009,-0.0011239999999998,0,sub_12
0.0030481999999998,0.0225388000000012,0.0035614,-0.0055075999999996,0.0086446000000009,-0.0014087999999998,0,sub_12
0.0045813999999998,0.0222204000000012,0.0039796,-0.0044339999999996,0.0099668000000009,-0.0008463999999998,0,sub_12
0.0053553999999998,0.0214854000000012,0.0041806,-0.0035747999999996,0.0115012000000009,0.0001414000000001,0,sub_12
0.0041207999999998,0.0220746000000012,0.0031718,-0.0022877999999996,0.0132470000000009,0.0011320000000001,0,sub_12
0.0018951999999998,0.0225020000000012,0.0023304,-0.0014283999999996,0.0147812000000009,0.0021198000000001,0,sub_12
0.0001685999999998,0.0230478000000012,0.0023713999999999,-0.0003671999999996,0.0141358000000009,0.0027690000000001,0,sub_12
-0.0013930000000001,0.0231404000000012,0.0019751999999999,-0.0003843999999996,0.0107252000000009,0.0032004000000001,0,sub_12
-0.0020882000000001,0.0239662000000012,0.0013697999999999,-0.0004063999999996,0.0058250000000009,0.0032066000000001,0,sub_12
-0.0023362000000001,0.0221916000000012,0.0008654,0.0009952000000003,0.0004728000000009,0.0024568000000001,0,sub_12
-0.0014942000000001,0.0199702000000012,0.0007784,0.0019718000000003,-0.004663999999999,0.0014902000000001,0,sub_12
9.419999999980505e-05,0.0184804000000012,0.0014672,0.0016740000000003,-0.008093599999999,0.0009398000000001,0,sub_12
0.0017535999999998,0.0183372000000012,0.0018528,0.0013818000000003,-0.009608199999999,0.0010280000000001,0,sub_12
0.0015985999999998,0.0184808000000012,0.0016784,0.0015398000000003,-0.008808999999999,0.0026160000000001,0,sub_12
0.0019059999999998,0.0192708000000012,0.0019758,0.0019888000000003,-0.006920399999999,0.0039028000000001,0,sub_12
0.0011643999999998,0.0189366000000012,0.0007242,0.0026580000000003,-0.005026599999999,0.0036958000000001,0,sub_12
-8.160000000017506e-05,0.0185926000000012,-0.0001527999999999,0.0024728000000003,-0.003979399999999,0.0028428000000001,0,sub_12
-0.0007698000000001,0.0193070000000012,-0.0005395999999999,0.0014400000000003,-0.001863199999999,0.0017688000000001,0,sub_12
-0.0014112000000001,0.0196814000000012,-0.0001709999999999,-0.0002515999999996,-0.000358199999999,-0.0001677999999998,0,sub_12
-0.0020012000000001,0.0204712000000012,0.0003446,-0.0017451999999996,-0.000565199999999,-0.0003915999999998,0,sub_12
-0.0011586000000001,0.0222116000000012,0.001354,-0.0030311999999996,-0.001202399999999,0.0002410000000001,0,sub_12
-0.0004052000000001,0.0239920000000012,0.0021832,-0.0036703999999996,-0.000350599999999,0.0008764000000001,0,sub_12
-0.0009910000000001,0.0238546000000012,0.00343,-0.0032475999999996,-0.001204199999999,0.0008806000000001,0,sub_12
-0.0004380000000001,0.0239728000000012,0.0037988,-0.0019825999999996,-0.003980999999999,0.0015340000000001,0,sub_12
0.0011383999999998,0.0232084000000012,0.0035222,-0.0015701999999996,-0.006753799999999,0.0019678000000001,0,sub_12
0.0018203999999998,0.0222832000000012,0.0039538,-0.0005109999999996,-0.008249799999999,0.0021908000000001,0,sub_12
0.0020531999999998,0.0204372000000012,0.0036902,0.0013998000000003,-0.010386999999999,0.0022070000000001,0,sub_12
0.0022049999999998,0.0190258000000012,0.002207,0.0037680000000003,-0.011468599999999,0.0017930000000001,0,sub_12
0.0022323999999998,0.0164790000000012,0.0013838,0.0040110000000003,-0.010412999999999,0.0015752000000001,0,sub_12
0.0014957999999998,0.0147932000000012,0.0002124,0.0014870000000003,-0.008492999999999,0.0006960000000001,0,sub_12
-0.0007016000000001,0.0150232000000012,-0.0001931999999999,-0.0021047999999996,-0.006569999999999,2.300000000018715e-05,0,sub_12
-0.0025064000000001,0.0163200000000012,-0.0009245999999999,-0.0056977999999996,-0.004435799999999,-0.0002231999999998,0,sub_12
-0.0032788000000001,0.0179144000000012,-0.0006205999999999,-0.0091107999999996,-0.003149799999999,0.0008196000000001,0,sub_12
-0.0020908000000001,0.0210536000000012,8.70000000000681e-05,-0.0101833999999996,-0.003787799999999,0.0014538000000001,0,sub_12
-0.0010750000000001,0.0237852000000012,0.0020816,-0.0086937999999996,-0.004220799999999,0.0018920000000001,0,sub_12
0.0009451999999998,0.0246860000000012,0.0022948,-0.0052807999999996,-0.004445799999999,0.0019162000000001,0,sub_12
0.0018753999999998,0.0243172000000012,0.0033292,-0.0022465999999996,-0.005371999999999,0.0010746000000001,0,sub_12
0.0024497999999998,0.0231068000000012,0.0038228,-0.0002803999999996,-0.006931999999999,-0.0002009999999998,0,sub_12
0.0016439999999998,0.0215632000000012,0.0032998,-0.0004459999999996,-0.007633999999999,-0.0010653999999998,0,sub_12
0.0011549999999998,0.0206072000000012,0.0024098,-0.0023175999999996,-0.007692599999999,-0.0015151999999998,0,sub_12
0.0009497999999998,0.0196728000000012,0.0021938,-0.0046207999999996,-0.008390599999999,-0.0015399999999998,0,sub_12
0.0015189999999998,0.0189514000000012,0.0018304,-0.0065449999999995,-0.008811799999999,-0.0011255999999998,0,sub_12
0.0009033999999998,0.0188150000000012,0.0011704,-0.0080385999999995,-0.008382199999999,-0.0007093999999998,0,sub_12
0.0004739999999998,0.0194184000000012,0.0011812,-0.0082453999999995,-0.006890199999999,-0.0007127999999998,0,sub_12
-0.0012978000000001,0.0189862000000012,0.0007208,-0.0069271999999995,-0.005875599999999,-0.0011445999999998,0,sub_12
-0.0018592000000001,0.0194170000000012,8.5600000000068e-05,-0.0058253999999995,-0.005287199999999,-0.0013635999999998,0,sub_12
-0.0016668000000001,0.0197878000000012,-0.0001617999999999,-0.0053647999999996,-0.004484999999999,-0.0011601999999998,0,sub_12
0.0003305999999997,0.0207152000000012,0.0001436,-0.0055431999999996,-0.003467599999999,-0.0009613999999998,0,sub_12
0.0010797999999997,0.0203086000000012,0.000587,-0.0055005999999996,-0.000958599999999,-0.0009765999999998,0,sub_12
0.0020655999999997,0.0201338000000012,0.0008126,-0.0065607999999996,0.0009610000000009,-0.0005591999999998,0,sub_12
0.0023109999999997,0.0200500000000012,0.0013216,-0.0084773999999996,0.0020322000000009,-0.0003603999999998,0,sub_12
0.0010627999999998,0.0189508000000012,0.0008692,-0.0110329999999996,0.0028942000000009,-0.0005929999999998,0,sub_12
5.359999999982488e-05,0.0182578000000012,-0.0005253999999999,-0.0129285999999996,0.0037288000000009,-0.0008323999999998,0,sub_12
-0.0016706000000001,0.0161938000000012,-0.0011827999999999,-0.0169673999999996,0.0030770000000009,-0.0004437999999998,0,sub_12
-0.0014186000000001,0.0165234000000012,-0.0015607999999998,-0.0212175999999996,0.0034886000000009,0.0005830000000001,0,sub_12
0.0008701999999998,0.0178314000000012,-0.0022965999999998,-0.0252477999999996,0.0060276000000009,0.0022494000000001,0,sub_12
0.0027005999999998,0.0196212000000012,-0.0024107999999998,-0.0284187999999996,0.0094174000000009,0.0034934000000001,0,sub_12
0.0020663999999998,0.0218434000000012,-0.0004745999999999,-0.0309657999999996,0.0126214000000009,0.0036852000000001,0,sub_12
0.0016705999999998,0.0247008000000012,0.0004476,-0.0315943999999996,0.0149680000000009,0.0034642000000001,0,sub_12
0.0005087999999998,0.0259428000000012,0.000897,-0.0315943999999996,0.0145436000000009,0.0030374000000001,0,sub_12
-0.0007720000000001,0.0259244000000012,0.0019196,-0.0313797999999996,0.0121964000000009,0.0034588000000001,0,sub_12
0.0007583999999998,0.0248246000000012,0.0041562,-0.0305307999999996,0.0089930000000009,0.0043130000000001,0,sub_12
0.0033853999999998,0.0213944000000012,0.0041362,-0.0296847999999996,0.0055748000000009,0.0055946000000001,0,sub_12
0.0052101999999998,0.0193746000000012,0.003648,-0.0305313999999996,0.0042976000000009,0.0057934000000001,0,sub_12
0.0069317999999998,0.0188722000000012,0.0035482,-0.0296595999999995,0.0045100000000008,0.0049342000000001,0,sub_12
0.0053733999999998,0.0169578000000012,0.0035132,-0.0292135999999996,0.0068598000000008,0.0030114000000001,0,sub_12
0.0022947999999998,0.0168800000000012,0.002725,-0.0285601999999996,0.0081428000000008,0.0013052000000001,0,sub_12
-0.0004930000000001,0.0178128000000012,0.001893,-0.0302517999999996,0.0109210000000008,0.0006490000000001,0,sub_12
0.0002303999999998,0.0198030000000012,0.0012032,-0.0332259999999996,0.0119986000000008,0.0029690000000001,0,sub_12
0.0005695999999998,0.0201022000000012,0.0014276,-0.0385559999999996,0.0128646000000008,0.0069818000000001,0,sub_12
-0.0001200000000001,0.0200842000000012,0.000292,-0.0402501999999996,0.0139378000000009,0.0093108000000001,0,sub_12
-0.0009430000000001,0.0186562000000012,-0.0011247999999999,-0.0421489999999996,0.0152316000000009,0.0099288000000001,0,sub_12
-0.0004946000000001,0.0179664000000012,-0.0017227999999999,-0.0442707999999996,0.0154568000000009,0.0116148000000001,0,sub_12
0.0008693999999998,0.0180016000000012,-0.0014875999999999,-0.0489707999999996,0.0175902000000009,0.0149976000000001,0,sub_12
0.0049377999999998,0.0210610000000012,-0.0014361999999999,-0.0600919999999996,0.0205768000000008,0.0236756000000001,0,sub_12
0.0090775999999998,0.0246216000000012,0.0004206,-0.0754777999999996,0.0237972000000008,0.0370198000000001,0,sub_12
0.0053001999999998,0.0258000000000012,0.0016302,-0.0863377999999996,0.0336202000000008,0.0469690000000001,0,sub_12
0.0001599999999998,0.0229622000000012,0.0025922,-0.0886561999999996,0.0419340000000008,0.0539888000000001,0,sub_12
-0.0003640000000001,0.0198862000000012,0.0041594,-0.0884283999999996,0.0430112000000008,0.0569762000000001,0,sub_12
-0.0008116000000001,0.0164680000000012,0.0052176,-0.0811037999999996,0.0458108000000008,0.0493288000000001,0,sub_12
0.0002205999999998,0.0149018000000012,0.0055076,-0.0662947999999996,0.0500800000000008,0.0344718000000001,0,sub_12
0.0056889999999998,0.0158898000000012,0.006112,-0.0485503999999996,0.0449560000000008,0.0217836000000001,0,sub_12
0.0090461999999998,0.0177732000000012,0.0053398,-0.0346619999999996,0.0366488000000009,0.0092862000000001,0,sub_12
0.0059841999999998,0.0181270000000012,0.0030618,-0.0220347999999996,0.0332436000000009,-0.0025851999999998,0,sub_12
0.0016965999999998,0.0183982000000012,0.0016242,-0.0106759999999995,0.0283534000000009,-0.0106189999999998,0,sub_12
-0.0021212000000001,0.0170430000000012,-0.0003687999999999,-0.0061669999999996,0.0230430000000009,-0.0142137999999998,0,sub_12
-0.0014974000000001,0.0170372000000012,-0.0017349999999999,-0.0082763999999996,0.0194498000000009,-0.0152931999999998,0,sub_12
-0.0002868000000001,0.0177136000000012,-0.0016079999999999,-0.0122937999999995,0.0201184000000009,-0.0148957999999997,0,sub_12
0.0002607999999998,0.0187642000000012,-0.0026911999999999,-0.0114015999999995,0.0211960000000009,-0.0144647999999997,0,sub_12
-0.0006846000000001,0.0175552000000012,-0.0041017999999999,-0.0120281999999995,0.0243932000000009,-0.0142595999999997,0,sub_12
-0.0011002000000001,0.0167912000000012,-0.0045553999999999,-0.0143609999999995,0.0275972000000009,-0.0142799999999998,0,sub_12
-0.0021480000000001,0.0158868000000012,-0.0049253999999999,-0.0200033999999995,0.0371892000000009,-0.0126299999999998,0,sub_12
-0.0018512000000001,0.0162996000000012,-0.0050619999999999,-0.0281889999999995,0.0514738000000009,-0.0101491999999998,0,sub_12
-0.0021278000000001,0.0160316000000012,-0.0029577999999999,-0.0370157999999996,0.0655476000000009,-0.0076725999999998,0,sub_12
-0.0002718000000001,0.0150610000000012,-0.0011373999999999,-0.0407311999999996,0.0768364000000009,-0.0057977999999998,0,sub_12
0.0007879999999998,0.0141072000000012,-0.0001713999999999,-0.0416775999999996,0.0847160000000009,-0.0062491999999998,0,sub_12
0.0009383999999998,0.0150812000000012,0.0010646,-0.0392979999999996,0.0887686000000009,-0.0094423999999998,0,sub_12
0.0011215999999998,0.0163114000000012,0.0013664,-0.0335245999999996,0.0857888000000009,-0.0151667999999998,0,sub_12
0.0020025999999998,0.0174962000000012,0.0011026,-0.0271291999999995,0.0796076000000009,-0.0200279999999998,0,sub_12
0.0013925999999998,0.0191824000000012,0.0023258,-0.0211557999999996,0.0730076000000009,-0.0263869999999998,0,sub_12
0.0016827999999998,0.0200770000000012,0.002911,-0.0130647999999996,0.0651126000000009,-0.0303795999999998,0,sub_12
0.0025013999999998,0.0180172000000012,0.0026278,-0.0043529999999996,0.0533786000000009,-0.0339355999999998,0,sub_12
0.0035387999999998,0.0170208000000012,0.00271,0.0028672000000003,0.0431368000000009,-0.0364355999999998,0,sub_12
0.0031711999999998,0.0161566000000012,0.0025626,0.0098884000000003,0.0363038000000009,-0.0387277999999998,0,sub_12
0.0025215999999998,0.0159130000000012,0.000325,0.0134860000000003,0.0311718000000008,-0.0372005999999998,0,sub_12
0.0007077999999998,0.0159042000000012,-0.0006459999999999,0.0128294000000003,0.0303106000000008,-0.0344265999999998,0,sub_12
-0.0009472000000001,0.0155894000000012,-0.0018013999999999,0.0083334000000003,0.0339200000000008,-0.0274123999999998,0,sub_12
-0.0019262000000001,0.0137538000000012,-0.0023359999999999,0.0025618000000003,0.0405090000000008,-0.0184881999999998,0,sub_12
-0.0007082000000001,0.0102282000000012,-0.0028425999999999,-0.0046755999999996,0.0515842000000008,-0.0112891999999998,0,sub_12
0.0013821999999998,0.0067544000000012,-0.0040611999999999,-0.0119187999999996,0.0594712000000009,-0.0060087999999998,0,sub_12
0.0057653999999998,0.0051390000000012,-0.0041603999999999,-0.0189341999999995,0.0673702000000009,-0.0039315999999998,0,sub_12
0.0083215999999998,0.0045486000000012,-0.0025313999999999,-0.0235881999999995,0.0737884000000009,-0.0065359999999998,0,sub_12
0.0104723999999998,0.0044846000000012,-0.0021857999999999,-0.0263197999999995,0.0778674000000009,-0.0119013999999998,0,sub_12
0.0131171999999998,0.0051706000000012,-0.0025113999999999,-0.0297019999999995,0.0774830000000009,-0.0194019999999998,0,sub_12
0.0152563999999998,0.0056136000000012,-0.0045253999999999,-0.0351825999999995,0.0811696000000009,-0.0307681999999998,0,sub_12
0.0180473999999997,0.0040860000000012,-0.0088667999999999,-0.0453275999999996,0.0876576000000008,-0.0460159999999998,0,sub_12
0.0228217999999997,-0.0002873999999987,-0.0120801999999999,-0.0595543999999996,0.1009892000000008,-0.0692205999999998,0,sub_12
0.0189433999999997,-0.0068405999999987,-0.0100511999999999,-0.0716071999999996,0.1137126000000009,-0.1020231999999998,0,sub_12
