userAcceleration.x,userAcceleration.y,userAcceleration.z,rotationRate.x,rotationRate.y,rotationRate.z,label,subject
0.0056781999999997,0.0107578000000012,0.0001718,-0.0069889999999995,-0.0049231999999991,-0.0040087999999998,0,sub_4
0.0057317999999997,0.0101800000000012,0.0001884,-0.0035837999999995,-0.0074891999999991,-0.0046225999999998,0,sub_4
0.0056043999999997,0.0103748000000011,0.0007126,-0.0016719999999995,-0.0102621999999991,-0.0054601999999998,0,sub_4
0.0049713999999997,0.0110294000000011,0.0010912,-0.0001811999999995,-0.0121797999999991,-0.0067291999999998,0,sub_4
0.0039807999999997,0.0131454000000011,0.0011086,0.0021564000000004,-0.0153795999999991,-0.0077769999999998,0,sub_4
0.0031207999999997,0.0156648000000011,0.0017642,0.0051272000000004,-0.0200729999999991,-0.0088183999999998,0,sub_4
0.0012287999999997,0.0173554000000012,0.0019122,0.0100176000000004,-0.0245615999999991,-0.0094193999999998,0,sub_4
-0.0021174000000002,0.0173174000000012,0.0007428,0.0159806000000004,-0.0275635999999991,-0.0098011999999998,0,sub_4
-0.0045016000000002,0.0167366000000012,-0.0010817999999999,0.0204462000000004,-0.0303515999999991,-0.0091253999999998,0,sub_4
-0.0060708000000002,0.0151004000000012,-0.0044905999999998,0.0225712000000004,-0.031003199999999,-0.0078277999999998,0,sub_4
-0.0078600000000001,0.0131452000000012,-0.0077437999999998,0.0215158000000004,-0.027806199999999,-0.0071983999999998,0,sub_4
-0.0082602000000002,0.0109016000000012,-0.0107651999999998,0.0170590000000004,-0.021827799999999,-0.0065963999999998,0,sub_4
-0.0066830000000001,0.0084534000000012,-0.0122797999999998,0.0098320000000004,-0.013926199999999,-0.0049477999999998,0,sub_4
-0.0052818000000001,0.0057490000000012,-0.0134035999999998,0.0006952000000004,-0.003674399999999,-0.0033155999999998,0,sub_4
-0.0027644000000001,0.0029762000000012,-0.0124289999999998,-0.0116303999999995,0.0085086000000009,-0.0023491999999998,0,sub_4
0.0010967999999998,0.0004246000000012,-0.0099127999999998,-0.0237359999999995,0.0211212000000008,-0.0024497999999998,0,sub_4
0.0054345999999998,-0.0019673999999987,-0.0072679999999998,-0.0358387999999995,0.0339486000000008,-0.0029779999999998,0,sub_4
0.0103201999999997,-0.0016579999999987,-0.0036235999999999,-0.0464479999999995,0.0454976000000008,-0.0047761999999998,0,sub_4
0.0153263999999997,0.0001154000000012,0.001406,-0.0534383999999995,0.0534188000000008,-0.0082535999999998,0,sub_4
0.0184877999999997,0.0028334000000012,0.0055498,-0.0544745999999995,0.0551474000000008,-0.0133903999999998,0,sub_4
0.0201013999999997,0.0061746000000012,0.0087942,-0.0499985999999995,0.0491860000000008,-0.0182653999999998,0,sub_4
0.0199397999999997,0.0104844000000012,0.0114676,-0.0402237999999995,0.0353230000000008,-0.0230931999999998,0,sub_4
0.0178007999999997,0.0135584000000012,0.0119168,-0.0268569999999995,0.0146252000000008,-0.0268187999999998,0,sub_4
0.0144473999999997,0.0157458000000012,0.0106644,-0.0120215999999995,-0.0099195999999991,-0.0288199999999998,0,sub_4
0.0095357999999997,0.0176554000000012,0.0081544,0.0025850000000004,-0.0355381999999991,-0.0284715999999998,0,sub_4
0.0042815999999997,0.0184574000000012,0.005009,0.0148864000000004,-0.0588675999999991,-0.0260017999999998,0,sub_4
-0.0005964000000002,0.0187476000000012,0.0022406,0.0235730000000004,-0.0775047999999991,-0.0216403999999998,0,sub_4
-0.0058604000000001,0.0186136000000012,-0.0007557999999999,0.0297288000000004,-0.0891039999999991,-0.0168783999999998,0,sub_4
-0.0099242000000001,0.0183782000000012,-0.0035227999999998,0.0344216000000004,-0.093880199999999,-0.0121353999999998,0,sub_4
-0.0111552000000001,0.0178888000000012,-0.0050733999999998,0.0387194000000004,-0.092260999999999,-0.0080441999999998,0,sub_4
-0.0113286000000001,0.0170122000000012,-0.0068983999999998,0.0427908000000004,-0.0856815999999991,-0.0052467999999998,0,sub_4
-0.0107142000000001,0.0150360000000012,-0.0084133999999998,0.0479472000000003,-0.076543399999999,-0.0039405999999998,0,sub_4
-0.0088780000000001,0.0126340000000012,-0.0086835999999998,0.0526826000000003,-0.066549799999999,-0.0030657999999998,0,sub_4
-0.0067192000000002,0.0091894000000012,-0.0090747999999999,0.0557742000000003,-0.057079799999999,-0.0022135999999998,0,sub_4
-0.0051872000000001,0.0054540000000012,-0.0102633999999999,0.0548058000000003,-0.048449399999999,-0.0009613999999998,0,sub_4
-0.0043718000000001,0.0029932000000012,-0.0101209999999999,0.0487116000000003,-0.040017599999999,0.0011098000000001,0,sub_4
-0.0045814000000001,0.0018998000000012,-0.0100879999999999,0.0381366000000003,-0.030509199999999,0.0042166000000001,0,sub_4
-0.0050762000000001,0.0025046000000012,-0.0104485999999999,0.0245698000000004,-0.0212067999999991,0.0081574000000001,0,sub_4
-0.0057032000000001,0.0044574000000012,-0.0105939999999999,0.0088050000000004,-0.0113681999999991,0.0123076000000001,0,sub_4
-0.0062434000000001,0.0067758000000012,-0.0096757999999999,-0.0058897999999995,-0.0011063999999991,0.0162510000000001,0,sub_4
-0.0059930000000001,0.0084410000000012,-0.0090525999999999,-0.0182383999999995,0.0080852000000008,0.0193578000000001,0,sub_4
-0.0045612000000001,0.0094250000000012,-0.0079423999999999,-0.0275999999999995,0.0159934000000008,0.0212050000000001,0,sub_4
-0.0014458000000002,0.0088630000000012,-0.0066121999999999,-0.0339715999999995,0.0224082000000008,0.0209386000000001,0,sub_4
0.0028135999999997,0.0075516000000012,-0.0049523999999999,-0.0362869999999995,0.0277496000000008,0.0192064000000001,0,sub_4
0.0073033999999997,0.0063322000000012,-0.0026613999999999,-0.0358323999999995,0.0311680000000008,0.0164278000000001,0,sub_4
0.0107381999999997,0.0057844000000012,-0.0001229999999999,-0.0326087999999996,0.0332994000000008,0.0134564,0,sub_4
0.0130539999999997,0.0058926000000012,0.001979,-0.0281163999999995,0.0326572000000008,0.010284,0,sub_4
0.0136647999999997,0.0071552000000012,0.0041294,-0.0223543999999995,0.0300916000000008,0.0075502,0,sub_4
0.0122777999999997,0.0097664000000012,0.0056632,-0.0159647999999995,0.0249662000000008,0.0050376,0,sub_4
0.0093171999999997,0.0128616000000012,0.0059624,-0.0085189999999995,0.0179178000000008,0.0029622,0,sub_4
0.0059613999999997,0.0155146000000012,0.0050734,-0.0004435999999995,0.0089480000000008,0.0013210000000001,0,sub_4
0.0028223999999998,0.0181442000000012,0.0038978,0.0086998000000004,-2.4599999999111444e-05,-0.0005263999999998,0,sub_4
-0.0008064000000001,0.0192836000000012,0.0011312,0.0182710000000004,-0.008361399999999,-0.0019443999999998,0,sub_4
-0.0040970000000001,0.0191488000000012,-0.0016709999999999,0.0265600000000004,-0.015422199999999,-0.0016637999999998,0,sub_4
-0.0052526000000001,0.0177468000000012,-0.0040611999999999,0.0320818000000004,-0.019708599999999,-0.0001241999999998,0,sub_4
-0.0045728000000002,0.0153646000000012,-0.0058077999999999,0.0355030000000004,-0.021640199999999,0.0014058000000001,0,sub_4
-0.0032802000000002,0.0120308000000012,-0.0074763999999999,0.0359418000000003,-0.0216471999999991,0.003767,0,sub_4
-0.0016002000000002,0.0090668000000012,-0.0073721999999999,0.0338278000000003,-0.0203651999999991,0.0056814,0,sub_4
-0.0001884000000002,0.0065642000000012,-0.0070425999999999,0.0295868000000003,-0.0182211999999991,0.006939,0,sub_4
0.0002963999999997,0.0048450000000012,-0.0068073999999999,0.0238484000000003,-0.017348399999999,0.0077606,0,sub_4
0.0008057999999997,0.0041460000000012,-0.0062905999999999,0.0159498000000003,-0.017111999999999,0.0087734,0,sub_4
0.0015907999999997,0.0040078000000012,-0.0057669999999999,0.0072006000000003,-0.016445799999999,0.0095660000000001,0,sub_4
0.0037313999999997,0.0040634000000012,-0.0051129999999998,-0.0017639999999996,-0.015032799999999,0.0104212,0,sub_4
0.0069155999999997,0.0036730000000012,-0.0036789999999998,-0.0090099999999996,-0.012978799999999,0.0093646,0,sub_4
0.0102573999999997,0.0031024000000012,-0.0025743999999998,-0.0130429999999995,-0.010076199999999,0.0064066,0,sub_4
0.0120965999999997,0.0026788000000012,-0.0020943999999998,-0.0134351999999995,-0.005476799999999,0.00219,0,sub_4
0.0124679999999997,0.0030464000000012,-0.0013459999999998,-0.0108373999999995,-0.000672999999999,-0.0024331999999999,0,sub_4
0.0103255999999997,0.0047310000000012,-0.0011309999999998,-0.0073839999999995,0.0033818000000009,-0.0071145999999998,0,sub_4
0.0068725999999997,0.0069384000000012,-0.0016423999999998,-0.0043641999999995,0.0070078000000009,-0.0107299999999998,0,sub_4
0.0005243999999997,0.0117938000000012,-0.0019219999999998,-0.0028503999999995,0.0102034000000008,-0.0120053999999998,0,sub_4
-0.0053814000000002,0.0163902000000012,-0.0028341999999998,-0.0016337999999995,0.0107612000000008,-0.0111115999999998,0,sub_4
-0.0096308000000001,0.0203060000000012,-0.0040017999999998,-0.0015023999999995,0.0089724000000008,-0.0085131999999998,0,sub_4
-0.0118180000000001,0.0221660000000012,-0.0051495999999998,-0.0015891999999995,0.0069678000000008,-0.0050613999999998,0,sub_4
-0.0119336000000001,0.0223944000000012,-0.0059319999999998,-0.0006091999999995,0.0058082000000008,-0.0007485999999998,0,sub_4
-0.0081554000000001,0.0194450000000012,-0.0066685999999998,0.0018732000000004,0.0055000000000008,0.0025052000000001,0,sub_4
-0.0028686000000001,0.0143948000000012,-0.0066615999999998,0.0040040000000004,0.0063388000000008,0.0040146000000001,0,sub_4
0.0018593999999997,0.0087544000000012,-0.0063877999999999,0.0057206000000004,0.0084632000000008,0.0040240000000001,0,sub_4
0.0058435999999997,0.0038292000000012,-0.0049055999999999,0.0065788000000004,0.0099498000000008,0.0044554000000001,0,sub_4
0.0087743999999997,0.0014752000000012,-0.0030483999999999,0.0046646000000004,0.0089338000000008,0.0048604000000001,0,sub_4
0.0111751999999997,0.0013032000000012,-0.0012937999999999,0.0012432000000004,0.0055768000000008,0.0058988000000001,0,sub_4
0.0109631999999997,0.0037386000000012,0.000737,-0.0019705999999995,0.0007284000000008,0.0067268000000001,0,sub_4
0.0096223999999997,0.0063188000000012,0.002413,-0.0039087999999995,-0.0054017999999991,0.0073518000000001,0,sub_4
0.0077883999999997,0.0090294000000012,0.0016702,-0.0043457999999995,-0.0108937999999991,0.0069184000000001,0,sub_4
0.0057113999999997,0.0103856000000012,-0.0006205999999998,-0.0030741999999995,-0.0143011999999991,0.005436,0,sub_4
0.0028119999999997,0.0105436000000012,-0.0027605999999998,-0.0015699999999995,-0.0145093999999991,0.0028832,0,sub_4
0.0005127999999997,0.0100814000000012,-0.0047133999999998,-0.0002685999999995,-0.0119485999999991,0.0007526,0,sub_4
-0.0009760000000002,0.0099376000000012,-0.0064857999999998,0.0003798000000004,-0.0072235999999991,-0.0009685999999998,0,sub_4
-0.0010586000000002,0.0103548000000012,-0.0068507999999998,0.0006036000000004,-0.0018587999999991,-0.0024799999999998,0,sub_4
-0.0015262000000002,0.0110160000000012,-0.0065769999999999,0.0008234000000004,0.0032902000000008,-0.0033499999999998,0,sub_4
-0.0019602000000002,0.0113652000000012,-0.0052371999999999,0.0012460000000004,0.0069438000000008,-0.0033621999999998,0,sub_4
-0.0014410000000002,0.0116438000000012,-0.0044011999999999,0.0010190000000004,0.0091056000000008,-0.0027359999999998,0,sub_4
-0.0004614000000002,0.0119690000000012,-0.0036153999999999,0.0005942000000004,0.0099576000000008,-0.0023127999999998,0,sub_4
0.0002919999999997,0.0114518000000012,-0.0027923999999999,-0.0002621999999995,0.0101702000000008,-0.0014643999999998,0,sub_4
0.0012385999999997,0.0104758000000012,-0.0021509999999999,-0.0011241999999995,0.0091046000000008,-0.0006145999999998,0,sub_4
0.0023383999999997,0.0094102000000012,-0.0025193999999999,-0.0022043999999995,0.0069744000000008,0.0002350000000001,0,sub_4
0.0034285999999997,0.0090276000000012,-0.0024729999999999,-0.0031163999999995,0.0044734000000008,0.0008502000000001,0,sub_4
0.0040933999999997,0.0086740000000012,-0.0022049999999999,-0.0038139999999995,0.0023968000000008,0.0016802000000001,0,sub_4
0.0044303999999997,0.0089626000000011,-0.0023501999999998,-0.0038695999999995,-0.0001047999999991,0.0016606000000001,0,sub_4
0.0042731999999997,0.0093384000000012,-0.0018337999999998,-0.0028583999999995,-0.002397999999999,0.0018618000000001,0,sub_4
0.0045243999999997,0.0099992000000012,-0.0014479999999998,-0.0014155999999995,-0.004475999999999,0.0012112000000001,0,sub_4
0.0035267999999997,0.0103366000000012,-0.0018719999999998,0.0002896000000004,-0.005756999999999,0.0003702000000001,0,sub_4
0.0028243999999997,0.0103628000000012,-0.0022585999999998,0.0015690000000004,-0.006611199999999,-0.0002607999999998,0,sub_4
0.0018393999999997,0.0103712000000012,-0.0025273999999999,0.0026190000000004,-0.006583799999999,-0.0004723999999998,0,sub_4
0.0014005999999997,0.0104398000000012,-0.0028787999999999,0.0032470000000004,-0.005701799999999,-0.0009015999999998,0,sub_4
0.0006191999999997,0.0106066000000012,-0.0032787999999999,0.0036616000000004,-0.0041825999999991,-0.0006921999999998,0,sub_4
0.0012015999999997,0.0104522000000012,-0.0035297999999999,0.0040820000000004,-0.0020215999999991,-0.0011245999999998,0,sub_4
0.0010011999999997,0.0101526000000012,-0.0045433999999998,0.0042880000000004,-7.29999999991111e-05,-0.0015581999999998,0,sub_4
0.0006425999999997,0.0092158000000012,-0.0050811999999998,0.0040814000000004,0.0014190000000008,-0.0015615999999998,0,sub_4
0.0002315999999997,0.0091432000000012,-0.0057321999999998,0.0028050000000004,0.0022756000000008,-0.0015715999999998,0,sub_4
0.0002871999999998,0.0089934000000012,-0.0062167999999998,0.0011010000000004,0.0035572000000008,-0.0009441999999998,0,sub_4
7.579999999980423e-05,0.0090444000000012,-0.0056791999999998,-0.0010535999999995,0.0035658000000008,9.92000000001254e-05,0,sub_4
0.0005475999999998,0.0091964000000012,-0.0045011999999998,-0.0025669999999995,0.0033610000000008,0.0007200000000001,0,sub_4
0.0016671999999997,0.0098384000000012,-0.0034599999999998,-0.0027983999999995,0.0029412000000008,0.0007090000000001,0,sub_4
0.0028401999999997,0.0094754000000012,-0.0027935999999998,-0.0021759999999995,0.0025184000000008,0.0007040000000001,0,sub_4
0.0033591999999997,0.0091750000000012,-0.0026047999999999,-0.0017689999999995,0.0012458000000008,0.0002712000000001,0,sub_4
0.0032635999999997,0.0083330000000012,-0.0034865999999999,-0.0011307999999995,0.0003930000000008,-0.0001505999999998,0,sub_4
0.0036835999999997,0.0080632000000012,-0.0043765999999999,-0.0013479999999995,-0.0008829999999991,-0.0005777999999998,0,sub_4
0.0032495999999997,0.0078518000000011,-0.0054959999999999,-0.0022041999999995,-0.0021557999999991,-0.0012229999999998,0,sub_4
0.0024275999999997,0.0084308000000011,-0.0057641999999999,-0.0034929999999995,-0.0027721999999991,-0.0018837999999998,0,sub_4
0.0011931999999997,0.0086446000000011,-0.0058345999999999,-0.0037091999999995,-0.002538199999999,-0.0029653999999998,0,sub_4
0.0012783999999997,0.0099252000000011,-0.0053495999999999,-0.0030697999999995,-0.001668799999999,-0.0038281999999998,0,sub_4
0.0004059999999997,0.0111064000000012,-0.0049713999999999,-0.0020027999999995,-0.000375799999999,-0.0044747999999998,0,sub_4
0.0006051999999997,0.0116794000000012,-0.0045309999999999,-0.0009357999999995,0.0013416000000008,-0.0046947999999998,0,sub_4
0.0006951999999998,0.0106130000000012,-0.0046095999999999,-7.739999999959689e-05,0.0026162000000008,-0.0044767999999998,0,sub_4
0.0017357999999997,0.0099784000000012,-0.0047587999999999,-0.0002897999999995,0.0036788000000008,-0.0036249999999998,0,sub_4
0.0018355999999997,0.0088434000000012,-0.0052011999999999,-0.0019975999999995,0.0038960000000008,-0.0032099999999998,0,sub_4
0.0019809999999997,0.0081462000000012,-0.0045279999999999,-0.0032813999999995,0.0041110000000008,-0.0030107999999998,0,sub_4
0.0013953999999997,0.0077756000000012,-0.0042591999999999,-0.0045653999999995,0.0043258000000008,-0.0028115999999998,0,sub_4
0.0010859999999997,0.0085152000000012,-0.0045113999999999,-0.0052101999999995,0.0041132000000008,-0.0028209999999998,0,sub_4
0.0004733999999997,0.0095256000000012,-0.0042399999999999,-0.0049993999999995,0.0041114000000008,-0.0030383999999998,0,sub_4
0.0001945999999997,0.0102408000000012,-0.0036701999999998,-0.0043621999999995,0.0045326000000008,-0.0028259999999998,0,sub_4
-0.0001290000000002,0.0103280000000012,-0.0042479999999998,-0.0043631999999995,0.0049560000000008,-0.0021855999999998,0,sub_4
2.4199999999784375e-05,0.0103688000000012,-0.0043961999999998,-0.0045803999999995,0.0047412000000008,-0.0015459999999998,0,sub_4
0.0008849999999997,0.0101726000000012,-0.0040487999999998,-0.0054357999999995,0.0047424000000008,-0.0011245999999998,0,sub_4
0.0013965999999997,0.0095516000000012,-0.0042693999999998,-0.0058649999999995,0.0043258000000008,-0.0013445999999998,0,sub_4
0.0018071999999997,0.0092750000000012,-0.0045429999999998,-0.0056559999999995,0.0036930000000008,-0.0013459999999998,0,sub_4
0.0024839999999997,0.0091452000000012,-0.0049661999999998,-0.0050193999999995,0.0030596000000008,-0.0015581999999998,0,sub_4
0.0026233999999997,0.0089400000000012,-0.0047971999999999,-0.0041673999999995,0.0028516000000008,-0.0017693999999998,0,sub_4
0.0024893999999997,0.0088240000000012,-0.0051333999999999,-0.0033115999999995,0.0030714000000008,-0.0024085999999998,0,sub_4
0.0019299999999997,0.0090462000000012,-0.0046699999999999,-0.0030953999999995,0.0034976000000008,-0.0026211999999998,0,sub_4
0.0012439999999997,0.0091260000000012,-0.0047559999999999,-0.0035191999999995,0.0037140000000008,-0.0030517999999998,0,sub_4
0.0007309999999997,0.0093892000000012,-0.0045673999999999,-0.0035171999999995,0.0039280000000008,-0.0032657999999998,0,sub_4
0.0001997999999997,0.0101218000000012,-0.0051645999999999,-0.0039479999999995,0.0035058000000008,-0.0034817999999998,0,sub_4
-0.0002066000000002,0.0106798000000012,-0.0049551999999999,-0.0041663999999995,0.0032942000000008,-0.0032693999999998,0,sub_4
6.659999999978439e-05,0.0104744000000012,-0.0053321999999999,-0.0043857999999995,0.0028696000000008,-0.0030567999999998,0,sub_4
0.0006473999999997,0.0103938000000012,-0.0052835999999999,-0.0046041999999995,0.0026580000000008,-0.0028443999999998,0,sub_4
0.0011985999999997,0.0099690000000012,-0.0053141999999999,-0.0050349999999995,0.0024480000000008,-0.0028471999999998,0,sub_4
0.0020547999999997,0.0089876000000012,-0.0051511999999999,-0.0054569999999995,0.0030904000000008,-0.0032783999999998,0,sub_4
0.0027011999999997,0.0083470000000012,-0.0053383999999999,-0.0054569999999995,0.0030904000000008,-0.0032783999999998,0,sub_4
0.0035383999999997,0.0086464000000012,-0.0048653999999999,-0.0052485999999995,0.0024488000000008,-0.0028487999999998,0,sub_4
0.0039257999999997,0.0084868000000012,-0.0048065999999999,-0.0046099999999995,0.0015948000000008,-0.0026267999999998,0,sub_4
0.0041033999999997,0.0088190000000012,-0.0042057999999999,-0.0039703999999995,0.0009540000000008,-0.0024049999999998,0,sub_4
0.0036889999999997,0.0090126000000012,-0.0037799999999999,-0.0026953999999995,-0.0003299999999991,-0.0017505999999998,0,sub_4
0.0034997999999997,0.0094036000000012,-0.0035585999999999,-0.0014195999999995,-0.0018251999999991,-0.0015231999999998,0,sub_4
0.0034511999999997,0.0093820000000012,-0.0040251999999999,-0.0001359999999995,-0.0022525999999991,-0.0019379999999998,0,sub_4
0.0028359999999997,0.0095492000000012,-0.0042179999999999,0.0011442000000003,-0.0022569999999991,-0.0019289999999998,0,sub_4
0.0022165999999997,0.0095088000000011,-0.0052083999999999,0.0019966000000003,-0.0020485999999991,-0.0014959999999998,0,sub_4
0.0021495999999997,0.0098910000000011,-0.0059543999999999,0.0028500000000003,-0.0014149999999991,-0.0008499999999998,0,sub_4
0.0014751999999997,0.0099916000000011,-0.0066753999999999,0.0032868000000003,-0.0005699999999991,-0.0004091999999998,0,sub_4
-8.900000000019561e-05,0.0104286000000011,-0.0070249999999998,0.0026568000000003,6.640000000088888e-05,-0.0001891999999998,0,sub_4
-0.0012498000000001,0.0111870000000012,-0.0069343999999998,0.0013906000000003,0.0011330000000008,-0.0004015999999998,0,sub_4
-0.0020922000000001,0.0118192000000012,-0.0066671999999998,0.0001272000000003,0.0024142000000008,-0.0010413999999998,0,sub_4
-0.0020572000000001,0.0124510000000012,-0.0060357999999998,-0.0011361999999996,0.0036956000000008,-0.0016811999999998,0,sub_4
-0.0020518000000001,0.0134720000000012,-0.0054379999999998,-0.0017695999999995,0.0049770000000008,-0.0019009999999998,0,sub_4
-0.0024044000000002,0.0124924000000012,-0.0050859999999999,-0.0007103999999995,0.0051788000000008,2.8800000000124906e-05,0,sub_4
-0.0014228000000002,0.0106334000000012,-0.0057401999999999,0.0007592000000004,0.0036668000000009,0.0038866000000001,0,sub_4
0.0012025999999997,0.0085414000000012,-0.0059949999999999,0.0011688000000004,0.0008662000000009,0.0086058000000001,0,sub_4
0.0028029999999997,0.0065158000000012,-0.0067963999999999,0.0005172000000004,-0.001501399999999,0.0124624,0,sub_4
0.0060077999999997,0.0033170000000012,-0.0066491999999999,-0.0009743999999995,-0.002792999999999,0.014389,0,sub_4
0.0090149999999997,0.0020316000000012,-0.0065551999999999,-0.0030879999999995,-0.003005199999999,0.0133188,0,sub_4
0.0108157999999997,0.0014884000000012,-0.0058569999999999,-0.0049719999999995,-0.0021425999999991,0.0096852,0,sub_4
0.0099395999999997,0.0020870000000012,-0.0049335999999999,-0.0057891999999995,0.0006512000000008,0.0043348000000001,0,sub_4
0.0073871999999997,0.0038194000000012,-0.0036029999999999,-0.0055451999999995,0.0030120000000008,-0.0001529999999998,0,sub_4
0.0032659999999997,0.0073408000000012,-0.0036929999999999,-0.0048915999999995,0.0040826000000008,-0.0020725999999998,0,sub_4
5.939999999978428e-05,0.0109890000000012,-0.0038885999999999,-0.0036045999999995,0.0047206000000008,-0.0029189999999998,0,sub_4
-0.0029294000000002,0.0149762000000012,-0.0046275999999999,-0.0012345999999996,0.0051256000000008,-0.0031029999999998,0,sub_4
-0.0052660000000001,0.0172674000000012,-0.0053935999999999,0.0024022000000003,0.0038166000000008,-0.0019941999999998,0,sub_4
-0.0055714000000001,0.0173338000000012,-0.0067191999999999,0.0060370000000003,0.0025058000000008,-0.0004581999999998,0,sub_4
-0.0048730000000001,0.0156790000000012,-0.0080333999999999,0.0092516000000003,0.0022636000000008,0.0006464000000001,0,sub_4
-0.0034642000000001,0.0126592000000012,-0.0085809999999999,0.0101184000000003,0.0026654000000008,0.0025884000000001,0,sub_4
-0.0012288000000001,0.0090284000000012,-0.0077297999999999,0.0088276000000004,0.0026604000000008,0.0049294000000001,0,sub_4
0.0019591999999997,0.0060230000000012,-0.0070505999999998,0.0060442000000004,0.0020250000000008,0.0064062,0,sub_4
0.0051847999999997,0.0043860000000012,-0.0062623999999998,0.0030694000000004,0.0005274000000009,0.007257,0,sub_4
0.0072563999999997,0.0043492000000012,-0.0046193999999998,0.0015864000000004,-0.002462599999999,0.0070518,0,sub_4
0.0076197999999997,0.0049552000000012,-0.0035435999999998,0.0022360000000004,-0.006734199999999,0.0057948,0,sub_4
0.0068605999999997,0.0063206000000012,-0.0037441999999998,0.0043812000000003,-0.010796999999999,0.0043346,0,sub_4
0.0049455999999997,0.0076384000000012,-0.0043607999999998,0.0065330000000003,-0.013156199999999,0.0030858000000001,0,sub_4
0.0017423999999997,0.0083472000000012,-0.0057869999999999,0.0073894000000003,-0.013793199999999,0.0018108000000001,0,sub_4
-0.0009866000000002,0.0087154000000012,-0.0069261999999999,0.0065436000000003,-0.012510199999999,0.001376,0,sub_4
-0.0025258000000002,0.0090456000000012,-0.0088155999999999,0.0044252000000003,-0.009305999999999,0.0011436,0,sub_4
-0.0036490000000001,0.0096208000000012,-0.0100227999999998,0.0016862000000004,-0.0048285999999991,0.000918,0,sub_4
-0.0033530000000001,0.0098578000000012,-0.0099615999999998,-0.0010535999999995,-0.0003521999999991,0.0009062,0,sub_4
-0.0020316000000001,0.0096226000000012,-0.0090053999999998,-0.0027295999999995,0.0036934000000008,0.0011158,0,sub_4
-0.0005916000000001,0.0089550000000012,-0.0089579999999998,-0.0039825999999995,0.0066732000000008,0.0011162000000001,0,sub_4
0.0013257999999998,0.0079862000000012,-0.0070537999999998,-0.0048155999999995,0.0085844000000008,0.0015482000000001,0,sub_4
0.0035039999999997,0.0066862000000012,-0.0057701999999999,-0.0058785999999995,0.0096524000000008,0.0017530000000001,0,sub_4
0.0045729999999997,0.0057256000000012,-0.0050931999999999,-0.0063063999999995,0.0094408000000008,0.0017502000000001,0,sub_4
0.0050279999999997,0.0062970000000012,-0.0047099999999999,-0.0063091999999995,0.0081650000000008,0.0011110000000001,0,sub_4
0.0048189999999997,0.0069190000000012,-0.0034713999999999,-0.0056639999999995,0.0064524000000008,0.0002638000000001,0,sub_4
0.0040717999999997,0.0084398000000012,-0.0041273999999999,-0.0039537999999995,0.0040978000000008,-0.0007889999999998,0,sub_4
