userAcceleration.x,userAcceleration.y,userAcceleration.z,rotationRate.x,rotationRate.y,rotationRate.z,label,subject
0.0333843999999998,0.0443756000000012,-0.0097121999999999,-0.0001625999999996,-0.009458399999999,0.0029652000000001,0,sub_15
0.0323661999999998,0.0442826000000012,-0.0092325999999999,-0.0005947999999996,-0.007537999999999,0.0029600000000001,0,sub_15
0.0317903999999998,0.0441484000000012,-0.0089681999999999,-0.0005961999999996,-0.005403199999999,0.0023166000000001,0,sub_15
0.0306649999999998,0.0443996000000012,-0.0090023999999999,-0.0010085999999996,-0.003054799999999,0.0014562000000001,0,sub_15
0.0292605999999998,0.0442662000000012,-0.0087655999999999,-0.0009999999999996,-0.001986199999999,0.0006002000000001,0,sub_15
0.0285107999999998,0.0446102000000012,-0.0083861999999998,-0.0010171999999996,-0.000912199999999,-0.0004729999999998,0,sub_15
0.0284505999999998,0.0451824000000012,-0.0086263999999998,-0.0012497999999996,0.0001608000000009,-0.0011201999999998,0,sub_15
0.0278455999999998,0.0458750000000012,-0.0086591999999998,-0.0016947999999996,0.0016598000000009,-0.0015557999999998,0,sub_15
0.0282927999999997,0.0464024000000012,-0.0086305999999998,-0.0015053999999996,0.0020904000000009,-0.0017719999999998,0,sub_15
0.0289833999999997,0.0466504000000012,-0.0086561999999998,-0.0013149999999996,0.0029462000000009,-0.0017751999999998,0,sub_15
0.0296885999999997,0.0469042000000012,-0.0093929999999999,-0.0006737999999996,0.0031570000000009,-0.0017709999999998,0,sub_15
0.0299909999999997,0.0473580000000012,-0.0091875999999999,-0.0006757999999996,0.0029432000000009,-0.0015571999999998,0,sub_15
0.0309391999999997,0.0472206000000012,-0.0092625999999999,-4.139999999962652e-05,0.0022992000000009,-0.0009109999999998,0,sub_15
0.0312283999999998,0.0470310000000012,-0.0093595999999999,0.0007840000000003,0.0018696000000009,-0.0002623999999998,0,sub_15
0.0307689999999998,0.0474694000000012,-0.0098031999999999,0.0011828000000003,0.0014416000000009,0.0003834000000001,0,sub_15
0.0306585999999997,0.0474556000000012,-0.0096315999999999,0.0013642000000003,0.0005864000000009,0.0014554000000001,0,sub_15
0.0318311999999997,0.0469648000000012,-0.0092723999999999,0.0023984000000003,-0.000909199999999,0.0021070000000001,0,sub_15
0.0325805999999997,0.0467514000000012,-0.0095979999999999,0.0034382000000003,-0.001975399999999,0.0019034000000001,0,sub_15
0.0331913999999998,0.0460504000000012,-0.0097167999999998,0.0030068000000003,-0.003251399999999,0.0016884000000001,0,sub_15
0.0338751999999997,0.0455104000000012,-0.0094479999999998,0.0025780000000003,-0.004312599999999,0.0010458000000001,0,sub_15
0.0343843999999998,0.0442778000000012,-0.0093693999999998,0.0019380000000003,-0.005159199999999,0.0001878000000001,0,sub_15
0.0338639999999998,0.0431136000000012,-0.0100745999999998,0.0002376000000003,-0.004298599999999,-0.0004661999999998,0,sub_15
0.0326721999999998,0.0427746000000012,-0.0095237999999998,-0.0017003999999996,-0.003012599999999,-0.0002653999999998,0,sub_15
0.0315117999999998,0.0432274000000012,-0.0088833999999998,-0.0023523999999996,-0.000240599999999,0.0001560000000001,0,sub_15
0.0310049999999998,0.0434386000000012,-0.0084991999999998,-0.0023659999999996,0.0018908000000009,0.0003692000000001,0,sub_15
0.0302869999999997,0.0451644000000012,-0.0079961999999998,-0.0025931999999996,0.0038108000000009,0.0003676000000001,0,sub_15
0.0294839999999997,0.0464800000000012,-0.0078475999999998,-0.0017533999999996,0.0055150000000009,0.0001600000000001,0,sub_15
0.0294039999999997,0.0470848000000012,-0.0081339999999998,-0.0011083999999996,0.0063658000000009,-5.039999999986474e-05,0,sub_15
0.0295031999999997,0.0473862000000012,-0.0085615999999999,-4.339999999962664e-05,0.0052994000000009,-0.0006823999999998,0,sub_15
0.0301349999999997,0.0477392000000012,-0.0088699999999999,0.0003590000000003,0.0042490000000009,-0.0013177999999998,0,sub_15
0.0306781999999997,0.0474776000000012,-0.0091357999999999,0.0011902000000003,0.0038354000000009,-0.0017373999999998,0,sub_15
0.0311513999999997,0.0471360000000012,-0.0088295999999998,0.0015850000000003,0.0019294000000009,-0.0015171999999998,0,sub_15
0.0310915999999997,0.0476040000000012,-0.0084327999999998,0.0015540000000003,2.5800000000924388e-05,-0.0015133999999998,0,sub_15
0.0313517999999998,0.0473800000000012,-0.0081911999999998,0.0006714000000003,-0.001236599999999,-0.0013029999999998,0,sub_15
0.0310355999999998,0.0467122000000012,-0.0086581999999998,0.0002380000000003,-0.002301999999999,-0.0008773999999998,0,sub_15
0.0306701999999998,0.0461712000000012,-0.0090437999999998,-0.0006249999999996,-0.003580599999999,-2.71999999998448e-05,0,sub_15
0.0304151999999998,0.0464714000000012,-0.0095159999999998,-0.0010507999999996,-0.003578399999999,-0.0002437999999998,0,sub_15
0.0308701999999997,0.0457964000000012,-0.0094523999999998,-0.0008515999999996,-0.003773999999999,-0.0002429999999998,0,sub_15
0.0308689999999997,0.0454868000000012,-0.0093573999999998,-0.0006541999999995,-0.004395599999999,-0.0002415999999998,0,sub_15
0.0310373999999997,0.0454026000000012,-0.0088679999999998,-0.0004529999999996,-0.003952999999999,-2.799999999984481e-05,0,sub_15
0.0308327999999997,0.0454544000000012,-0.0087635999999998,0.0001738000000003,-0.003937199999999,-2.4399999999844814e-05,0,sub_15
0.0309175999999997,0.0454088000000012,-0.0087227999999998,0.0007970000000003,-0.004136799999999,0.0006204000000001,0,sub_15
0.0309133999999998,0.0451484000000012,-0.0090885999999998,0.0010084000000003,-0.004139399999999,0.0010492000000001,0,sub_15
0.0314427999999998,0.0452668000000012,-0.0093539999999999,0.0014380000000003,-0.003501799999999,0.0010514000000001,0,sub_15
0.0316793999999998,0.0456892000000012,-0.0095031999999998,0.0016494000000003,-0.003928599999999,0.0010534000000001,0,sub_15
0.0320577999999998,0.0456190000000012,-0.0092589999999998,0.0016514000000003,-0.003714599999999,0.0008394000000001,0,sub_15
0.0323355999999998,0.0455982000000012,-0.0092721999999998,0.0012202000000003,-0.003490199999999,0.0004104000000001,0,sub_15
0.0321789999999997,0.0457136000000012,-0.0095101999999998,0.0007880000000003,-0.003266399999999,0.0001950000000001,0,sub_15
0.0319155999999997,0.0454524000000012,-0.0096783999999998,0.0001406000000003,-0.003255999999999,0.0001920000000001,0,sub_15
0.0313677999999997,0.0452928000000012,-0.0093175999999999,-0.0002925999999996,-0.002820999999999,0.0004038000000001,0,sub_15
0.0311805999999997,0.0452558000000012,-0.0091927999999999,-0.0009371999999996,-0.002383599999999,0.0001868000000001,0,sub_15
0.0310663999999997,0.0447332000000012,-0.0090253999999999,-0.0011485999999996,-0.001744399999999,0.0003982000000001,0,sub_15
0.0314097999999997,0.0443900000000012,-0.0088209999999999,-0.0011445999999996,-0.001104399999999,0.0001838000000001,0,sub_15
0.0315013999999998,0.0445882000000012,-0.0091965999999999,-0.0009255999999996,-0.000463399999999,-0.0004563999999998,0,sub_15
0.0323809999999998,0.0445752000000012,-0.0101519999999999,-0.0011405999999995,-0.000448199999999,-0.0015273999999998,0,sub_15
0.0326993999999998,0.0448054000000012,-0.0108481999999999,-0.0015727999999996,-0.000435599999999,-0.0017453999999998,0,sub_15
0.0324443999999998,0.0453180000000012,-0.0109243999999999,-0.0017945999999996,-0.001275199999999,-0.0021743999999998,0,sub_15
0.0322249999999998,0.0456836000000012,-0.0112925999999999,-0.0020173999999996,-0.002115599999999,-0.0023897999999998,0,sub_15
0.0313953999999998,0.0459402000000012,-0.0103709999999999,-0.0020275999999995,-0.002320799999999,-0.0017497999999998,0,sub_15
0.0308259999999998,0.0461378000000012,-0.0100373999999999,-0.0011749999999996,-0.001263599999999,-0.0004633999999998,0,sub_15
0.0305601999999998,0.0460384000000012,-0.0096027999999999,0.0003204000000003,-0.000205999999999,0.0001866000000001,0,sub_15
0.0303221999999998,0.0456944000000012,-0.0089437999999999,0.0011734000000003,0.0004294000000009,0.0006196000000001,0,sub_15
0.0300565999999998,0.0456380000000012,-0.0081559999999999,0.0022426000000003,0.0017032000000009,0.0010534000000001,0,sub_15
0.0300241999999998,0.0452220000000012,-0.0084141999999999,0.0028822000000003,0.0021270000000009,0.0012716000000001,0,sub_15
0.0299211999999998,0.0449018000000012,-0.0082733999999999,0.0030932000000003,0.0012774000000009,0.0006338000000001,0,sub_15
0.0295053999999998,0.0446162000000012,-0.0083301999999999,0.0030880000000003,1.600000000944249e-06,0.0002088000000001,0,sub_15
0.0304725999999998,0.0442856000000012,-0.0088163999999999,0.0028708000000003,-0.000849799999999,0.0002084000000001,0,sub_15
0.0309997999999998,0.0439978000000012,-0.0093115999999999,0.0022278000000003,-0.001911199999999,-0.0002221999999998,0,sub_15
0.0317781999999998,0.0437518000000012,-0.0096987999999999,0.0013762000000003,-0.001906599999999,-0.0006555999999998,0,sub_15
0.0320523999999998,0.0434380000000012,-0.0097733999999999,-0.0001145999999996,-0.001686599999999,-0.0010935999999998,0,sub_15
0.0326321999999998,0.0439320000000012,-0.0102991999999999,-0.0018261999999996,-0.002101999999999,-0.0008901999999998,0,sub_15
0.0322207999999998,0.0444922000000012,-0.0099989999999999,-0.0026795999999996,-0.001879599999999,-0.0011089999999998,0,sub_15
0.0319595999999998,0.0449806000000012,-0.0098959999999999,-0.0031089999999996,-0.001873399999999,-0.0008969999999998,0,sub_15
0.0320541999999998,0.0453862000000012,-0.0091121999999999,-0.0026897999999996,-0.002935399999999,-0.0006777999999998,0,sub_15
0.0321179999999998,0.0452816000000012,-0.0089931999999999,-0.0016293999999996,-0.003574399999999,-0.0002409999999998,0,sub_15
0.0322879999999998,0.0449082000000012,-0.0082775999999999,-0.0003443999999996,-0.002725799999999,-0.0004467999999998,0,sub_15
0.0322503999999998,0.0450772000000012,-0.0091167999999999,8.520000000037334e-05,-0.002088199999999,-0.0004445999999998,0,sub_15
0.0322895999999998,0.0451528000000012,-0.0093311999999999,8.320000000037333e-05,-0.001650799999999,-0.0002325999999998,0,sub_15
0.0322037999999998,0.0455602000000012,-0.0097431999999999,-0.0001321999999996,-0.001424999999999,-0.0002353999999998,0,sub_15
0.0316615999999998,0.0460782000000012,-0.0091861999999999,-0.0005619999999996,-0.001199199999999,-2.5999999999824808e-05,0,sub_15
0.0313729999999997,0.0459910000000012,-0.0087457999999999,-0.0007821999999996,-0.001614199999999,0.0003992000000001,0,sub_15
0.0312533999999998,0.0451790000000012,-0.0080565999999999,-0.0001449999999996,-0.001604399999999,0.0004026000000001,0,sub_15
0.0311479999999997,0.0444642000000012,-0.0079189999999999,0.0004970000000003,-0.001604999999999,-2.019999999982483e-05,0,sub_15
0.0312695999999997,0.0437928000000012,-0.0080963999999999,0.0005028000000003,-0.000750999999999,-0.0004485999999998,0,sub_15
0.0314181999999997,0.0437174000000012,-0.0087753999999998,0.0005066000000003,-0.000110999999999,-0.0006629999999998,0,sub_15
0.0317715999999998,0.0440326000000012,-0.0093959999999998,-0.0003429999999996,-0.000104599999999,-0.0015233999999998,0,sub_15
0.0317769999999998,0.0447258000000012,-0.0097595999999998,-0.0014129999999996,-0.000727599999999,-0.0015307999999998,0,sub_15
0.0322033999999998,0.0452540000000012,-0.0098365999999998,-0.0022705999999996,-0.001139999999999,-0.0011095999999998,0,sub_15
0.0316857999999998,0.0456530000000012,-0.0099065999999998,-0.0027013999999996,-0.0015539999999989,-0.0006853999999998,0,sub_15
0.0318499999999998,0.0458490000000012,-0.0096911999999998,-0.0029177999999996,-0.0019677999999989,-0.0004735999999998,0,sub_15
0.0313311999999998,0.0454468000000012,-0.0096525999999998,-0.0022817999999996,-0.001961199999999,0.0003846000000001,0,sub_15
0.0317569999999998,0.0450708000000012,-0.0097567999999998,-0.0016415999999996,-0.001963399999999,0.0003892000000001,0,sub_15
0.0320943999999998,0.0448654000000012,-0.0099253999999998,-0.0010013999999996,-0.002177799999999,0.0001802000000001,0,sub_15
0.0325427999999998,0.0445468000000012,-0.0098955999999998,-0.0010023999999996,-0.002815199999999,-0.0002461999999998,0,sub_15
0.0325163999999998,0.0444172000000012,-0.0096579999999998,-0.0007893999999996,-0.003446399999999,-0.0004557999999998,0,sub_15
0.0330627999999998,0.0443864000000012,-0.0103283999999998,-0.0007905999999996,-0.004289799999999,-0.0006667999999998,0,sub_15
0.0329093999999998,0.0442402000000012,-0.0103729999999998,-0.0018567999999996,-0.004279199999999,-0.0004589999999998,0,sub_15
0.0320733999999998,0.0442436000000012,-0.0097835999999998,-0.0024933999999996,-0.003206399999999,0.0001778000000001,0,sub_15
0.0316295999999998,0.0440058000000012,-0.0094687999999999,-0.0020611999999996,-0.001498999999999,0.0010348000000001,0,sub_15
0.0311249999999998,0.0434048000000012,-0.0096955999999999,-0.0029145999999996,-0.000647399999999,0.0018822000000001,0,sub_15
0.0303457999999998,0.0443854000000012,-0.0087533999999998,-0.0037643999999996,0.0006322000000009,0.0023020000000001,0,sub_15
0.0295421999999998,0.0458188000000012,-0.0082831999999998,-0.0035493999999996,0.0017026000000009,0.0027302000000001,0,sub_15
0.0289339999999998,0.0461826000000012,-0.0082865999999998,-0.0039773999999996,0.0017114000000009,0.0027280000000001,0,sub_15
0.0287797999999997,0.0466090000000012,-0.0084427999999998,-0.0044063999999995,0.0010828000000009,0.0022994000000001,0,sub_15
0.0292151999999997,0.0471502000000012,-0.0080921999999998,-0.0037579999999995,0.0023698000000009,0.0014486000000001,0,sub_15
0.0297939999999997,0.0462366000000012,-0.0083613999999998,-0.0033237999999996,0.0034444000000009,0.0005966000000001,0,sub_15
0.0308765999999998,0.0442294000000012,-0.0086891999999998,-0.0030999999999996,0.0047262000000009,-0.0004715999999998,0,sub_15
0.0316997999999997,0.0429996000000012,-0.0095913999999998,-0.0037315999999995,0.0055850000000009,-0.0015453999999998,0,sub_15
0.0323675999999998,0.0423718000000012,-0.0107767999999998,-0.0060757999999996,0.0060202000000009,-0.0017759999999998,0,sub_15
0.0329409999999998,0.0420532000000012,-0.0111833999999998,-0.0086419999999996,0.0051752000000009,-0.0013655999999998,0,sub_15
0.0334125999999998,0.0428234000000012,-0.0110707999999998,-0.0103513999999996,0.0051872000000009,-0.0005213999999998,0,sub_15
0.0344207999999998,0.0443054000000012,-0.0108861999999998,-0.0114311999999995,0.0030656000000009,0.0005436000000001,0,sub_15
0.0361075999999998,0.0456126000000012,-0.0099025999999999,-0.0105887999999996,0.0007266000000009,0.0009816000000001,0,sub_15
0.0374921999999998,0.0462730000000012,-0.0084803999999998,-0.0071743999999996,-0.000125599999999,0.0003672000000001,0,sub_15
0.0375131999999998,0.0459784000000012,-0.0088495999999998,-0.0035457999999996,-0.000553199999999,-3.239999999984481e-05,0,sub_15
0.0370377999999998,0.0448064000000012,-0.0092841999999998,-0.0016303999999996,-0.002049599999999,-0.0004443999999998,0,sub_15
0.0349117999999998,0.0438350000000012,-0.0094431999999998,-0.0009931999999996,-0.002478799999999,-0.0002257999999998,0,sub_15
0.0326521999999998,0.0430982000000012,-0.0099601999999998,-0.0016389999999996,-0.002481599999999,0.0010514000000001,0,sub_15
0.0299705999999997,0.0432250000000012,-0.0099215999999998,-0.0035715999999996,-0.003963999999999,0.0027506000000001,0,sub_15
0.0284963999999997,0.0440662000000012,-0.0085035999999998,-0.0050735999999995,-0.005444599999999,0.0035982000000001,0,sub_15
0.0274127999999997,0.0452814000000012,-0.0071471999999999,-0.0048599999999995,-0.005650199999999,0.0038154000000001,0,sub_15
0.0273333999999997,0.0457180000000012,-0.0066193999999999,-0.0037843999999995,-0.004790199999999,0.0031826000000001,0,sub_15
0.0273393999999997,0.0457716000000012,-0.0066627999999999,-0.0024905999999996,-0.003502199999999,0.0019098000000001,0,sub_15
0.0276993999999997,0.0452294000000012,-0.0071395999999999,-0.0011949999999996,-0.001370999999999,0.0006342000000001,0,sub_15
0.0287099999999997,0.0445434000000012,-0.0077229999999998,-0.0009671999999996,0.0005508000000009,-0.0006485999999998,0,sub_15
0.0306085999999998,0.0435594000000012,-0.0088305999999998,-0.0011691999999996,0.0012048000000009,-0.0015043999999998,0,sub_15
0.0322097999999997,0.0431104000000012,-0.0094519999999998,-0.0018035999999996,0.0003698000000009,-0.0025747999999998,0,sub_15
0.0348069999999998,0.0432174000000012,-0.0099623999999998,-0.0022255999999996,-4.239999999903566e-05,-0.0030031999999998,0,sub_15
0.0369225999999998,0.0427200000000012,-0.0098829999999998,-0.0026497999999996,-0.000668399999999,-0.0032177999999998,0,sub_15
0.0380089999999998,0.0428684000000012,-0.0106517999999999,-0.0032891999999996,-0.001295399999999,-0.0030065999999998,0,sub_15
0.0381671999999998,0.0425772000000012,-0.0103499999999998,-0.0045713999999996,-0.001504799999999,-0.0028015999999998,0,sub_15
0.0379505999999997,0.0420976000000012,-0.0104857999999998,-0.0054239999999996,-0.000652199999999,-0.0021677999999998,0,sub_15
0.0354019999999997,0.0427294000000012,-0.0099987999999998,-0.0069223999999996,-0.001075599999999,-0.0015367999999998,0,sub_15
0.0334407999999997,0.0439196000000012,-0.0098013999999998,-0.0073505999999996,-0.002347999999999,-0.0004711999999998,0,sub_15
0.0320009999999997,0.0446134000000012,-0.0093237999999998,-0.0071329999999996,-0.002980599999999,-4.299999999984466e-05,0,sub_15
0.0303109999999997,0.0454916000000012,-0.0096483999999999,-0.0060609999999996,-0.002978999999999,0.0008178000000001,0,sub_15
0.0288411999999997,0.0462442000000012,-0.0099573999999999,-0.0052051999999996,-0.003191199999999,0.0021046000000001,0,sub_15
0.0284963999999997,0.0453940000000012,-0.0100563999999999,-0.0037055999999996,-0.002553599999999,0.0033946000000001,0,sub_15
0.0285099999999997,0.0450684000000012,-0.0099113999999999,-0.0028491999999996,-0.001492999999999,0.0038264000000001,0,sub_15
0.0285677999999997,0.0444980000000012,-0.0096909999999998,-0.0020005999999996,-0.001500399999999,0.0049006000000001,0,sub_15
0.0290769999999997,0.0444696000000012,-0.0100395999999998,-0.0013699999999996,-0.002571999999999,0.0059746000000001,0,sub_15
0.0300839999999997,0.0447542000000012,-0.0097205999999998,0.0005408000000003,-0.004496999999999,0.0062040000000001,0,sub_15
0.0305313999999997,0.0456944000000012,-0.0092537999999998,0.0028988000000003,-0.006213799999999,0.0064362000000001,0,sub_15
0.0306869999999997,0.0468692000000012,-0.0090941999999998,0.0052586000000003,-0.007504599999999,0.0066678000000001,0,sub_15
0.0309109999999998,0.0482180000000012,-0.0089529999999998,0.0084788000000003,-0.007731199999999,0.0064768000000001,0,sub_15
0.0313719999999998,0.0488678000000012,-0.0079665999999998,0.0119152000000003,-0.007956199999999,0.0056462000000001,0,sub_15
0.0313451999999997,0.0487810000000012,-0.0077947999999998,0.0136454000000003,-0.007537799999999,0.0052302000000001,0,sub_15
0.0317993999999997,0.0481104000000012,-0.0081135999999998,0.0149334000000003,-0.007110999999999,0.0039568000000001,0,sub_15
0.0321649999999997,0.0459378000000012,-0.0092453999999998,0.0151516000000003,-0.007107399999999,0.0028902000000001,0,sub_15
0.0323185999999997,0.0436566000000012,-0.0096243999999998,0.0138990000000003,-0.007099799999999,0.0020244000000001,0,sub_15
0.0321569999999997,0.0416894000000012,-0.0099871999999998,0.0113728000000003,-0.005808399999999,0.0009344000000001,0,sub_15
0.0324331999999997,0.0402062000000012,-0.0102241999999998,0.0086334000000003,-0.004516399999999,-0.0001569999999998,0,sub_15
0.0327661999999997,0.0393396000000012,-0.0104509999999999,0.0056776000000003,-0.003226199999999,-0.0006089999999998,0,sub_15
0.0329005999999997,0.0395730000000012,-0.0102155999999999,0.0020808000000003,-0.001510199999999,-0.0004251999999998,0,sub_15
0.0335571999999997,0.0402816000000012,-0.0103153999999998,-0.0009025999999996,-0.000435399999999,-0.0002337999999998,0,sub_15
0.0336341999999997,0.0412150000000012,-0.0102203999999998,-0.0030351999999996,0.0002094000000009,0.0001778000000001,0,sub_15
0.0337645999999998,0.0425822000000012,-0.0094997999999998,-0.0041001999999996,0.0010638000000009,0.0005966000000001,0,sub_15
0.0340689999999997,0.0439764000000012,-0.0083489999999998,-0.0045221999999996,0.0017062000000009,0.0001654000000001,0,sub_15
0.0341539999999997,0.0442774000000012,-0.0077571999999998,-0.0030009999999996,0.0019234000000009,-0.0011095999999998,0,sub_15
0.0341059999999997,0.0437906000000012,-0.0076087999999998,-0.0016931999999996,0.0021414000000009,-0.0023859999999998,0,sub_15
0.0347861999999997,0.0430864000000012,-0.0079453999999999,-0.0008123999999996,0.0023608000000009,-0.0036653999999998,0,sub_15
0.0347423999999998,0.0419468000000012,-0.0086691999999999,-0.0001465999999996,0.0021548000000009,-0.0049457999999998,0,sub_15
0.0346941999999998,0.0406516000000012,-0.0100345999999999,-0.0009763999999996,0.0021644000000009,-0.0055959999999998,0,sub_15
0.0347161999999998,0.0403134000000012,-0.0111881999999999,-0.0033235999999996,0.0021726000000009,-0.0056123999999998,0,sub_15
0.0337681999999998,0.0413510000000012,-0.0120341999999999,-0.0061013999999996,0.0017544000000009,-0.0052039999999998,0,sub_15
0.0325433999999998,0.0427780000000012,-0.0124005999999999,-0.0084617999999996,0.0004774000000009,-0.0035097999999998,0,sub_15
0.0309067999999998,0.0448886000000012,-0.0120147999999999,-0.0107963999999996,-0.000367199999999,-0.0018157999999998,0,sub_15
0.0290379999999998,0.0470494000000012,-0.0108015999999998,-0.0114257999999996,-0.001431399999999,0.0001042000000001,0,sub_15
0.0274253999999998,0.0491312000000012,-0.0098571999999998,-0.0099213999999995,-0.002715399999999,0.0018256000000001,0,sub_15
0.0271773999999998,0.0497080000000012,-0.0091341999999998,-0.0071329999999996,-0.004000399999999,0.0027014000000001,0,sub_15
0.0274775999999998,0.0491950000000012,-0.0088145999999998,-0.0039121999999996,-0.005069599999999,0.0025118000000001,0,sub_15
0.0281279999999998,0.0485104000000012,-0.0085513999999998,-0.0005019999999996,-0.005933599999999,0.0025368000000001,0,sub_15
0.0295207999999998,0.0469444000000012,-0.0090743999999999,0.0022738000000003,-0.006153799999999,0.0019154000000001,0,sub_15
0.0313679999999998,0.0450056000000012,-0.0093471999999999,0.0025108000000003,-0.005714199999999,0.0012664000000001,0,sub_15
0.0323403999999998,0.0435164000000012,-0.0095833999999999,0.0029642000000003,-0.003999599999999,0.0012582000000001,0,sub_15
0.0332615999999998,0.0419982000000012,-0.0098631999999999,0.0025680000000003,-0.001005199999999,0.0016696000000001,0,sub_15
0.0342401999999997,0.0404646000000012,-0.0101833999999998,0.0013144000000003,0.0009276000000009,0.0018628000000001,0,sub_15
0.0352333999999997,0.0395704000000012,-0.0105955999999998,-0.0007993999999996,0.0015842000000009,0.0022654000000001,0,sub_15
0.0358073999999997,0.0396494000000012,-0.0099989999999998,-0.0022909999999996,0.0026522000000009,0.0028946000000001,0,sub_15
0.0362745999999997,0.0398646000000012,-0.0101437999999998,-0.0044275999999996,0.0022328000000009,0.0030938000000001,0,sub_15
0.0360297999999997,0.0408632000000012,-0.0097295999999998,-0.0061403999999996,0.0003238000000009,0.0024434000000001,0,sub_15
0.0362989999999997,0.0417832000000012,-0.0094661999999998,-0.0074307999999996,-0.000497999999999,0.0013522000000001,0,sub_15
0.0355321999999997,0.0426026000000012,-0.0089795999999998,-0.0080791999999996,-0.000683599999999,0.0004782000000001,0,sub_15
0.0345279999999998,0.0426236000000012,-0.0090481999999998,-0.0076635999999996,-0.001724399999999,-0.0006007999999998,0,sub_15
0.0333369999999997,0.0428894000000012,-0.0085465999999998,-0.0074593999999996,-0.002126199999999,-0.0014683999999998,0,sub_15
0.0325369999999997,0.0434462000000012,-0.0082691999999998,-0.0072551999999996,-0.002103599999999,-0.0019091999999997,0,sub_15
0.0319295999999997,0.0437942000000012,-0.0086859999999998,-0.0074705999999996,-0.002316799999999,-0.0016967999999997,0,sub_15
0.0318639999999997,0.0442200000000012,-0.0091323999999998,-0.0070447999999996,-0.002106999999999,-0.0012667999999997,0,sub_15
0.0315175999999997,0.0450730000000012,-0.0092865999999999,-0.0070447999999996,-0.001682599999999,-0.0008401999999998,0,sub_15
0.0317015999999997,0.0453670000000012,-0.0097261999999999,-0.0068295999999996,-0.001469399999999,-0.0010525999999998,0,sub_15
0.0321541999999998,0.0456418000000012,-0.0096641999999999,-0.0064113999999996,-0.001454799999999,-0.0012729999999998,0,sub_15
0.0319871999999998,0.0459284000000012,-0.0091755999999999,-0.0051377999999996,-0.001229199999999,-0.0017013999999998,0,sub_15
0.0316673999999998,0.0461608000000012,-0.0091183999999999,-0.0038651999999996,-0.001428799999999,-0.0023427999999998,0,sub_15
0.0320657999999998,0.0463928000000012,-0.0096001999999999,-0.0025905999999996,-0.001414599999999,-0.0031979999999998,0,sub_15
0.0321345999999998,0.0469810000000012,-0.0096443999999999,-0.0011091999999996,-0.001619199999999,-0.0027697999999998,0,sub_15
0.0321657999999997,0.0471386000000012,-0.0099717999999999,0.0008102000000003,-0.001626599999999,-0.0025427999999998,0,sub_15
0.0325049999999998,0.0465094000000012,-0.0105373999999999,0.0023000000000003,-0.002059599999999,-0.0021045999999998,0,sub_15
0.0328007999999997,0.0460632000000012,-0.0109587999999999,0.0035794000000003,-0.002485199999999,-0.0014537999999998,0,sub_15
0.0328915999999997,0.0453134000000012,-0.0111121999999999,0.0046406000000003,-0.003338599999999,-0.0001631999999998,0,sub_15
0.0328989999999997,0.0440998000000012,-0.0102829999999999,0.0052836000000003,-0.003121999999999,0.0002686000000001,0,sub_15
