userAcceleration.x,userAcceleration.y,userAcceleration.z,rotationRate.x,rotationRate.y,rotationRate.z,label,subject
0.0101313999999998,-0.0121919999999987,0.0025736,0.0036916000000003,0.0001400000000008,0.0026446000000001,0,sub_14
0.0095791999999998,-0.0114897999999987,0.0030242,0.0043252000000003,0.0005640000000008,0.0020006000000001,0,sub_14
0.0090221999999998,-0.0112463999999987,0.0031386,0.0051752000000003,0.0014142000000008,0.0011440000000001,0,sub_14
0.0085665999999998,-0.0111381999999987,0.0025226,0.0060354000000003,0.0026904000000008,0.0009348000000001,0,sub_14
0.0082961999999998,-0.0104637999999987,0.0026512,0.0066850000000003,0.0041820000000008,0.0002964000000001,0,sub_14
0.0086377999999998,-0.0101279999999987,0.002489,0.0075462000000003,0.0054592000000008,-0.0001265999999998,0,sub_14
0.0096513999999998,-0.0101229999999987,0.0016954,0.0081914000000003,0.0077994000000008,-0.0007693999999998,0,sub_14
0.0110467999999998,-0.0104015999999987,0.0009692,0.0086192000000003,0.0099246000000008,-0.0007723999999998,0,sub_14
0.0122027999999998,-0.0100881999999987,0.000834,0.0077736000000003,0.0124848000000008,-0.0018531999999998,0,sub_14
0.0136149999999998,-0.0106657999999987,0.0008258,0.0060756000000003,0.0152612000000008,-0.0029399999999998,0,sub_14
0.0146923999999997,-0.0108599999999987,0.0013396,0.0024590000000003,0.0182580000000008,-0.0042541999999998,0,sub_14
0.0154843999999997,-0.0110767999999987,0.002214,-0.0015749999999996,0.0208364000000008,-0.0062083999999998,0,sub_14
0.0157137999999997,-0.0107121999999987,0.0035938,-0.0051743999999996,0.0232080000000008,-0.0100821999999998,0,sub_14
0.0145421999999998,-0.0112929999999987,0.0034342,-0.0064385999999996,0.0244988000000008,-0.0141547999999998,0,sub_14
0.0131311999999998,-0.0114487999999987,0.002934,-0.0068541999999996,0.0249336000000008,-0.0180067999999998,0,sub_14
0.0115767999999998,-0.0109355999999987,0.002048,-0.0064267999999996,0.0240828000000008,-0.0207829999999998,0,sub_14
0.0091397999999998,-0.0103107999999987,0.0012094,-0.0081387999999996,0.0232344000000008,-0.0222923999999998,0,sub_14
0.0059677999999998,-0.0105461999999987,-6.199999999994072e-05,-0.0107169999999996,0.0221658000000008,-0.0212437999999998,0,sub_14
0.0048663999999998,-0.0096323999999987,0.0001616,-0.0133033999999996,0.0200298000000008,-0.0176271999999998,0,sub_14
0.0040367999999998,-0.0074253999999987,0.0006076,-0.0167423999999996,0.0183220000000008,-0.0138035999999997,0,sub_14
0.0033103999999998,-0.0079785999999987,7.220000000003924e-05,-0.0212471999999996,0.0161944000000008,-0.0106275999999997,0,sub_14
0.0026249999999998,-0.0089817999999987,0.0003964,-0.0229871999999996,0.0138368000000008,-0.0078657999999997,0,sub_14
0.0020345999999998,-0.0097155999999987,0.001126,-0.0232353999999996,0.0104112000000008,-0.0057331999999998,0,sub_14
0.0016593999999998,-0.0114251999999987,0.0019786,-0.0234759999999996,0.0074168000000008,-0.0048827999999998,0,sub_14
0.0017403999999998,-0.0147127999999987,0.0016234,-0.0211539999999996,0.0048394000000008,-0.0040149999999998,0,sub_14
0.0024121999999998,-0.0155753999999987,0.0016078,-0.0162687999999996,0.0028924000000008,-0.0031303999999998,0,sub_14
0.0033679999999998,-0.0156695999999987,0.0013184,-0.0115927999999996,-0.0001109999999991,-0.0020255999999998,0,sub_14
0.0054791999999998,-0.0144369999999987,0.0011506,-0.0092627999999996,-0.0026809999999991,-0.0007241999999998,0,sub_14
0.0061351999999998,-0.0127851999999987,0.0005362,-0.0086379999999996,-0.0048189999999991,0.0005646000000001,0,sub_14
0.0059531999999998,-0.0109441999999987,0.0004152,-0.0090867999999996,-0.008232199999999,0.0020612000000001,0,sub_14
0.0052999999999998,-0.0102323999999987,0.0016388,-0.0095545999999996,-0.011653799999999,0.0046114000000001,0,sub_14
0.0049937999999998,-0.0105877999999986,0.0013228,-0.0098099999999996,-0.014227999999999,0.0082300000000001,0,sub_14
0.0040949999999998,-0.0120737999999986,0.0003242,-0.0081507999999996,-0.017026199999999,0.0129308000000001,0,sub_14
0.0041853999999998,-0.0133321999999986,0.000836,-0.0064963999999996,-0.020252999999999,0.0182730000000001,0,sub_14
0.0047549999999998,-0.0144343999999986,0.0017586,-0.0056897999999996,-0.022410799999999,0.0233942000000001,0,sub_14
0.0062949999999998,-0.0143643999999986,0.0019422,-0.0050755999999996,-0.024345799999999,0.0272466000000001,0,sub_14
0.0079589999999998,-0.0129623999999986,0.0027426,-0.0048793999999996,-0.026271799999999,0.0291734000000001,0,sub_14
0.0097517999999998,-0.0112981999999986,0.0036858,-0.0050927999999996,-0.026907799999999,0.0285318000000001,0,sub_14
0.0116905999999998,-0.0100287999999987,0.003163,-0.0048881999999996,-0.025846799999999,0.0265972000000001,0,sub_14
0.0127679999999998,-0.0090861999999987,0.002725,-0.0044673999999996,-0.0239349999999991,0.0248768000000001,0,sub_14
0.0127135999999998,-0.0093579999999987,0.0021796,-0.0048971999999996,-0.0211687999999991,0.0233630000000001,0,sub_14
0.0127259999999998,-0.0107217999999987,0.0019658,-0.0051107999999996,-0.0177641999999991,0.0218498000000001,0,sub_14
0.0129281999999998,-0.0124211999999987,0.0020276,-0.0042537999999996,-0.0132987999999991,0.0205564000000001,0,sub_14
0.0129265999999998,-0.0138275999999987,0.0026734,-0.0025189999999996,-0.0096725999999991,0.0180002000000001,0,sub_14
0.0133965999999998,-0.0151669999999987,0.003415,0.0002904000000003,-0.0062555999999991,0.0135288000000001,0,sub_14
0.0141161999999998,-0.0147851999999987,0.0041062,0.0037464000000003,-0.0026225999999991,0.0077798000000001,0,sub_14
0.0145285999999998,-0.0137853999999987,0.0044322,0.0065490000000003,0.0003270000000008,0.0013986000000001,0,sub_14
0.0143919999999998,-0.0124073999999987,0.0044408,0.0072142000000003,0.0028562000000008,-0.0045697999999998,0,sub_14
0.0137015999999998,-0.0115021999999987,0.003619,0.0059504000000003,0.0055968000000008,-0.0084153999999998,0,sub_14
0.0130903999999998,-0.0097779999999987,0.0028644,0.0036130000000003,0.0081230000000008,-0.0109861999999997,0,sub_14
0.0122219999999998,-0.0089903999999987,0.0024056,0.0016938000000003,0.0097912000000008,-0.0124847999999997,0,sub_14
0.0113543999999998,-0.0087113999999987,0.002051,0.0010624000000003,0.0112866000000008,-0.0129183999999997,0,sub_14
0.0107483999999998,-0.0086547999999987,0.0010456,0.0010644000000003,0.0121372000000008,-0.0124921999999997,0,sub_14
0.0097661999999998,-0.0084041999999987,0.0010926,0.0008480000000003,0.0121354000000008,-0.0118527999999997,0,sub_14
0.0083903999999998,-0.0092143999999987,0.0010268,7.000000000368343e-06,0.0109954000000008,-0.0096843999999998,0,sub_14
0.0078779999999998,-0.0103111999999986,0.0008928,-0.0021131999999996,0.0104974000000008,-0.0070985999999998,0,sub_14
0.0072865999999998,-0.0113941999999986,0.0006392,-0.0046591999999996,0.0100018000000008,-0.0047293999999998,0,sub_14
0.0066111999999998,-0.0125041999999987,0.0014274,-0.0063477999999996,0.0090822000000008,-0.0036353999999998,0,sub_14
0.0063087999999998,-0.0131065999999987,0.0017592,-0.0067483999999996,0.0083772000000008,-0.0040281999999998,0,sub_14
0.0062553999999998,-0.0132767999999987,0.0020164,-0.0058833999999996,0.0079600000000008,-0.0070127999999998,0,sub_14
0.0057893999999997,-0.0137467999999987,0.002711,-0.0039505999999996,0.0075400000000008,-0.0102033999999998,0,sub_14
0.0054343999999997,-0.0122439999999987,0.0043858,0.0005380000000003,0.0071068000000008,-0.0123077999999998,0,sub_14
0.0056033999999998,-0.0099907999999987,0.0051904,0.0040020000000003,0.0062124000000008,-0.0141829999999998,0,sub_14
0.0067207999999998,-0.0106005999999987,0.0035096,0.0051160000000003,0.0063846000000008,-0.0143669999999998,0,sub_14
0.0082221999999998,-0.0104587999999986,0.0029284,0.0047288000000003,0.0074040000000008,-0.0119985999999998,0,sub_14
0.0097833999999998,-0.0102433999999986,0.003851,0.0041234000000003,0.0075710000000008,-0.0094171999999998,0,sub_14
0.0113221999999998,-0.0115093999999986,0.0033592,0.0018196000000003,0.0086004000000008,-0.0079169999999998,0,sub_14
0.0132505999999998,-0.0134451999999986,0.0021608,0.0003268000000003,0.0105162000000008,-0.0062207999999998,0,sub_14
0.0143937999999998,-0.0131557999999986,0.0029874,0.0007526000000003,0.0107260000000008,-0.0057907999999998,0,sub_14
0.0141823999999998,-0.0141523999999987,0.0037974,0.0016032000000003,0.0094474000000008,-0.0064241999999998,0,sub_14
0.0124479999999998,-0.0156379999999987,0.0027286,0.0027108000000003,0.0081888000000008,-0.0068743999999998,0,sub_14
0.0100659999999998,-0.0170767999999987,0.0023316,0.0042344000000003,0.0056462000000008,-0.0062517999999998,0,sub_14
0.0063395999999998,-0.0180595999999987,0.002852,0.0068202000000003,0.0028834000000008,-0.0047669999999998,0,sub_14
0.0028883999999998,-0.0176135999999987,0.0031056,0.0106890000000003,0.0018162000000008,-0.0022069999999998,0,sub_14
0.0010039999999998,-0.0157895999999987,0.0025104,0.0147750000000003,0.0020248000000008,0.0007800000000001,0,sub_14
0.0010239999999998,-0.0124559999999987,0.0014986,0.0166838000000003,0.0024322000000008,0.0037840000000001,0,sub_14
0.0026775999999998,-0.0091363999999987,0.000538,0.0149710000000003,0.0032818000000008,0.0059074000000001,0,sub_14
0.0052575999999998,-0.0062801999999987,-0.0001677999999999,0.0107006000000003,0.0037186000000008,0.0069454000000001,0,sub_14
0.0075303999999998,-0.0050177999999987,-0.0005021999999999,0.0051816000000003,0.0031364000000008,0.0066428000000001,0,sub_14
0.0101865999999998,-0.0061453999999987,0.00014,0.0013726000000003,0.0017020000000008,0.0048578000000001,0,sub_14
0.0124609999999998,-0.0081001999999986,0.0015476,-0.0007247999999996,0.0002658000000008,0.0020166000000001,0,sub_14
0.0138785999999998,-0.0107325999999986,0.00307,-0.0002595999999996,-0.001177599999999,-0.0012339999999998,0,sub_14
0.0150713999999998,-0.0137037999999986,0.0048026,0.0008466000000003,-0.001985999999999,-0.0040537999999998,0,sub_14
0.0160669999999998,-0.0164157999999986,0.0071028,0.0019202000000003,-0.001983799999999,-0.0055417999999998,0,sub_14
0.0163703999999998,-0.0173715999999986,0.007677,0.0017126000000003,-0.000916999999999,-0.0057581999999998,0,sub_14
0.0148177999999998,-0.0175063999999987,0.0071104,0.0015190000000003,0.0007902000000009,-0.0047091999999998,0,sub_14
0.0125689999999998,-0.0177591999999987,0.0062128,0.0008938000000003,0.0022824000000008,-0.0028081999999998,0,sub_14
0.0090393999999998,-0.0175059999999987,0.0041982,0.0006914000000003,0.0033454000000008,-0.0004763999999998,0,sub_14
0.0057427999999998,-0.0165997999999987,0.0021178,0.0021942000000003,0.0037640000000008,0.0016546000000001,0,sub_14
0.0026279999999998,-0.0161855999999987,0.0001152000000001,0.0058306000000003,0.0033264000000008,0.0029470000000001,0,sub_14
0.0015197999999998,-0.0155073999999987,-0.0004839999999998,0.0107332000000003,0.0030928000000008,0.0038362000000001,0,sub_14
0.0010423999999998,-0.0135171999999987,-0.0007731999999998,0.0158540000000003,0.0030750000000008,0.0038720000000001,0,sub_14
0.0023713999999998,-0.0116191999999987,-0.0007865999999999,0.0199110000000003,0.0032756000000008,0.0034728000000001,0,sub_14
0.0051967999999998,-0.0101229999999987,-0.0006291999999999,0.0209798000000003,0.0026370000000008,0.0024128000000001,0,sub_14
0.0075853999999998,-0.0089755999999987,0.0004652,0.0186470000000003,0.0019952000000008,0.0017652000000001,0,sub_14
0.0095447999999998,-0.0086361999999987,0.001315,0.0148158000000003,0.0002934000000008,0.0011086000000001,0,sub_14
0.0124237999999998,-0.0102987999999987,0.002045,0.0111960000000003,-0.0014109999999991,0.0008808000000001,0,sub_14
0.0132257999999997,-0.0126087999999987,0.0036056,0.0084258000000003,-0.0033337999999991,0.0013002000000001,0,sub_14
0.0126781999999997,-0.0144901999999987,0.0051466,0.0067244000000003,-0.004409799999999,0.0021532000000001,0,sub_14
0.0124617999999998,-0.0164767999999987,0.0058022,0.0060794000000003,-0.004199599999999,0.0034304000000001,0,sub_14
0.0113221999999998,-0.0183311999999987,0.0064112,0.0065110000000003,-0.002286999999999,0.0042856000000001,0,sub_14
0.0091617999999998,-0.0183165999999987,0.007185,0.0084468000000003,0.0009030000000009,0.0040814000000001,0,sub_14
0.0084189999999998,-0.0174667999999987,0.006583,0.0108264000000003,0.0053506000000009,0.0019800000000001,0,sub_14
0.0076149999999998,-0.0171121999999987,0.0036122,0.0132098000000003,0.0095894000000008,-0.0011893999999998,0,sub_14
0.0075033999999998,-0.0145651999999987,0.0018938,0.0151664000000003,0.0125564000000008,-0.0056419999999998,0,sub_14
0.0079269999999998,-0.0119095999999987,0.0017462,0.0160436000000003,0.0125454000000008,-0.0103119999999998,0,sub_14
0.0093591999999998,-0.0095525999999987,-1.899999999994109e-05,0.0139212000000003,0.0114726000000008,-0.0132923999999997,0,sub_14
0.0107133999999998,-0.0073167999999987,-0.0021299999999999,0.0092194000000003,0.0093600000000008,-0.0137497999999998,0,sub_14
0.0120719999999998,-0.0046899999999987,-0.0007267999999999,0.0019464000000003,0.0063982000000008,-0.0127285999999998,0,sub_14
0.0127755999999998,-0.0038225999999987,0.0011578,-0.0057551999999996,0.0036486000000008,-0.0110697999999998,0,sub_14
0.0138335999999998,-0.0040183999999987,0.000598,-0.0119543999999996,0.0032356000000008,-0.0089761999999998,0,sub_14
0.0146507999999998,-0.0061741999999987,0.001757,-0.0156129999999996,0.0029998000000008,-0.0064239999999998,0,sub_14
0.0145425999999998,-0.0103033999999987,0.0038864,-0.0175655999999996,0.0023328000000008,-0.0040731999999998,0,sub_14
0.0140107999999998,-0.0150229999999987,0.0042828,-0.0169509999999996,0.0035726000000008,-0.0012793999999998,0,sub_14
0.0133717999999998,-0.0198485999999987,0.0035132,-0.0154885999999996,0.0052286000000008,0.0032290000000001,0,sub_14
0.0114727999999998,-0.0244971999999987,0.0046328,-0.0140311999999996,0.0053950000000008,0.0073120000000001,0,sub_14
0.0083195999999998,-0.0275077999999987,0.0054776,-0.0123367999999996,0.0051658000000008,0.0098878000000001,0,sub_14
0.0059405999999998,-0.0285685999999987,0.0060818,-0.0076503999999996,0.0055670000000008,0.0120566000000001,0,sub_14
0.0037119999999998,-0.0266533999999987,0.0060564,-0.0012667999999996,0.0055262000000008,0.0123278000000001,0,sub_14
0.0008987999999998,-0.0238107999999986,0.0057466,0.0085432000000003,0.0052724000000008,0.0096320000000001,0,sub_14
0.0005133999999998,-0.0203967999999987,0.0038798,0.0179342000000003,0.0063000000000008,0.0065044000000001,0,sub_14
0.0009763999999998,-0.0161725999999987,0.0017044,0.0251894000000003,0.0071212000000008,0.0035758000000001,0,sub_14
0.0020205999999998,-0.0118617999999986,0.000721,0.0294564000000003,0.0073154000000008,0.0001998000000001,0,sub_14
0.0039943999999998,-0.0095831999999986,0.0007198,0.0333076000000003,0.0070992000000008,-0.0023367999999998,0,sub_14
0.0084811999999997,-0.0081505999999987,0.0008794,0.0326684000000003,0.0062536000000008,-0.0034083999999998,0,sub_14
0.0119983999999997,-0.0064305999999987,0.0006708,0.0275416000000003,0.0052054000000008,-0.0032291999999998,0,sub_14
0.0156517999999997,-0.0057335999999987,0.000902,0.0189604000000003,0.0041500000000008,-0.0024289999999998,0,sub_14
0.0185045999999997,-0.0078373999999987,0.0027722,0.0088896000000003,0.0037398000000008,-0.0018535999999998,0,sub_14
0.0190247999999997,-0.0106833999999987,0.0056474,-0.0007507999999996,0.0035438000000008,-0.0019163999999998,0,sub_14
0.0160541999999998,-0.0128021999999987,0.0074044,-0.0065427999999996,0.0041898000000008,-0.0028079999999998,0,sub_14
0.0136295999999998,-0.0150481999999987,0.0076386,-0.0078463999999996,0.0048270000000008,-0.0053773999999998,0,sub_14
0.0109089999999998,-0.0171931999999987,0.0069976,-0.0048389999999996,0.0054710000000008,-0.0092027999999998,0,sub_14
0.0081449999999998,-0.0166499999999987,0.005337,-0.0001305999999996,0.0048308000000008,-0.0130147999999998,0,sub_14
0.0065943999999998,-0.0148983999999987,0.0027074,0.0037140000000003,0.0035476000000008,-0.0151227999999998,0,sub_14
0.0060655999999998,-0.0129951999999987,0.000289,0.0049380000000003,0.0016134000000008,-0.0151123999999998,0,sub_14
0.0043737999999998,-0.0120929999999987,-6.879999999990157e-05,0.0037932000000003,-0.0007565999999991,-0.0106315999999998,0,sub_14
0.0030801999999998,-0.0120769999999987,0.0001622,0.0002800000000003,-0.0029249999999991,-0.0012535999999998,0,sub_14
0.0022923999999998,-0.0125221999999987,-0.0007613999999998,-0.0040941999999996,-0.0040361999999991,0.0108944000000001,0,sub_14
0.0026547999999998,-0.0147161999999987,-0.0008653999999998,-0.0088923999999996,-0.0047189999999991,0.0228252000000001,0,sub_14
0.0044603999999998,-0.0156767999999987,0.0019776,-0.0112873999999996,-0.005602199999999,0.0326372000000001,0,sub_14
0.0076983999999998,-0.0155571999999987,0.0041114,-0.0112969999999996,-0.006035199999999,0.0343468000000001,0,sub_14
0.0112365999999998,-0.0179177999999987,0.005051,-0.0096013999999996,-0.006252799999999,0.0281816000000001,0,sub_14
0.0136075999999998,-0.0198011999999987,0.0070748,-0.0057539999999996,-0.007310599999999,0.0171186000000001,0,sub_14
0.0145917999999998,-0.0203481999999987,0.0087472,-0.0006205999999996,-0.008792199999999,0.0043560000000001,0,sub_14
0.0131213999999998,-0.0217679999999987,0.0076372,0.0043034000000003,-0.008571999999999,-0.0075555999999998,0,sub_14
0.0118019999999998,-0.0222579999999987,0.005224,0.0096358000000003,-0.007520599999999,-0.0145515999999998,0,sub_14
0.0095297999999998,-0.0188255999999987,0.0036448,0.0149778000000003,-0.007744599999999,-0.0164367999999998,0,sub_14
0.0077465999999998,-0.0151985999999987,0.0021328,0.0173134000000003,-0.007338599999999,-0.0134299999999998,0,sub_14
0.0064105999999998,-0.0111885999999987,0.000325,0.0157978000000003,-0.005443199999999,-0.0066063999999998,0,sub_14
0.0074035999999998,-0.0087831999999987,-0.0013389999999999,0.0091412000000003,-0.005881999999999,0.0023206000000001,0,sub_14
0.0072987999999998,-0.0077083999999987,-0.0006275999999999,-0.0009465999999996,-0.008889599999999,0.0108020000000001,0,sub_14
0.0072445999999998,-0.0093481999999987,0.0010726,-0.0097407999999996,-0.0108289999999991,0.0173682000000001,0,sub_14
0.0075679999999998,-0.0125233999999987,0.0017318,-0.0131889999999996,-0.0140497999999991,0.0201278000000001,0,sub_14
0.0091117999999998,-0.0171915999999987,0.0025464,-0.0106513999999996,-0.0187665999999991,0.0188718000000001,0,sub_14
0.0099757999999998,-0.0215301999999987,0.0035344,-0.0017001999999996,-0.0230703999999991,0.0153102000000001,0,sub_14
0.0105117999999998,-0.0253965999999987,0.004622,0.0140960000000003,-0.0246049999999991,0.0124314000000001,0,sub_14
0.0097901999999998,-0.0272085999999987,0.0049486,0.0309486000000003,-0.0257281999999991,0.0123368000000001,0,sub_14
0.0091621999999997,-0.0272329999999987,0.004594,0.0441290000000003,-0.0245317999999991,0.0139232000000001,0,sub_14
0.0070029999999997,-0.0266699999999987,0.0033316,0.0538888000000003,-0.0231171999999991,0.0171946000000001,0,sub_14
0.0048497999999997,-0.0243655999999987,0.0023914,0.0608758000000003,-0.0210553999999991,0.0208730000000001,0,sub_14
0.0031849999999997,-0.0207521999999987,0.0017796,0.0635888000000003,-0.0204701999999991,0.0245234000000001,0,sub_14
0.0034281999999997,-0.0160715999999987,0.0011574,0.0626840000000003,-0.0202881999999991,0.0255854000000001,0,sub_14
0.0041701999999998,-0.0103313999999987,0.000861,0.0594806000000003,-0.0215527999999991,0.0249236000000001,0,sub_14
0.0060291999999998,-0.0044797999999987,0.000795,0.0528700000000003,-0.0232237999999991,0.0223158000000001,0,sub_14
0.0084823999999998,-0.0010809999999987,0.0006648,0.0413536000000003,-0.0246637999999991,0.0194598000000001,0,sub_14
0.0102257999999998,0.0001966000000012,0.0004624,0.0253204000000003,-0.0259031999999991,0.0172286000000001,0,sub_14
0.0108043999999998,-0.0004233999999987,0.001647,0.0084318000000003,-0.027141399999999,0.0154186000000001,0,sub_14
0.0105015999999998,-0.0029851999999987,0.0028402,-0.0050417999999996,-0.027541799999999,0.0142724000000001,0,sub_14
0.0100787999999998,-0.0070131999999987,0.0042938,-0.0125389999999996,-0.027324999999999,0.0133808000000001,0,sub_14
0.0097467999999998,-0.0109077999999986,0.0056322,-0.0138417999999996,-0.026699399999999,0.0114636000000001,0,sub_14
0.0098769999999998,-0.0143805999999986,0.0058564,-0.0101931999999996,-0.024995799999999,0.0084960000000001,0,sub_14
0.0109913999999998,-0.0168619999999986,0.0056496,-0.0035555999999996,-0.022664199999999,0.0057620000000001,0,sub_14
0.0123113999999998,-0.0183331999999986,0.0058632,0.0032944000000003,-0.019909999999999,0.0036700000000001,0,sub_14
0.0128815999999998,-0.0180921999999987,0.0060302,0.0080116000000003,-0.0162983999999991,0.0022028000000001,0,sub_14
0.0127941999999998,-0.0171377999999987,0.006364,0.0107964000000003,-0.0124751999999991,0.0011292000000001,0,sub_14
0.0112695999999998,-0.0170687999999987,0.0068852,0.0114396000000003,-0.0092879999999991,0.0011096000000001,0,sub_14
0.0098461999999998,-0.0159463999999987,0.00713,0.0131440000000003,-0.0067461999999991,0.0017392000000001,0,sub_14
0.0090617999999998,-0.0144453999999987,0.00696,0.0137834000000003,-0.0050477999999991,0.0010804000000001,0,sub_14
0.0089177999999998,-0.0149375999999987,0.0054316,0.0127224000000003,-0.0027009999999991,-0.0004455999999998,0,sub_14
0.0081491999999998,-0.0158675999999987,0.0041196,0.0116718000000003,-0.0005607999999991,-0.0019511999999998,0,sub_14
0.0095311999999998,-0.0154431999999987,0.0032208,0.0123282000000003,0.0005126000000008,-0.0045117999999998,0,sub_14
0.0103159999999998,-0.0157183999999987,0.0023672,0.0110526000000003,0.0020378000000008,-0.0083803999999998,0,sub_14
0.0104799999999998,-0.0166159999999987,0.0017686,0.0091352000000003,0.0039880000000008,-0.0113993999999998,0,sub_14
0.0105177999999998,-0.0162393999999987,0.0022444,0.0076310000000003,0.0042272000000008,-0.0131315999999998,0,sub_14
0.0103431999999998,-0.0150535999999987,0.0033042,0.0048370000000003,0.0038256000000008,-0.0133763999999998,0,sub_14
0.0098575999999998,-0.0142881999999987,0.0034726,0.0009780000000003,0.0044904000000008,-0.0129891999999998,0,sub_14
0.0097741999999998,-0.0137385999999987,0.0033044,-0.0026521999999996,0.0049248000000008,-0.0119469999999998,0,sub_14
0.0100965999999998,-0.0142215999999987,0.002284,-0.0050021999999996,0.0053548000000008,-0.0108957999999998,0,sub_14
0.0101405999999998,-0.0148359999999987,0.001496,-0.0071377999999996,0.0062092000000008,-0.0096297999999998,0,sub_14
0.0102075999999998,-0.0153029999999987,0.0008498,-0.0079913999999996,0.0068488000000008,-0.0089957999999998,0,sub_14
0.0102015999999998,-0.0151967999999987,0.0022312,-0.0094973999999996,0.0075102000000008,-0.0092317999999997,0,sub_14
0.0103261999999998,-0.0150015999999987,0.0031366,-0.0116395999999996,0.0081774000000008,-0.0103269999999997,0,sub_14
0.0098177999999998,-0.0144435999999987,0.0046956,-0.0148477999999996,0.0088490000000008,-0.0116431999999997,0,sub_14
0.0096801999999998,-0.0142599999999987,0.006223,-0.0182673999999996,0.0097354000000008,-0.0131749999999997,0,sub_14
0.0098837999999997,-0.0147483999999987,0.0065934,-0.0223231999999996,0.0116884000000008,-0.0144987999999997,0,sub_14
0.0096937999999998,-0.0147169999999986,0.0051968,-0.0253017999999996,0.0136164000000008,-0.0145221999999998,0,sub_14
0.0094871999999998,-0.0145623999999986,0.0039834,-0.0276449999999996,0.0155378000000008,-0.0134727999999998,0,sub_14
0.0098503999999998,-0.0139969999999987,0.0029749999999999,-0.0295653999999996,0.0170300000000008,-0.0119925999999998,0,sub_14
0.0095205999999997,-0.0131069999999987,0.0024586,-0.0308503999999996,0.0172424000000008,-0.0107197999999998,0,sub_14
0.0086405999999998,-0.0123549999999987,0.0013542,-0.0304323999999996,0.0161722000000008,-0.0098607999999998,0,sub_14
