userAcceleration.x,userAcceleration.y,userAcceleration.z,rotationRate.x,rotationRate.y,rotationRate.z,label,subject
0.0264733999999998,-0.0289591999999987,0.0189428000000001,0.0036540000000004,0.0050752000000008,-0.0020417999999998,0,sub_11
0.0303033999999998,-0.0277001999999987,0.0195966000000001,-0.0006277999999995,-1.559999999912118e-05,-0.0039879999999998,0,sub_11
0.0302695999999998,-0.0319435999999987,0.0201344000000001,-0.0044837999999995,-0.0053133999999991,-0.0048643999999998,0,sub_11
0.0265123999999998,-0.0401511999999987,0.0205080000000001,-0.0072757999999995,-0.0095563999999991,-0.0040255999999998,0,sub_11
0.0203083999999998,-0.0501177999999987,0.0189210000000001,-0.0085693999999995,-0.012102599999999,-0.0025375999999998,0,sub_11
0.0119741999999998,-0.0602857999999987,0.0167506,-0.0075061999999995,-0.011465599999999,3.100000000017047e-05,0,sub_11
0.0049507999999998,-0.0660507999999987,0.014273,-0.0040757999999995,-0.004664999999999,0.0043174000000001,0,sub_11
0.0012869999999998,-0.0657741999999987,0.0115472,0.0004338000000004,0.0053184000000009,0.0079680000000001,0,sub_11
0.0022765999999998,-0.0595893999999987,0.0090846,0.0040986000000004,0.0146758000000009,0.0090498000000001,0,sub_11
0.0069313999999998,-0.0498427999999987,0.0083192,0.0062630000000004,0.0195762000000008,0.0071360000000001,0,sub_11
0.0139125999999997,-0.0385589999999987,0.0106126000000001,0.0073486000000004,0.0200180000000008,0.0035092000000001,0,sub_11
0.0201725999999997,-0.0295313999999987,0.0138118000000001,0.0069280000000004,0.0157856000000008,-0.0020449999999998,0,sub_11
0.0253093999999997,-0.0253741999999987,0.0174402000000001,0.0047814000000004,0.0079348000000008,-0.0069655999999998,0,sub_11
0.0279929999999998,-0.0268223999999987,0.0202386000000001,0.0019744000000004,-0.0022657999999991,-0.0097513999999998,0,sub_11
0.0276691999999998,-0.0318609999999987,0.0216258000000001,-0.0010449999999995,-0.0097061999999991,-0.0099785999999998,0,sub_11
0.0234423999999998,-0.0414463999999987,0.0209158000000001,-0.0040619999999995,-0.014390399999999,-0.0080707999999998,0,sub_11
0.0182053999999998,-0.0512591999999987,0.0185042000000001,-0.0051527999999995,-0.015893399999999,-0.0042309999999998,0,sub_11
0.0124775999999998,-0.0579715999999987,0.0155866000000001,-0.0047279999999995,-0.0127135999999991,-0.0006001999999998,0,sub_11
0.0077885999999997,-0.0606271999999987,0.012635,-0.0032119999999995,-0.0056963999999991,0.0017510000000001,0,sub_11
0.0060139999999997,-0.0602971999999987,0.010741,-0.0001957999999995,0.0015336000000008,0.0028306000000001,0,sub_11
0.0080601999999997,-0.0539067999999987,0.0103602,0.0028214000000004,0.0074912000000008,0.0024162000000001,0,sub_11
0.0114889999999997,-0.0467015999999987,0.0122224,0.0039086000000004,0.0104764000000008,0.0011378000000001,0,sub_11
0.0160075999999997,-0.0401047999999987,0.0148592,0.0039118000000004,0.0096302000000009,-0.0001433999999998,0,sub_11
0.0206989999999997,-0.0351867999999987,0.0177434,0.0030486000000004,0.0066538000000009,-0.0010001999999998,0,sub_11
0.0236299999999998,-0.0323669999999987,0.0201898,0.0013206000000004,0.0021848000000009,-0.0007927999999998,0,sub_11
0.0231949999999997,-0.0361137999999987,0.0202054,-0.0004093999999995,-0.002285799999999,-0.0001581999999998,0,sub_11
0.0214863999999998,-0.0410227999999987,0.0194568,-0.0012779999999995,-0.006540399999999,0.0002658000000001,0,sub_11
0.0181467999999998,-0.0461249999999987,0.0173386,-0.0012815999999995,-0.008241199999999,0.0006926000000001,0,sub_11
0.0133265999999998,-0.0502651999999987,0.0142,-0.0010573999999995,-0.006959199999999,0.0009036000000001,0,sub_11
0.0092983999999997,-0.0530721999999987,0.0111758,-0.0003921999999995,-0.003119399999999,0.0004734000000001,0,sub_11
0.0099485999999998,-0.0500385999999987,0.0112590000000001,5.680000000040965e-05,0.0002940000000009,0.0002560000000001,0,sub_11
0.0119601999999998,-0.0455455999999987,0.0128644000000001,-0.0001439999999995,0.0030644000000009,0.0002510000000001,0,sub_11
0.0148675999999998,-0.0413213999999987,0.0151508000000001,-0.0009897999999995,0.0047718000000009,0.0002430000000001,0,sub_11
0.0201227999999998,-0.0388111999999987,0.0181120000000001,-0.0009905999999995,0.0037100000000009,-0.0006101999999998,0,sub_11
0.0237001999999998,-0.0388815999999987,0.0212964000000001,-0.0001491999999995,-0.000334799999999,-0.0014561999999998,0,sub_11
0.0240537999999998,-0.0417447999999987,0.0224382000000001,0.0009094000000004,-0.003315799999999,-0.0020883999999998,0,sub_11
0.0226757999999997,-0.0453839999999987,0.0215354000000001,0.0015526000000004,-0.003101999999999,-0.0020865999999998,0,sub_11
0.0204853999999997,-0.0489139999999987,0.0187684000000001,0.0026274000000004,-0.002036799999999,-0.0022965999999998,0,sub_11
0.0164811999999997,-0.0510471999999987,0.0160072000000001,0.0028506000000004,9.400000000093986e-05,-0.0018727999999998,0,sub_11
0.0131317999999997,-0.0506529999999987,0.0130830000000001,0.0015820000000004,0.0035040000000009,-0.0010313999999998,0,sub_11
0.0115903999999998,-0.0481573999999987,0.0111216,9.700000000042956e-05,0.0058510000000009,-0.0006175999999998,0,sub_11
0.0111591999999998,-0.0458867999999987,0.0105124,-0.0007563999999995,0.0058540000000009,-0.0006233999999998,0,sub_11
0.0116771999999998,-0.0435183999999987,0.012056,-0.0014017999999995,0.0043574000000009,-0.0010589999999998,0,sub_11
0.0129445999999998,-0.0416785999999987,0.014035,-0.0016251999999995,0.0024306000000009,-0.0008503999999998,0,sub_11
0.0152761999999998,-0.0406757999999987,0.016084,-0.0009951999999995,7.640000000093995e-05,-0.0010623999999998,0,sub_11
0.0163661999999998,-0.0424681999999987,0.0177132000000001,0.0004904000000004,-0.002066799999999,-0.0014823999999998,0,sub_11
0.0166255999999998,-0.0438533999999987,0.0180862000000001,0.0019788000000004,-0.003146599999999,-0.0014765999999998,0,sub_11
0.0171765999999998,-0.0450527999999987,0.017588,0.0019740000000004,-0.002938599999999,-0.0001951999999998,0,sub_11
0.0181111999999998,-0.0465845999999987,0.016005,0.0009080000000004,-0.001872999999999,0.0006506000000001,0,sub_11
0.0178003999999998,-0.0476969999999987,0.0150022,-0.0001635999999995,-0.001236999999999,0.0023514000000001,0,sub_11
0.0172189999999998,-0.0466809999999987,0.0142318,-0.0025173999999995,-0.000384799999999,0.0046882000000001,0,sub_11
0.0171523999999998,-0.0449187999999987,0.0139962,-0.0052977999999995,-0.000379799999999,0.0061684000000001,0,sub_11
0.0167955999999998,-0.0443463999999987,0.0140496,-0.0057301999999995,-0.002079999999999,0.0057444000000001,0,sub_11
0.0162041999999998,-0.0437321999999987,0.0159118,-0.0035991999999995,-0.004210799999999,0.0042706000000001,0,sub_11
0.0155153999999998,-0.0435287999999987,0.0164802,-0.0006041999999995,-0.004849799999999,0.0019464000000001,0,sub_11
0.0147079999999997,-0.0439295999999987,0.0160990000000001,0.0030338000000004,-0.005701799999999,-0.0012317999999997,0,sub_11
0.0143899999999997,-0.0455179999999987,0.0159162000000001,0.0075270000000004,-0.006555199999999,-0.0048311999999997,0,sub_11
0.0136295999999997,-0.0454165999999987,0.0158190000000001,0.0109544000000004,-0.005918599999999,-0.0071579999999997,0,sub_11
0.0133247999999998,-0.0455285999999987,0.0155506000000001,0.0128806000000004,-0.004857399999999,-0.0079977999999998,0,sub_11
0.0146903999999998,-0.0457591999999987,0.0158704000000001,0.0126692000000004,-0.003367799999999,-0.0075711999999997,0,sub_11
0.0170519999999998,-0.0443247999999987,0.0169564000000001,0.0109604000000004,-0.0006031999999991,-0.0050201999999998,0,sub_11
0.0192739999999998,-0.0414423999999987,0.0181830000000001,0.0077542000000004,0.0034364000000009,-0.0003447999999998,0,sub_11
0.0213603999999998,-0.0390807999999987,0.0193274000000001,0.0039032000000004,0.0064130000000009,0.0043274000000001,0,sub_11
0.0222071999999998,-0.0377653999999987,0.0187042000000001,-0.0008099999999995,0.0066244000000009,0.0087808000000001,0,sub_11
0.0197669999999998,-0.0374171999999987,0.0176448000000001,-0.0057405999999995,0.0057722000000008,0.0130204000000001,0,sub_11
0.0171763999999998,-0.0391309999999987,0.0166432,-0.0098099999999995,0.0049238000000009,0.0155568000000001,0,sub_11
0.0148029999999998,-0.0421957999999987,0.0157294,-0.0115279999999995,0.0034372000000009,0.0161908000000001,0,sub_11
0.0130997999999998,-0.0459515999999987,0.0143832,-0.0119551999999995,0.0023800000000009,0.0149104000000001,0,sub_11
0.0118715999999998,-0.0480939999999987,0.0141256,-0.0110829999999995,0.0043062000000009,0.0123536000000001,0,sub_11
0.0128769999999998,-0.0489177999999987,0.0145846,-0.0070033999999995,0.0060148000000009,0.0081102000000001,0,sub_11
0.0137025999999998,-0.0493781999999987,0.0147164,-0.0014369999999995,0.0047416000000009,0.0023856000000001,0,sub_11
0.0137103999999998,-0.0497225999999987,0.0143948,0.0030602000000004,0.0028306000000009,-0.0031353999999998,0,sub_11
0.0129601999999998,-0.0480077999999987,0.0145288,0.0066980000000004,0.0017662000000009,-0.0065269999999998,0,sub_11
0.0119631999999998,-0.0451597999999987,0.0138594,0.0092584000000004,0.0002718000000009,-0.0080027999999998,0,sub_11
0.0122067999999998,-0.0424135999999987,0.0133554,0.0083962000000004,-0.001218199999999,-0.0075795999999997,0,sub_11
0.0134309999999998,-0.0404699999999987,0.0128360000000001,0.0053914000000004,-0.002073199999999,-0.0050309999999998,0,sub_11
0.0158683999999998,-0.0390857999999987,0.0141932000000001,0.0006748000000004,-0.003562999999999,-0.0020659999999998,0,sub_11
0.0187679999999998,-0.0396143999999987,0.0158886000000001,-0.0042531999999995,-0.005474599999999,4.340000000019064e-05,0,sub_11
0.0218391999999998,-0.0413857999999987,0.0184306000000001,-0.0074645999999995,-0.006110599999999,0.0013086000000001,0,sub_11
0.0236615999999998,-0.0436363999999987,0.0198648000000001,-0.0087431999999995,-0.005256799999999,0.0013034000000001,0,sub_11
0.0244721999999998,-0.0450905999999987,0.0205442000000001,-0.0093707999999995,-0.002696999999999,0.0010822000000001,0,sub_11
0.0235363999999998,-0.0462551999999987,0.0197664000000001,-0.0082923999999995,6.82000000009001e-05,0.0012998000000001,0,sub_11
0.0218021999999998,-0.0467959999999987,0.0183158000000001,-0.0065749999999995,0.0028318000000009,0.0017368000000001,0,sub_11
0.0192401999999998,-0.0472517999999987,0.0168034000000001,-0.0059291999999995,0.0041096000000009,0.0017410000000001,0,sub_11
0.0158373999999998,-0.0473673999999987,0.0147964000000001,-0.0048585999999995,0.0043232000000008,0.0011086000000001,0,sub_11
0.0124967999999998,-0.0474971999999987,0.0134826,-0.0025059999999995,0.0036852000000008,-0.0007957999999998,0,sub_11
0.0097889999999998,-0.0468083999999987,0.0122896,6.300000000038862e-05,0.0026244000000009,-0.0037661999999998,0,sub_11
0.0083571999999998,-0.0459759999999987,0.0118654,0.0030560000000003,0.0011336000000009,-0.0065205999999998,0,sub_11
0.0077975999999997,-0.0447721999999987,0.0119156,0.0062670000000003,0.0004952000000009,-0.0094883999999998,0,sub_11
0.0090953999999998,-0.0429675999999987,0.0129172,0.0084026000000004,-0.000995999999999,-0.0113943999999998,0,sub_11
0.0112119999999998,-0.0409023999999987,0.0137986,0.0086004000000004,-0.001840999999999,-0.0109591999999998,0,sub_11
0.0138791999999998,-0.0406443999999987,0.015188,0.0077284000000004,-0.001835999999999,-0.0090371999999998,0,sub_11
0.0158755999999998,-0.0407159999999987,0.0161852,0.0057828000000004,-0.002469799999999,-0.0062673999999998,0,sub_11
0.0176909999999998,-0.0412085999999987,0.0164586,0.0029780000000004,-0.002893599999999,-0.0020083999999998,0,sub_11
0.0189067999999998,-0.0425989999999987,0.0164272,-0.0013155999999995,-0.001822599999999,0.0026658000000001,0,sub_11
0.0187983999999998,-0.0452467999999987,0.0169656,-0.0045275999999995,-0.000760799999999,0.0062740000000001,0,sub_11
0.0180543999999998,-0.0462583999999987,0.0166072,-0.0064565999999995,-0.000124999999999,0.0088234000000001,0,sub_11
0.0170605999999998,-0.0467997999999987,0.0160702000000001,-0.0077357999999995,0.0013658000000009,0.0100944000000001,0,sub_11
0.0161161999999998,-0.0466359999999987,0.0153820000000001,-0.0077327999999995,0.0022176000000009,0.0096534000000001,0,sub_11
0.0148989999999998,-0.0454099999999987,0.0150378000000001,-0.0060179999999995,0.0028556000000009,0.0079426000000001,0,sub_11
0.0147961999999998,-0.0438183999999987,0.0143136,-0.0036611999999995,0.0030688000000009,0.0053822000000001,0,sub_11
0.0160723999999998,-0.0419467999999987,0.0138868,-0.0013053999999995,0.0026442000000009,0.0023956000000001,0,sub_11
0.0169145999999998,-0.0408249999999987,0.0143536,0.0001932000000004,0.0011584000000009,-0.0008093999999998,0,sub_11
0.0174749999999998,-0.0408653999999987,0.0148686,0.0012602000000004,-0.001603799999999,-0.0035757999999998,0,sub_11
0.0173483999999998,-0.0424235999999987,0.0159974,0.0025366000000004,-0.004157999999999,-0.0052727999999998,0,sub_11
0.0170609999999998,-0.0433659999999987,0.016526,0.0033872000000004,-0.005436799999999,-0.0059059999999998,0,sub_11
0.0156803999999998,-0.0446627999999987,0.0165242000000001,0.0033810000000004,-0.005442599999999,-0.0054883999999998,0,sub_11
0.0152735999999998,-0.0456055999999987,0.0157854000000001,0.0031604000000004,-0.004812199999999,-0.0042183999999998,0,sub_11
0.0148893999999998,-0.0456283999999987,0.0156180000000001,0.0020910000000004,-0.002476799999999,-0.0023155999999998,0,sub_11
0.0152371999999997,-0.0442377999999987,0.0149104000000001,0.0003788000000004,-0.000566199999999,-0.0002029999999998,0,sub_11
0.0155267999999997,-0.0428429999999987,0.0145148000000001,-0.0013373999999995,6.780000000092008e-05,0.0014838000000001,0,sub_11
0.0166179999999997,-0.0417789999999987,0.0145972,-0.0028347999999995,6.960000000092009e-05,0.0023280000000001,0,sub_11
0.0160979999999997,-0.0414953999999987,0.015341,-0.0032663999999995,-0.000357399999999,0.0029666000000001,0,sub_11
0.0158057999999997,-0.0414863999999987,0.0154814,-0.0032729999999995,-0.000999999999999,0.0038220000000001,0,sub_11
0.0153527999999997,-0.0421167999999987,0.0150156,-0.0032681999999995,-0.001425999999999,0.0040302000000001,0,sub_11
0.0145799999999997,-0.0431297999999987,0.0150692,-0.0034765999999995,-0.002063399999999,0.0040236000000001,0,sub_11
0.0134287999999997,-0.0442585999999987,0.0149304,-0.0032573999999995,-0.002701599999999,0.0038064000000001,0,sub_11
0.0132473999999998,-0.0444873999999987,0.0140796,-0.0032447999999995,-0.002272199999999,0.0031590000000001,0,sub_11
0.0138721999999997,-0.0449323999999987,0.0139834,-0.0025901999999995,-0.002691999999999,0.0012354000000001,0,sub_11
0.0149885999999998,-0.0451755999999987,0.0146882000000001,-0.0013041999999995,-0.003540199999999,-0.0008909999999998,0,sub_11
0.0150091999999998,-0.0444367999999987,0.0161358000000001,0.0004066000000004,-0.003754999999999,-0.0019469999999998,0,sub_11
0.0160477999999998,-0.0429263999999987,0.0170236000000001,0.0016936000000004,-0.002480199999999,-0.0021533999999998,0,sub_11
0.0177291999999998,-0.0417687999999987,0.0172312000000001,0.0031924000000004,-0.0018471999999991,-0.0023495999999998,0,sub_11
0.0187939999999998,-0.0408483999999987,0.0168742000000001,0.0034052000000004,-0.0016393999999991,-0.0016995999999998,0,sub_11
0.0184237999999998,-0.0412919999999987,0.0165806,0.0019054000000004,-0.001430799999999,0.0002204000000001,0,sub_11
0.0194967999999998,-0.0423639999999987,0.0154948,0.0002008000000004,5.94000000008801e-05,0.0014962000000001,0,sub_11
0.0190103999999998,-0.0439701999999987,0.01489,-0.0010799999999995,0.0006968000000008,0.0025624000000001,0,sub_11
0.0175877999999997,-0.0451659999999987,0.0149294,-0.0027869999999995,0.0017638000000008,0.0036174000000001,0,sub_11
0.0154809999999997,-0.0458533999999987,0.0147264,-0.0038519999999995,0.0032546000000008,0.0046762000000001,0,sub_11
0.0152069999999997,-0.0446841999999987,0.0145032,-0.0034175999999995,0.0053820000000008,0.0051038000000001,0,sub_11
0.0150609999999997,-0.0432667999999987,0.0144892,-0.0031947999999995,0.0055948000000009,0.0046768000000001,0,sub_11
0.0152285999999997,-0.0418859999999987,0.0144364,-0.0029749999999995,0.0043194000000009,0.0033970000000001,0,sub_11
0.0160851999999998,-0.0410543999999987,0.014567,-0.0023311999999995,0.0024034000000009,0.0021210000000001,0,sub_11
0.0169987999999998,-0.0414155999999987,0.015015,-0.0016883999999995,0.0002744000000009,0.0008452000000001,0,sub_11
0.0171627999999998,-0.0424315999999987,0.0152468,-0.0014743999999995,-0.002279199999999,-0.0004329999999998,0,sub_11
0.0165101999999998,-0.0437177999999987,0.0150678000000001,-0.0012659999999995,-0.003769599999999,-0.0008569999999998,0,sub_11
0.0160703999999998,-0.0453207999999987,0.0156404000000001,-0.0012687999999995,-0.003771999999999,-0.0002159999999998,0,sub_11
0.0151449999999998,-0.0465649999999987,0.0159162000000001,-0.0016945999999995,-0.002920799999999,0.0004208000000001,0,sub_11
0.0150939999999998,-0.0460257999999987,0.0156110000000001,-0.0021155999999995,-0.001217399999999,0.0014868000000001,0,sub_11
0.0146409999999998,-0.0451569999999987,0.0155976000000001,-0.0023211999999995,0.0002748000000009,0.0019134000000001,0,sub_11
0.0147437999999998,-0.0437691999999987,0.0156672000000001,-0.0023123999999995,0.0017670000000009,0.0021280000000001,0,sub_11
0.0155473999999998,-0.0415459999999987,0.0152958000000001,-0.0018779999999995,0.0026202000000009,0.0019190000000001,0,sub_11
0.0164737999999998,-0.0395549999999987,0.0152180000000001,-0.0020903999999995,0.0024088000000009,0.0021342000000001,0,sub_11
0.0158911999999998,-0.0395665999999987,0.0157580000000001,-0.0031647999999995,0.0013448000000009,0.0027690000000001,0,sub_11
0.0154213999999998,-0.0392953999999987,0.0149640000000001,-0.0044603999999995,0.0011234000000008,0.0059650000000001,0,sub_11
0.0160059999999998,-0.0398105999999987,0.0147576000000001,-0.0066161999999995,0.0004746000000008,0.0102236000000001,0,sub_11
0.0173197999999998,-0.0425017999999987,0.0150688000000001,-0.0081221999999995,-0.001229799999999,0.0125640000000001,0,sub_11
0.0177965999999998,-0.0467269999999987,0.0163494000000001,-0.0064063999999995,-0.000592599999999,0.0125738000000001,0,sub_11
0.0177799999999998,-0.0482927999999987,0.0199276000000001,-0.0001849999999995,0.0025976000000009,0.0096206000000001,0,sub_11
0.0169169999999998,-0.0451357999999987,0.0206914,0.0086172000000004,0.0077066000000009,0.0041192000000001,0,sub_11
0.0144245999999998,-0.0468719999999987,0.0173794,0.0167810000000004,0.0117586000000009,-0.0028805999999998,0,sub_11
0.0089499999999998,-0.0503131999999987,0.0151098,0.0199846000000004,0.0117500000000009,-0.0034991999999998,0,sub_11
0.0044183999999998,-0.0498703999999987,0.0138384,0.0184544000000004,0.0085398000000009,0.0014080000000001,0,sub_11
0.0062015999999998,-0.0480409999999987,0.011177,0.0154692000000004,0.0125838000000009,0.0050140000000001,0,sub_11
0.0102081999999998,-0.0464779999999987,0.0102522000000001,0.0101484000000004,0.0172900000000009,0.0073186000000001,0,sub_11
0.0156049999999998,-0.0385311999999987,0.0121786000000001,0.0041760000000004,0.0183808000000008,0.0085550000000001,0,sub_11
0.0228269999999998,-0.0280899999999987,0.0150336000000001,-0.0004961999999995,0.0167264000000008,0.0025402000000001,0,sub_11
0.0290795999999998,-0.0224123999999987,0.0172232000000001,-0.0013177999999995,0.0137940000000009,-0.0068645999999997,0,sub_11
0.0310251999999998,-0.0187461999999987,0.0170568000000001,-0.0045269999999995,0.0061656000000009,-0.0120071999999997,0,sub_11
0.0310251999999998,-0.0250467999999987,0.0178656000000001,-0.0088231999999995,-0.004242799999999,-0.0160831999999997,0,sub_11
0.0256407999999998,-0.0388123999999987,0.0187698000000001,-0.0112065999999995,-0.013815999999999,-0.0175831999999998,0,sub_11
0.0177197999999998,-0.0523123999999987,0.0165488000000001,-0.0112305999999995,-0.015534799999999,-0.0139493999999998,0,sub_11
0.0092379999999998,-0.0634483999999987,0.0126146000000001,-0.0123081999999995,-0.012996599999999,-0.0077723999999998,0,sub_11
-0.0042350000000001,-0.0736855999999987,0.0090198000000001,-0.0129741999999995,-0.011958999999999,0.0003322000000001,0,sub_11
-0.0165052000000001,-0.0774403999999987,0.0073304000000001,-0.0110865999999995,-0.008177599999999,0.0127240000000001,0,sub_11
-0.0218686000000001,-0.0726759999999987,0.0069106000000001,-0.0061647999999995,0.0009402000000009,0.0200026000000001,0,sub_11
-0.0140884000000001,-0.0575813999999987,0.0104822000000001,0.0054168000000004,0.0109236000000009,0.0181400000000001,0,sub_11
-0.0032058000000001,-0.0399929999999987,0.0131090000000001,0.0172224000000004,0.0200694000000009,0.0118014000000001,0,sub_11
0.0119485999999998,-0.0248551999999987,0.0164086000000001,0.0253708000000004,0.0207134000000009,0.0035254000000001,0,sub_11
0.0296215999999998,-0.0143049999999987,0.0213344000000001,0.0303042000000004,0.0128678000000009,-0.0101031999999998,0,sub_11
0.0454731999999998,-0.0076271999999987,0.0266530000000001,0.0333288000000004,0.0063084000000009,-0.0233279999999998,0,sub_11
0.0512149999999998,-0.0111311999999987,0.0280090000000001,0.0260770000000004,0.0016638000000009,-0.0270129999999998,0,sub_11
0.0507791999999998,-0.0221177999999987,0.0273642000000001,0.0132478000000004,-0.002563399999999,-0.0236871999999998,0,sub_11
0.0465925999999998,-0.0372283999999987,0.0247668000000001,0.0019188000000004,-0.002545799999999,-0.0175789999999998,0,sub_11
0.0343581999999998,-0.0522065999999987,0.0195796000000001,-0.0102739999999995,-0.0010491999999991,-0.0076331999999998,0,sub_11
0.0161579999999998,-0.0662295999999987,0.0140830000000001,-0.0239939999999995,-0.0010585999999991,0.0065852000000001,0,sub_11
-0.0043248000000001,-0.0770561999999987,0.0093260000000001,-0.0312995999999995,0.0008314000000008,0.0197776000000001,0,sub_11
-0.0159614000000001,-0.0760251999999987,0.0057064000000001,-0.0293879999999995,0.0071832000000008,0.0281148000000001,0,sub_11
-0.0210116000000001,-0.0655357999999987,0.0042956000000001,-0.0231659999999995,0.0146074000000009,0.0306930000000001,0,sub_11
-0.0190622000000001,-0.0509321999999987,0.0034850000000001,-0.0137225999999995,0.0201292000000009,0.0266732000000001,0,sub_11
-0.0070550000000001,-0.0339581999999987,0.0042796000000001,-0.0032141999999995,0.0192796000000009,0.0166870000000001,0,sub_11
0.0084865999999998,-0.0189051999999987,0.0073458000000001,0.0051492000000004,0.0110002000000009,0.0017816000000001,0,sub_11
0.0205857999999998,-0.0107147999999987,0.0130186,0.0096594000000004,-0.002581799999999,-0.0157075999999998,0,sub_11
0.0306967999999998,-0.0131877999999987,0.0193064,0.0120170000000004,-0.016161399999999,-0.0316969999999998,0,sub_11
0.0389929999999998,-0.0208749999999987,0.025294,0.0137318000000004,-0.025072999999999,-0.0423557999999998,0,sub_11
0.0404487999999998,-0.0334111999999987,0.0281268,0.0135194000000004,-0.028254399999999,-0.0457713999999998,0,sub_11
0.0358991999999998,-0.0497605999999987,0.0273456,0.0117902000000004,-0.027007799999999,-0.0426009999999998,0,sub_11
0.0277199999999998,-0.0652101999999987,0.0249002,0.0094112000000004,-0.021099399999999,-0.0326043999999998,0,sub_11
0.0188497999999998,-0.0717269999999987,0.0200924,0.0061808000000004,-0.010942199999999,-0.0187735999999998,0,sub_11
0.0103833999999998,-0.0706911999999987,0.0158182,0.0025312000000004,0.0013454000000009,-0.0045211999999998,0,sub_11
0.0037599999999998,-0.0641125999999987,0.0123698000000001,0.0014498000000004,0.0136308000000009,0.0080400000000001,0,sub_11
0.0016133999999998,-0.0516873999999987,0.0096246000000001,0.0010316000000004,0.0250988000000009,0.0176364000000001,0,sub_11
0.0037649999999998,-0.0381485999999987,0.0080904000000001,-0.0004589999999995,0.0310482000000009,0.0229594000000001,0,sub_11
0.0087781999999998,-0.0280227999999987,0.0101454000000001,-0.0032453999999995,0.0297736000000009,0.0244370000000001,0,sub_11
0.0137547999999998,-0.0207765999999987,0.0120744000000001,-0.0060337999999995,0.0233870000000009,0.0225004000000001,0,sub_11
0.0195507999999998,-0.0169235999999987,0.0132594000000001,-0.0105337999999995,0.0131826000000009,0.0177794000000001,0,sub_11
0.0250007999999998,-0.0182709999999987,0.0153188000000001,-0.0148155999999995,0.0014962000000009,0.0104982000000001,0,sub_11
0.0286761999999998,-0.0235715999999987,0.0170412000000001,-0.0148243999999995,-0.010836599999999,0.0013248000000001,0,sub_11
0.0263035999999997,-0.0348037999999987,0.0191204000000001,-0.0094881999999995,-0.021056599999999,-0.0080275999999998,0,sub_11
0.0187395999999997,-0.0484209999999987,0.0186006000000001,-0.0030773999999995,-0.024041199999999,-0.0131063999999998,0,sub_11
