userAcceleration.x,userAcceleration.y,userAcceleration.z,rotationRate.x,rotationRate.y,rotationRate.z,label,subject
0.0009791999999997,-0.0204059999999987,0.0309986,0.0111134000000004,0.0154338000000008,-0.0010253999999999,0,sub_19
0.0011751999999997,-0.0207607999999987,0.0295196,0.0112106000000004,0.0169158000000008,-0.0007813999999999,0,sub_19
0.0011079999999997,-0.0209417999999987,0.0290982,0.0114260000000004,0.0179778000000009,-0.0001403999999999,0,sub_19
0.0010649999999997,-0.0211691999999987,0.0285302,0.0122804000000004,0.0186122000000009,0.000292,0,sub_19
0.0005709999999997,-0.0217389999999987,0.028673,0.0139922000000004,0.0200960000000009,0.0007294,0,sub_19
0.0003041999999997,-0.0216749999999987,0.0288394,0.0148486000000004,0.0211566000000009,0.0011612,0,sub_19
4.359999999979736e-05,-0.0220073999999987,0.0289886,0.0164108000000004,0.0211828000000008,0.0022656,0,sub_19
-7.320000000020264e-05,-0.0224373999999987,0.02905,0.0171212000000004,0.0207894000000008,0.00251,0,sub_19
-3.580000000022264e-05,-0.0218189999999987,0.0290156,0.0169774000000003,0.0201860000000008,0.0027486,0,sub_19
3.799999999777376e-06,-0.0204607999999987,0.0292636,0.0166230000000003,0.0204346000000008,0.0031984,0,sub_19
4.6399999999777376e-05,-0.0196153999999987,0.029135,0.0169096000000004,0.0204698000000008,0.0032256,0,sub_19
-9.260000000022264e-05,-0.0191989999999987,0.0291178,0.0166942000000003,0.0198322000000009,0.0030114,0,sub_19
0.0003523999999997,-0.0185623999999987,0.029564,0.0171152000000003,0.0185524000000009,0.003016,0,sub_19
0.0004045999999997,-0.0192043999999987,0.029462,0.0169426000000004,0.0177558000000009,0.0026138,0,sub_19
0.0007841999999997,-0.0202653999999987,0.0290276,0.0163422000000004,0.0161110000000008,0.0015686,0,sub_19
0.0008401999999997,-0.0208847999999987,0.0291118,0.0153170000000004,0.0155304000000008,0.0011602,0,sub_19
0.0012937999999997,-0.0207339999999987,0.0295142,0.0140824000000004,0.0155906000000008,0.0005356,0,sub_19
0.0011919999999997,-0.0201571999999987,0.0292412,0.0124230000000004,0.0158662000000008,-0.0003057999999999,0,sub_19
0.0014685999999997,-0.0198015999999987,0.028706,0.0109322000000004,0.0152374000000008,-0.0015973999999999,0,sub_19
0.0016483999999997,-0.0193207999999987,0.028201,0.0096492000000004,0.0141784000000008,-0.0020323999999999,0,sub_19
0.0020999999999997,-0.0196327999999987,0.027851,0.0090064000000004,0.0131170000000008,-0.0024627999999999,0,sub_19
0.0018293999999997,-0.0201329999999987,0.0276368,0.0079386000000004,0.0129078000000008,-0.0024699999999999,0,sub_19
0.0016399999999997,-0.0213615999999987,0.027066,0.0073042000000004,0.0125128000000009,-0.0018149999999999,0,sub_19
0.0012057999999997,-0.0214725999999987,0.028101,0.0073090000000003,0.0127514000000009,-0.0003017999999999,0,sub_19
0.0007417999999997,-0.0219257999999987,0.0286422,0.0073146000000003,0.0127786000000009,0.0007844,0,sub_19
0.0001567999999997,-0.0216481999999987,0.0290866,0.0077460000000004,0.0123792000000009,0.0016602,0,sub_19
0.0002061999999997,-0.0216501999999987,0.0293748,0.0081794000000003,0.0119814000000009,0.002109,0,sub_19
0.0002525999999997,-0.0209859999999987,0.0296204,0.0083946000000003,0.0124068000000009,0.0021098,0,sub_19
0.0006345999999997,-0.0209749999999987,0.0295502,0.0079706000000003,0.0130474000000009,0.002106,0,sub_19
0.0010487999999997,-0.0206885999999987,0.0295558,0.0075448000000003,0.0136862000000009,0.0025294,0,sub_19
0.0017849999999997,-0.0204779999999987,0.02921,0.0064550000000003,0.0128364000000008,0.0027492,0,sub_19
0.0024443999999997,-0.0201391999999987,0.02878,0.0053612000000004,0.0109222000000008,0.0027566,0,sub_19
0.0026407999999997,-0.0198679999999987,0.0288618,0.0036226000000004,0.0083694000000008,0.0031876,0,sub_19
0.0028515999999997,-0.0195501999999987,0.0277618,0.0027376000000004,0.0056014000000008,0.0034112,0,sub_19
0.0025533999999997,-0.0197799999999987,0.0275036,0.0020688000000004,0.0028354000000008,0.0029954,0,sub_19
0.0020835999999997,-0.0202333999999987,0.0278594,0.0016352000000004,0.0009210000000008,0.0025676,0,sub_19
0.0014455999999997,-0.0204165999999987,0.0278492,0.0009874000000004,-0.0009933999999991,0.0023518,0,sub_19
0.0007147999999997,-0.0209557999999987,0.0278492,0.0013656000000004,-0.002738599999999,0.0019364,0,sub_19
-0.0001000000000002,-0.0214609999999987,0.0286516,0.0004626000000004,-0.004692399999999,0.0015122,0,sub_19
-0.0005288000000002,-0.0215123999999987,0.02966,-0.0006507999999995,-0.006430599999999,0.000659,0,sub_19
-0.0004082000000002,-0.0212623999999987,0.0293748,-0.0017593999999995,-0.006891199999999,1.780000000009851e-05,0,sub_19
-0.0007578000000001,-0.0209587999999987,0.0297104,-0.0024383999999995,-0.006714399999999,-0.0006211999999999,0,sub_19
-0.0003208000000001,-0.0206677999999987,0.0304724,-0.0035023999999995,-0.006283599999999,-0.0008427999999999,0,sub_19
0.0002101999999998,-0.0207961999999987,0.0307254,-0.0032889999999995,-0.006071999999999,-0.0006277999999999,0,sub_19
0.0008555999999997,-0.0208983999999987,0.0304156,-0.0030785999999995,-0.006075399999999,1.460000000009852e-05,0,sub_19
0.0008299999999997,-0.0212611999999987,0.0310976,-0.0031503999999995,-0.006999799999999,0.0006554,0,sub_19
0.0013707999999997,-0.0217435999999987,0.0312872,-0.0030069999999995,-0.007710799999999,0.0010838,0,sub_19
0.0015537999999997,-0.0217553999999987,0.0309844,-0.0030739999999995,-0.008206399999999,0.0010832,0,sub_19
0.0015803999999997,-0.0213231999999987,0.0307562,-0.0029285999999995,-0.009128199999999,0.0008708,0,sub_19
0.0012407999999997,-0.0210077999999987,0.0303146,-0.0025687999999995,-0.009837599999999,0.0006598,0,sub_19
0.0010573999999997,-0.0204093999999987,0.0300616,-0.0027831999999995,-0.010474199999999,0.0002318,0,sub_19
0.0006077999999997,-0.0199013999999987,0.0305382,-0.0036385999999995,-0.010897399999999,0.0002264,0,sub_19
0.0007289999999997,-0.0200661999999987,0.0306894,-0.0036441999999995,-0.011963599999999,0.0004412,0,sub_19
0.0009351999999997,-0.0205949999999987,0.0310474,-0.0034337999999995,-0.012603399999999,0.0004436,0,sub_19
0.0010679999999997,-0.0207863999999987,0.0312996,-0.0037153999999995,-0.013106799999999,0.0004434,0,sub_19
0.0006309999999997,-0.0209757999999987,0.0316036,-0.0031463999999995,-0.013615799999999,0.00109,0,sub_19
0.0007035999999997,-0.0209145999999987,0.0310972,-0.0032135999999995,-0.013694599999999,0.0013044,0,sub_19
0.0004175999999997,-0.0208099999999987,0.0309976,-0.0037029999999995,-0.013343399999999,0.0008744,0,sub_19
-5.120000000024263e-05,-0.0202113999999987,0.0304908,-0.0052571999999995,-0.012350199999999,0.0006496,0,sub_19
-3.2000000002426354e-06,-0.0200345999999987,0.030365,-0.0058905999999995,-0.011492999999999,3.000000000098497e-06,0,sub_19
0.0006473999999997,-0.0207787999999987,0.0299724,-0.0067353999999995,-0.010421399999999,-0.0008587999999998,0,sub_19
0.0005965999999997,-0.0212737999999987,0.0297348,-0.0061531999999995,-0.010287799999999,-0.0010721999999998,0,sub_19
0.0003229999999997,-0.0218489999999987,0.0295746,-0.0053563999999995,-0.009305199999999,-0.0006441999999999,0,sub_19
-5.920000000020263e-05,-0.0223341999999987,0.0300226,-0.0054131999999995,-0.008107399999999,-8.799999999901507e-06,0,sub_19
-0.0001478000000002,-0.0224319999999987,0.0308504,-0.0063245999999995,-0.006483199999999,0.0012612,0,sub_19
-0.0001676000000002,-0.0218117999999987,0.0311096,-0.0059585999999995,-0.005502399999999,0.0025408,0,sub_19
0.0009379999999997,-0.0217981999999987,0.0314256,-0.0057413999999995,-0.004438799999999,0.0027546,0,sub_19
0.0014085999999997,-0.0212679999999987,0.031696,-0.0046707999999995,-0.003802399999999,0.0025476,0,sub_19
0.0020697999999997,-0.0209979999999987,0.0318006,-0.0023197999999995,-0.003382799999999,0.0021362,0,sub_19
0.0018477999999997,-0.0210879999999987,0.0312978,-0.0004403999999995,-0.003654599999999,0.0015016,0,sub_19
0.0017075999999997,-0.0208207999999987,0.0310512,-5.3799999999578144e-05,-0.003708199999999,0.0008564,0,sub_19
0.0002967999999997,-0.0204577999999987,0.0313942,0.0005414000000004,-0.003978799999999,0.0010676,0,sub_19
-0.0004016000000002,-0.0211663999999987,0.031508,-0.0001455999999995,-0.004246799999999,0.001697,0,sub_19
-0.0011076000000002,-0.0220237999999987,0.0317748,-0.0016803999999995,-0.003233399999999,0.002319,0,sub_19
-0.0013720000000002,-0.0227873999999987,0.0315918,-0.0031635999999995,0.0001766000000009,0.0033726,0,sub_19
-0.0019432000000001,-0.0231363999999987,0.032394,-0.0050761999999995,0.0033732000000009,0.0048506,0,sub_19
-0.0012464000000001,-0.0232225999999987,0.0320518,-0.0057143999999995,0.0052870000000009,0.0063392,0,sub_19
-0.0008874000000001,-0.0224139999999987,0.0316336,-0.0059285999999995,0.0063480000000009,0.0076182,0,sub_19
-0.0002456000000001,-0.0218081999999987,0.031144,-0.0063819999999995,0.0054758000000009,0.0078244,0,sub_19
0.0006607999999998,-0.0207611999999987,0.0313144,-0.0059875999999995,0.0026856000000009,0.0073982,0,sub_19
0.0015131999999997,-0.0209463999999987,0.0302062,-0.0036661999999995,0.0003192000000009,0.0059168,0,sub_19
0.0019225999999997,-0.0210723999999987,0.0299576,-0.0026153999999995,-0.000548999999999,0.0037836,0,sub_19
0.0015331999999997,-0.0219745999999987,0.0299182,-0.0019943999999995,-0.001630399999999,0.002075,0,sub_19
0.0012787999999997,-0.0220651999999987,0.029944,-0.0002873999999995,-0.002272999999999,0.001447,0,sub_19
0.0005495999999997,-0.0226279999999987,0.02939,0.0014166000000004,-0.003342599999999,0.001033,0,sub_19
0.0004021999999997,-0.0226177999999987,0.0296928,0.0018330000000004,-0.004608599999999,0.0006052,0,sub_19
-0.0002888000000002,-0.0229255999999987,0.0297214,0.0022494000000004,-0.005662199999999,0.0003908,0,sub_19
-0.0001396000000001,-0.0220393999999987,0.0301546,0.0022468000000004,-0.005434399999999,-0.0002553999999999,0,sub_19
-0.0002018000000001,-0.0216603999999987,0.0305356,0.0020336000000004,-0.004566599999999,-0.0009039999999999,0,sub_19
0.0003053999999998,-0.0212121999999987,0.0308966,0.0013918000000004,-0.003911399999999,-0.0013415999999999,0,sub_19
0.0002887999999998,-0.0210579999999987,0.03138,0.0007506000000004,-0.003697799999999,-0.0009189999999999,0,sub_19
0.0008025999999998,-0.0210001999999987,0.0315324,0.0005354000000004,-0.003486599999999,-0.0002797999999999,0,sub_19
0.0014481999999997,-0.0214715999999987,0.0313738,0.0007430000000004,-0.004128999999999,0.0003634,0,sub_19
0.0015221999999997,-0.0215331999999987,0.030659,-0.0001099999999995,-0.005160399999999,0.000996,0,sub_19
0.0010713999999997,-0.0219775999999987,0.03091,-0.0005323999999995,-0.005553199999999,0.0014172,0,sub_19
0.0008291999999997,-0.0220383999999987,0.0301574,-0.0009461999999995,-0.004877399999999,0.0009824,0,sub_19
-2.8000000000202603e-05,-0.0220983999999987,0.0302228,-0.0020019999999995,-0.004413199999999,0.0007572,0,sub_19
-0.0003432000000002,-0.0222001999999987,0.0298862,-0.0030567999999995,-0.003948199999999,0.0003184,0,sub_19
-0.0005762000000002,-0.0226281999999987,0.0302804,-0.0019869999999995,-0.003737199999999,-0.0001015999999998,0,sub_19
-0.0005920000000002,-0.0228775999999987,0.0299508,-0.0013439999999995,-0.003524599999999,-0.0005247999999998,0,sub_19
-0.0008270000000001,-0.0232447999999987,0.0302962,-0.0004903999999995,-0.003315399999999,-0.0003053999999998,0,sub_19
-0.0002962000000001,-0.0230733999999987,0.0300562,0.0010032000000004,-0.003108399999999,-8.159999999990137e-05,0,sub_19
-0.0007652000000001,-0.0230649999999987,0.0304782,0.0027256000000004,-0.002441999999999,0.0001372,0,sub_19
-0.0004804000000001,-0.0233093999999987,0.0309828,0.0029534000000004,-0.001771199999999,0.0005592,0,sub_19
-0.0003554000000001,-0.0225539999999987,0.0317184,0.0038186000000004,-0.001317399999999,0.0014134,0,sub_19
-9.400000000202585e-06,-0.0217481999999987,0.032196,0.0042588000000004,-0.000860399999999,0.0018372,0,sub_19
-0.0003542000000002,-0.0215387999999987,0.0324984,0.0038474000000004,-0.000186599999999,0.002041,0,sub_19
-0.0002786000000002,-0.0209527999999987,0.0323816,0.0032082000000004,0.0004532000000009,0.002463,0,sub_19
4.259999999979744e-05,-0.0204103999999987,0.0316112,0.0027854000000004,0.0013070000000008,0.002459,0,sub_19
0.0002291999999997,-0.0206907999999987,0.030887,0.0015118000000004,0.0023784000000008,0.0020214,0,sub_19
0.0002557999999997,-0.0209525999999987,0.0304358,0.0013180000000004,0.0026126000000008,0.0017926,0,sub_19
6.659999999979742e-05,-0.0215561999999987,0.0299362,0.0009088000000004,0.0024214000000008,0.0015628,0,sub_19
0.0001433999999997,-0.0219841999999987,0.0295244,0.0004978000000004,0.0015918000000008,0.00112,0,sub_19
-0.0001020000000002,-0.0225113999999987,0.0294772,-0.0003391999999995,0.0011890000000008,0.0008874,0,sub_19
-0.0002488000000002,-0.0229053999999987,0.0297956,0.0001042000000004,0.0007818000000008,0.0006638,0,sub_19
-0.0003424000000002,-0.0233013999999987,0.029401,-0.0003205999999996,0.0007850000000008,0.0002334,0,sub_19
-0.0004496000000002,-0.0229803999999987,0.0297772,-0.0003213999999996,0.0003598000000008,2.020000000009862e-05,0,sub_19
-0.0006030000000002,-0.0229803999999987,0.0303774,-0.0001079999999996,0.0003590000000008,2.1800000000098616e-05,0,sub_19
-0.0008950000000001,-0.0226831999999987,0.0304858,0.0011846000000003,-5.31999999990938e-05,-0.0001965999999998,0,sub_19
-0.0009868000000001,-0.0225415999999987,0.0300776,0.0007710000000004,-0.000246399999999,-0.0004271999999998,0,sub_19
-0.0010156000000001,-0.0224655999999987,0.0303182,0.0007824000000004,-0.000230599999999,-1.399999999988138e-05,0,sub_19
-0.0006180000000001,-0.0220623999999987,0.0305502,0.0007966000000004,9.061761757633846e-16,-2.8399999999881384e-05,0,sub_19
-0.0002030000000001,-0.0221809999999987,0.0301564,0.0008098000000004,0.0002298000000009,0.0001708000000001,0,sub_19
7.119999999979739e-05,-0.0221373999999987,0.030664,0.0001688000000004,0.0004434000000009,0.0005934,0,sub_19
0.0002101999999997,-0.0224785999999987,0.0313014,0.0003822000000004,0.0006548000000009,0.0008084,0,sub_19
0.0001827999999997,-0.0224587999999987,0.0314048,0.0001688000000004,0.0004434000000009,0.0005934,0,sub_19
6.359999999981738e-05,-0.0223985999999987,0.0313832,0.0006042000000004,0.0006756000000009,0.0005864,0,sub_19
-0.0002488000000001,-0.0220465999999987,0.0310298,0.0004014000000004,0.0011240000000009,0.000361,0,sub_19
2.279999999981741e-05,-0.0215655999999987,0.0307512,-0.0002281999999995,0.0013616000000009,-8.059999999992138e-05,0,sub_19
-6.44000000001826e-05,-0.0209823999999987,0.0305022,-0.0008643999999995,0.0005324000000009,-9.379999999992136e-05,0,sub_19
2.3599999999817388e-05,-0.0214149999999987,0.0300724,-0.0006481999999995,-0.000725199999999,-0.0003139999999999,0,sub_19
0.0004393999999997,-0.0219081999999987,0.0296468,-0.0012921999999995,-0.001787399999999,-0.0005307999999998,0,sub_19
0.0009081999999997,-0.0220219999999987,0.0294916,-0.0015093999999995,-0.003063399999999,-0.0009579999999998,0,sub_19
0.0003315999999997,-0.0229923999999987,0.02928,-0.0012997999999995,-0.004128599999999,-0.0011689999999998,0,sub_19
0.0002319999999997,-0.0236527999999987,0.0296244,-0.0010773999999995,-0.003892999999999,-0.0018155999999998,0,sub_19
0.0004357999999997,-0.0235929999999987,0.029729,-0.0017065999999995,-0.003228399999999,-0.0024685999999998,0,sub_19
0.0001995999999997,-0.0236191999999987,0.02988,-0.0014833999999995,-0.002567599999999,-0.0029019999999999,0,sub_19
-0.0001650000000002,-0.0239177999999987,0.0303194,-0.0010467999999995,-0.001695199999999,-0.0031205999999999,0,sub_19
-7.600000000222652e-06,-0.0236855999999987,0.0305378,-0.0006129999999995,-0.000825399999999,-0.0026981999999999,0,sub_19
0.0002759999999997,-0.0236231999999987,0.0302116,2.520000000040229e-05,-0.000404999999999,-0.0018395999999999,0,sub_19
0.0004613999999997,-0.0231979999999987,0.0307996,0.0013034000000004,0.0002256000000009,-0.0007631999999999,0,sub_19
0.0002779999999997,-0.0234253999999987,0.0309862,0.0021550000000004,0.0006454000000009,9.680000000009856e-05,0,sub_19
0.0003177999999998,-0.0234531999999987,0.0311972,0.0030022000000004,0.0010758000000009,0.001376,0,sub_19
1.9199999999817365e-05,-0.0232991999999987,0.0315552,0.0044884000000004,0.0008666000000009,0.0022332,0,sub_19
-9.980000000018263e-05,-0.0229671999999987,0.0312986,0.0051250000000004,0.0010882000000008,0.0026566,0,sub_19
-0.0006608000000001,-0.0228029999999987,0.0313848,0.0051236000000004,0.0015258000000008,0.0028616,0,sub_19
-0.0003664000000001,-0.0223217999999987,0.0312256,0.0049098000000004,0.0021774000000008,0.0030648,0,sub_19
-0.0002382000000002,-0.0221045999999987,0.0313176,0.0042744000000004,0.0028206000000008,0.0026322,0,sub_19
-1.4200000000202656e-05,-0.0220149999999987,0.0312538,0.0032134000000004,0.0038904000000008,0.0024098,0,sub_19
-0.0002374000000002,-0.0218809999999987,0.0315276,0.0032144000000003,0.0038912000000009,0.002196,0,sub_19
-0.0004922000000002,-0.0220997999999987,0.0313698,0.0036376000000003,0.0036830000000009,0.002193,0,sub_19
-0.0006544000000002,-0.0226271999999987,0.0314924,0.0038512000000004,0.0041154000000009,0.0019742,0,sub_19
-0.0007498000000002,-0.0229121999999987,0.0312854,0.0042784000000004,0.0049716000000009,0.0021836,0,sub_19
-0.0007672000000002,-0.0228225999999987,0.0310976,0.0047064000000004,0.0056164000000009,0.001966,0,sub_19
-0.0006822000000002,-0.0229857999999987,0.0313118,0.0051354000000004,0.0064744000000009,0.0017482,0,sub_19
-0.0004066000000002,-0.0231437999999987,0.0313552,0.0055680000000004,0.0077512000000009,0.0017496,0,sub_19
-0.0005310000000001,-0.0232087999999987,0.031496,0.0066368000000004,0.0085980000000009,0.0021834,0,sub_19
-0.0006640000000001,-0.0232457999999987,0.0313696,0.0077036000000003,0.0090186000000009,0.0026176,0,sub_19
-0.0004744000000001,-0.0236767999999987,0.0316156,0.0083418000000003,0.0096562000000009,0.0030442,0,sub_19
-0.0002920000000001,-0.0234923999999987,0.0309892,0.0087666000000003,0.0107188000000009,0.0038962,0,sub_19
-0.0005046000000001,-0.0236863999999987,0.0308086,0.0089800000000003,0.0117840000000008,0.0043194,0,sub_19
-0.0005492000000002,-0.0233759999999987,0.0307042,0.0091934000000003,0.0128492000000008,0.0047424,0,sub_19
-0.0006404000000002,-0.0232267999999987,0.030939,0.0096222000000003,0.0139154000000008,0.0047398,0,sub_19
-0.0009042000000002,-0.0227403999999987,0.0307706,0.0106930000000003,0.0149762000000008,0.0049596,0,sub_19
-0.0013556000000002,-0.0224007999999987,0.0310726,0.0113390000000003,0.0162524000000008,0.0049624,0,sub_19
-0.0010892000000002,-0.0220567999999987,0.031096,0.0117668000000003,0.0166812000000008,0.0051774,0,sub_19
-0.0008540000000002,-0.0222541999999987,0.0313632,0.0115546000000003,0.0169000000000008,0.0051746,0,sub_19
-0.0004030000000002,-0.0228357999999987,0.0309934,0.0115538000000004,0.0166920000000008,0.0051738,0,sub_19
-0.0001354000000002,-0.0230379999999987,0.0305312,0.0113406000000004,0.0162734000000008,0.0047444,0,sub_19
0.0001653999999997,-0.0231909999999987,0.0302776,0.0115570000000004,0.0160680000000008,0.0038906,0,sub_19
-0.0005588000000002,-0.0226413999999987,0.0301902,0.0111360000000004,0.0167112000000008,0.003246,0,sub_19
-0.0010860000000002,-0.0219753999999987,0.029999,0.0107120000000003,0.0167152000000008,0.0026022,0,sub_19
-0.0012604000000002,-0.0212965999999987,0.0304578,0.0104976000000003,0.0162906000000008,0.0023876,0,sub_19
-0.0012348000000002,-0.0216189999999987,0.0308166,0.0107100000000003,0.0156524000000008,0.0019628,0,sub_19
-0.0011170000000002,-0.0222875999999987,0.0306048,0.0102774000000004,0.0145940000000008,0.0017488,0,sub_19
-0.0004118000000002,-0.0228867999999987,0.030236,0.0100572000000004,0.0133218000000009,0.0015366,0,sub_19
1.2399999999797384e-05,-0.0236041999999987,0.0301072,0.0098382000000004,0.0122628000000009,0.0013242,0,sub_19
-2.7600000000182617e-05,-0.0239287999999987,0.0295512,0.0091952000000003,0.0118444000000009,0.001108,0,sub_19
-0.0004618000000001,-0.0232465999999987,0.029559,0.0079138000000003,0.0120664000000008,0.0011,0,sub_19
-0.0005020000000001,-0.0225525999999987,0.0300122,0.0072756000000003,0.0127070000000008,0.0013084,0,sub_19
-0.0003536000000001,-0.0224737999999987,0.0302138,0.0079168000000003,0.0131300000000008,0.001526,0,sub_19
-0.0006634000000001,-0.0222793999999987,0.0301576,0.0087722000000003,0.0137652000000008,0.0017448,0,sub_19
-0.0008980000000001,-0.0223135999999987,0.0309116,0.0092008000000003,0.0139776000000008,0.001534,0,sub_19
-0.0003902000000002,-0.0227107999999987,0.0306604,0.0096184000000003,0.0139736000000009,0.0013194,0,sub_19
-0.0005274000000002,-0.0229043999999987,0.0305156,0.0098178000000003,0.0133296000000009,0.0015314,0,sub_19
-0.0006316000000002,-0.0229965999999987,0.031013,0.0091656000000003,0.0131148000000009,0.0017368,0,sub_19
-0.0005818000000002,-0.0233161999999987,0.0310498,0.0091544000000003,0.0133230000000009,0.0021598,0,sub_19
-0.0003736000000002,-0.0228647999999987,0.030539,0.0093586000000003,0.0141686000000009,0.002797,0,sub_19
-0.0005558000000002,-0.0229927999999987,0.0310842,0.0097874000000004,0.0148056000000009,0.0030128,0,sub_19
-0.0002042000000002,-0.0232147999999987,0.0314972,0.0095568000000004,0.0152142000000009,0.002789,0,sub_19
-0.0005124000000002,-0.0227413999999987,0.0310732,0.0093224000000004,0.0147706000000009,0.0025664,0,sub_19
-0.0006998000000002,-0.0225371999999987,0.0308874,0.0082336000000004,0.0139048000000009,0.0021246,0,sub_19
-0.0005180000000002,-0.0224099999999987,0.0306902,0.0065036000000004,0.0128282000000009,0.0016788,0,sub_19
-0.0001734000000002,-0.0224077999999987,0.0298572,0.0047716000000004,0.0115376000000009,0.0014468,0,sub_19
0.0002643999999997,-0.0224385999999987,0.0290646,0.0034884000000004,0.0104786000000009,0.001012,0,sub_19
0.0007345999999997,-0.0226491999999987,0.02895,0.0024206000000004,0.0096328000000009,0.0003646,0,sub_19
0.0015257999999997,-0.0228271999999987,0.0290764,0.0011364000000004,0.0083606000000008,-6.99999999999015e-05,0,sub_19
0.0011035999999997,-0.0229891999999987,0.029233,0.0009116000000004,0.0058048000000008,-6.839999999990144e-05,0,sub_19
0.0005533999999997,-0.0225877999999987,0.0294682,0.0006498000000004,0.0034160000000008,0.0003448,0,sub_19
-0.0005260000000002,-0.0226257999999987,0.0297066,0.0003880000000004,0.0008150000000008,0.0005446,0,sub_19
