userAcceleration.x,userAcceleration.y,userAcceleration.z,rotationRate.x,rotationRate.y,rotationRate.z,label,subject
0.0495201999999997,-0.1318477999999987,0.1226676,-0.0026087999999994,-0.008155199999999,-0.0048067999999998,0,sub_19
0.0497253999999997,-0.1330237999999987,0.1236826,-0.0036871999999994,-0.009010399999999,-0.0031039999999998,0,sub_19
0.0493603999999997,-0.1345013999999987,0.1250196,-0.0047673999999995,-0.010079599999999,-0.0011873999999998,0,sub_19
0.0489943999999997,-0.1347863999999987,0.1258198000000001,-0.0058475999999995,-0.011360999999999,0.0005158000000001,0,sub_19
0.0486965999999998,-0.1347231999999987,0.1261388,-0.0075651999999995,-0.011576599999999,0.0026406000000001,0,sub_19
0.0488199999999998,-0.1348147999999987,0.1262902,-0.0077775999999995,-0.009877399999999,0.0041324,0,sub_19
0.0486457999999998,-0.1347375999999987,0.1267316,-0.0058445999999995,-0.006690199999999,0.004569,0,sub_19
0.0488001999999997,-0.1350269999999987,0.1267790000000001,-6.239999999951978e-05,-0.002023199999999,0.0046034,0,sub_19
0.0483009999999997,-0.1359871999999987,0.1264172,0.0065770000000004,0.0032810000000009,0.0044294,0,sub_19
0.0473289999999997,-0.1365501999999987,0.1259458,0.0121488000000004,0.0068904000000009,0.0027546,0,sub_19
0.0464625999999997,-0.1365481999999987,0.1252368000000001,0.0162182000000004,0.0083752000000009,0.0008584,0,sub_19
0.0461989999999997,-0.1367523999999987,0.1244538,0.0200674000000004,0.0090062000000009,-0.0003973999999999,0,sub_19
0.0456357999999998,-0.1366345999999987,0.1244368,0.0222010000000004,0.0083620000000009,-0.0010225999999999,0,sub_19
0.0454731999999997,-0.1359111999999987,0.1243,0.0228354000000004,0.0070814000000009,-0.0010165999999999,0,sub_19
0.0454023999999997,-0.1350315999999987,0.1246384,0.0230468000000004,0.0077154000000009,5.220000000008881e-05,0,sub_19
0.0449657999999997,-0.1347853999999987,0.1255624,0.0232592000000004,0.0102602000000009,0.0028278,0,sub_19
0.0447549999999997,-0.1344235999999987,0.1261944,0.0230478000000004,0.0136578000000009,0.005813,0,sub_19
0.0448937999999997,-0.1339257999999987,0.1263992,0.0219848000000004,0.0170602000000008,0.0083648,0,sub_19
0.0449303999999998,-0.1340067999999987,0.1267382,0.0207112000000004,0.0204658000000008,0.0102744,0,sub_19
0.0458431999999998,-0.1343919999999987,0.126639,0.0207160000000004,0.0225922000000008,0.01134,0,sub_19
0.0467603999999998,-0.1340171999999987,0.1261028,0.0222154000000004,0.0234408000000008,0.010922,0,sub_19
0.0471367999999997,-0.1338021999999987,0.1257630000000001,0.0239252000000004,0.0232252000000008,0.0100796,0,sub_19
0.0471093999999997,-0.1337603999999987,0.1252004000000001,0.0258476000000004,0.0227958000000009,0.009239,0,sub_19
0.0471171999999997,-0.1337107999999987,0.125091,0.0282004000000004,0.0227928000000009,0.0079736,0,sub_19
0.0468899999999997,-0.1337621999999987,0.1253712,0.0309702000000004,0.0236412000000009,0.0073434,0,sub_19
0.0470995999999997,-0.1336681999999987,0.1260876,0.0326730000000004,0.0249178000000009,0.0071326,0,sub_19
0.0472805999999998,-0.1335575999999987,0.1265466,0.0337340000000004,0.0264070000000009,0.007558,0,sub_19
0.0473667999999997,-0.1334971999999987,0.1276422,0.0335146000000004,0.0279008000000009,0.0079746,0,sub_19
0.0472339999999997,-0.1337277999999987,0.1284004,0.0335050000000004,0.0285416000000009,0.0083934,0,sub_19
0.0466119999999998,-0.1340911999999987,0.1293420000000001,0.0341460000000004,0.0287524000000008,0.0083976,0,sub_19
0.0460515999999998,-0.1346315999999987,0.1294956000000001,0.0360692000000004,0.0289604000000008,0.0079836,0,sub_19
0.0453583999999998,-0.1345505999999987,0.1290482000000001,0.0397022000000004,0.0300140000000008,0.007794,0,sub_19
0.0450047999999998,-0.1341711999999987,0.1284458,0.0437906000000004,0.0313406000000008,0.0080498,0,sub_19
0.0451919999999998,-0.1331955999999987,0.1277442,0.0457432000000004,0.0324606000000008,0.0085048,0,sub_19
0.0456893999999998,-0.1323955999999987,0.1263752,0.0447060000000004,0.0327398000000009,0.0087264,0,sub_19
0.0456367999999998,-0.1322705999999987,0.1259268000000001,0.0415312000000004,0.0319622000000009,0.0087206,0,sub_19
0.0453621999999998,-0.1325741999999987,0.1264056,0.0366398000000004,0.0282110000000009,0.0078522,0,sub_19
0.0456357999999998,-0.1323907999999987,0.1264752000000001,0.0300108000000004,0.0231284000000008,0.0058896,0,sub_19
0.0455511999999998,-0.1315691999999987,0.1260238,0.0238126000000004,0.0188968000000008,0.003929,0,sub_19
0.0453069999999998,-0.1312955999999987,0.1261194,0.0201776000000004,0.0161440000000008,0.0028388,0,sub_19
0.0449915999999998,-0.1310697999999987,0.1259942,0.0191266000000004,0.0142860000000008,0.002413,0,sub_19
0.0456681999999998,-0.1316127999999987,0.1257228,0.0187194000000004,0.0132780000000008,0.0019906,0,sub_19
0.0454291999999998,-0.1328057999999987,0.1264812,0.0189524000000004,0.0129044000000008,0.002213,0,sub_19
0.0451069999999998,-0.1344483999999987,0.1279352,0.0191796000000004,0.0116768000000008,0.0028636,0,sub_19
0.0448009999999998,-0.1348809999999987,0.1292898,0.0170578000000004,0.0096070000000008,0.0030716,0,sub_19
0.0451383999999998,-0.1346449999999987,0.1297452,0.0134198000000004,0.0074882000000008,0.0032626,0,sub_19
0.0450083999999998,-0.1335351999999987,0.1296116000000001,0.0106422000000004,0.0068580000000008,0.0034576,0,sub_19
0.0454885999999998,-0.1325063999999987,0.1285244,0.0091458000000004,0.0066486000000008,0.0038746,0,sub_19
0.0460975999999998,-0.1322545999999987,0.1280028000000001,0.0097600000000004,0.0075118000000009,0.0043042,0,sub_19
0.0462557999999998,-0.1321429999999987,0.1275988,0.0122936000000004,0.0081552000000009,0.0047478,0,sub_19
0.0462089999999998,-0.1325937999999987,0.127941,0.0146112000000004,0.0077360000000009,0.0047638,0,sub_19
0.0460223999999998,-0.1327997999999987,0.1280948000000001,0.0145786000000004,0.0066856000000009,0.0047642,0,sub_19
0.0457467999999997,-0.1333103999999987,0.1281804,0.0143346000000004,0.0056376000000009,0.0043358,0,sub_19
0.0457879999999997,-0.1334419999999987,0.1280796,0.0132592000000004,0.0035116000000009,0.0041174,0,sub_19
0.0456339999999997,-0.1338569999999987,0.1279262,0.0111188000000004,0.0018156000000008,0.0038908,0,sub_19
0.0457131999999997,-0.1338875999999987,0.1280672000000001,0.0080498000000004,0.0007200000000008,0.0042786,0,sub_19
0.0460177999999997,-0.1345247999999987,0.1286336,0.0054068000000005,-0.0010143999999991,0.004243,0,sub_19
0.0457843999999997,-0.1346499999999987,0.1290144,0.0029742000000005,-0.0036009999999991,0.0039962,0,sub_19
0.0449635999999997,-0.1353333999999987,0.1293516,0.0005436000000005,-0.0057613999999991,0.003749,0,sub_19
0.0449407999999997,-0.1351121999999987,0.1288476000000001,-0.0018869999999994,-0.007921999999999,0.0035018,0,sub_19
0.0446983999999997,-0.1340471999999987,0.1285602,-0.0033813999999994,-0.008978599999999,0.0026382,0,sub_19
0.0443513999999997,-0.1323927999999987,0.1286062000000001,-0.0042329999999995,-0.008973999999999,0.002205,0,sub_19
0.0447793999999997,-0.1310621999999987,0.1287758,-0.0042261999999995,-0.007906999999999,0.0017764,0,sub_19
0.0451639999999998,-0.1293395999999987,0.128537,-0.0041265999999994,-0.005860799999999,3.4800000000088754e-05,0,sub_19
0.0452059999999998,-0.1284561999999987,0.1289542,-0.0031685999999994,-0.002964399999999,-0.0019155999999999,0,sub_19
0.0450237999999998,-0.1283115999999987,0.1286214000000001,-0.0015715999999994,0.0001410000000009,-0.0034345999999999,0,sub_19
0.0444713999999998,-0.1289627999999987,0.1279900000000001,0.0004524000000005,0.0032450000000009,-0.0049505999999999,0,sub_19
0.0443491999999998,-0.1305605999999987,0.1283004000000001,0.0014046000000005,0.0059240000000009,-0.0058323999999998,0,sub_19
0.0449111999999998,-0.1322193999999987,0.129237,0.0035528000000004,0.0084758000000009,-0.0064615999999998,0,sub_19
0.0455691999999998,-0.1338039999999987,0.1300698000000001,0.0071984000000004,0.0112380000000009,-0.0077215999999998,0,sub_19
0.0463203999999998,-0.1352439999999987,0.1308968000000001,0.0114908000000004,0.0146404000000009,-0.0098323999999998,0,sub_19
0.0475885999999998,-0.1367981999999987,0.1313314,0.0153516000000004,0.0176156000000009,-0.0113047999999998,0,sub_19
0.0479535999999998,-0.1374741999999987,0.1314668,0.0184144000000004,0.0198420000000008,-0.0126003999999998,0,sub_19
0.0474443999999998,-0.1386739999999987,0.1309914000000001,0.0189042000000004,0.0203686000000008,-0.0128435999999998,0,sub_19
0.0469457999999998,-0.1393443999999987,0.1312416,0.0161752000000004,0.0181316000000008,-0.0118235999999998,0,sub_19
0.0464789999999997,-0.1392075999999987,0.1305298,0.0104408000000004,0.0133426000000008,-0.0093259999999998,0,sub_19
0.0458157999999997,-0.1382209999999987,0.1296212,0.0008638000000004,0.0081408000000008,-0.0068545999999998,0,sub_19
0.0453401999999997,-0.1372495999999987,0.1284492,-0.0081313999999995,0.0034740000000008,-0.0041339999999998,0,sub_19
0.0449831999999997,-0.1360049999999987,0.1275738,-0.0139297999999995,-0.002268599999999,-0.0016033999999999,0,sub_19
0.0445315999999997,-0.1358667999999987,0.1262948000000001,-0.0175135999999995,-0.008961399999999,-0.0003667999999999,0,sub_19
0.0440925999999998,-0.1367425999999987,0.1260856,-0.0208829999999995,-0.017139399999999,-0.0008357999999999,0,sub_19
0.0433571999999998,-0.1379849999999987,0.1265638,-0.0229663999999995,-0.025104399999999,-0.0023641999999999,0,sub_19
0.0433025999999998,-0.1389143999999987,0.1268396,-0.0263261999999995,-0.0324251999999991,-0.0041159999999999,0,sub_19
0.0432345999999998,-0.1388977999999987,0.1274406,-0.0307413999999994,-0.036336599999999,-0.0050249999999999,0,sub_19
0.0433583999999997,-0.1369953999999987,0.1275366,-0.0347895999999995,-0.0358927999999991,-0.0059083999999999,0,sub_19
0.0436851999999997,-0.1337507999999987,0.1281028,-0.0347655999999994,-0.031415399999999,-0.0067683999999999,0,sub_19
0.0444623999999997,-0.1300121999999987,0.1289362,-0.0306779999999995,-0.025033799999999,-0.0078163999999999,0,sub_19
0.0442539999999997,-0.1271205999999987,0.1303666,-0.0230601999999995,-0.017024199999999,-0.0099377999999998,0,sub_19
0.0454273999999997,-0.1251087999999987,0.1312194,-0.0143717999999995,-0.0096515999999991,-0.0135461999999998,0,sub_19
0.0464521999999997,-0.1246987999999987,0.1321784,-0.0065435999999995,-0.0037673999999991,-0.0171585999999998,0,sub_19
0.0470421999999997,-0.1260819999999987,0.1322642,-0.0017063999999995,0.0014874000000008,-0.0205775999999998,0,sub_19
0.0475799999999997,-0.1282793999999987,0.1311832,0.0005588000000005,0.0056798000000008,-0.0225175999999998,0,sub_19
0.0482917999999998,-0.1301291999999987,0.1298302000000001,0.0014248000000005,0.0082344000000008,-0.0227283999999999,0,sub_19
0.0475051999999998,-0.1322397999999987,0.1290436000000001,0.0012210000000005,0.0112146000000008,-0.0218791999999999,0,sub_19
0.0458157999999998,-0.1351095999999987,0.1276768000000001,0.0020744000000005,0.0141824000000008,-0.0188859999999999,0,sub_19
0.0445165999999997,-0.1382433999999987,0.127305,0.0039794000000005,0.0156474000000008,-0.0139607999999999,0,sub_19
0.0438229999999997,-0.1414657999999987,0.1271342,0.0064488000000004,0.0151598000000008,-0.0090495999999999,0,sub_19
0.0433333999999997,-0.1447167999999987,0.1269782000000001,0.0072042000000004,0.0125502000000008,-0.0047883999999999,0,sub_19
0.0433383999999997,-0.1468779999999987,0.1261824,0.0058136000000004,0.0067540000000009,-0.0009653999999999,0,sub_19
0.0442471999999997,-0.1468533999999987,0.1262424000000001,0.0018558000000005,-0.001373399999999,0.0019878,0,sub_19
0.0442901999999998,-0.1454361999999987,0.1255496000000001,-0.0046643999999994,-0.011191199999999,0.0036436,0,sub_19
0.0435825999999998,-0.1437063999999987,0.1260118,-0.0119679999999995,-0.0205461999999991,0.0051002,0,sub_19
0.0423419999999998,-0.1404209999999987,0.1265580000000001,-0.0179825999999995,-0.0282003999999991,0.0063498,0,sub_19
0.0411229999999997,-0.1365183999999987,0.1269434000000001,-0.0199807999999995,-0.030799999999999,0.0078392,0,sub_19
0.0396409999999997,-0.1334293999999987,0.1283268,-0.0157575999999995,-0.025752199999999,0.009576,0,sub_19
0.0397175999999997,-0.1298253999999987,0.1292932,-0.0044625999999995,-0.013486799999999,0.0117802,0,sub_19
0.0399669999999997,-0.1255171999999987,0.130492,0.0119792000000004,0.0032400000000009,0.0127328,0,sub_19
0.0410945999999997,-0.1229503999999987,0.1307752,0.0290746000000004,0.0210374000000009,0.0117658,0,sub_19
0.0429739999999998,-0.1221353999999987,0.130425,0.0432348000000004,0.0356990000000008,0.0092822,0,sub_19
0.0452899999999998,-0.1222997999999987,0.1293664000000001,0.0505430000000004,0.0439972000000008,0.0056908000000001,0,sub_19
0.0473881999999998,-0.1248837999999987,0.1289364000000001,0.0507900000000004,0.0474214000000008,0.0016288000000001,0,sub_19
0.0493193999999998,-0.1286165999999987,0.1283106,0.0471432000000004,0.0457162000000008,-0.0013697999999998,0,sub_19
0.0510967999999998,-0.1317175999999987,0.128985,0.0428380000000004,0.0418750000000008,-0.0024473999999998,0,sub_19
0.0510495999999998,-0.1335027999999987,0.1299184,0.0396026000000004,0.0397302000000008,-0.0024513999999998,0,sub_19
0.0495633999999998,-0.1349977999999987,0.130273,0.0410682000000004,0.0405458000000008,-0.0009309999999999,0,sub_19
0.0475693999999998,-0.1357603999999987,0.1310942,0.0476576000000004,0.0430438000000008,0.0016914,0,sub_19
0.0457777999999998,-0.1360517999999987,0.1313824,0.0551294000000004,0.0479016000000008,0.0057966,0,sub_19
0.0438271999999998,-0.1372427999999987,0.130576,0.0606848000000004,0.0542550000000009,0.0105274,0,sub_19
0.0427447999999998,-0.1387893999999987,0.131063,0.0634576000000004,0.0589130000000009,0.0154546,0,sub_19
0.0427727999999998,-0.1393745999999987,0.1315176,0.0621658000000004,0.0606050000000009,0.0197162,0,sub_19
0.0427635999999998,-0.1387535999999987,0.1307604,0.0585260000000004,0.0610310000000009,0.0228948,0,sub_19
0.0426597999999998,-0.1375279999999987,0.1297068,0.0546824000000004,0.0614664000000009,0.0239356,0,sub_19
0.0424201999999998,-0.1348347999999987,0.1291952,0.0536194000000004,0.0610492000000009,0.0226468,0,sub_19
0.0419251999999998,-0.1315443999999987,0.128003,0.0553312000000004,0.0595620000000009,0.020097,0,sub_19
0.0414255999999998,-0.1294181999999987,0.1265318,0.0591768000000004,0.0570064000000009,0.0164952,0,sub_19
0.0408259999999998,-0.1279181999999987,0.126299,0.0621620000000004,0.0519014000000008,0.0118226,0,sub_19
0.0405989999999998,-0.1267945999999987,0.1263090000000001,0.0627916000000004,0.0448870000000008,0.0071358,0,sub_19
0.0399601999999997,-0.1262953999999987,0.1265646,0.0623466000000004,0.0376574000000008,0.0039374,0,sub_19
0.0396391999999997,-0.1264553999999987,0.12668,0.0623236000000004,0.0319076000000008,0.0033036,0,sub_19
0.0396289999999997,-0.1264771999999987,0.1283024000000001,0.0620958000000004,0.0304102000000008,0.0050132,0,sub_19
0.0402535999999997,-0.1274527999999987,0.1307854,0.0648650000000004,0.0335792000000008,0.0093012,0,sub_19
0.0403601999999997,-0.1284821999999987,0.134632,0.0768264000000004,0.0418244000000008,0.014929,0,sub_19
0.0394139999999997,-0.1289165999999987,0.1385952,0.0984144000000004,0.0572730000000008,0.0223238,0,sub_19
0.0381955999999997,-0.1296157999999987,0.1432064000000001,0.1268572000000004,0.0792998000000008,0.030399,0,sub_19
0.0359941999999997,-0.1303041999999987,0.1460288000000001,0.1591570000000005,0.1062082000000008,0.0397768,0,sub_19
0.0349783999999997,-0.1301947999999987,0.1465798000000001,0.1867750000000004,0.1354784000000008,0.0486918,0,sub_19
0.0350825999999997,-0.1289743999999987,0.143317,0.1998818000000004,0.1639488000000008,0.057079,0,sub_19
0.0369589999999998,-0.1290211999999987,0.1404722000000001,0.1973884000000004,0.1854496000000008,0.063657,0,sub_19
0.0391129999999998,-0.1298767999999987,0.1367152000000001,0.1867504000000004,0.1965486000000009,0.0678414,0,sub_19
0.0407149999999997,-0.1293249999999987,0.133011,0.1756708000000004,0.1946910000000009,0.0677736,0,sub_19
0.0405021999999997,-0.1282953999999987,0.1308266,0.1707426000000004,0.1823816000000009,0.0654120000000001,0,sub_19
0.0377955999999997,-0.1261707999999987,0.1320208000000001,0.1751846000000004,0.1638694000000009,0.0609874,0,sub_19
0.0352299999999997,-0.1234697999999987,0.1326690000000001,0.1853926000000004,0.1449170000000009,0.0551082,0,sub_19
0.0325579999999997,-0.1200789999999987,0.1348334,0.1896510000000004,0.1300394000000009,0.0476868,0,sub_19
0.0318649999999997,-0.1191349999999987,0.138211,0.1845234000000004,0.1219878000000009,0.0410384,0,sub_19
0.0313505999999997,-0.1189041999999987,0.1399764,0.1747064000000004,0.1175642000000009,0.0369164,0,sub_19
0.0317619999999997,-0.1212953999999987,0.1415814,0.1657418000000005,0.1158954000000009,0.0357878,0,sub_19
0.0312609999999997,-0.1228331999999987,0.142845,0.1608438000000004,0.1205896000000009,0.0383114,0,sub_19
0.0316703999999997,-0.1208057999999987,0.1415896,0.1625872000000004,0.1335602000000009,0.0432208,0,sub_19
0.0306685999999997,-0.1177389999999987,0.140566,0.1669084000000004,0.1501446000000009,0.04793,0,sub_19
0.0325365999999997,-0.1136687999999987,0.1378946,0.1663248000000004,0.1648390000000009,0.0500434,0,sub_19
0.0315105999999997,-0.1138769999999987,0.1387078,0.1593190000000005,0.1725344000000009,0.049771,0,sub_19
0.0322947999999998,-0.1159309999999987,0.1389036,0.1495086000000005,0.1696022000000009,0.045647,0,sub_19
0.0321747999999997,-0.1223057999999987,0.1396356000000001,0.1426376000000004,0.1585532000000009,0.0441176,0,sub_19
0.0315633999999998,-0.1246207999999987,0.1395490000000001,0.1353168000000005,0.1402706000000008,0.0404578,0,sub_19
0.0272937999999998,-0.1275821999999987,0.1438000000000001,0.1380398000000004,0.1285448000000008,0.0400646,0,sub_19
0.0292035999999998,-0.1226995999999987,0.1398820000000001,0.1469622000000004,0.1206270000000008,0.0409916,0,sub_19
0.0289237999999998,-0.1178907999999987,0.1375044000000001,0.1548244000000004,0.1120824000000008,0.0397756,0,sub_19
0.0275785999999998,-0.1119485999999987,0.1361738,0.1526706000000005,0.1035840000000008,0.0357122,0,sub_19
0.0275975999999998,-0.1103351999999987,0.1354732,0.1428430000000004,0.0968168000000008,0.031593,0,sub_19
0.0311793999999998,-0.1104605999999987,0.131838,0.1257492000000004,0.0853962000000008,0.0252926,0,sub_19
0.0304495999999998,-0.1133913999999987,0.1340002,0.1009626000000004,0.0703850000000008,0.0178748,0,sub_19
0.0321199999999998,-0.1170739999999987,0.1348362,0.0746756000000004,0.0564340000000008,0.0130088,0,sub_19
0.0341309999999998,-0.1197219999999987,0.1346536000000001,0.0509240000000004,0.0354492000000008,0.0066742,0,sub_19
0.0364087999999998,-0.1206787999999987,0.1334784000000001,0.0335526000000004,0.0101792000000009,0.0008168,0,sub_19
0.0341849999999998,-0.1185301999999987,0.1339088,0.0119090000000005,-0.0191117999999991,-0.0080561999999999,0,sub_19
0.0331179999999997,-0.1166747999999987,0.133622,-0.0112051999999994,-0.0439209999999991,-0.0175861999999998,0,sub_19
0.0306915999999997,-0.1136715999999987,0.1346372,-0.0355929999999995,-0.0665977999999991,-0.0264867999999998,0,sub_19
0.0298155999999997,-0.1126201999999987,0.137299,-0.0561139999999995,-0.0826865999999991,-0.0345143999999998,0,sub_19
0.0288197999999997,-0.1129515999999987,0.1420298,-0.0716997999999995,-0.090067599999999,-0.0399547999999998,0,sub_19
0.0297493999999997,-0.1143213999999987,0.1456924,-0.0789389999999995,-0.088118799999999,-0.0415033999999998,0,sub_19
0.0297635999999998,-0.1162219999999987,0.1484464000000001,-0.0780683999999995,-0.083650199999999,-0.0408621999999998,0,sub_19
0.0293147999999998,-0.1173921999999987,0.1491610000000001,-0.0722813999999995,-0.075795999999999,-0.0386953999999998,0,sub_19
0.0281027999999998,-0.1173213999999987,0.1491294,-0.0669173999999995,-0.064117199999999,-0.0335453999999999,0,sub_19
0.0276147999999998,-0.1178561999999987,0.1480804,-0.0600635999999995,-0.052659199999999,-0.0277437999999998,0,sub_19
0.0266813999999997,-0.1189621999999987,0.1470866000000001,-0.0519469999999995,-0.045252799999999,-0.0221419999999998,0,sub_19
0.0276707999999997,-0.1190611999999987,0.1448132,-0.0489519999999995,-0.038465999999999,-0.0170021999999998,0,sub_19
0.0287035999999997,-0.1189857999999987,0.1438230000000001,-0.0521419999999995,-0.033140399999999,-0.0140403999999998,0,sub_19
0.0288485999999997,-0.1206103999999987,0.1429514000000001,-0.0553483999999995,-0.035892999999999,-0.0155547999999998,0,sub_19
0.0277945999999997,-0.1197125999999987,0.1409220000000001,-0.0604989999999995,-0.045238399999999,-0.0183561999999998,0,sub_19
0.0272493999999997,-0.1179157999999987,0.1386812000000001,-0.0705531999999995,-0.054987599999999,-0.0224729999999998,0,sub_19
0.0263895999999997,-0.1166307999999987,0.1379908000000001,-0.0771841999999995,-0.063891399999999,-0.0278489999999999,0,sub_19
0.0254597999999997,-0.1154905999999987,0.1376824000000001,-0.0761307999999995,-0.070909599999999,-0.0318917999999999,0,sub_19
0.0257855999999997,-0.1132295999999987,0.137569,-0.0729319999999995,-0.072195599999999,-0.0327223999999998,0,sub_19
0.0270625999999997,-0.1129189999999987,0.1380256,-0.0701447999999995,-0.070071399999999,-0.0335601999999998,0,sub_19
0.0279347999999997,-0.1131483999999987,0.1391082,-0.0677833999999995,-0.067308199999999,-0.0339745999999998,0,sub_19
0.0288431999999997,-0.1138797999999987,0.1398844,-0.0675573999999995,-0.064114799999999,-0.0335499999999998,0,sub_19
0.0304925999999998,-0.1147693999999987,0.1399016,-0.0720305999999995,-0.061333799999999,-0.0325165999999998,0,sub_19
0.0318091999999998,-0.1152565999999987,0.139159,-0.0794891999999995,-0.059601599999999,-0.0329981999999999,0,sub_19
0.0321793999999998,-0.1169229999999987,0.1391848,-0.0839623999999995,-0.056608199999999,-0.0317513999999999,0,sub_19
0.0315829999999998,-0.1184723999999987,0.1382906000000001,-0.0801007999999995,-0.052362599999999,-0.0287445999999999,0,sub_19
0.0307301999999998,-0.1191743999999987,0.1369844,-0.0721985999999995,-0.048991999999999,-0.0235719999999999,0,sub_19
0.0298695999999997,-0.1205827999999987,0.137098,-0.0660031999999995,-0.0466761999999991,-0.0194781999999999,0,sub_19
0.0300099999999997,-0.1225979999999987,0.1387314,-0.0602229999999995,-0.0430755999999991,-0.0166707999999999,0,sub_19
0.0304139999999997,-0.1231897999999987,0.1397042,-0.0557201999999995,-0.0407411999999991,-0.0157935999999999,0,sub_19
0.0318905999999997,-0.1233007999999987,0.1410828,-0.0535835999999995,-0.0398973999999991,-0.0155661999999999,0,sub_19
0.0330403999999997,-0.1233517999999987,0.1426566,-0.0501541999999994,-0.0375613999999991,-0.0166133999999998,0,sub_19
0.0333227999999997,-0.1222163999999987,0.1424202,-0.0428763999999994,-0.0328979999999991,-0.0169957999999998,0,sub_19
0.0323093999999997,-0.1213429999999987,0.1408852,-0.0345385999999994,-0.028456399999999,-0.0160887999999998,0,sub_19
0.0317539999999997,-0.1200657999999987,0.1388886,-0.0287583999999994,-0.023578999999999,-0.0154137999999998,0,sub_19
