userAcceleration.x,userAcceleration.y,userAcceleration.z,rotationRate.x,rotationRate.y,rotationRate.z,label,subject
6.299999999986073e-05,0.0052164000000012,-0.0059763999999998,0.0007308000000005,-0.002088599999999,0.0041716000000001,0,sub_1
0.0013643999999998,0.0050840000000012,-0.0066153999999998,0.0011580000000005,-0.003362399999999,0.0026806000000001,0,sub_1
0.0032075999999998,0.0047286000000012,-0.0064877999999999,0.0009510000000005,-0.003992199999999,0.0005436000000001,0,sub_1
0.0051657999999998,0.0036942000000012,-0.0072023999999999,-0.0003201999999994,-0.002286399999999,0.0003228000000001,0,sub_1
0.0059097999999998,0.0027814000000012,-0.0085385999999999,0.0005476000000005,0.0011140000000009,0.0007558000000001,0,sub_1
0.0060905999999998,0.0017628000000012,-0.0079839999999998,0.0020498000000005,0.0036582000000009,0.0016216000000001,0,sub_1
0.0059509999999998,0.0016666000000012,-0.0068385999999998,0.0012040000000005,0.0057854000000009,0.0022578000000001,0,sub_1
0.0046637999999998,0.0016426000000012,-0.0079435999999998,0.0014194000000005,0.0070550000000009,0.0033298000000001,0,sub_1
0.0036287999999998,0.0017812000000012,-0.0075797999999998,0.0014148000000005,0.0055658000000009,0.0029044000000001,0,sub_1
0.0033687999999998,0.0022130000000012,-0.0069763999999998,-0.0013695999999994,0.0036564000000009,0.0033146000000001,0,sub_1
0.0027231999999998,0.0028366000000012,-0.0066725999999999,-0.0047893999999994,0.0034514000000009,0.0043592000000001,0,sub_1
0.0009621999999998,0.0032316000000012,-0.0076875999999999,-0.0069229999999994,0.0040910000000009,0.0049880000000001,0,sub_1
0.0001815999999998,0.0034878000000012,-0.0075519999999999,-0.0088519999999994,0.0017512000000009,0.0045538000000001,0,sub_1
0.0007299999999998,0.0043592000000012,-0.0073317999999999,-0.0090739999999994,0.0004664000000009,0.0051986000000001,0,sub_1
-0.0002482000000001,0.0052090000000012,-0.0078647999999999,-0.0080063999999994,0.0006712000000009,0.0052096000000001,0,sub_1
-0.0014754000000001,0.0053474000000012,-0.0082037999999999,-0.0067271999999994,-0.001460999999999,0.0033020000000001,0,sub_1
-0.0010766000000001,0.0047230000000012,-0.0077145999999999,-0.0041727999999994,-0.004870399999999,0.0011876000000001,0,sub_1
-0.0007454000000001,0.0040218000000012,-0.0076807999999999,-0.0005387999999994,-0.005726199999999,-0.0011361999999998,0,sub_1
-0.0013194000000001,0.0031220000000012,-0.0077171999999999,0.0020330000000005,-0.005937199999999,-0.0038955999999998,0,sub_1
0.0002709999999998,0.0022502000000012,-0.0077591999999999,0.0041726000000005,-0.006368599999999,-0.0055859999999998,0,sub_1
0.0014527999999998,0.0016804000000012,-0.0068989999999999,0.0054596000000005,-0.004673999999999,-0.0053621999999998,0,sub_1
0.0024463999999998,0.0017742000000012,-0.0057615999999999,0.0054666000000005,-0.002126199999999,-0.0042937999999998,0,sub_1
0.0021113999999998,0.0027632000000012,-0.0048035999999999,0.0041844000000005,-5.799999999025183e-06,-0.0017383999999998,0,sub_1
0.0024577999999998,0.0043064000000012,-0.0049397999999999,0.0026850000000005,0.0010508000000009,0.0006032000000001,0,sub_1
0.0022521999999998,0.0046502000000012,-0.0056139999999998,0.0007558000000005,0.0010500000000009,0.0025124000000001,0,sub_1
0.0029309999999998,0.0049714000000012,-0.0074079999999998,0.0003212000000005,-0.000652799999999,0.0025116000000001,0,sub_1
0.0033405999999998,0.0044946000000012,-0.0087433999999998,0.0005316000000005,-0.002565599999999,0.0012338000000001,0,sub_1
0.0042937999999998,0.0038438000000012,-0.0092139999999998,0.0011736000000005,-0.004899999999999,-0.0015359999999998,0,sub_1
0.0046843999999998,0.0028872000000012,-0.0078651999999998,0.0024578000000005,-0.006385999999999,-0.0038749999999998,0,sub_1
0.0041813999999998,0.0023646000000012,-0.0057183999999999,0.0031048000000005,-0.007230799999999,-0.0062193999999998,0,sub_1
0.0037961999999998,0.0029872000000012,-0.0034163999999998,0.0024688000000005,-0.007019199999999,-0.0068605999999998,0,sub_1
0.0029527999999998,0.0049812000000012,-0.0037145999999998,0.0011866000000005,-0.006810599999999,-0.0062245999999998,0,sub_1
0.0030209999999998,0.0056882000000012,-0.0037691999999998,0.0005416000000005,-0.006182399999999,-0.0045163999999998,0,sub_1
0.0040509999999998,0.0056920000000012,-0.0051723999999998,-0.0005291999999994,-0.004490799999999,-0.0019579999999998,0,sub_1
0.0040951999999998,0.0053854000000011,-0.0067045999999998,-0.0007397999999994,-0.002159399999999,-0.0002487999999998,0,sub_1
0.0028739999999998,0.0038716000000011,-0.0074849999999999,-0.0024391999999994,-0.002146199999999,-0.0019697999999998,0,sub_1
0.0017613999999998,-0.0005223999999987,-0.0052689999999999,-0.0073361999999994,-0.005726799999999,-0.0079813999999998,0,sub_1
0.0048867999999998,-0.0004055999999987,-0.0070853999999999,-0.0118149999999994,-0.009953799999999,-0.0124933999999998,0,sub_1
0.0058175999999998,0.0022742000000012,-0.0084943999999999,-0.0141545999999994,-0.009939199999999,-0.0140047999999998,0,sub_1
0.0037315999999998,0.0047636000000012,-0.0075201999999998,-0.0199129999999994,-0.010553599999999,-0.0151121999999998,0,sub_1
0.0025465999999998,0.0069764000000011,-0.0067583999999998,-0.0252709999999994,-0.016073399999999,-0.0153561999999998,0,sub_1
0.0056017999999998,0.0099484000000011,-0.0102209999999998,-0.0255349999999994,-0.020573799999999,-0.0085155999999998,0,sub_1
0.0037939999999998,0.0102936000000011,-0.0109837999999998,-0.0262083999999994,-0.017629599999999,0.0017308000000001,0,sub_1
0.0012741999999998,0.0083636000000011,-0.0106899999999998,-0.0281555999999994,-0.016592399999999,0.0087700000000001,0,sub_1
0.0022083999999998,0.0084694000000012,-0.0078731999999999,-0.0254125999999994,-0.016848199999999,0.0154164000000001,0,sub_1
0.0021957999999998,0.0083302000000012,-0.0080921999999999,-0.0207261999999994,-0.012421799999999,0.0216432000000001,0,sub_1
-0.0011490000000001,0.0095556000000012,-0.0098581999999999,-0.0153719999999994,-0.006063399999999,0.0235992000000001,0,sub_1
-0.0056762000000001,0.0068506000000012,-0.0091465999999999,-0.0166101999999994,-0.003482399999999,0.0167542000000001,0,sub_1
-0.0078954,0.0023432000000012,-0.0066431999999999,-0.0195649999999994,-0.003019399999999,0.0098960000000001,0,sub_1
-0.0065682,-0.0031971999999987,-0.0109975999999999,-0.0182619999999994,-0.005127399999999,0.0028572000000001,0,sub_1
-0.0008286000000001,-0.0033781999999987,-0.0135629999999999,-0.0096865999999994,-0.003637599999999,-0.0043485999999998,0,sub_1
0.0021559999999998,-0.0027065999999987,-0.0097783999999999,-0.0040701999999994,0.0012790000000009,-0.0143547999999998,0,sub_1
0.0030293999999998,-0.0004747999999987,-0.0060477999999999,0.0015152000000005,0.0015002000000009,-0.0222185999999998,0,sub_1
0.0025621999999998,0.0031770000000012,-0.0042611999999999,0.0049452000000005,-0.009961199999999,-0.0371331999999998,0,sub_1
0.0100725999999998,0.0035566000000012,0.0001634,0.0040840000000005,-0.026307799999999,-0.0518575999999998,0,sub_1
0.0135523999999998,0.0058664000000012,-0.0005367999999999,0.0006698000000005,-0.023115199999999,-0.0486785999999998,0,sub_1
0.0124507999999998,0.0078878000000012,-0.0023939999999999,-0.0087499999999994,-0.018015199999999,-0.0367863999999998,0,sub_1
0.0107235999999998,0.0085460000000012,-0.0010187999999999,-0.0169305999999994,-0.019958799999999,-0.0227399999999998,0,sub_1
0.0085967999999998,0.0099824000000012,-0.0014779999999999,-0.0234223999999994,-0.019802399999999,-0.0024887999999998,0,sub_1
-0.0007622000000001,0.0123524000000012,-0.0061599999999999,-0.0322405999999994,-0.016228999999999,0.0166748000000001,0,sub_1
-0.0043858000000001,0.0070594000000012,-0.0081239999999999,-0.0436315999999994,-0.027724999999999,0.0234480000000001,0,sub_1
1.6399999999841543e-05,0.0040316000000012,-0.0107147999999999,-0.0421989999999994,-0.034366599999999,0.0305182000000001,0,sub_1
0.0043347999999998,0.0033180000000012,-0.0153161999999999,-0.0308649999999994,-0.026748199999999,0.0327254000000001,0,sub_1
0.0060221999999998,0.0011642000000012,-0.0164329999999999,-0.0160515999999994,-0.013566199999999,0.0259770000000001,0,sub_1
0.0053287999999998,0.0018240000000012,-0.0167517999999999,0.0017524000000005,-0.000599999999999,0.0181800000000001,0,sub_1
0.0015477999999998,0.0026480000000012,-0.0114191999999999,0.0156974000000005,0.0030262000000009,0.0050268000000001,0,sub_1
-0.0016974000000001,0.0019252000000012,-0.0048925999999999,0.0191700000000005,-0.003087199999999,-0.0141689999999998,0,sub_1
-0.0007552000000001,0.0008870000000012,-0.0010883999999999,0.0151236000000005,-0.017707599999999,-0.0306289999999998,0,sub_1
0.0024217999999998,0.0067738000000012,-0.0020811999999999,0.0129614000000005,-0.027697599999999,-0.0344767999999998,0,sub_1
0.0022853999999998,0.0135874000000012,-0.0003913999999999,0.0080372000000004,-0.028117799999999,-0.0315197999999998,0,sub_1
0.0004735999999998,0.0177930000000012,-0.0052921999999999,0.0018244000000005,-0.023447599999999,-0.0217419999999998,0,sub_1
-0.0009814000000001,0.0132958000000012,-0.0098703999999999,-0.0018307999999994,-0.016668399999999,-0.0089579999999998,0,sub_1
-0.0033474000000001,0.0097222000000012,-0.0131051999999999,-0.0018591999999994,-0.004810399999999,0.0091858000000001,0,sub_1
-0.0036096000000001,0.0032332000000012,-0.0091757999999999,-0.0020991999999994,0.0032294000000009,0.0232740000000001,0,sub_1
-0.0008210000000001,-0.0044083999999987,-0.0070225999999999,0.0008850000000005,0.0055492000000009,0.0264966000000001,0,sub_1
0.0010239999999998,-0.0081141999999987,-0.0056563999999999,0.0032546000000005,0.0047108000000009,0.0209598000000001,0,sub_1
0.0014079999999998,-0.0055799999999987,-0.0049407999999999,0.0030490000000005,-0.001860599999999,0.0128484000000001,0,sub_1
0.0031119999999998,-0.0034993999999987,-0.0050199999999999,0.0026318000000005,-0.010763599999999,0.0019614000000001,0,sub_1
0.0051295999999998,-0.0027189999999987,-0.0091671999999999,0.0009506000000005,-0.014554799999999,-0.0074453999999998,0,sub_1
0.0056023999999998,-0.0009611999999987,-0.0123833999999999,-0.0028721999999994,-0.012191199999999,-0.0089703999999998,0,sub_1
0.0051759999999998,0.0013506000000012,-0.0113249999999998,-0.0041507999999994,-0.007092599999999,-0.0040717999999998,0,sub_1
0.0036529999999998,0.0047030000000012,-0.0095941999999998,-0.0028679999999994,-9.77999999990653e-05,0.0025534000000001,0,sub_1
0.0019083999999998,0.0084578000000012,-0.0078115999999998,-0.0052139999999994,0.0060600000000009,0.0085132000000001,0,sub_1
-0.0007702000000001,0.0105432000000012,-0.0056817999999998,-0.0103551999999994,0.0060548000000009,0.0129656000000001,0,sub_1
-0.0014766000000001,0.0104264000000012,-0.0030207999999998,-0.0138115999999994,-0.000978799999999,0.0153022000000001,0,sub_1
-0.0009668000000001,0.0089768000000012,-0.0017355999999999,-0.0147065999999994,-0.009081399999999,0.0163764000000001,0,sub_1
-0.0001676000000001,0.0079208000000012,-0.0031257999999998,-0.0151599999999994,-0.014407799999999,0.0168072000000001,0,sub_1
-3.680000000013837e-05,0.0067192000000012,-0.0052271999999998,-0.0126161999999994,-0.018887399999999,0.0159758000000001,0,sub_1
0.0003327999999998,0.0044240000000012,-0.0086177999999998,-0.0075011999999994,-0.021032399999999,0.0151594000000001,0,sub_1
0.0003937999999998,0.0027796000000012,-0.0117295999999998,-0.0015227999999994,-0.020413399999999,0.0149868000000001,0,sub_1
0.0015049999999998,0.0023096000000012,-0.0120875999999998,0.0021086000000005,-0.019998399999999,0.0145842000000001,0,sub_1
0.0034237999999998,0.0001834000000012,-0.0111853999999999,0.0059564000000005,-0.020642199999999,0.0124756,0,sub_1
0.0059763999999998,-0.0014921999999987,-0.0109375999999999,0.0091804000000005,-0.017237199999999,0.010785,0,sub_1
0.0068781999999998,-0.0006735999999987,-0.0103855999999999,0.0096468000000005,-0.009988399999999,0.009284,0,sub_1
0.0068577999999998,0.0003386000000012,-0.0087711999999999,0.0064850000000005,-0.003576399999999,0.0071176,0,sub_1
0.0054539999999998,0.0017734000000012,-0.0076319999999999,0.0041792000000005,0.0030474000000009,0.0045296,0,sub_1
0.0032989999999998,0.0045754000000012,-0.0064245999999999,0.0029332000000005,0.0098734000000009,0.0036576000000001,0,sub_1
0.0016541999999998,0.0069722000000012,-0.0058899999999999,0.0023090000000005,0.0128612000000009,0.0030084000000001,0,sub_1
0.0011199999999998,0.0095384000000012,-0.0050681999999999,0.0029520000000005,0.0122260000000009,0.0015178000000001,0,sub_1
-0.0004600000000001,0.0101658000000012,-0.0053467999999998,0.0042224000000005,0.0094552000000009,0.0006752000000001,0,sub_1
-0.0011474000000001,0.0074720000000012,-0.0066309999999998,0.0052714000000005,0.0032820000000009,-0.0016599999999998,0,sub_1
-0.0001550000000001,0.0056082000000012,-0.0085245999999998,0.0086842000000005,0.0007224000000009,-0.0039833999999998,0,sub_1
-0.0002596000000001,0.0044772000000012,-0.0079161999999998,0.0110434000000005,0.0024226000000009,-0.0050375999999998,0,sub_1
-0.0013042000000001,0.0007654000000012,-0.0077093999999998,0.0146798000000005,0.0034782000000009,-0.0058681999999998,0,sub_1
-0.0003264000000001,-0.0005427999999987,-0.0088063999999998,0.0183202000000005,0.0047494000000009,-0.0073399999999998,0,sub_1
0.0023345999999998,0.0002382000000012,-0.0100903999999998,0.0204718000000005,0.0081524000000009,-0.0077565999999998,0,sub_1
0.0029529999999998,-0.0011453999999987,-0.0098637999999998,0.0181398000000005,0.0102956000000009,-0.0088435999999998,0,sub_1
0.0043405999999998,-0.0037149999999987,-0.0108217999999998,0.0179440000000005,0.0113722000000009,-0.0114095999999998,0,sub_1
0.0069417999999998,-0.0020509999999987,-0.0107883999999998,0.0162754000000005,0.0192636000000009,-0.0118581999999998,0,sub_1
0.0065457999999998,0.0008008000000012,-0.0073439999999998,0.0148294000000005,0.0303460000000009,-0.0112409999999998,0,sub_1
0.0006295999999998,0.0022522000000012,-0.0035235999999999,0.0114640000000005,0.0407996000000008,-0.0117051999999997,0,sub_1
-0.0050096000000001,0.0053534000000012,-0.0021269999999999,0.0082798000000005,0.0429480000000008,-0.0134395999999997,0,sub_1
-0.0073988000000001,0.0089924000000012,-0.0040371999999999,0.0029250000000005,0.0370072000000009,-0.0151793999999998,0,sub_1
-0.0061824000000001,0.0072398000000012,-0.0072527999999999,-0.0005289999999994,0.0272222000000009,-0.0162597999999998,0,sub_1
-0.0041592000000001,0.0030722000000012,-0.0120677999999999,-0.0029155999999994,0.0193432000000009,-0.0154121999999998,0,sub_1
0.0008155999999998,0.0021452000000012,-0.0134003999999998,-0.0010367999999994,0.0120840000000009,-0.0132531999999998,0,sub_1
0.0058431999999998,0.0021998000000012,-0.0125409999999999,0.0034426000000005,0.0127036000000009,-0.0121543999999998,0,sub_1
0.0068431999999998,0.0024444000000012,-0.0094935999999999,0.0073114000000005,0.0188696000000009,-0.0121347999999998,0,sub_1
0.0063223999999998,0.0030036000000012,-0.0066655999999999,0.0066730000000005,0.0186620000000009,-0.0127797999999998,0,sub_1
0.0070695999999998,0.0045802000000012,-0.0025235999999999,0.0060152000000005,0.0144056000000009,-0.0132061999999998,0,sub_1
0.0085435999999998,0.0047390000000012,-0.0006025999999999,0.0034444000000005,0.0135582000000009,-0.0119411999999998,0,sub_1
0.0078331999999998,0.0046160000000012,-0.0022519999999999,0.0006480000000005,0.0118516000000009,-0.0087535999999998,0,sub_1
0.0067367999999998,0.0041396000000012,-0.0031841999999999,0.0006170000000005,0.0073688000000009,-0.0063977999999998,0,sub_1
0.0043211999999998,0.0067688000000012,-0.0047837999999999,0.0044396000000005,0.0050004000000009,-0.0044437999999998,0,sub_1
0.0025941999999998,0.0077156000000012,-0.0066005999999998,0.0067788000000005,0.0051930000000009,-0.0022899999999998,0,sub_1
0.0004205999999998,0.0082182000000012,-0.0086771999999998,0.0095410000000005,0.0047438000000009,8.120000000014712e-05,0,sub_1
0.0006469999999998,0.0072348000000012,-0.0083505999999998,0.0118670000000004,0.0032264000000009,0.0035188000000001,0,sub_1
0.0008507999999998,0.0059966000000012,-0.0069665999999998,0.0129168000000004,0.0046878000000009,0.0090800000000001,0,sub_1
0.0004119999999998,0.0029510000000012,-0.0062797999999998,0.0120592000000004,0.0089316000000009,0.0141960000000001,0,sub_1
-0.0018850000000001,0.0009970000000012,-0.0065851999999998,0.0114184000000004,0.0078720000000009,0.0133382000000001,0,sub_1
-0.0006572000000001,-0.0009981999999987,-0.0063373999999998,0.0064940000000005,-0.002736199999999,0.0064808000000001,0,sub_1
-0.0003066000000001,-0.0014895999999987,-0.0058709999999998,0.0011380000000005,-0.012285999999999,0.0017556000000001,0,sub_1
-0.0011000000000001,-0.0011087999999987,-0.0087103999999998,-0.0050349999999994,-0.014799999999999,-0.0036259999999998,0,sub_1
-0.0008426000000001,-0.0001175999999987,-0.0097537999999999,-0.0094913999999994,-0.014765199999999,-0.0085717999999998,0,sub_1
0.0013779999999998,0.0018458000000012,-0.0107707999999999,-0.0128849999999994,-0.012190999999999,-0.0100949999999998,0,sub_1
-0.0008260000000001,0.0036546000000012,-0.0114129999999999,-0.0085829999999994,-0.004750399999999,-0.0098617999999998,0,sub_1
-0.0028018000000001,0.0029456000000012,-0.0108491999999999,-0.0038483999999994,-0.003672799999999,-0.0173087999999998,0,sub_1
0.0051579999999998,-0.0001045999999987,-0.0083481999999999,0.0003972000000005,-0.011558799999999,-0.0202599999999998,0,sub_1
0.0118681999999998,0.0021652000000012,-0.0073343999999999,0.0016370000000005,-0.013083199999999,-0.0127713999999998,0,sub_1
0.0127555999999998,0.0029504000000012,-0.0056481999999999,-0.0011681999999994,-0.009916199999999,-0.0025403999999998,0,sub_1
0.0107015999999998,0.0034102000000012,-0.0007907999999999,-0.0112185999999994,-0.006290999999999,0.0059304000000001,0,sub_1
0.0126069999999998,0.0023520000000012,-0.0007295999999999,-0.0221233999999994,-0.001814599999999,0.0154624000000001,0,sub_1
0.0098971999999998,0.0093420000000012,-0.0070721999999999,-0.0219159999999994,0.0098530000000009,0.0284810000000001,0,sub_1
0.0005493999999998,0.0095706000000011,-0.0056049999999999,-0.0244755999999994,0.0121982000000009,0.0305958000000001,0,sub_1
-0.0032958000000001,0.0073544000000011,-0.0014119999999999,-0.0315119999999994,0.0048006000000009,0.0217964000000001,0,sub_1
-0.0020674000000001,0.0070282000000011,-0.0089735999999998,-0.0231919999999994,-0.003505399999999,0.0137464000000001,0,sub_1
-0.0014480000000001,0.0109822000000011,-0.0129745999999999,-0.0101855999999994,-0.007802599999999,0.0114924000000001,0,sub_1
-0.0041226000000001,0.0079784000000012,-0.0093005999999999,-0.0078327999999994,-0.012050199999999,0.0057456000000001,0,sub_1
-0.0022592000000001,0.0053436000000012,-0.0097217999999999,-0.0020389999999994,-0.011405399999999,-0.0010515999999998,0,sub_1
-0.0012892000000001,0.0046132000000012,-0.0133837999999999,0.0114280000000005,-0.006550799999999,-0.0016045999999998,0,sub_1
0.0009431999999998,0.0028558000000012,-0.0109831999999999,0.0152800000000005,-0.001674599999999,0.0007662000000001,0,sub_1
0.0005827999999998,9.380000000122554e-05,-0.0075221999999999,0.0146704000000005,0.0047198000000009,0.0003266000000001,0,sub_1
-0.0001668000000001,-0.0021979999999987,-0.0053661999999998,0.0110704000000005,0.0062416000000009,-0.0041869999999998,0,sub_1
0.0011547999999998,-0.0025873999999987,-0.0061043999999998,0.0082896000000005,0.0007274000000009,-0.0080447999999998,0,sub_1
0.0034573999999998,-0.0010467999999987,-0.0070959999999998,0.0065698000000005,-0.003310199999999,-0.0091195999999998,0,sub_1
0.0038751999999998,0.0007096000000012,-0.0080025999999998,0.0044344000000005,-0.002242999999999,-0.0076401999999998,0,sub_1
0.0038337999999998,0.0024680000000012,-0.0097489999999998,0.0039982000000005,0.0002968000000009,-0.0029461999999998,0,sub_1
0.0031377999999998,0.0040964000000012,-0.0095117999999999,0.0059050000000005,0.0036736000000009,0.0034722000000001,0,sub_1
0.0011105999999998,0.0035588000000012,-0.0083897999999999,0.0063248000000005,0.0079102000000009,0.0092380000000001,0,sub_1
-0.0001144000000001,0.0023062000000012,-0.0075675999999999,0.0052502000000005,0.0089682000000009,0.0120064000000001,0,sub_1
0.0002431999999998,0.0020452000000012,-0.0070423999999998,0.0046072000000005,0.0096044000000009,0.0132828000000001,0,sub_1
-0.0009498,0.0033270000000012,-0.0049425999999998,0.0039736000000005,0.0119468000000009,0.0141298000000001,0,sub_1
-0.0027878000000001,0.0044918000000012,-0.0037665999999998,0.0024932000000005,0.0128128000000009,0.0119816000000001,0,sub_1
-0.0017116000000001,0.0041452000000012,-0.0052809999999998,0.0027070000000005,0.0092050000000009,0.0081418000000001,0,sub_1
-0.0005528000000001,0.0028952000000012,-0.0077593999999998,0.0014374000000005,0.0087922000000009,0.0049298000000001,0,sub_1
-0.0009294000000001,0.0011144000000012,-0.0093747999999999,-0.0004807999999994,0.0087984000000009,0.0040630000000001,0,sub_1
0.0010341999999998,-0.0007007999999987,-0.0106449999999999,-0.0006953999999994,0.0066732000000009,0.0019290000000001,0,sub_1
0.0052357999999998,-0.0014175999999987,-0.0113863999999999,0.0020782000000005,0.0043264000000009,-0.0006109999999998,0,sub_1
0.0068903999999998,0.0005928000000012,-0.0102849999999999,0.0018752000000005,0.0066686000000009,-0.0008273999999998,0,sub_1
0.0069057999999998,0.0022376000000012,-0.0078789999999999,0.0035738000000005,0.0072922000000009,0.0017476000000001,0,sub_1
0.0076547999999998,0.0032736000000012,-0.0051435999999999,0.0050580000000005,0.0066426000000009,0.0032544000000001,0,sub_1
0.0079767999999998,0.0023878000000012,-0.0046531999999999,0.0044140000000005,0.0068542000000009,0.0043180000000001,0,sub_1
0.0068019999999998,0.0022794000000012,-0.0043399999999998,0.0003530000000005,0.0083472000000009,0.0070670000000001,0,sub_1
0.0057323999999998,0.0031350000000012,-0.0041281999999998,-0.0009341999999994,0.0087694000000009,0.0087684000000001,0,sub_1
0.0041109999999998,0.0043892000000012,-0.0047043999999998,-0.0022177999999994,0.0077094000000009,0.0081216000000001,0,sub_1
0.0029647999999998,0.0051960000000012,-0.0062143999999998,-0.0035025999999994,0.0045264000000009,0.0055546000000001,0,sub_1
0.0023109999999998,0.0059106000000012,-0.0071769999999998,-0.0047919999999994,0.0002782000000009,0.0029890000000001,0,sub_1
0.0023953999999998,0.0054780000000012,-0.0088891999999998,-0.0028777999999994,-0.003340799999999,0.0006568000000001,0,sub_1
0.0018113999999998,0.0033382000000012,-0.0091627999999998,-0.0009613999999994,-0.006745999999999,-0.0018891999999998,0,sub_1
0.0030389999999998,0.0018344000000012,-0.0093967999999998,0.0022374000000005,-0.008244199999999,-0.0029331999999998,0,sub_1
0.0035061999999998,0.0020354000000012,-0.0088297999999998,0.0039484000000005,-0.006763599999999,-0.0022807999999998,0,sub_1
0.0026773999999998,0.0028656000000012,-0.0081681999999998,0.0024566000000005,-0.005061399999999,-0.0010103999999998,0,sub_1
0.0008807999999998,0.0032686000000012,-0.0076087999999998,-0.0003277999999994,-0.005912399999999,0.0004678000000001,0,sub_1
0.0008523999999998,0.0043588000000012,-0.0072843999999999,-0.0016283999999994,-0.007625799999999,0.0032392000000001,0,sub_1
0.0006683999999998,0.0049368000000012,-0.0067127999999999,-0.0046333999999994,-0.008481799999999,0.0062114000000001,0,sub_1
0.0007485999999998,0.0042832000000012,-0.0072695999999999,-0.0057149999999994,-0.009763999999999,0.0081282000000001,0,sub_1
0.0003777999999998,0.0029206000000012,-0.0072625999999999,-0.0052979999999994,-0.011683799999999,0.0083472000000001,0,sub_1
0.0005941999999998,0.0015648000000012,-0.0076757999999998,-0.0057219999999994,-0.012316399999999,0.0070632000000001,0,sub_1
0.0003135999999998,0.0010094000000012,-0.0086585999999998,-0.0072011999999994,-0.011027999999999,0.0051294000000001,0,sub_1
-0.0005980000000001,0.0013412000000012,-0.0090251999999998,-0.0073981999999994,-0.010379199999999,0.0021370000000001,0,sub_1
-0.0008238000000001,0.0017096000000012,-0.0082451999999998,-0.0084477999999994,-0.009514199999999,-0.0008615999999998,0,sub_1
0.0001997999999998,0.0024266000000012,-0.0085147999999998,-0.0069435999999994,-0.008451799999999,-0.0021335999999998,0,sub_1
0.0010313999999998,0.0028540000000012,-0.0074913999999998,-0.0039601999999994,-0.009529399999999,-0.0023241999999998,0,sub_1
0.0025897999999998,0.0029126000000012,-0.0069997999999998,-0.0014025999999994,-0.009965199999999,-0.0020919999999998,0,sub_1
0.0039555999999998,0.0026368000000012,-0.0065851999999999,0.0005226000000005,-0.008906199999999,-0.0020797999999998,0,sub_1
0.0035443999999998,0.0020032000000012,-0.0067381999999999,0.0018078000000005,-0.009118399999999,-0.0033523999999998,0,sub_1
0.0029173999999998,0.0014066000000012,-0.0070001999999999,0.0013836000000005,-0.010390199999999,-0.0052761999999998,0,sub_1
0.0037439999999998,0.0012882000000012,-0.0074187999999999,0.0011796000000005,-0.009958999999999,-0.0069869999999998,0,sub_1
0.0046171999999998,0.0018402000000012,-0.0077649999999999,0.0018290000000005,-0.008681999999999,-0.0078383999999998,0,sub_1
0.0053351999999998,0.0025090000000012,-0.0078581999999998,0.0029060000000005,-0.005071399999999,-0.0065531999999998,0,sub_1
