userAcceleration.x,userAcceleration.y,userAcceleration.z,rotationRate.x,rotationRate.y,rotationRate.z,label,subject
0.0008617999999998,0.0010806000000012,-0.0049979999999998,-0.0006549999999996,-0.0004977999999991,0.0011002000000001,0,sub_14
0.0010671999999998,0.0007002000000012,-0.0046455999999998,-0.0004439999999996,-0.0009245999999991,0.0006834000000001,0,sub_14
0.0012117999999998,9.46000000012774e-05,-0.0046917999999998,0.0001966000000003,-0.0007135999999991,0.0002686000000001,0,sub_14
0.0013817999999998,-0.0003663999999987,-0.0048189999999999,0.0010500000000002,-0.0009287999999991,6.120000000017045e-05,0,sub_14
0.0014613999999998,-0.0001485999999987,-0.0043035999999999,0.0016920000000002,-0.0007171999999991,-0.0001483999999998,0,sub_14
0.0021777999999998,-0.0004033999999987,-0.0042319999999999,0.0014786000000002,-0.0005041999999991,6.340000000017053e-05,0,sub_14
0.0026493999999998,-0.0002489999999987,-0.0045281999999999,0.0008366000000002,-0.0005035999999991,0.0004862000000001,0,sub_14
0.0019983999999998,-8.239999999870272e-05,-0.0047859999999999,0.0001908000000003,-0.0007213999999991,0.0015594000000001,0,sub_14
0.0014265999999998,0.0023346000000012,-0.0035705999999999,0.0010396000000003,-0.0005191999999991,0.0028560000000001,0,sub_14
0.0021333999999998,0.0025562000000012,-0.0050651999999999,0.0006168000000003,-0.0005169999999991,0.0020076000000001,0,sub_14
0.0023145999999998,0.0015072000000013,-0.0063511999999999,-0.0002297999999996,-0.0002985999999991,0.0007288000000001,0,sub_14
0.0017659999999998,0.0009052000000013,-0.0056051999999998,-0.0004373999999996,-8.319999999913248e-05,-0.0003319999999998,0,sub_14
0.0019811999999998,0.0004380000000012,-0.0044951999999998,0.0002074000000003,-8.119999999913248e-05,-0.0013957999999998,0,sub_14
0.0023217999999998,-0.0020749999999986,-0.0055019999999998,-0.0008507999999996,0.0007790000000008,-0.0024725999999998,0,sub_14
0.0026313999999998,-0.0027753999999986,-0.0053769999999998,-0.0006355999999996,0.0018410000000008,-0.0018313999999998,0,sub_14
0.0027975999999998,-0.0019125999999987,-0.0040505999999998,-0.0002141999999996,0.0022602000000008,-0.0005423999999998,0,sub_14
0.0028479999999998,-0.0010769999999987,-0.0045083999999998,-0.0002175999999996,0.0028946000000008,0.0005298000000001,0,sub_14
0.0035619999999998,-0.0005215999999987,-0.0054643999999998,-0.0010715999999996,0.0033224000000008,0.0007418000000001,0,sub_14
0.0036333999999998,-0.0003373999999987,-0.0052279999999999,-0.0006501999999996,0.0022562000000008,0.0005372000000001,0,sub_14
0.0026863999999998,0.0004514000000012,-0.0047539999999999,-1.6199999999649654e-05,0.0009760000000008,0.0003344000000001,0,sub_14
0.0014629999999998,0.0006098000000012,-0.0052105999999999,0.0006192000000003,0.0001206000000008,0.0005536000000001,0,sub_14
0.0007913999999998,1.800000001277169e-06,-0.0059219999999999,0.0008268000000003,-0.0005217999999991,0.0011968000000001,0,sub_14
-0.0006800000000001,-1.879999999870283e-05,-0.0059805999999999,0.0006008000000003,-0.000740999999999,0.0033332000000001,0,sub_14
-0.0014154000000001,0.0007854000000012,-0.0061649999999999,-0.0004757999999996,-0.000530199999999,0.0052496000000001,0,sub_14
-0.0017728000000001,0.0006358000000012,-0.0061565999999999,-0.0013381999999996,-0.000531399999999,0.0067404000000001,0,sub_14
-0.0008716000000001,0.0007172000000012,-0.0070049999999998,-0.0011309999999996,-0.000745999999999,0.0073842000000001,0,sub_14
-0.0004792000000001,0.0010432000000012,-0.0065579999999998,-0.0002785999999996,-0.000958599999999,0.0069644000000001,0,sub_14
0.0005835999999998,0.0007750000000012,-0.0063879999999998,0.0016464000000003,-0.0015975999999991,0.0052696000000001,0,sub_14
0.0020273999999998,-0.0005959999999987,-0.0056829999999998,0.0037858000000003,-0.002236599999999,0.0033626000000001,0,sub_14
0.0034495999999998,-0.0014411999999987,-0.0050327999999998,0.0050708000000003,-0.002661199999999,0.0018766000000001,0,sub_14
0.0039523999999998,-0.0022149999999987,-0.0036655999999999,0.0059262000000003,-0.002874799999999,0.0012420000000001,0,sub_14
0.0043677999999998,-0.0020789999999987,-0.0031485999999999,0.0054940000000003,-0.002873799999999,0.0018798000000001,0,sub_14
0.0036457999999998,-0.0019849999999987,-0.0032823999999999,0.0033540000000003,-0.002018799999999,0.0035726000000001,0,sub_14
0.0028081999999998,-0.0011843999999987,-0.0037345999999999,0.0007862000000003,-0.0009509999999991,0.0056894000000001,0,sub_14
0.0015661999999998,-0.0001377999999987,-0.0048569999999999,-0.0002887999999996,-0.0003137999999991,0.0076036000000001,0,sub_14
0.0004255999999998,0.0006116000000012,-0.0058657999999999,-0.0009321999999996,0.0003264000000008,0.0084526000000001,0,sub_14
-0.0003074000000001,0.0007908000000012,-0.0068405999999999,-7.47999999996498e-05,0.0007512000000008,0.0080306000000001,0,sub_14
0.0001107999999998,0.0006112000000012,-0.0074265999999999,0.0016390000000003,0.0003268000000008,0.0061204000000001,0,sub_14
0.0002107999999998,0.0004306000000012,-0.0070077999999999,0.0037786000000003,-0.0005243999999991,0.0040000000000001,0,sub_14
0.0006067999999998,-3.579999999872271e-05,-0.0061605999999999,0.0048490000000003,-0.0009437999999991,0.0020832000000001,0,sub_14
0.0012713999999998,-0.0002675999999987,-0.0054965999999999,0.0054906000000003,-0.0011511999999991,0.0008042000000001,0,sub_14
0.0020843999999998,-7.999999999872267e-05,-0.0047603999999999,0.0054854000000003,-0.0015745999999991,0.0008028000000001,0,sub_14
0.0027457999999998,0.0007050000000012,-0.0039595999999999,0.0048354000000003,-0.001575599999999,0.0022916000000001,0,sub_14
0.0028387999999998,0.0007530000000012,-0.0044431999999999,0.0026908000000003,-0.001147799999999,0.0044106000000001,0,sub_14
0.0028211999999998,0.0009170000000012,-0.0047567999999999,0.0011876000000003,-0.000938799999999,0.0067500000000001,0,sub_14
0.0024457999999998,0.0010258000000012,-0.0050059999999998,0.0001132000000003,-0.000729799999999,0.0086650000000001,0,sub_14
0.0016893999999998,0.0005794000000012,-0.0055561999999998,-0.0005281999999996,-0.000515199999999,0.0088730000000001,0,sub_14
0.0013389999999998,-0.0002233999999987,-0.0058829999999998,-0.0003123999999996,-0.0009367999999991,0.0075926000000001,0,sub_14
0.0012673999999998,-0.0010811999999987,-0.0062577999999999,0.0016160000000003,-0.0009347999999991,0.0054688000000001,0,sub_14
0.0011317999999998,-0.0013075999999987,-0.0060327999999999,0.0035444000000003,-0.0011449999999991,0.0031316000000001,0,sub_14
0.0010507999999998,-0.0016129999999987,-0.0059795999999999,0.0048318000000003,-0.0011415999999991,0.0012170000000001,0,sub_14
0.0019699999999998,-0.0020291999999987,-0.0060013999999999,0.0059006000000003,-0.0013557999999991,0.0005840000000001,0,sub_14
0.0018763999999998,-0.0019339999999987,-0.0053335999999999,0.0065426000000003,-0.0005073999999991,0.0010146000000001,0,sub_14
0.0025995999999998,-0.0004953999999987,-0.0048831999999999,0.0056920000000003,0.0001348000000008,0.0010078000000001,0,sub_14
0.0034045999999998,-0.0001167999999987,-0.0045555999999999,0.0039870000000003,0.0012034000000008,0.0016354000000001,0,sub_14
0.0027951999999998,9.020000000127724e-05,-0.0040919999999999,0.0029128000000003,0.0009878000000008,0.0029046000000001,0,sub_14
0.0017407999999998,0.0016084000000012,-0.0035133999999999,0.0029092000000003,0.0011964000000008,0.0037534000000001,0,sub_14
0.0016809999999998,0.0022726000000012,-0.0045005999999999,0.0022712000000003,0.0009878000000008,0.0028892000000001,0,sub_14
0.0009327999999998,0.0014984000000012,-0.0051425999999999,0.0020582000000003,0.0009882000000009,0.0026688000000001,0,sub_14
-0.0001472000000001,0.0007894000000012,-0.0057895999999999,0.0022718000000003,0.0007750000000009,0.0022380000000001,0,sub_14
0.0002879999999998,0.0009840000000012,-0.0055539999999999,0.0024946000000003,0.0014194000000008,0.0007432000000001,0,sub_14
0.0012787999999998,-0.0002509999999987,-0.0062971999999999,0.0012258000000003,0.0022828000000008,-0.0009759999999998,0,sub_14
0.0023051999999997,-0.0004409999999987,-0.0063709999999999,0.0005896000000003,0.0022884000000008,-0.0018349999999997,0,sub_14
0.0030383999999998,0.0005938000000012,-0.0056947999999999,-5.7199999999629855e-05,0.0016560000000008,-0.0022787999999997,0,sub_14
0.0036133999999998,0.0015774000000012,-0.0057237999999999,-0.0013381999999996,0.0016676000000008,-0.0033687999999997,0,sub_14
0.0041549999999998,0.0013952000000012,-0.0058741999999999,-0.0024077999999996,0.0014646000000008,-0.0042431999999997,0,sub_14
0.0037869999999998,0.0011816000000012,-0.0053683999999999,-0.0032677999999996,0.0008330000000008,-0.0046883999999998,0,sub_14
0.0025385999999998,0.0006928000000012,-0.0052597999999999,-0.0045527999999996,0.0010534000000008,-0.0047103999999998,0,sub_14
0.0017403999999998,-0.0006881999999987,-0.0055093999999998,-0.0054061999999996,0.0014808000000008,-0.0042895999999998,0,sub_14
0.0007835999999998,-0.0017107999999987,-0.0049293999999998,-0.0056263999999996,0.0012634000000008,-0.0030089999999998,0,sub_14
0.0002661999999998,-0.0016263999999987,-0.0051101999999998,-0.0058533999999996,0.0010508000000008,-0.0021749999999998,0,sub_14
0.0001113999999998,-0.0011859999999987,-0.0055279999999998,-0.0052201999999996,0.0012658000000008,-0.0024035999999998,0,sub_14
0.0004305999999998,-0.0004615999999987,-0.0054499999999998,-0.0039449999999996,0.0012680000000008,-0.0032683999999998,0,sub_14
0.0008299999999998,0.0004102000000012,-0.0055133999999999,-0.0022439999999996,0.0006312000000009,-0.0045567999999997,0,sub_14
0.0021275999999998,0.0013152000000012,-0.0056279999999999,-0.0009677999999996,0.0002098000000009,-0.0060619999999997,0,sub_14
0.0025173999999998,0.0012582000000012,-0.0058661999999999,-0.0009647999999996,2.0000000092732298e-07,-0.0069161999999997,0,sub_14
0.0024951999999998,0.0012360000000012,-0.0056277999999999,-0.0018221999999996,-0.000424799999999,-0.0064943999999997,0,sub_14
0.0024159999999998,0.0006776000000012,-0.0052363999999999,-0.0028975999999996,-0.000853199999999,-0.0050057999999997,0,sub_14
0.0022335999999998,0.0001950000000012,-0.0050175999999999,-0.0037557999999996,-0.000854399999999,-0.0039435999999998,0,sub_14
0.0013537999999998,-0.0005809999999987,-0.0053241999999999,-0.0039819999999995,-0.0006387999999991,-0.0033283999999998,0,sub_14
0.0011361999999998,-0.0008747999999987,-0.0055165999999999,-0.0033567999999995,-0.0006399999999991,-0.0024933999999998,0,sub_14
0.0008139999999998,-0.0008977999999987,-0.0053665999999999,-0.0023027999999995,-0.0006409999999991,-0.0020825999999998,0,sub_14
0.0006881999999998,-0.0008923999999987,-0.0051687999999999,-0.0010305999999996,-0.0004261999999991,-0.0025251999999998,0,sub_14
0.0006651999999998,-0.0006355999999987,-0.0052229999999999,-0.0004023999999996,-0.0004247999999991,-0.0023309999999998,0,sub_14
0.0010901999999997,-0.0001067999999987,-0.0053901999999999,-0.0001909999999996,-0.0006393999999991,-0.0021155999999998,0,sub_14
0.0012843999999997,9.720000000127711e-05,-0.0055589999999999,-0.0004041999999996,-0.0006385999999991,-0.0021171999999998,0,sub_14
0.0017543999999997,5.720000000127712e-05,-0.0052791999999999,-0.0008289999999996,-0.0004231999999991,-0.0023341999999998,0,sub_14
0.0022717999999997,0.0007150000000012,-0.0051167999999999,-0.0010433999999996,-0.0006355999999991,-0.0023355999999998,0,sub_14
0.0024539999999997,0.0008988000000012,-0.0049043999999999,-0.0012691999999996,-0.0004159999999991,-0.0029995999999998,0,sub_14
0.0031407999999998,0.0011138000000012,-0.0043663999999999,-0.0019225999999996,-0.0001957999999991,-0.0034529999999998,0,sub_14
0.0032869999999998,0.0014886000000012,-0.0039473999999999,-0.0025769999999996,2.360000000088738e-05,-0.0036925999999998,0,sub_14
0.0031185999999998,0.0015244000000012,-0.0042977999999999,-0.0028093999999996,-0.0006113999999991,-0.0037145999999998,0,sub_14
0.0026267999999997,0.0009380000000012,-0.0049885999999999,-0.0034647999999996,-0.0001805999999991,-0.0035271999999998,0,sub_14
0.0022485999999997,0.0005508000000012,-0.0055945999999999,-0.0043221999999996,-0.0001809999999991,-0.0026785999999998,0,sub_14
0.0013765999999997,-0.0002903999999987,-0.0060695999999999,-0.0043381999999996,-0.0001845999999991,-0.0020517999999998,0,sub_14
0.0011743999999997,-0.0010743999999987,-0.0057735999999999,-0.0037141999999996,-0.0001903999999991,-0.0014205999999998,0,sub_14
0.0015011999999997,-0.0013529999999987,-0.0054427999999999,-0.0032987999999996,0.0004454000000008,-0.0012189999999998,0,sub_14
0.0019893999999997,-0.0013225999999987,-0.0048489999999998,-0.0024593999999996,0.0004406000000008,-0.0010135999999998,0,sub_14
0.0023055999999998,-0.0014209999999987,-0.0040065999999998,-0.0007655999999996,0.0002214000000008,-0.0012291999999998,0,sub_14
0.0023437999999998,-0.0004245999999987,-0.0031191999999998,0.0015824000000003,0.0004264000000008,-0.0012131999999998,0,sub_14
0.0027105999999998,0.0003646000000012,-0.0035519999999998,0.0024416000000003,0.0004284000000008,-0.0024891999999998,0,sub_14
0.0029793999999998,0.0005394000000012,-0.0044239999999998,0.0015928000000003,0.0004356000000008,-0.0035631999999998,0,sub_14
0.0025325999999998,0.0001004000000012,-0.0042201999999999,0.0003154000000003,0.0002304000000008,-0.0044263999999998,0,sub_14
0.0022141999999998,-0.0003109999999987,-0.0043817999999999,-0.0009629999999996,0.0004446000000008,-0.0046499999999998,0,sub_14
0.0020909999999998,-0.0012529999999987,-0.0050175999999999,-0.0026691999999996,0.0006594000000008,-0.0046627999999998,0,sub_14
0.0021117999999998,-0.0014213999999987,-0.0056529999999999,-0.0028855999999996,0.0010780000000008,-0.0035971999999998,0,sub_14
0.0016007999999998,-0.0004899999999987,-0.0050847999999999,-0.0018235999999996,0.0012782000000008,-0.0023089999999998,0,sub_14
0.0019169999999998,0.0005224000000012,-0.0053245999999999,-0.0011873999999996,0.0010562000000008,-0.0016639999999998,0,sub_14
0.0020603999999998,0.0014706000000012,-0.0057595999999999,-0.0007615999999996,0.0010538000000008,-0.0014473999999998,0,sub_14
0.0022503999999998,0.0017818000000012,-0.0060707999999999,-0.0014055999999996,0.0002038000000008,-0.0014507999999998,0,sub_14
0.0014233999999998,0.0016460000000012,-0.0056203999999999,-0.0022619999999996,-0.0004323999999991,-0.0014559999999998,0,sub_14
0.0012775999999998,0.0008368000000012,-0.0055501999999999,-0.0033259999999996,-0.0012821999999991,-0.0016663999999998,0,sub_14
0.0008995999999998,-0.0003897999999987,-0.0057885999999999,-0.0035345999999996,-0.0010719999999991,-0.0012313999999998,0,sub_14
0.0008793999999998,-0.0010277999999987,-0.0054001999999999,-0.0037449999999996,-0.0012879999999991,-0.0007957999999998,0,sub_14
0.0009149999999998,-0.0012337999999987,-0.0048393999999999,-0.0030999999999996,-0.0010807999999991,-0.0003547999999998,0,sub_14
0.0012791999999998,-0.0014927999999987,-0.0047005999999999,-0.0022405999999996,-0.0008735999999991,-0.0001257999999998,0,sub_14
0.0018323999999998,-0.0013003999999987,-0.0047999999999999,-0.0011717999999996,-0.0004511999999991,-0.0001187999999998,0,sub_14
0.0025539999999998,-0.0004355999999987,-0.0044935999999999,-0.0003173999999996,-0.000665599999999,-0.0005397999999998,0,sub_14
0.0026437999999998,0.0002760000000012,-0.0048271999999999,0.0005440000000003,-0.000667999999999,-0.0007349999999998,0,sub_14
0.0024885999999998,0.0006688000000012,-0.0052879999999999,0.0007644000000003,-0.000881199999999,-0.0009343999999998,0,sub_14
0.0029129999999998,0.0012370000000012,-0.0052437999999999,0.0001284000000003,-0.001093999999999,-0.0004989999999998,0,sub_14
0.0025785999999997,0.0011156000000012,-0.0050509999999999,-0.0005083999999996,-0.001307599999999,0.0001500000000001,0,sub_14
0.0016687999999998,0.0010076000000012,-0.0053745999999999,-0.0002907999999996,-0.0015233999999991,0.0005914000000001,0,sub_14
0.0015779999999997,0.0006300000000012,-0.0051247999999999,-0.0007165999999996,-0.0013087999999991,0.0005882000000001,0,sub_14
0.0018513999999997,0.0006638000000012,-0.0050023999999999,-0.0005011999999996,-0.0010955999999991,0.0003758000000001,0,sub_14
0.0015361999999997,0.0003200000000012,-0.0048565999999999,-7.259999999964971e-05,-0.0010953999999991,-4.839999999982989e-05,0,sub_14
0.0013949999999997,0.0002036000000012,-0.0047605999999999,0.0005674000000003,-0.0010975999999991,-4.379999999982991e-05,0,sub_14
0.0020711999999997,8.1400000001277e-05,-0.0047729999999999,0.0001530000000003,-0.0008827999999991,-3.259999999982991e-05,0,sub_14
0.0023851999999997,-0.0002297999999987,-0.0050815999999999,0.0005902000000003,-0.0008847999999991,0.0001982000000001,0,sub_14
0.0026481999999998,-0.0007895999999987,-0.0050269999999999,0.0003882000000003,-0.0006715999999991,0.0004244000000001,0,sub_14
0.0027437999999998,-0.0009039999999987,-0.0051581999999999,-2.7999999999649745e-05,-0.0006707999999991,0.0006492000000001,0,sub_14
0.0032217999999998,-0.0009251999999987,-0.0055645999999999,-0.0004423999999996,-0.0006681999999991,0.0004468000000001,0,sub_14
0.0033641999999998,-0.0006431999999987,-0.0058407999999999,-0.0004403999999996,-0.0002419999999991,0.0004462000000001,0,sub_14
0.0033633999999998,-0.0001159999999987,-0.0057511999999999,-0.0008661999999996,-2.7599999999112665e-05,0.0004430000000001,0,sub_14
0.0029711999999998,-0.0001197999999987,-0.0058555999999999,-0.0008575999999996,-0.000240599999999,0.0002448000000001,0,sub_14
0.0030771999999998,-5.6199999998723024e-05,-0.0061115999999999,-0.0006337999999996,-0.000240199999999,-0.0001655999999998,0,sub_14
0.0029667999999998,-3.4799999998723026e-05,-0.0064335999999999,1.9800000000350265e-05,0.0003978000000009,-0.0005737999999998,0,sub_14
0.0025977999999998,-0.0003589999999987,-0.0062245999999999,0.0002446000000003,0.0008232000000009,-0.0007711999999998,0,sub_14
0.0024347999999998,-0.0008849999999987,-0.0058545999999999,0.0006818000000003,0.0008228000000009,-0.0011801999999998,0,sub_14
0.0022693999999998,-0.0005887999999987,-0.0054849999999999,0.0008962000000003,0.0010352000000008,-0.0011789999999997,0,sub_14
0.0017889999999998,-0.0007171999999987,-0.0051567999999999,0.0017506000000003,0.0010330000000008,-0.0013867999999997,0,sub_14
0.0014037999999998,-0.0005597999999987,-0.0045817999999999,0.0019602000000003,0.0006044000000008,-0.0009575999999998,0,sub_14
0.0008655999999998,-0.0002539999999987,-0.0046197999999999,0.0019654000000003,0.0001748000000008,-0.0003015999999998,0,sub_14
0.0006999999999998,0.0003984000000012,-0.0053239999999999,0.0015450000000003,0.0001720000000008,0.0005646000000001,0,sub_14
0.0007311999999998,0.0009504000000012,-0.0057121999999999,0.0006958000000003,-4.339999999909264e-05,0.0016418000000001,0,sub_14
0.0010991999999998,0.0013960000000012,-0.0059265999999999,-0.0003647999999996,0.0001682000000009,0.0027170000000001,0,sub_14
0.0014437999999998,0.0007434000000012,-0.0061087999999998,-0.0012081999999996,0.0005946000000009,0.0031524000000001,0,sub_14
0.0023227999999998,-0.0004517999999987,-0.0059079999999998,-0.0009947999999996,0.0003818000000009,0.0029406000000001,0,sub_14
0.0027689999999998,-0.0013235999999987,-0.0057667999999999,-0.0003517999999996,0.0001698000000009,0.0020908000000001,0,sub_14
0.0041205999999998,-0.0018895999999987,-0.0053729999999999,0.0009370000000003,0.0001730000000008,0.0001770000000001,0,sub_14
0.0055153999999998,-0.0025429999999987,-0.0052227999999999,0.0020106000000003,-3.699999999911265e-05,-0.0015243999999998,0,sub_14
0.0062271999999997,-0.0023367999999987,-0.0042891999999999,0.0035136000000003,-0.0004651999999991,-0.0019301999999998,0,sub_14
0.0056781999999997,0.0004788000000012,-0.0036773999999999,0.0050196000000003,0.0001700000000008,-0.0019099999999998,0,sub_14
0.0057207999999998,0.0011788000000012,-0.0043581999999999,0.0041812000000003,0.0010282000000008,-0.0023337999999998,0,sub_14
0.0045243999999998,0.0006184000000012,-0.0053377999999999,0.0016340000000003,0.0023152000000008,-0.0019153999999998,0,sub_14
0.0024113999999998,0.0004658000000012,-0.0051145999999999,-6.359999999967e-05,0.0033836000000008,-0.0008499999999998,0,sub_14
0.0007393999999998,0.0002790000000012,-0.0053571999999999,-0.0009171999999996,0.0035986000000008,-0.0006425999999998,0,sub_14
0.0002467999999998,-0.0020613999999987,-0.0067849999999999,-0.0017677999999996,0.0040286000000008,-0.0008627999999998,0,sub_14
0.0002277999999998,-0.0022049999999987,-0.0067465999999999,-0.0002759999999996,0.0038096000000008,-0.0006383999999998,0,sub_14
0.0002323999999998,-0.0009499999999987,-0.0059871999999999,0.0018592000000003,0.0025280000000008,-0.0008289999999998,0,sub_14
0.0007181999999998,0.0003586000000012,-0.0064323999999999,0.0025046000000003,0.0016794000000008,-0.0014577999999998,0,sub_14
0.0019281999999998,0.0013204000000012,-0.0076875999999999,0.0016564000000003,0.0010482000000008,-0.0018835999999998,0,sub_14
0.0024623999999998,0.0019898000000012,-0.0070689999999999,-0.0002635999999996,-0.0004323999999991,-0.0021021999999998,0,sub_14
0.0022137999999998,0.0019162000000012,-0.0059527999999999,-0.0023969999999996,-0.0014877999999991,-0.0018955999999998,0,sub_14
0.0026075999999998,0.0005604000000012,-0.0056451999999999,-0.0036801999999996,-0.0012737999999991,-0.0010503999999998,0,sub_14
0.0028837999999998,-0.0011789999999987,-0.0054039999999999,-0.0043231999999996,-0.0010619999999991,-0.0002005999999998,0,sub_14
0.0024879999999998,-0.0026977999999987,-0.0041053999999999,-0.0038919999999996,-0.0006361999999991,0.0002328000000001,0,sub_14
0.0030199999999998,-0.0032333999999987,-0.0031703999999999,-0.0023909999999996,-0.000423799999999,-0.0001805999999998,0,sub_14
0.0031073999999998,-0.0036067999999987,-0.0033127999999999,-0.0002477999999996,2.000000009073232e-07,-0.0008033999999998,0,sub_14
0.0028783999999998,-0.0027241999999987,-0.0039361999999999,0.0016810000000003,0.0002120000000009,-0.0014273999999998,0,sub_14
0.0024165999999998,-0.0014515999999987,-0.0043933999999999,0.0031772000000003,-0.000216399999999,-0.0014125999999998,0,sub_14
0.0014141999999998,0.0006086000000012,-0.0054251999999999,0.0031764000000003,-4.999999999092666e-06,-0.0009855999999998,0,sub_14
0.0006457999999998,0.0015104000000012,-0.0067065999999999,0.0023172000000003,0.0004172000000008,0.0007170000000001,0,sub_14
0.0003229999999998,0.0017368000000012,-0.0071635999999998,0.0008148000000003,0.0004148000000008,0.0026294000000001,0,sub_14
-0.0001976000000001,0.0013034000000012,-0.0064241999999999,-0.0004731999999996,0.0002002000000008,0.0041162000000001,0,sub_14
0.0001463999999998,0.0008062000000012,-0.0057451999999999,-0.0011133999999995,0.0002024000000008,0.0043280000000001,0,sub_14
0.0012655999999998,-0.0003251999999987,-0.0053093999999998,-0.0006847999999996,-0.0002217999999991,0.0036934000000001,0,sub_14
0.0018449999999998,-0.0010335999999987,-0.0046403999999998,0.0001724000000003,-0.0006457999999991,0.0026344000000001,0,sub_14
0.0026387999999998,-0.0014855999999987,-0.0043845999999999,0.0014594000000003,-0.0006443999999991,0.0013642000000001,0,sub_14
0.0038497999999998,-0.0013583999999987,-0.0049007999999999,0.0025300000000003,-0.0008569999999991,0.0005202000000001,0,sub_14
0.0043317999999997,-0.0012247999999987,-0.0050033999999999,0.0029588000000002,-0.0006445999999991,0.0003094000000001,0,sub_14
0.0040145999999997,-0.0012487999999986,-0.0046365999999999,0.0025282000000003,-0.0002221999999991,0.0015878000000001,0,sub_14
0.0037205999999997,-0.0014585999999987,-0.0050015999999999,0.0016700000000003,-1.1199999999112694e-05,0.0028634000000001,0,sub_14
0.0030431999999997,-0.0014577999999987,-0.0047105999999999,0.0005974000000003,0.0004118000000008,0.0045644000000001,0,sub_14
0.0018999999999998,-0.0015621999999987,-0.0052717999999999,-4.679999999962995e-05,0.0008366000000008,0.0054142000000001,0,sub_14
0.0011273999999998,-0.0015681999999987,-0.0056719999999999,0.0001614000000003,0.0008332000000008,0.0060568000000001,0,sub_14
0.0007825999999998,-0.0012933999999987,-0.0061533999999999,0.0012280000000003,0.0008310000000008,0.0056372000000001,0,sub_14
0.0005597999999998,-0.0010225999999987,-0.0066655999999998,0.0020822000000003,0.0006182000000009,0.0047892000000001,0,sub_14
0.0004705999999998,-0.0001481999999987,-0.0074653999999998,0.0025086000000003,-1.8199999999092728e-05,0.0037252000000001,0,sub_14
0.0009509999999998,0.0001044000000012,-0.0069011999999998,0.0029354000000003,-0.000656199999999,0.0030880000000001,0,sub_14
0.0016009999999998,0.0001158000000012,-0.0068509999999999,0.0029310000000003,-0.001086799999999,0.0028780000000001,0,sub_14
0.0024463999999998,-0.0002805999999987,-0.0065071999999999,0.0022884000000003,-0.001301199999999,0.0024494000000001,0,sub_14
0.0032197999999998,-0.0005895999999987,-0.0057653999999999,0.0018562000000003,-0.0010945999999991,0.0030902000000001,0,sub_14
0.0033665999999998,-0.0011445999999987,-0.0048695999999999,0.0014222000000003,-0.0008897999999991,0.0041580000000001,0,sub_14
0.0032341999999997,-0.0013401999999987,-0.0042851999999999,0.0009910000000003,-0.0002579999999991,0.0050118000000001,0,sub_14
0.0027933999999997,-0.0015555999999987,-0.0038891999999999,0.0005634000000003,0.0003792000000008,0.0058626000000001,0,sub_14
0.0023347999999997,-0.0013919999999987,-0.0036709999999999,0.0003452000000003,0.0003758000000008,0.0069294000000001,0,sub_14
0.0017517999999998,-0.0010175999999987,-0.0038869999999999,0.0003462000000003,0.0005888000000008,0.006929,0,sub_14
0.0015011999999998,-0.0005505999999987,-0.0039983999999999,0.0012016000000003,0.0003754000000008,0.0062944,0,sub_14
0.0013225999999998,-0.0001507999999987,-0.0045253999999999,0.0022718000000003,0.0001590000000008,0.0054518,0,sub_14
