userAcceleration.x,userAcceleration.y,userAcceleration.z,rotationRate.x,rotationRate.y,rotationRate.z,label,subject
-0.0091180000000001,-0.0018039999999987,-0.0073291999999998,0.0006740000000004,-0.011740999999999,0.0063292,0,sub_5
-0.0069268000000001,-0.0027601999999987,-0.0062393999999998,0.0017266000000004,-0.013030799999999,0.0082610000000001,0,sub_5
-0.0048606000000001,-0.0027231999999987,-0.0045849999999999,0.0030088000000004,-0.011760399999999,0.0091228000000001,0,sub_5
-0.0036798000000001,-0.0015137999999987,-0.0033857999999999,0.0032364000000004,-0.008352999999999,0.0093338,0,sub_5
-0.0031660000000001,-0.0005403999999988,-0.0037915999999999,0.0024114000000004,-0.004290999999999,0.0084656,0,sub_5
-0.0028922000000001,0.0006198000000011,-0.0049207999999999,0.0013760000000004,-0.000225599999999,0.006955,0,sub_5
-0.0038160000000001,0.0008836000000011,-0.0066155999999998,0.0011892000000004,0.0023472000000009,0.0050248,0,sub_5
-0.0048654000000001,0.0016532000000012,-0.0081811999999998,0.0003518000000004,0.0027906000000008,0.0033066,0,sub_5
-0.0061566000000002,0.0017426000000011,-0.0088015999999998,-6.539999999955774e-05,0.0019534000000008,0.0018064000000001,0,sub_5
-0.0075162000000002,0.0017474000000012,-0.0079701999999998,-0.0015597999999995,0.0004724000000009,0.0005160000000001,0,sub_5
-0.0081836000000002,0.0020864000000012,-0.0072327999999998,-0.0036925999999995,-0.000580399999999,-0.0007793999999998,0,sub_5
-0.0072058000000002,0.0026492000000012,-0.0074511999999999,-0.0060367999999995,-0.001206399999999,-0.0020767999999998,0,sub_5
-0.0068644000000002,0.0022740000000012,-0.0076533999999999,-0.0071075999999995,-0.001839399999999,-0.0016647999999998,0,sub_5
-0.0074464000000002,0.0015488000000012,-0.0077275999999999,-0.0086099999999995,-0.0028995999999989,-0.0006141999999998,0,sub_5
-0.0070534000000002,0.0009652000000012,-0.0069605999999998,-0.0086149999999995,-0.003961599999999,-0.0004077999999998,0,sub_5
-0.0071232000000001,0.0005636000000012,-0.0063059999999998,-0.0081911999999995,-0.004598999999999,-0.0001989999999998,0,sub_5
-0.0073476000000001,-0.0001641999999987,-0.0054901999999998,-0.0062737999999995,-0.005029399999999,0.0002338000000001,0,sub_5
-0.0070566000000001,7.800000001227484e-06,-0.0039059999999998,-0.0030645999999995,-0.004183999999999,-0.0008129999999998,0,sub_5
-0.0071088000000001,-8.999999998752514e-06,-0.0040285999999998,0.0005810000000004,-0.001846399999999,-0.0024995999999998,0,sub_5
-0.0073890000000001,0.0004204000000012,-0.0062063999999998,0.0035816000000004,0.0002772000000009,-0.0033359999999998,0,sub_5
-0.0079822000000001,0.0015062000000012,-0.0081061999999998,0.0061598000000004,0.0019756000000009,-0.0037473999999998,0,sub_5
-0.0092674000000001,0.0027048000000012,-0.0092095999999998,0.0072396000000004,0.0026140000000009,-0.0041679999999998,0,sub_5
-0.0105446000000001,0.0030696000000012,-0.0107685999999998,0.0055360000000004,0.0011314000000009,-0.0046051999999999,0,sub_5
-0.0100954000000001,0.0038300000000012,-0.0103965999999998,0.0040380000000004,-0.001843999999999,-0.0048255999999999,0,sub_5
-0.0089018000000001,0.0035268000000012,-0.0085929999999999,0.0031804000000004,-0.004821799999999,-0.0050413999999998,0,sub_5
-0.0074996000000001,0.0021504000000012,-0.0064289999999999,0.0025318000000004,-0.006949199999999,-0.0052567999999999,0,sub_5
-0.0063136000000002,0.0005000000000012,-0.0050021999999999,0.0018918000000004,-0.007159199999999,-0.0054745999999999,0,sub_5
-0.0051620000000002,-0.0009613999999987,-0.0044309999999999,0.0018996000000004,-0.005666999999999,-0.0056901999999998,0,sub_5
-0.0046844000000002,-0.0012777999999987,-0.0050413999999998,0.0019092000000004,-0.003960999999999,-0.0061195999999998,0,sub_5
-0.0050714000000002,-0.0012649999999987,-0.0051569999999998,0.0017100000000004,-0.001195999999999,-0.0059141999999998,0,sub_5
-0.0057986000000001,-0.0010487999999987,-0.0059179999999998,0.0015118000000004,0.0015698000000009,-0.0059225999999998,0,sub_5
-0.0063372000000001,-0.0002629999999987,-0.0070061999999998,0.0010896000000004,0.0026294000000009,-0.0052893999999998,0,sub_5
-0.0062544000000001,0.0006032000000012,-0.0078895999999998,0.0010874000000004,0.0024084000000009,-0.0044379999999998,0,sub_5
-0.0064324000000001,0.0005654000000011,-0.0066379999999998,0.0010874000000004,0.0021892000000009,-0.0040137999999998,0,sub_5
-0.0073982000000001,0.0009496000000011,-0.0067981999999999,0.0013018000000004,0.0021892000000009,-0.0042259999999998,0,sub_5
-0.0073416000000002,0.0011362000000012,-0.0070119999999999,0.0013008000000004,0.0019762000000009,-0.0042255999999999,0,sub_5
-0.0070208000000002,0.0008676000000012,-0.0062067999999999,0.0021568000000004,0.0019870000000009,-0.0050905999999998,0,sub_5
-0.0073500000000002,0.0003140000000012,-0.0049463999999999,0.0025918000000004,0.0030654000000008,-0.0061733999999998,0,sub_5
-0.0079184000000002,-0.0003219999999987,-0.0057931999999999,0.0028104000000004,0.0041420000000008,-0.0066167999999998,0,sub_5
-0.0077880000000002,-0.0005907999999987,-0.0061235999999999,0.0025926000000004,0.0039384000000008,-0.0062069999999998,0,sub_5
-0.0082450000000002,-0.0002287999999987,-0.0063521999999999,0.0034350000000004,0.0030884000000008,-0.0049345999999998,0,sub_5
-0.0081928000000002,-5.699999999877254e-05,-0.0065643999999999,0.0034310000000004,0.0030850000000008,-0.0040799999999998,0,sub_5
-0.0081784000000002,0.0001324000000012,-0.0071541999999999,0.0034232000000004,0.0026538000000009,-0.0027975999999998,0,sub_5
-0.0076086000000002,0.0008522000000012,-0.0077345999999999,0.0034098000000004,0.0013686000000009,-0.0010869999999998,0,sub_5
-0.0067524000000002,0.0009620000000012,-0.0079935999999999,0.0036146000000004,0.0002992000000009,-0.0002297999999998,0,sub_5
-0.0060030000000002,0.0009422000000012,-0.0067619999999999,0.0031878000000004,-0.000757199999999,0.0001832000000001,0,sub_5
-0.0060488000000002,0.0010170000000012,-0.0061819999999999,0.0031898000000004,-0.000964599999999,0.0010254,0,sub_5
-0.0060610000000002,0.0009438000000012,-0.0058815999999999,0.0038386000000004,0.0001048000000009,0.0016568,0,sub_5
-0.0059930000000002,0.0002676000000012,-0.0047795999999999,0.0049178000000004,0.0013884000000009,0.0016500000000001,0,sub_5
-0.0071174000000002,0.0006050000000012,-0.0041685999999999,0.0068506000000004,0.0028812000000009,0.0018626000000001,0,sub_5
-0.0081790000000002,0.0004042000000012,-0.0050399999999999,0.0074994000000004,0.0047964000000009,0.0018648000000001,0,sub_5
-0.0086834000000002,0.0003364000000012,-0.0065291999999999,0.0081396000000004,0.0050064000000009,0.0020826000000001,0,sub_5
-0.0092674000000002,0.0006872000000012,-0.0073509999999998,0.0083518000000004,0.0033118000000009,0.0018692000000001,0,sub_5
-0.0095524000000002,0.0010466000000012,-0.0080139999999998,0.0077134000000004,0.0020472000000009,0.0014358000000001,0,sub_5
-0.0085028000000002,0.0011862000000012,-0.0082733999999998,0.0060070000000003,0.0003610000000009,0.0007818000000001,0,sub_5
-0.0070058000000001,0.0018688000000012,-0.0083831999999998,0.0051514000000004,-0.001755199999999,0.0003478000000001,0,sub_5
-0.0057698000000001,0.0021760000000012,-0.0077207999999998,0.0040890000000004,-0.002591599999999,-0.0003027999999998,0,sub_5
-0.0050886000000001,0.0021366000000012,-0.0072129999999998,0.0030270000000004,-0.001946999999999,-0.0007383999999998,0,sub_5
-0.0045468000000001,0.0021284000000012,-0.0067991999999998,0.0019620000000004,-0.001517199999999,-0.0007463999999998,0,sub_5
-0.0043152000000001,0.0011290000000012,-0.0074949999999998,0.0006866000000004,-0.000447399999999,-0.0007567999999998,0,sub_5
-0.0049610000000002,0.0004306000000012,-0.0071433999999998,-0.0005881999999995,0.0006370000000009,-0.0011851999999998,0,sub_5
-0.0057812000000002,0.0002400000000012,-0.0068827999999998,-0.0014429999999995,0.0008650000000009,-0.0009687999999998,0,sub_5
-0.0058588000000002,-0.0003457999999987,-0.0065697999999999,-0.0016605999999995,0.0002394000000009,-0.0009603999999998,0,sub_5
-0.0061100000000002,-0.0001097999999987,-0.0069867999999999,-0.0012331999999995,0.0002524000000009,-0.0013755999999998,0,sub_5
-0.0067016000000002,0.0004818000000012,-0.0063197999999999,-0.0003799999999995,5.0800000000920726e-05,-0.0017873999999998,0,sub_5
-0.0069602000000002,0.0010352000000012,-0.0069417999999999,0.0002572000000004,-0.000590599999999,-0.0017821999999998,0,sub_5
-0.0066104000000002,0.0014438000000012,-0.0068471999999999,-0.0001685999999995,-0.001224799999999,-0.0026387999999998,0,sub_5
-0.0060404000000001,0.0021564000000012,-0.0071367999999999,-0.0008039999999995,-0.001218199999999,-0.0037113999999998,0,sub_5
-0.0064650000000001,0.0013684000000012,-0.0072123999999999,-0.0020851999999995,-0.001638999999999,-0.0039333999999998,0,sub_5
-0.0066490000000001,0.0008800000000012,-0.0073925999999999,-0.0027335999999995,-0.002272599999999,-0.0037069999999998,0,sub_5
-0.0063502000000001,-0.0002611999999987,-0.0063475999999998,-0.0033809999999995,-0.002268799999999,-0.0030539999999998,0,sub_5
-0.0065172000000001,-0.0008195999999987,-0.0063385999999998,-0.0033901999999995,-0.002268999999999,-0.0019693999999998,0,sub_5
-0.0071794000000002,-0.0013105999999987,-0.0057131999999998,-0.0036145999999995,-0.002482399999999,-0.0006723999999998,0,sub_5
-0.0070788000000002,-0.0008879999999987,-0.0051213999999998,-0.0034103999999995,-0.002483199999999,0.0004136000000001,0,sub_5
-0.0066030000000002,-0.0005551999999987,-0.0051571999999998,-0.0034123999999995,-0.002060599999999,0.0012676000000001,0,sub_5
-0.0066606000000002,7.060000000120732e-05,-0.0059521999999999,-0.0034133999999995,-0.001849399999999,0.0016946000000001,0,sub_5
-0.0068022000000001,0.0003176000000012,-0.0061755999999999,-0.0029945999999995,-0.001215399999999,0.0021410000000001,0,sub_5
-0.0067180000000001,0.0007844000000012,-0.0068941999999999,-0.0027929999999995,-0.001008599999999,0.0030138000000001,0,sub_5
-0.0066042000000001,0.0010044000000011,-0.0073355999999999,-0.0036601999999995,-0.001224199999999,0.0038798000000001,0,sub_5
-0.0068332000000001,0.0012284000000012,-0.0071893999999998,-0.0043137999999995,-0.001440399999999,0.0047472000000001,0,sub_5
-0.0067452000000001,0.0017462000000012,-0.0073913999999998,-0.0043263999999995,-0.001657999999999,0.0054052,0,sub_5
-0.0067226000000002,0.0017236000000012,-0.0074503999999998,-0.0053969999999995,-0.002081999999999,0.0058256,0,sub_5
-0.0060066000000002,0.0013622000000012,-0.0071449999999998,-0.0062505999999995,-0.002291199999999,0.0056062,0,sub_5
-0.0062802000000002,0.0008388000000012,-0.0067975999999998,-0.0056085999999995,-0.002291799999999,0.0051834,0,sub_5
-0.0063632000000002,0.0004702000000012,-0.0066655999999998,-0.0056265999999995,-0.002295599999999,0.0047634,0,sub_5
-0.0062900000000001,0.0001000000000012,-0.0057817999999998,-0.0056445999999995,-0.002299399999999,0.0043434,0,sub_5
-0.0063094000000001,0.0002302000000012,-0.0052613999999998,-0.0043793999999995,-0.002092999999999,0.0035048000000001,0,sub_5
-0.0066538000000001,0.0008544000000012,-0.0052537999999999,-0.0041857999999995,-0.001674799999999,0.0039404000000001,0,sub_5
-0.0061140000000001,0.0018234000000012,-0.0061833999999999,-0.0046293999999995,-0.000615199999999,0.0043706,0,sub_5
-0.0055298000000001,0.0023824000000012,-0.0066785999999999,-0.0048397999999995,0.0004490000000009,0.004795,0,sub_5
-0.0056706000000002,0.0028480000000012,-0.0071861999999999,-0.0046253999999995,0.0008734000000009,0.0050096,0,sub_5
-0.0055426000000002,0.0025796000000012,-0.0077243999999998,-0.0056921999999995,0.0010892000000009,0.0052154,0,sub_5
-0.0058024000000002,0.0021920000000012,-0.0077419999999998,-0.0061339999999995,0.0008776000000009,0.0043642,0,sub_5
-0.0059740000000002,0.0018162000000012,-0.0072381999999998,-0.0057243999999995,0.0002370000000009,0.0035194,0,sub_5
-0.0062850000000002,0.0013400000000012,-0.0062331999999998,-0.0048869999999995,-0.000191999999999,0.0026774000000001,0,sub_5
-0.0062788000000001,0.0006334000000012,-0.0061821999999998,-0.0051193999999995,-0.000407599999999,0.0026822000000001,0,sub_5
-0.0067484000000001,0.0002050000000012,-0.0058711999999999,-0.0047115999999995,-0.000413199999999,0.002905,0,sub_5
-0.0067904000000001,-0.0002055999999987,-0.0058075999999998,-0.0038599999999995,-0.000205599999999,0.0035516,0,sub_5
-0.0069512000000001,-0.0003895999999987,-0.0054289999999998,-0.0034311999999995,0.0006434000000009,0.0039808,0,sub_5
-0.0069708000000001,-0.0004993999999987,-0.0059201999999998,-0.0032217999999995,0.0006392000000009,0.0048368,0,sub_5
-0.0069956000000001,-2.4399999998772717e-05,-0.0057275999999998,-0.0023775999999995,0.0010598000000009,0.0052786,0,sub_5
-0.0068488000000001,0.0008404000000012,-0.0062165999999998,-0.0013229999999995,0.0008404000000009,0.0057226000000001,0,sub_5
-0.0066554000000001,0.0013562000000012,-0.0065951999999998,-0.0006931999999995,0.0006242000000009,0.0057364000000001,0,sub_5
-0.0062008000000002,0.0009938000000012,-0.0073509999999998,-0.0002833999999995,-0.000870399999999,0.005964,0,sub_5
-0.0062966000000002,0.0014074000000012,-0.0073133999999998,-0.0002945999999995,-0.001721799999999,0.0055468000000001,0,sub_5
-0.0064826000000002,0.0010266000000012,-0.0067085999999998,-0.0002945999999995,-0.002358399999999,0.0049068000000001,0,sub_5
-0.0060258000000002,0.0004010000000012,-0.0061365999999998,-0.0005049999999995,-0.002142799999999,0.0044778,0,sub_5
-0.0056470000000002,0.0001474000000012,-0.0061497999999998,-0.0002877999999995,-0.001927999999999,0.0038382,0,sub_5
-0.0057524000000002,0.0001412000000012,-0.0054769999999998,0.0007862000000004,-0.001286199999999,0.0029934,0,sub_5
-0.0057570000000002,-1.539999999879281e-05,-0.0053463999999998,0.0018584000000004,-0.000645999999999,0.002576,0,sub_5
-0.0055602000000002,0.0001044000000012,-0.0061441999999998,0.0029324000000004,0.0002080000000009,0.0019446,0,sub_5
-0.0058776000000001,0.0007170000000012,-0.0063827999999998,0.0042168000000004,0.0002098000000009,0.0011020000000001,0,sub_5
-0.0063800000000001,0.0010956000000012,-0.0063851999999998,0.0059270000000004,0.0002094000000009,0.0004760000000001,0,sub_5
-0.0065002000000001,0.0015816000000012,-0.0069223999999998,0.0067842000000004,0.0004222000000009,-0.0001591999999998,0,sub_5
-0.0068646000000001,0.0015090000000012,-0.0073221999999999,0.0072128000000004,-1.999999999079301e-06,-0.0010103999999998,0,sub_5
-0.0069632000000001,0.0020344000000012,-0.0077613999999999,0.0069976000000004,-0.001063999999999,-0.0016515999999998,0,sub_5
-0.0062740000000002,0.0020374000000012,-0.0081291999999999,0.0059416000000004,-0.002115599999999,-0.0025213999999998,0,sub_5
-0.0061172000000002,0.0021132000000012,-0.0073957999999999,0.0053154000000004,-0.002741799999999,-0.0036023999999998,0,sub_5
-0.0064250000000002,0.0020834000000012,-0.0067133999999998,0.0051158000000004,-0.003157399999999,-0.0044671999999998,0,sub_5
-0.0064076000000002,0.0022262000000012,-0.0070555999999998,0.0047066000000004,-0.002719799999999,-0.0053343999999999,0,sub_5
-0.0058876000000002,0.0018880000000012,-0.0071189999999998,0.0049366000000004,-0.002497599999999,-0.0061967999999999,0,sub_5
-0.0063728000000002,0.0013792000000012,-0.0060467999999998,0.0053662000000004,-0.002284399999999,-0.0066213999999999,0,sub_5
-0.0055852000000002,0.0009772000000012,-0.0055825999999998,0.0040860000000004,-0.002492199999999,-0.0068437999999999,0,sub_5
-0.0046562000000002,0.0005384000000012,-0.0058941999999999,0.0025934000000004,-0.002273999999999,-0.0068543999999998,0,sub_5
-0.0040212000000002,-0.0001975999999987,-0.0052803999999999,0.0026144000000004,-0.002055199999999,-0.0070847999999999,0,sub_5
-0.0040448000000002,-0.0004851999999987,-0.0046961999999999,0.0019990000000004,-0.000981799999999,-0.0073207999999999,0,sub_5
-0.0039214000000002,-0.0008829999999987,-0.0052811999999999,0.0018134000000004,0.0009414000000009,-0.0073411999999998,0,sub_5
-0.0047156000000002,-0.0007349999999987,-0.0062747999999999,0.0020516000000004,0.0024362000000009,-0.0071443999999999,0,sub_5
-0.0048644000000002,6.400000001227299e-06,-0.0062541999999999,0.0018602000000004,0.0030812000000009,-0.0071633999999998,0,sub_5
-0.0050314000000002,0.0009496000000012,-0.0061891999999999,0.0007954000000004,0.0039354000000009,-0.0067445999999998,0,sub_5
-0.0054892000000002,0.0006188000000012,-0.0066655999999999,0.0007946000000004,0.0041466000000009,-0.0063175999999998,0,sub_5
-0.0062070000000002,0.0004222000000012,-0.0072697999999999,0.0012166000000004,0.0035042000000009,-0.0058865999999998,0,sub_5
-0.0070330000000002,0.0001664000000012,-0.0075337999999999,0.0022978000000004,0.0032846000000009,-0.0046171999999998,0,sub_5
-0.0077422000000002,-0.0002795999999987,-0.0074087999999999,0.0031638000000004,0.0028516000000009,-0.0031351999999998,0,sub_5
-0.0084346000000002,-0.0016335999999987,-0.0080431999999998,0.0042460000000004,0.0024206000000009,-0.0022927999999998,0,sub_5
-0.0085812000000001,-0.0019969999999987,-0.0069473999999998,0.0049004000000004,0.0017780000000009,-0.0014531999999998,0,sub_5
-0.0081372000000001,-0.0019313999999987,-0.0062899999999998,0.0049148000000004,0.0011376000000009,-0.0006177999999998,0,sub_5
-0.0074020000000001,-0.0011893999999987,-0.0059839999999998,0.0042728000000004,0.0005014000000009,-0.0008351999999998,0,sub_5
-0.0070724000000001,-0.0007199999999987,-0.0059693999999998,0.0038470000000004,-0.000344999999999,-0.0019053999999998,0,sub_5
-0.0065758000000001,0.0008822000000012,-0.0054569999999999,0.0029916000000004,-0.001616999999999,-0.0027643999999998,0,sub_5
-0.0064008000000001,0.0021888000000012,-0.0061913999999999,0.0019268000000004,-0.002460399999999,-0.0040525999999998,0,sub_5
-0.0059308000000001,0.0033110000000012,-0.0063239999999998,2.9400000000401155e-05,-0.002018799999999,-0.0055843999999998,0,sub_5
-0.0056404000000001,0.0026304000000012,-0.0063319999999998,-0.0020813999999995,-0.001364399999999,-0.0069039999999998,0,sub_5
-0.0054850000000001,0.0023506000000012,-0.0061009999999998,-0.0037653999999995,-0.000286999999999,-0.0077939999999999,0,sub_5
-0.0052158000000001,0.0015500000000012,-0.0060785999999998,-0.0052361999999995,0.0010018000000009,-0.0084691999999998,0,sub_5
-0.0050718000000002,0.0005210000000012,-0.0057797999999998,-0.0071375999999995,0.0018644000000009,-0.0087195999999999,0,sub_5
-0.0057336000000002,-0.0001889999999987,-0.0057305999999999,-0.0082045999999995,0.0020804000000009,-0.0085135999999998,0,sub_5
-0.0063030000000002,-0.0009061999999987,-0.0061297999999999,-0.0086323999999995,0.0020812000000009,-0.0083029999999998,0,sub_5
-0.0068090000000002,-0.0015009999999987,-0.0062061999999999,-0.0084193999999995,0.0025106000000009,-0.0083147999999998,0,sub_5
-0.0063832000000002,-0.0023247999999987,-0.0064033999999999,-0.0073595999999995,0.0020824000000009,-0.0076785999999998,0,sub_5
-0.0059548000000002,-0.0023625999999987,-0.0069777999999999,-0.0058767999999995,0.0012248000000009,-0.0066115999999999,0,sub_5
-0.0056302000000002,-0.0025999999999987,-0.0064391999999998,-0.0035433999999995,-6.279999999907956e-05,-0.0053245999999998,0,sub_5
-0.0058080000000002,-0.0024527999999987,-0.0050869999999998,-0.0005669999999995,-0.000501199999999,-0.0038203999999998,0,sub_5
-0.0056324000000002,-0.0023713999999987,-0.0042871999999998,0.0024116000000004,-0.000943599999999,-0.0023033999999998,0,sub_5
-0.0060062000000002,-0.0019371999999987,-0.0041683999999998,0.0049702000000004,-0.000529799999999,-0.0014313999999998,0,sub_5
-0.0057972000000002,-0.0017035999999987,-0.0039505999999998,0.0083870000000004,0.0011584000000009,-0.0003413999999998,0,sub_5
-0.0060556000000002,-0.0016171999999987,-0.0042449999999999,0.0115824000000004,0.0024316000000008,-0.0001009999999998,0,sub_5
-0.0057098000000001,-0.0009947999999987,-0.0053053999999999,0.0137090000000003,0.0032822000000008,0.0001324000000001,0,sub_5
-0.0054416000000001,-0.0007925999999987,-0.0066593999999999,0.0147610000000003,0.0032810000000008,0.001214,0,sub_5
-0.0059100000000001,-5.659999999879269e-05,-0.0065081999999998,0.0162370000000004,0.0028514000000008,0.0025128,0,sub_5
-0.0067670000000001,0.0001304000000012,-0.0063901999999998,0.0157974000000004,0.0022206000000008,0.0025166,0,sub_5
-0.0064422000000001,0.0003046000000012,-0.0066707999999998,0.0138760000000004,0.0024386000000008,0.0029302,0,sub_5
-0.0062012000000002,0.0004012000000012,-0.0066861999999998,0.0121700000000004,0.0022332000000008,0.0024912,0,sub_5
-0.0061440000000002,0.0009004000000012,-0.0062171999999998,0.0106822000000004,0.0022434000000009,0.0011988,0,sub_5
-0.0059530000000002,0.0017304000000012,-0.0057939999999999,0.0079082000000003,0.0024730000000009,-0.0009407999999999,0,sub_5
-0.0056894000000001,0.0024052000000012,-0.0062287999999999,0.0055620000000003,0.0033388000000009,-0.0026507999999999,0,sub_5
-0.0055614000000001,0.0033280000000012,-0.0061237999999998,0.0034254000000004,0.0035638000000009,-0.0041447999999998,0,sub_5
-0.0058966000000001,0.0031984000000012,-0.0061369999999998,0.0006466000000004,0.0037894000000009,-0.0052159999999998,0,sub_5
-0.0062262000000001,0.0026604000000012,-0.0063067999999998,-0.0025627999999995,0.0040130000000009,-0.0054355999999998,0,sub_5
-0.0064140000000001,0.0014618000000012,-0.0068465999999998,-0.0061949999999995,0.0035970000000009,-0.0048193999999998,0,sub_5
-0.0065878000000002,0.0006482000000012,-0.0061257999999998,-0.0089775999999995,0.0025380000000009,-0.0039829999999998,0,sub_5
-0.0067452000000001,-0.0004965999999987,-0.0062851999999998,-0.0106913999999995,0.0016892000000009,-0.0033529999999998,0,sub_5
-0.0065288000000001,-0.0009675999999987,-0.0058959999999998,-0.0106951999999995,0.0014736000000009,-0.0027119999999998,0,sub_5
-0.0065602000000001,-0.0012061999999987,-0.0053479999999998,-0.0100697999999995,0.0010430000000009,-0.0024747999999998,0,sub_5
-0.0065618000000001,-0.0016859999999987,-0.0052545999999998,-0.0077325999999995,0.0012472000000009,-0.0026535999999998,0,sub_5
-0.0064438000000001,-0.0023895999999987,-0.0057533999999998,-0.0049667999999995,0.0016638000000008,-0.0030433999999998,0,sub_5
-0.0063636000000002,-0.0029019999999987,-0.0059485999999999,-0.0017759999999995,0.0018650000000008,-0.0032161999999998,0,sub_5
-0.0060658000000002,-0.0027123999999987,-0.0064947999999999,0.0009764000000004,0.0003598000000008,-0.0025351999999998,0,sub_5
-0.0056272000000002,-0.0024229999999987,-0.0067755999999999,0.0033150000000004,-0.0007171999999991,-0.0016627999999998,0,sub_5
-0.0048276000000002,-0.0021633999999987,-0.0068239999999998,0.0052240000000004,-0.002219599999999,-0.0005793999999999,0,sub_5
-0.0041222000000002,-0.0017557999999987,-0.0059065999999998,0.0073496000000004,-0.003726799999999,0.0009612,0,sub_5
-0.0039300000000002,-0.0011857999999987,-0.0053267999999998,0.0088378000000004,-0.004804799999999,0.002283,0,sub_5
-0.0037208000000002,-0.0013927999999987,-0.0046303999999998,0.0101242000000003,-0.003961999999999,0.00296,0,sub_5
-0.0033262000000002,-0.0017375999999987,-0.0038657999999998,0.0116286000000004,-0.002478999999999,0.0032104,0,sub_5
-0.0036796000000002,-0.0009505999999987,-0.0028169999999999,0.0124968000000004,-0.000565999999999,0.0030286,0,sub_5
-0.0039820000000002,9.040000000122752e-05,-0.0029115999999999,0.0110184000000004,0.0017870000000009,0.001947,0,sub_5
-0.0042666000000002,0.0010674000000012,-0.0032531999999998,0.0089038000000004,0.0047822000000009,0.0006464,0,sub_5
-0.0047508000000001,0.0027662000000012,-0.0044417999999998,0.0059348000000004,0.0071430000000009,-0.0010865999999998,0,sub_5
-0.0053454000000001,0.0044980000000012,-0.0062383999999998,0.0021066000000004,0.0082284000000008,-0.0028237999999998,0,sub_5
-0.0061994000000001,0.0046988000000012,-0.0077857999999998,-0.0019467999999995,0.0086686000000009,-0.0038967999999998,0,sub_5
-0.0077286000000001,0.0047770000000012,-0.0090309999999998,-0.0051561999999995,0.0080364000000009,-0.0038943999999998,0,sub_5
-0.0087924000000001,0.0047392000000012,-0.0094047999999999,-0.0079493999999995,0.0061200000000009,-0.0028189999999998,0,sub_5
-0.0095306000000002,0.0029626000000012,-0.0085211999999998,-0.0094691999999995,0.0027078000000009,-0.0017327999999998,0,sub_5
-0.0103188000000002,0.0006704000000012,-0.0071105999999998,-0.0099249999999995,-0.000710599999999,1.6000000001207756e-06,0,sub_5
-0.0098870000000002,-0.0008901999999987,-0.0057573999999998,-0.0097345999999995,-0.003914799999999,0.0019298000000001,0,sub_5
-0.0087952000000001,-0.0030209999999987,-0.0051681999999998,-0.0076189999999995,-0.006484999999999,0.0034434000000001,0,sub_5
-0.0071322000000001,-0.0049697999999987,-0.0048737999999998,-0.0038183999999995,-0.008851599999999,0.0039170000000001,0,sub_5
-0.0057808000000001,-0.0053263999999987,-0.0045077999999998,0.0001986000000004,-0.010579799999999,0.0043912000000001,0,sub_5
-0.0043466000000001,-0.0052357999999987,-0.0047713999999998,0.0042260000000004,-0.011025599999999,0.0037956,0,sub_5
-0.0035504000000001,-0.0047163999999987,-0.0045969999999998,0.0084744000000004,-0.010616399999999,0.002346,0,sub_5
