userAcceleration.x,userAcceleration.y,userAcceleration.z,rotationRate.x,rotationRate.y,rotationRate.z,label,subject
-0.0036882000000002,0.0081822000000011,-0.0046281999999999,0.0060494000000003,-0.010207199999999,0.0036736,0,sub_10
-0.0050884000000002,0.0081848000000011,-0.0062137999999999,0.0066672000000004,-0.015067399999999,0.0079638,0,sub_10
-0.0071800000000002,0.0068152000000011,-0.0107095999999999,0.0004666000000004,-0.012043799999999,0.0179646,0,sub_10
-0.0079148000000002,0.0041674000000011,-0.0115335999999998,-0.0082815999999995,-0.004798399999999,0.0251582,0,sub_10
-0.0088486000000002,0.0002378000000011,-0.0114713999999998,-0.0138023999999995,0.0054304000000009,0.0293794,0,sub_10
-0.0072102000000002,-0.0011909999999988,-0.0112949999999998,-0.0182209999999995,0.0209920000000009,0.0310378,0,sub_10
-0.0033122000000002,-0.0019227999999988,-0.0087261999999998,-0.0192621999999995,0.0344904000000009,0.0291476,0,sub_10
-0.0005246000000002,-0.0029721999999988,-0.0043855999999998,-0.0115731999999995,0.0364832000000009,0.0198558,0,sub_10
-0.0024046000000001,-0.0060125999999987,-0.0053797999999998,-0.0043377999999995,0.0388780000000009,0.0169694,0,sub_10
-0.0020494000000002,-0.0039435999999987,-0.0070277999999998,-0.0058755999999995,0.0391594000000009,0.017443,0,sub_10
0.0003201999999997,-0.0034699999999987,-0.0051537999999998,-0.0074363999999995,0.0334786000000009,0.0170694,0,sub_10
0.0032659999999997,-0.0028981999999987,-0.0031805999999998,-0.0099843999999995,0.0351962000000009,0.0159812,0,sub_10
0.0055189999999997,-0.0010545999999987,-0.0019031999999998,-0.0101919999999995,0.0345656000000009,0.0140576,0,sub_10
0.0078855999999997,0.0035406000000011,0.0005296000000001,-0.0078439999999995,0.0281922000000009,0.0074592,0,sub_10
0.0079765999999997,0.0019518000000011,0.0016294,0.0004506000000004,0.0201764000000009,-0.0005721999999999,0,sub_10
0.0055981999999997,0.0002428000000011,0.0002712,0.0074670000000004,0.0157744000000009,-0.0054123999999999,0,sub_10
0.0055511999999997,-0.0011801999999988,0.0006024,0.0123268000000004,0.0092372000000009,-0.0072737999999999,0,sub_10
0.0074019999999997,-0.0033387999999988,0.001181,0.0158966000000004,0.0012106000000009,-0.0085013999999999,0,sub_10
0.0089863999999997,-0.0065017999999988,0.0015402,0.0196588000000004,-0.012564799999999,-0.0107885999999999,0,sub_10
0.0092349999999997,-0.0071257999999987,0.0006652,0.0185498000000003,-0.022571999999999,-0.0114243999999999,0,sub_10
0.0064177999999997,-0.0057579999999987,-0.0011331999999999,0.0138336000000003,-0.028304599999999,-0.0123045999999999,0,sub_10
0.0017743999999997,-0.0034381999999988,-0.0040479999999999,0.0089048000000003,-0.034247799999999,-0.0136133999999999,0,sub_10
-0.0028298000000002,-0.0007253999999988,-0.0068937999999999,0.0016704000000004,-0.034766999999999,-0.0137083999999999,0,sub_10
-0.0073092000000002,0.0020342000000011,-0.0097097999999999,-0.0051113999999995,-0.026988799999999,-0.0112471999999999,0,sub_10
-0.0116418000000002,0.0045016000000011,-0.0106343999999999,-0.0071931999999995,-0.017736399999999,-0.0085413999999999,0,sub_10
-0.0118824000000002,0.0052308000000011,-0.0114703999999998,-0.0056621999999995,-0.011480399999999,-0.0055927999999999,0,sub_10
-0.0099334000000001,0.0043582000000011,-0.0109593999999998,-0.0026325999999995,-0.004376399999999,-0.0028483999999999,0,sub_10
-0.0097016000000002,0.0028700000000011,-0.0109691999999998,0.0012446000000004,0.0054038000000009,-0.0011245999999999,0,sub_10
-0.0057798000000002,0.0019186000000011,-0.0095357999999998,0.0036376000000004,0.0156222000000009,-0.0011207999999999,0,sub_10
-0.0014622000000002,0.0009896000000011,-0.0060015999999998,0.0066564000000004,0.0203082000000008,-0.0034557999999999,0,sub_10
0.0017615999999997,-0.0004417999999988,-0.0036579999999999,0.0086134000000004,0.0234072000000008,-0.0068909999999999,0,sub_10
0.0019695999999997,-0.0010967999999988,-0.0037835999999999,0.0092698000000004,0.0228854000000008,-0.0094759999999999,0,sub_10
0.0019877999999997,-0.0014333999999988,-0.0022767999999999,0.0092698000000004,0.0200172000000009,-0.0107807999999999,0,sub_10
0.0003451999999997,-0.0020057999999988,-0.0013567999999999,0.0094796000000004,0.0177812000000009,-0.0105893999999999,0,sub_10
0.0001003999999997,-0.0021199999999988,-0.0028257999999999,0.0086262000000004,0.0174624000000009,-0.0093395999999999,0,sub_10
-0.0003046000000002,-0.0012153999999988,-0.0029741999999999,0.0077524000000004,0.0151132000000009,-0.0072061999999999,0,sub_10
0.0007617999999997,-0.0003243999999988,-0.0018107999999999,0.0064578000000004,0.0138316000000009,-0.0052907999999999,0,sub_10
0.0016621999999997,-0.0004007999999988,-0.0021583999999999,0.0051574000000004,0.0108474000000009,-0.0038005999999999,0,sub_10
0.0022357999999997,-0.0013351999999987,-0.0027533999999999,0.0034148000000004,0.0042438000000009,-0.0025225999999999,0,sub_10
0.0019447999999997,-0.0035625999999987,-0.0039997999999998,0.0004228000000004,0.0002494000000009,-0.0011049999999999,0,sub_10
0.0015799999999997,-0.0052273999999987,-0.0056175999999998,-0.0029765999999995,0.0011542000000009,0.0009444,0,sub_10
-0.0001034000000002,-0.0055711999999987,-0.0070289999999998,-0.0065779999999995,0.0033432000000009,0.001709,0,sub_10
-0.0015120000000002,-0.0044935999999987,-0.0070863999999998,-0.0086809999999995,0.0057434000000009,0.0016292,0,sub_10
-0.0017016000000002,-0.0020441999999988,-0.0069111999999998,-0.0092731999999995,0.0104878000000009,6.160000000005189e-05,0,sub_10
-0.0012136000000002,0.0015942000000011,-0.0052777999999998,-0.0073221999999995,0.0151768000000009,-0.0020671999999999,0,sub_10
0.0001831999999997,0.0033294000000011,-0.0029169999999998,-0.0040947999999995,0.0177360000000009,-0.0054661999999999,0,sub_10
0.0010679999999997,0.0034954000000011,-0.0017193999999998,0.0004092000000004,0.0157820000000009,-0.0074155999999999,0,sub_10
0.0017395999999997,0.0026776000000011,-0.0014989999999998,0.0051132000000004,0.0116932000000009,-0.0085061999999999,0,sub_10
0.0010333999999997,0.0011012000000011,-0.0026779999999998,0.0089552000000004,0.0071756000000009,-0.0081067999999999,0,sub_10
0.0006245999999997,0.0002236000000011,-0.0044923999999998,0.0096080000000004,0.0050134000000009,-0.0079461999999999,0,sub_10
-0.0010028000000002,-0.0004573999999988,-0.0060483999999998,0.0087682000000003,0.0030696000000009,-0.0077963999999999,0,sub_10
-0.0010582000000002,-0.0011105999999988,-0.0065613999999998,0.0066442000000003,0.0056320000000009,-0.0073871999999999,0,sub_10
-0.0002538000000002,-0.0017211999999988,-0.0069711999999999,0.0041030000000003,0.0092654000000009,-0.0080505999999999,0,sub_10
1.0399999999777254e-05,-0.0022571999999988,-0.0066923999999999,0.0030466000000004,0.0109760000000009,-0.0087011999999999,0,sub_10
-0.0011450000000002,-0.0027899999999988,-0.0072619999999999,0.0034720000000004,0.0116274000000009,-0.0085019999999999,0,sub_10
-0.0014950000000002,-0.0014455999999988,-0.0072885999999999,0.0032620000000004,0.0139828000000009,-0.0076683999999999,0,sub_10
-0.0024484000000002,-0.0002237999999988,-0.0072325999999999,0.0032740000000004,0.0174062000000009,-0.0076891999999999,0,sub_10
-0.0026188000000002,0.0010366000000011,-0.0066435999999999,0.0034898000000004,0.0195472000000009,-0.0068523999999999,0,sub_10
-0.0023314000000002,0.0018628000000011,-0.0060633999999998,0.0032848000000004,0.0223314000000009,-0.0066601999999999,0,sub_10
-0.0011116000000002,0.0010452000000011,-0.0043523999999998,0.0032830000000004,0.0223298000000009,-0.0062329999999999,0,sub_10
-0.0001822000000002,-0.0006013999999988,-0.0038607999999998,0.0032812000000004,0.0219038000000009,-0.0062325999999999,0,sub_10
0.0026335999999997,-0.0021651999999987,-0.0034101999999998,0.0039060000000004,0.0174318000000009,-0.0072907999999999,0,sub_10
0.0039245999999997,-0.0032173999999987,-0.0036295999999998,0.0032498000000004,0.0144500000000009,-0.0087843999999999,0,sub_10
0.0054203999999997,-0.0034039999999987,-0.0026145999999998,0.0019552000000004,0.0125330000000009,-0.0096429999999999,0,sub_10
0.0044979999999997,-0.0028363999999987,-0.0022067999999998,0.0006606000000004,0.0104038000000009,-0.0107149999999999,0,sub_10
0.0042425999999997,-0.0019023999999987,-0.0022399999999998,0.0008442000000004,0.0046484000000008,-0.0119855999999999,0,sub_10
0.0024515999999997,-0.0010501999999988,-0.0028353999999998,0.0018814000000004,-4.899999999908068e-05,-0.0121833999999999,0,sub_10
0.0005587999999997,-0.0002837999999988,-0.0037345999999998,0.0029386000000004,-0.002183199999999,-0.0121733999999999,0,sub_10
-0.0013630000000002,-8.639999999880293e-05,-0.0055661999999998,0.0033616000000004,-0.003036799999999,-0.0121693999999999,0,sub_10
-0.0018214000000002,-0.0001153999999988,-0.0073315999999998,0.0040084000000004,-0.001759799999999,-0.0123801999999999,0,sub_10
-0.0033370000000002,-0.0006925999999988,-0.0079735999999998,0.0040180000000004,0.0018560000000009,-0.0108891999999999,0,sub_10
-0.0036740000000002,-0.0015351999999988,-0.0084423999999998,0.0029452000000004,0.0071452000000009,-0.0085391999999999,0,sub_10
-0.0028588000000002,-0.0023455999999988,-0.0079899999999998,0.0022858000000004,0.0094500000000009,-0.0061823999999999,0,sub_10
-0.0018406000000002,-0.0023261999999988,-0.0072939999999998,0.0018368000000004,0.0109028000000009,-0.0040367999999999,0,sub_10
-0.0011408000000002,-0.0009379999999988,-0.0065613999999999,0.0007448000000004,0.0117186000000009,-0.0018945999999999,0,sub_10
-0.0006296000000002,0.0002504000000011,-0.0063605999999999,0.0002958000000004,0.0127472000000009,-0.0001755999999999,0,sub_10
-0.0010762000000002,0.0021156000000011,-0.0065447999999998,0.0002902000000004,0.0129542000000009,0.0013196,0,sub_10
-0.0016216000000002,0.0028322000000011,-0.0063323999999998,-0.0001451999999995,0.0137970000000009,0.004093,0,sub_10
-0.0011164000000002,0.0024776000000011,-0.0063741999999998,-0.0003761999999995,0.0150222000000009,0.0073104,0,sub_10
0.0002411999999997,-0.0003615999999988,-0.0062859999999998,4.180000000044189e-05,0.0160406000000009,0.008396,0,sub_10
0.0019641999999997,-0.0032319999999988,-0.0056593999999998,0.0006826000000004,0.0168544000000009,0.0071334,0,sub_10
0.0035669999999997,-0.0062237999999987,-0.0051111999999999,0.0011214000000004,0.0185282000000009,0.0041592,0,sub_10
0.0046541999999997,-0.0067419999999987,-0.0048523999999999,0.0019966000000004,0.0204210000000009,-0.0007351999999999,0,sub_10
0.0048275999999997,-0.0061953999999987,-0.0040765999999999,0.0024570000000004,0.0219346000000008,-0.0067157999999999,0,sub_10
0.0039915999999997,-0.0045825999999987,-0.0032597999999999,0.0024790000000004,0.0228030000000008,-0.0107759999999999,0,sub_10
0.0028363999999997,-0.0030229999999987,-0.0028137999999999,0.0022772000000004,0.0234506000000008,-0.0127009999999999,0,sub_10
0.0013315999999997,-0.0011037999999988,-0.0028187999999998,0.0022500000000004,0.0204212000000008,-0.0135243999999999,0,sub_10
0.0002603999999997,-0.0005563999999988,-0.0033129999999998,0.0019990000000004,0.0165344000000009,-0.0128525999999999,0,sub_10
-0.0003154000000002,-0.0003091999999988,-0.0040179999999998,0.0017422000000004,0.0117936000000009,-0.0117525999999999,0,sub_10
0.0005619999999997,0.0001658000000011,-0.0043551999999998,0.0010566000000004,0.0068404000000009,-0.0104415999999999,0,sub_10
0.0008649999999997,0.0009904000000011,-0.0044691999999998,0.0005884000000004,0.0021020000000009,-0.0097703999999999,0,sub_10
0.0009683999999997,0.0011122000000011,-0.0036419999999998,0.0003636000000004,-2.9599999999060445e-05,-0.0093417999999999,0,sub_10
0.0014813999999997,0.0005276000000011,-0.0029805999999998,0.0007798000000004,-0.002374799999999,-0.0093359999999999,0,sub_10
0.0019057999999997,-0.0006157999999988,-0.0024005999999998,0.0014006000000004,-0.006213599999999,-0.0088995999999999,0,sub_10
0.0020433999999997,-0.0016425999999988,-0.0029773999999998,0.0020012000000004,-0.010335999999999,-0.0082139999999999,0,sub_10
0.0015943999999997,-0.0040817999999987,-0.0039053999999998,0.0017538000000004,-0.012752599999999,-0.0071091999999999,0,sub_10
0.0008005999999997,-0.0065685999999987,-0.0063019999999999,0.0006618000000004,-0.013460999999999,-0.0062261999999999,0,sub_10
-0.0007936000000002,-0.0073523999999987,-0.0081721999999998,-0.0016913999999995,-0.010540399999999,-0.0059973999999999,0,sub_10
-0.0025498000000002,-0.0073979999999987,-0.0097085999999998,-0.0040203999999995,-0.002930199999999,-0.0064153999999999,0,sub_10
-0.0045328000000002,-0.0067435999999987,-0.0099391999999998,-0.0048287999999995,0.0062374000000009,-0.0072871999999999,0,sub_10
-0.0050684000000002,-0.0042189999999987,-0.0098215999999998,-0.0045759999999995,0.0136986000000009,-0.0085767999999999,0,sub_10
-0.0043486000000002,-0.0003135999999988,-0.0072901999999998,-0.0032699999999995,0.0190220000000009,-0.0090017999999999,0,sub_10
-0.0019016000000002,0.0028618000000011,-0.0046085999999999,-0.0017839999999995,0.0225806000000009,-0.0078821999999999,0,sub_10
0.0012967999999997,0.0050968000000011,-0.0016793999999999,0.0003180000000004,0.0216594000000009,-0.0058979999999999,0,sub_10
0.0046471999999997,0.0059276000000011,0.0010166,0.0023990000000004,0.0162634000000009,-0.0036947999999999,0,sub_10
0.0081435999999997,0.0047520000000011,0.003636,0.0042474000000004,0.0059704000000009,-0.0021275999999999,0,sub_10
0.0100991999999997,0.0008500000000011,0.0039958,0.0073676000000004,-0.007729799999999,-0.0020425999999999,0,sub_10
0.0106857999999997,-0.0034593999999988,0.0032348,0.0113660000000004,-0.022010799999999,-0.0039191999999999,0,sub_10
0.0095965999999997,-0.0069821999999988,0.001156,0.0132432000000004,-0.033726799999999,-0.0060275999999999,0,sub_10
0.0069749999999997,-0.0100967999999988,-0.0012429999999998,0.0121514000000004,-0.041172199999999,-0.0079483999999999,0,sub_10
0.0040181999999997,-0.0111503999999988,-0.0035851999999998,0.0089272000000004,-0.043779599999999,-0.0083669999999999,0,sub_10
0.0016487999999997,-0.0095903999999987,-0.0057305999999998,0.0037950000000004,-0.042337399999999,-0.0075221999999999,0,sub_10
-0.0006376000000002,-0.0076095999999987,-0.0074737999999998,-0.0023989999999995,-0.039401799999999,-0.0062593999999999,0,sub_10
-0.0028704000000002,-0.0051319999999987,-0.0078217999999998,-0.0066641999999995,-0.035404199999999,-0.0058389999999999,0,sub_10
-0.0041606000000002,-0.0021225999999987,-0.0084781999999998,-0.0081545999999995,-0.031627599999999,-0.0058261999999999,0,sub_10
-0.0055930000000001,0.0006882000000012,-0.0089601999999999,-0.0079171999999995,-0.026089799999999,-0.0056179999999999,0,sub_10
-0.0061262000000001,0.0027632000000011,-0.0084671999999998,-0.0072463999999995,-0.018849799999999,-0.0051953999999999,0,sub_10
-0.0060752000000001,0.0039352000000011,-0.0079109999999998,-0.0042343999999995,-0.012471999999999,-0.0043279999999999,0,sub_10
-0.0044298000000001,0.0041730000000011,-0.0073983999999998,-0.0005925999999995,-0.008015599999999,-0.0030263999999999,0,sub_10
-0.0027394000000001,0.0032758000000012,-0.0064827999999998,0.0030358000000004,-0.004278199999999,-0.0023337999999999,0,sub_10
-0.0015666000000002,0.0015908000000012,-0.0057029999999998,0.0068756000000004,-0.002452799999999,-0.0031327999999999,0,sub_10
1.7199999999797628e-05,-0.0013601999999987,-0.0058577999999998,0.0100716000000004,-0.002326399999999,-0.0047885999999999,0,sub_10
0.0005771999999997,-0.0035221999999987,-0.0055033999999998,0.0107148000000004,-0.000274399999999,-0.0062509999999999,0,sub_10
0.0007417999999997,-0.0050239999999987,-0.0052951999999998,0.0092300000000004,0.0037000000000009,-0.0070897999999999,0,sub_10
0.0005957999999997,-0.0060279999999987,-0.0049149999999998,0.0062582000000004,0.0075438000000009,-0.0066881999999999,0,sub_10
0.0014725999999997,-0.0058425999999987,-0.0046659999999998,0.0032710000000004,0.0092518000000009,-0.0050019999999999,0,sub_10
0.0016621999999997,-0.0045073999999987,-0.0037453999999999,0.0004780000000004,0.0081834000000009,-0.0018153999999999,0,sub_10
0.0019565999999997,-0.0026633999999988,-0.0036063999999999,-0.0025549999999995,0.0047168000000009,0.002481,0,sub_10
0.0018331999999997,-0.0016631999999988,-0.0035227999999999,-0.0051745999999995,-0.000460999999999,0.0080644,0,sub_10
0.0018315999999997,-0.0005967999999988,-0.0035151999999999,-0.0071539999999995,-0.005428799999999,0.0138656,0,sub_10
0.0007775999999997,-0.0028537999999988,-0.0050831999999999,-0.0093371999999995,-0.008689799999999,0.019236,0,sub_10
0.0001699999999997,-0.0046197999999988,-0.0068481999999999,-0.0132015999999995,-0.007465399999999,0.023307,0,sub_10
0.0017399999999997,-0.0064367999999988,-0.0072403999999999,-0.0176555999999995,-0.002120999999999,0.0226282,0,sub_10
0.0045487999999997,-0.0075309999999988,-0.0051733999999999,-0.0186735999999995,0.0019580000000009,0.0157792,0,sub_10
0.0072537999999997,-0.0081813999999988,-0.0032457999999999,-0.0145693999999995,0.0038510000000009,0.0058062,0,sub_10
0.0089099999999997,-0.0058891999999988,-0.0016751999999999,-0.0098219999999995,0.0057444000000009,-0.0048031999999999,0,sub_10
0.0086061999999997,-0.0040559999999988,-0.0002903999999998,-0.0014567999999995,0.0046456000000009,-0.0162379999999999,0,sub_10
0.0050135999999997,-0.0025575999999988,0.0004210000000001,0.0107156000000004,-0.000315999999999,-0.0240093999999999,0,sub_10
-9.420000000022188e-05,-0.0006573999999988,-0.0030685999999998,0.0194662000000003,-0.001664999999999,-0.0264681999999999,0,sub_10
-0.0046084000000002,0.0012050000000011,-0.0072437999999998,0.0211914000000003,0.0032258000000009,-0.0256077999999999,0,sub_10
-0.0084024000000002,0.0018312000000011,-0.0095515999999998,0.0192940000000003,0.0111044000000009,-0.0228537999999999,0,sub_10
-0.0121860000000002,0.0017962000000011,-0.0113973999999999,0.0148208000000004,0.0198272000000009,-0.0158459999999999,0,sub_10
-0.0134244000000002,0.0022974000000011,-0.0133039999999999,0.0077708000000004,0.0311192000000009,-0.0058283999999999,0,sub_10
-0.0137732000000002,0.0018746000000011,-0.0128537999999999,0.0002854000000004,0.0419806000000008,0.0056824,0,sub_10
-0.0131558000000002,0.0009536000000011,-0.0107499999999998,-0.0048679999999995,0.0496372000000008,0.0174272,0,sub_10
-0.0109612000000002,-0.0007007999999988,-0.0093683999999998,-0.0074705999999995,0.0549420000000008,0.0289792,0,sub_10
-0.0075864000000002,-0.0039421999999988,-0.0082427999999998,-0.0109143999999995,0.0611096000000008,0.0386014,0,sub_10
-0.0052688000000002,-0.0078567999999988,-0.0069615999999998,-0.0154047999999995,0.0672706000000009,0.0468944,0,sub_10
-0.0026790000000002,-0.0096953999999988,-0.0064583999999998,-0.0211695999999995,0.0732290000000009,0.053683,0,sub_10
-5.780000000020213e-05,-0.0103803999999988,-0.0058317999999998,-0.0286501999999995,0.0768514000000008,0.0600353999999999,0,sub_10
0.0013231999999997,-0.0099057999999988,-0.0034961999999998,-0.0354953999999995,0.0792540000000009,0.0651495999999999,0,sub_10
0.0017275999999997,-0.0080121999999988,-0.0016513999999998,-0.0393541999999995,0.0807966000000009,0.0696447999999999,0,sub_10
0.0031155999999997,-0.0056031999999988,-0.0011267999999998,-0.0406611999999995,0.0787152000000009,0.0724534,0,sub_10
0.0042305999999997,-0.0048135999999988,-0.0003041999999998,-0.0396133999999995,0.0757834000000009,0.0727158,0,sub_10
0.0043357999999997,-0.0046919999999988,0.0003774,-0.0368307999999995,0.0754168000000009,0.0693552,0,sub_10
0.0051775999999997,-0.0045345999999987,2.3200000000085396e-05,-0.0319011999999995,0.0737218000000009,0.0627688,0,sub_10
0.0090147999999997,-0.0036613999999987,0.001315,-0.0263237999999995,0.0699092000000009,0.052344,0,sub_10
0.0128989999999997,-0.0037957999999987,0.0041398,-0.0188193999999995,0.0639738000000009,0.0383034,0,sub_10
0.0159349999999997,-0.0029301999999987,0.0067496,-0.0094251999999995,0.0533810000000009,0.0238838,0,sub_10
0.0181457999999997,-0.0027465999999987,0.007797,0.0012262000000004,0.0385192000000009,0.010333,0,sub_10
0.0191487999999997,-0.0034059999999987,0.008905,0.0112242000000004,0.0230110000000009,-0.0008713999999999,0,sub_10
0.0179495999999997,-0.0040191999999987,0.0085096,0.0190788000000004,0.0077140000000009,-0.0097409999999999,0,sub_10
0.0151737999999997,-0.0040143999999987,0.0075882,0.0235052000000004,-0.007583799999999,-0.0154297999999999,0,sub_10
0.0122689999999997,-0.0051299999999987,0.0057724,0.0251672000000004,-0.021847199999999,-0.0196727999999999,0,sub_10
0.0101795999999997,-0.0055245999999987,0.004663,0.0242706000000004,-0.034190199999999,-0.0224405999999999,0,sub_10
0.0087347999999997,-0.0049281999999988,0.0034162,0.0212460000000004,-0.044610799999999,-0.0245847999999999,0,sub_10
0.0071191999999997,-0.0045753999999988,0.002836,0.0175794000000004,-0.053545399999999,-0.0248125999999999,0,sub_10
0.0053297999999997,-0.0059825999999988,0.0010528,0.0128618000000004,-0.060539599999999,-0.0237683999999999,0,sub_10
0.0039215999999997,-0.0074631999999988,0.0002212,0.0081528000000004,-0.064555399999999,-0.0216595999999999,0,sub_10
0.0022219999999997,-0.0088631999999988,-0.0013297999999999,0.0038774000000004,-0.065595799999999,-0.0180561999999999,0,sub_10
0.0007733999999997,-0.0101727999999988,-0.0031753999999999,-0.0006027999999995,-0.064930199999999,-0.0146699999999999,0,sub_10
-0.0001646000000002,-0.0108797999999988,-0.0053183999999999,-0.0033643999999995,-0.063199399999999,-0.0127683999999999,0,sub_10
-0.0005672000000002,-0.0084699999999988,-0.0058669999999999,-0.0035565999999995,-0.058299199999999,-0.0125621999999999,0,sub_10
-0.0014382000000002,-0.0055193999999988,-0.0069637999999998,-0.0024561999999995,-0.051694799999999,-0.0134175999999999,0,sub_10
-0.0024436000000002,-0.0028891999999988,-0.0071453999999998,0.0001426000000004,-0.045091399999999,-0.0153305999999999,0,sub_10
-0.0037352000000002,0.0002466000000011,-0.0067745999999998,0.0040088000000004,-0.038517999999999,-0.0165721999999999,0,sub_10
-0.0052800000000002,0.0029248000000011,-0.0065175999999998,0.0074482000000004,-0.031094199999999,-0.0169633999999999,0,sub_10
-0.0063582000000002,0.0034698000000011,-0.0069825999999998,0.0104560000000004,-0.023673399999999,-0.0162893999999999,0,sub_10
-0.0061294000000002,0.0038912000000011,-0.0066425999999999,0.0132478000000004,-0.016466599999999,-0.0151891999999999,0,sub_10
-0.0060266000000002,0.0041368000000011,-0.0059393999999999,0.0166710000000004,-0.011603799999999,-0.0145089999999999,0,sub_10
-0.0054490000000002,0.0032102000000011,-0.0066133999999998,0.0207414000000003,-0.007359599999999,-0.0138449999999999,0,sub_10
-0.0051566000000001,0.0022404000000011,-0.0065335999999998,0.0235268000000003,-0.003963999999999,-0.0129753999999999,0,sub_10
-0.0046620000000002,0.0011264000000011,-0.0059367999999998,0.0244204000000003,-0.001793799999999,-0.0109271999999999,0,sub_10
-0.0037124000000002,-0.0013477999999988,-0.0048281999999998,0.0238194000000003,0.0012296000000009,-0.0078221999999999,0,sub_10
-0.0011734000000002,-0.0044647999999988,-0.0036609999999998,0.0219430000000003,0.0048984000000009,-0.0051541999999999,0,sub_10
0.0016441999999997,-0.0072823999999988,-0.0012831999999999,0.0192112000000003,0.0075076000000009,-0.0031317999999999,0,sub_10
0.0054565999999997,-0.0090599999999988,0.0004074,0.0149838000000003,0.0090592000000009,-0.0017593999999999,0,sub_10
0.0093159999999997,-0.0102749999999987,0.0031816,0.0096486000000004,0.0088648000000009,-0.0017963999999999,0,sub_10
0.0108109999999997,-0.0104027999999987,0.0050738,0.0057954000000004,0.0052598000000009,-0.0026733999999999,0,sub_10
0.0098981999999997,-0.0094973999999987,0.0041366,0.0019344000000004,0.0003746000000009,-0.0031213999999999,0,sub_10
0.0078123999999997,-0.0070177999999987,0.0030134,-0.0033455999999995,-0.004105599999999,-0.0039511999999999,0,sub_10
0.0059859999999997,-0.0052741999999987,0.002113,-0.0058469999999995,-0.008166799999999,-0.0054029999999999,0,sub_10
0.0035429999999997,-0.0030473999999988,0.0002752,-0.0057849999999995,-0.011597799999999,-0.0068375999999999,0,sub_10
0.0011691999999997,-0.0021243999999988,-0.0024575999999999,-0.0048645999999995,-0.013754199999999,-0.0080541999999999,0,sub_10
0.0002771999999997,-0.0010723999999987,-0.0030871999999999,-0.0028723999999995,-0.014424799999999,-0.0088379999999999,0,sub_10
0.0001709999999997,-0.0019597999999987,-0.0034851999999998,0.0001140000000003,-0.014436199999999,-0.0086033999999999,0,sub_10
-0.0004308000000002,-0.0030251999999987,-0.0036567999999998,0.0028870000000003,-0.014234399999999,-0.0081569999999999,0,sub_10
-0.0008352000000002,-0.0051995999999987,-0.0049067999999998,0.0054590000000003,-0.011898799999999,-0.0083555999999999,0,sub_10
-0.0008038000000002,-0.0053791999999987,-0.0049565999999998,0.0063472000000003,-0.008381599999999,-0.0094931999999999,0,sub_10
-0.0004714000000002,-0.0054307999999988,-0.0044349999999998,0.0059628000000003,-0.002942999999999,-0.0104285999999999,0,sub_10
