userAcceleration.x,userAcceleration.y,userAcceleration.z,rotationRate.x,rotationRate.y,rotationRate.z,label,subject
-0.0061108000000002,0.0133668000000012,-0.0002211999999999,0.0446642000000004,-0.0514329999999991,-0.0018221999999998,0,sub_4
-0.0098760000000002,0.0139030000000012,-0.0040267999999999,0.0352872000000004,-0.0452359999999991,0.0017364,0,sub_4
-0.0127026000000002,0.0150048000000012,-0.0057385999999999,0.0265610000000003,-0.0360611999999991,0.0059366,0,sub_4
-0.0136632000000001,0.0149630000000011,-0.0073823999999999,0.0195466000000003,-0.0256147999999991,0.0103606,0,sub_4
-0.0133640000000001,0.0153820000000011,-0.0075355999999999,0.0129752000000003,-0.0136699999999991,0.0126494,0,sub_4
-0.0130054000000001,0.0149046000000012,-0.0066907999999998,0.0066334000000003,0.0010470000000008,0.0140818,0,sub_4
-0.0113956000000001,0.0150918000000012,-0.0048459999999998,0.0005176000000003,0.0170476000000008,0.0140186,0,sub_4
-0.0089330000000001,0.0150638000000012,-0.0027555999999998,-0.0053829999999995,0.0322004000000008,0.012676,0,sub_4
-0.0067702000000001,0.0149628000000012,0.0001986000000001,-0.0108625999999995,0.0454366000000008,0.010698,0,sub_4
-0.0048964000000002,0.0137348000000012,0.0012408000000001,-0.0159239999999995,0.0573904000000008,0.0093654,0,sub_4
-0.0020274000000002,0.0128500000000012,0.0023584,-0.0203645999999995,0.0655054000000009,0.0084694,0,sub_4
0.0009717999999997,0.0120194000000012,0.0027942,-0.0241841999999995,0.0699936000000009,0.0082232,0,sub_4
0.0031113999999997,0.0114076000000012,0.0022578,-0.0286601999999995,0.0708622000000008,0.0079772,0,sub_4
0.0046837999999997,0.0119778000000012,0.0024938,-0.0335725999999995,0.0691776000000008,0.0073042,0,sub_4
0.0056871999999997,0.0133428000000012,0.0037464,-0.0370047999999995,0.0640806000000008,0.0062186000000001,0,sub_4
0.0045111999999998,0.0147004000000012,0.0051144,-0.0400111999999995,0.0587690000000008,0.0051362000000001,0,sub_4
0.0026569999999998,0.0154344000000012,0.0050352,-0.0419507999999995,0.0536660000000008,0.0042748,0,sub_4
0.0004351999999998,0.0164784000000012,0.0048936,-0.0415509999999995,0.0479112000000008,0.0044986,0,sub_4
-0.0017564000000001,0.0174570000000012,0.0029714,-0.0407347999999995,0.0412968000000008,0.0062218,0,sub_4
-0.0037834000000001,0.0173450000000012,0.0012076,-0.0429049999999995,0.0361790000000008,0.0092042,0,sub_4
-0.0042486000000001,0.0150496000000012,-0.0010297999999999,-0.0482679999999995,0.0336258000000008,0.0130156,0,sub_4
-0.0040034000000001,0.0131392000000012,-0.0013975999999999,-0.0553207999999995,0.0336402000000008,0.01553,0,sub_4
-0.0015812000000002,0.0118896000000012,-0.0010583999999999,-0.0627915999999995,0.0347248000000008,0.0171856,0,sub_4
0.0011841999999997,0.0113452000000012,4.120000000007113e-05,-0.0679067999999995,0.0364454000000008,0.017575,0,sub_4
0.0035823999999997,0.0119520000000012,0.001706,-0.0689621999999995,0.0377326000000008,0.0162842,0,sub_4
0.0050783999999997,0.0137794000000012,0.0035774,-0.0663911999999995,0.0370964000000008,0.013312,0,sub_4
0.0063081999999997,0.0153008000000012,0.0055808,-0.0610529999999995,0.0345346000000008,0.0099342,0,sub_4
0.0071839999999997,0.0159972000000012,0.0076844,-0.0546489999999995,0.0313318000000008,0.0061374,0,sub_4
0.0084767999999997,0.0153798000000012,0.0095394,-0.0486485999999996,0.0275092000000008,0.0021162000000001,0,sub_4
0.0104685999999997,0.0139756000000012,0.010715,-0.0405257999999996,0.0221836000000008,-0.0008199999999998,0,sub_4
0.0140009999999997,0.0133596000000012,0.0118254,-0.0296397999999995,0.0145046000000008,-0.0037339999999998,0,sub_4
0.0165001999999997,0.0132232000000012,0.0117306,-0.0172765999999995,0.0029864000000009,-0.0068461999999998,0,sub_4
0.0169303999999997,0.0139384000000012,0.0115408,-0.0042837999999995,-0.011938799999999,-0.0110177999999998,0,sub_4
0.0133291999999997,0.0161654000000012,0.0111402,0.0105902000000004,-0.027950199999999,-0.0147437999999998,0,sub_4
0.0078279999999997,0.0195096000000012,0.0094614,0.0250334000000003,-0.044387999999999,-0.0180451999999998,0,sub_4
0.0014059999999998,0.0225976000000012,0.0073082,0.0369144000000003,-0.059757399999999,-0.0198701999999998,0,sub_4
-0.0057500000000001,0.0257948000000012,0.0055436,0.0453930000000003,-0.0693751999999991,-0.0185217999999998,0,sub_4
-0.0129234000000001,0.0269608000000012,0.0024848,0.0528238000000003,-0.0719695999999991,-0.0144123999999998,0,sub_4
-0.0160384000000001,0.0269874000000012,-0.0004857999999999,0.0581388000000003,-0.071580999999999,-0.0096755999999998,0,sub_4
-0.0165754000000001,0.0253594000000012,-0.0030075999999999,0.0619776000000004,-0.0675641999999991,-0.0051673999999998,0,sub_4
-0.0159178000000002,0.0227572000000012,-0.0054869999999999,0.0653582000000004,-0.060174599999999,-0.0007075999999998,0,sub_4
-0.0142032000000001,0.0192396000000012,-0.0070897999999999,0.0672672000000004,-0.049789399999999,0.0018154,0,sub_4
-0.0117846000000001,0.0154924000000012,-0.0070067999999999,0.0657700000000004,-0.038324399999999,0.0036722,0,sub_4
-0.0089670000000001,0.0120094000000012,-0.0065139999999999,0.0606578000000004,-0.0245011999999991,0.0050734,0,sub_4
-0.0066482000000001,0.0107358000000012,-0.0055995999999999,0.0532004000000004,-0.0108805999999991,0.0058176,0,sub_4
-0.0040192000000001,0.0106062000000012,-0.0030613999999999,0.0445058000000004,0.0012932000000008,0.005955,0,sub_4
-0.0011810000000001,0.0108084000000011,-0.0009289999999999,0.0368560000000004,0.0081386000000008,0.005679,0,sub_4
0.0023203999999997,0.0119140000000011,0.0021216,0.0313294000000003,0.0113598000000008,0.0041408,0,sub_4
0.0045499999999997,0.0135530000000011,0.004411,0.0289900000000003,0.0111626000000008,0.0022018,0,sub_4
0.0059457999999997,0.0143922000000011,0.0069104,0.0281750000000003,0.0086760000000008,0.000447,0,sub_4
0.0061031999999997,0.0146924000000011,0.007237,0.0288428000000003,0.0040526000000008,-0.0010809999999998,0,sub_4
0.0060307999999997,0.0144396000000011,0.0069948,0.0295060000000003,-0.0012115999999991,-0.0021807999999998,0,sub_4
0.0051077999999997,0.0145930000000012,0.0049474,0.0295194000000004,-0.0077551999999991,-0.0024289999999998,0,sub_4
0.0042609999999997,0.0145658000000012,0.0031722,0.0276116000000004,-0.0138687999999991,-0.0020501999999998,0,sub_4
0.0034171999999997,0.0142800000000012,0.0019788,0.0252358000000003,-0.0196155999999991,-0.0014183999999998,0,sub_4
0.0021439999999998,0.0136212000000012,0.0017588,0.0235030000000003,-0.0245131999999991,-0.0005697999999998,0,sub_4
0.0020169999999998,0.0134852000000011,0.0016732,0.0221486000000003,-0.027249199999999,-0.0004185999999998,0,sub_4
0.0019317999999998,0.0138080000000011,0.0018038,0.0201686000000003,-0.027423999999999,-0.0009159999999998,0,sub_4
0.0019919999999998,0.0135454000000011,0.0023172,0.0192650000000003,-0.026320599999999,-0.0022619999999998,0,sub_4
0.0021243999999998,0.0132630000000012,0.0024822,0.0192264000000003,-0.023512599999999,-0.0044587999999998,0,sub_4
0.0028463999999997,0.0133046000000012,0.0024538,0.0183344000000003,-0.021125999999999,-0.0070881999999998,0,sub_4
0.0027069999999997,0.0134544000000012,0.0023016,0.0192032000000004,-0.019842199999999,-0.0092201999999998,0,sub_4
0.0030507999999997,0.0140618000000012,0.0024694,0.0211350000000003,-0.0194141999999991,-0.0113435999999998,0,sub_4
0.0026543999999997,0.0148874000000012,0.0020322,0.0224182000000003,-0.0200527999999991,-0.0126157999999998,0,sub_4
0.0012061999999997,0.0149314000000012,0.0010378,0.0223598000000003,-0.0206097999999991,-0.0128591999999998,0,sub_4
-0.0004962000000002,0.0152360000000012,0.0003224,0.0218804000000003,-0.0192503999999991,-0.0124669999999998,0,sub_4
-0.0021062000000002,0.0157918000000012,-0.0001917999999999,0.0186272000000003,-0.0174569999999991,-0.0116675999999998,0,sub_4
-0.0046972000000002,0.0148784000000012,-0.0011549999999999,0.0140920000000003,-0.0150241999999991,-0.0098097999999998,0,sub_4
-0.0063274000000002,0.0142880000000012,-0.0012675999999999,0.0093414000000003,-0.0121677999999991,-0.0070991999999998,0,sub_4
-0.0058210000000002,0.0139608000000012,-0.0015013999999999,0.0033642000000004,-0.0091785999999991,-0.0035127999999998,0,sub_4
-0.0048108000000002,0.0133598000000011,-0.0010103999999999,-0.0047457999999995,-0.0061811999999991,-0.0001549999999998,0,sub_4
-0.0037242000000002,0.0125454000000011,-0.0007053999999999,-0.0126327999999995,-0.0014783999999991,0.0027750000000001,0,sub_4
-0.0020174000000002,0.0124310000000011,0.00012,-0.0190275999999995,0.0030452000000008,0.0046466000000001,0,sub_4
0.0004455999999997,0.0124334000000011,0.000324,-0.0230761999999995,0.0062864000000008,0.0054680000000001,0,sub_4
0.0021669999999997,0.0132804000000012,0.000863,-0.0252053999999995,0.0076102000000008,0.0045962000000001,0,sub_4
0.0028167999999997,0.0138886000000012,0.001122,-0.0239195999999995,0.0082866000000008,0.0028944000000001,0,sub_4
0.0025767999999997,0.0145572000000012,0.0021692,-0.0209353999999995,0.0072516000000008,0.0014204000000001,0,sub_4
0.0029783999999997,0.0153922000000012,0.0024696,-0.0170975999999995,0.0057502000000008,0.0005946000000001,0,sub_4
0.0021509999999997,0.0162490000000012,0.0035034,-0.0139017999999995,0.0036128000000008,-0.0004485999999998,0,sub_4
0.0011605999999997,0.0167236000000012,0.0043922,-0.0104887999999995,0.0025392000000008,-0.0012779999999998,0,sub_4
0.0007363999999997,0.0179772000000012,0.0051434,-0.0077187999999995,0.0012528000000008,-0.0016841999999998,0,sub_4
0.0008159999999997,0.0183280000000012,0.0045332,-0.0048349999999995,-0.0004207999999991,-0.0018817999999998,0,sub_4
0.0001219999999997,0.0185096000000012,0.0044046,-0.0013127999999995,-0.0025227999999991,-0.0020741999999998,0,sub_4
-0.0004398000000002,0.0179494000000012,0.0031664,0.0028484000000004,-0.0039911999999991,-0.0014083999999998,0,sub_4
-0.0008146000000002,0.0164694000000012,0.0019468,0.0065790000000004,-0.0058859999999991,-0.0003177999999998,0,sub_4
-0.0013286000000002,0.0147290000000012,0.0005416,0.0088188000000004,-0.0069241999999991,0.0009748000000001,0,sub_4
-0.0015076000000002,0.0139512000000012,-3.999999999908287e-06,0.0090302000000004,-0.0062899999999991,0.0020438000000001,0,sub_4
-0.0012126000000002,0.0135554000000012,0.0005916,0.0079672000000004,-0.0050095999999991,0.0024620000000001,0,sub_4
-0.0007264000000002,0.0135844000000012,0.0008296,0.0065774000000004,-0.0023841999999991,0.0022358000000001,0,sub_4
-0.0008394000000002,0.0140740000000012,0.0018242,0.0056094000000003,-0.0004011999999991,0.0024408000000001,0,sub_4
-0.0002392000000002,0.0148084000000012,0.0021838,0.0054902000000003,0.0005138000000009,0.0026530000000001,0,sub_4
2.4399999999803573e-05,0.0152394000000012,0.0024646,0.0064330000000003,-6.47999999990918e-05,0.0024472,0,sub_4
0.0001201999999998,0.0147422000000012,0.0021646,0.0071594000000003,-0.000432999999999,0.0030942,0,sub_4
6.739999999980358e-05,0.0142898000000012,0.0020974,0.0067230000000003,-0.001500999999999,0.0041608,0,sub_4
0.0008987999999998,0.0145274000000012,0.0013676,0.0062876000000003,-0.002780399999999,0.0048002,0,sub_4
0.0010805999999998,0.0141552000000012,0.0011994,0.0058550000000003,-0.0038451999999991,0.0050122,0,sub_4
0.0013539999999997,0.0137852000000012,0.0014416,0.0055142000000004,-0.0037567999999991,0.0052440000000001,0,sub_4
0.0012635999999997,0.0138570000000012,0.0014294,0.0056022000000004,-0.0038803999999991,0.0048382000000001,0,sub_4
0.0008541999999997,0.0139646000000012,0.0018754,0.0063312000000004,-0.0042175999999991,0.0040098000000001,0,sub_4
0.0005397999999997,0.0140366000000012,0.0028358,0.0062086000000003,-0.0039133999999991,0.0033882000000001,0,sub_4
0.0001355999999997,0.0144938000000012,0.0031534,0.0058688000000003,-0.0040363999999991,0.0031930000000001,0,sub_4
0.0001013999999997,0.0145374000000012,0.003589,0.0056526000000003,-0.0044625999999991,0.0034056000000001,0,sub_4
-4.680000000021635e-05,0.0147768000000012,0.0034622,0.0050086000000003,-0.0048881999999991,0.0038288000000001,0,sub_4
0.0001839999999997,0.0152812000000012,0.0031732,0.0045788000000003,-0.0055257999999991,0.0038266000000001,0,sub_4
-0.0002034000000002,0.0155604000000012,0.0026002,0.0045770000000003,-0.006164199999999,0.0036138000000001,0,sub_4
8.65999999997836e-05,0.0151916000000012,0.0025084,0.0047202000000003,-0.005877599999999,0.0027782000000001,0,sub_4
-0.0001154000000002,0.0151436000000011,0.0018792,0.0048624000000004,-0.005804199999999,0.0019428000000001,0,sub_4
0.0006191999999997,0.0146020000000011,0.0017214,0.0052180000000004,-0.005731599999999,0.0011090000000001,0,sub_4
0.0009367999999997,0.0141668000000011,0.001458,0.0049326000000004,-0.005445599999999,0.0006976000000001,0,sub_4
0.0013389999999997,0.0138274000000011,0.0010952,0.0042214000000004,-0.004732599999999,0.0004964000000001,0,sub_4
0.0010459999999997,0.0138060000000011,0.00178,0.0035852000000004,-0.004090399999999,0.0002774000000001,0,sub_4
0.0009189999999997,0.0140310000000011,0.0024804,0.0023098000000004,-0.003657399999999,-0.0003729999999998,0,sub_4
0.0007277999999997,0.0148646000000011,0.0028342,0.0012496000000004,-0.003010999999999,-0.0012357999999998,0,sub_4
0.0008479999999997,0.0151906000000011,0.003076,0.0012364000000004,-0.002331399999999,-0.0016535999999998,0,sub_4
0.0005483999999997,0.0152168000000011,0.0033382,0.0014374000000004,-0.0018639999999991,-0.0024969999999998,0,sub_4
0.0003971999999998,0.0150738000000011,0.0023364,0.0014212000000004,-0.0018237999999991,-0.0029139999999998,0,sub_4
0.0006245999999998,0.0148492000000011,0.0019636,0.0018280000000004,-0.0017881999999991,-0.0024733999999998,0,sub_4
0.0004111999999998,0.0144808000000011,0.0013864,0.0015938000000004,-0.0019635999999991,-0.0020371999999998,0,sub_4
0.0004999999999998,0.0141178000000011,0.0016732,0.0009526000000003,-0.0021743999999991,-0.0020413999999998,0,sub_4
0.0003969999999998,0.0139924000000011,0.0018984,9.72000000004052e-05,-0.0023853999999991,-0.0018333999999998,0,sub_4
0.0005393999999997,0.0141714000000011,0.0020066,-0.0003333999999995,-0.0023871999999991,-0.0009817999999998,0,sub_4
0.0006815999999997,0.0141638000000011,0.0018638,-0.0009929999999995,-0.0019277999999991,-0.0007679999999998,0,sub_4
0.0007135999999997,0.0144858000000012,0.0020714,-0.0012267999999995,-0.001682999999999,-0.0005507999999998,0,sub_4
0.0005413999999997,0.0143480000000012,0.0022464,-0.0016737999999995,-0.001649599999999,-0.0005485999999998,0,sub_4
0.0005739999999997,0.0142778000000012,0.0021628,-0.0016941999999995,-0.001829799999999,-0.0007567999999998,0,sub_4
0.0005517999999997,0.0142620000000012,0.0027038,-0.0017115999999995,-0.001583199999999,-0.0011791999999998,0,sub_4
0.0007555999999997,0.0147840000000012,0.0022906,-0.0010705999999995,-0.001584599999999,-0.0013883999999998,0,sub_4
0.0011131999999997,0.0147598000000012,0.0019576,-0.0008581999999995,-0.0015861999999991,-0.0011733999999998,0,sub_4
0.0012081999999997,0.0150532000000012,0.001497,-0.0008601999999995,-0.0015879999999991,-0.0007461999999998,0,sub_4
0.0011501999999997,0.0146066000000012,0.0012772,-0.0008861999999995,-0.0011405999999991,0.0001030000000001,0,sub_4
0.0011095999999997,0.0141438000000012,0.0009042,-0.0009101999999995,-0.0009037999999991,0.0003116000000001,0,sub_4
0.0012941999999997,0.0138444000000012,0.0009316,-0.0015779999999995,-0.0013047999999991,0.00073,0,sub_4
0.0011387999999997,0.0140268000000012,0.0013548,-0.0020295999999995,-0.001279599999999,0.0009358,0,sub_4
0.0006671999999997,0.0135610000000012,0.0012328,-0.0018381999999995,-0.000829599999999,0.000932,0,sub_4
0.0006607999999997,0.0139800000000011,0.0010912,-0.0018361999999995,-0.000615799999999,0.000718,0,sub_4
0.0010761999999997,0.0147176000000011,0.0010592,-0.0020475999999995,-0.000188799999999,0.0007158,0,sub_4
0.0008959999999998,0.0148998000000011,0.0013122,-0.0022825999999995,0.0006892000000009,0.0007032000000001,0,sub_4
0.0005041999999997,0.0146540000000011,0.0013804,-0.0023051999999995,0.0011414000000008,0.0004790000000001,0,sub_4
0.0004157999999997,0.0150702000000011,0.001442,-0.0025449999999995,0.0009542000000008,0.0004676000000001,0,sub_4
0.0010899999999997,0.0150132000000012,0.0017842,-0.0023589999999995,0.0007646000000008,0.0006728000000001,0,sub_4
0.0010471999999997,0.0147122000000011,0.0017634,-0.0021729999999995,0.0001506000000008,0.0004514000000001,0,sub_4
0.0010427999999997,0.0146230000000011,0.0016046,-0.0015337999999995,-0.0004889999999991,2.9400000000104103e-05,0,sub_4
0.0007799999999997,0.0143332000000012,0.0015448,-0.0006841999999995,-0.001131999999999,0.0002498000000001,0,sub_4
0.0010607999999997,0.0140108000000012,0.0019534,-4.699999999959464e-05,-0.001561199999999,0.0004684000000001,0,sub_4
0.0011065999999997,0.0143492000000012,0.0016606,-7.159999999957465e-05,-0.001748399999999,0.0002484000000001,0,sub_4
0.0010979999999997,0.0139686000000012,0.0018248,-9.819999999955468e-05,-0.002149599999999,0.0002422000000001,0,sub_4
0.0010763999999997,0.0133268000000012,0.0017846,-0.0001227999999995,-0.002124799999999,0.0002354000000001,0,sub_4
0.0016529999999997,0.0133186000000012,0.0017362,-0.0003597999999995,-0.002098399999999,1.340000000012411e-05,0,sub_4
0.0017759999999997,0.0135052000000012,0.0012364,-0.0010215999999995,-0.002068599999999,-0.0006387999999998,0,sub_4
0.0013153999999997,0.0134498000000012,0.0013788,-0.0012339999999995,-0.002066999999999,-0.0008539999999998,0,sub_4
0.0010373999999997,0.0135618000000012,0.0010588,-0.0014481999999995,-0.002067199999999,-0.0006417999999998,0,sub_4
0.0006453999999997,0.0137082000000012,0.0010286,-0.0020883999999995,-0.001852799999999,-0.0004329999999998,0,sub_4
0.0004319999999997,0.0137556000000011,0.0006406,-0.0025293999999995,-0.0011913999999991,-0.0006517999999998,0,sub_4
0.0004255999999997,0.0139160000000011,0.0006886,-0.0025445999999995,-0.0003201999999991,-0.0004405999999998,0,sub_4
0.0007663999999997,0.0139024000000011,0.0007104,-0.0023463999999995,0.0005504000000008,-0.0002279999999999,0,sub_4
0.0007557999999997,0.0138656000000011,0.0011276,-0.0023597999999995,0.0016356000000008,-0.0002307999999999,0,sub_4
0.0010861999999997,0.0138288000000011,0.0016234,-0.0017347999999995,0.0020804000000008,-0.0004417999999999,0,sub_4
0.0014801999999997,0.0136916000000011,0.0016232,-0.0017367999999995,0.0016544000000008,-0.0004411999999998,0,sub_4
0.0018631999999997,0.0137356000000011,0.0017386,-0.0013129999999995,0.0012260000000008,-0.0002239999999998,0,sub_4
0.0016471999999997,0.0136260000000012,0.0020344,-0.0013159999999995,0.0005868000000009,-0.0002231999999998,0,sub_4
0.0019561999999997,0.0138274000000011,0.0013472,-0.0011193999999995,-0.000463999999999,-7.199999999875925e-06,0,sub_4
0.0021119999999997,0.0139804000000012,0.0013158,-0.0011343999999995,-0.001300399999999,-6.599999999875911e-06,0,sub_4
0.0017971999999997,0.0141874000000012,0.0015168,-0.0009337999999995,-0.001499199999999,0.0002082000000001,0,sub_4
0.0012807999999997,0.0140736000000012,0.0015256,-0.0007323999999996,-0.001696999999999,0.0002094,0,sub_4
0.0014881999999997,0.0141846000000012,0.001164,-0.0007461999999996,-0.0023201999999991,0.0002098,0,sub_4
0.0012911999999997,0.0139536000000012,0.001616,-0.0003183999999996,-0.0025331999999991,-0.0002141999999999,0,sub_4
0.0009861999999997,0.0140226000000012,0.0008712,-0.0003173999999996,-0.0023199999999991,-0.0002145999999999,0,sub_4
0.0011283999999997,0.0136818000000012,0.0008658,-0.0001031999999995,-0.0021075999999991,-0.0002133999999999,0,sub_4
0.0013313999999997,0.0135588000000012,0.0004812,-0.0003165999999995,-0.0016689999999991,-0.0004313999999998,0,sub_4
0.0013341999999997,0.0134928000000012,0.0004534,-0.0007425999999995,-0.0012287999999991,-0.0008645999999998,0,sub_4
0.0015881999999997,0.0133032000000012,0.000164,-0.0015943999999995,-0.0005737999999991,-0.0013009999999998,0,sub_4
0.0019485999999997,0.0131106000000012,0.0006534,-0.0024451999999995,8.180000000088819e-05,-0.0019509999999998,0,sub_4
0.0016555999999997,0.0134264000000012,0.0012946,-0.0035083999999995,0.0007390000000008,-0.0028159999999998,0,sub_4
0.0014103999999997,0.0131298000000012,0.0015514,-0.0041417999999995,0.0013838000000008,-0.0036757999999998,0,sub_4
0.0017221999999997,0.0136358000000012,0.0017512,-0.0041339999999995,0.0024516000000008,-0.0043179999999998,0,sub_4
0.0019601999999997,0.0141876000000012,0.0019704,-0.0041291999999995,0.0030924000000008,-0.0047461999999998,0,sub_4
0.0017261999999997,0.0139618000000012,0.0014156,-0.0041285999999995,0.0033134000000008,-0.0045345999999998,0,sub_4
0.0018067999999997,0.0133924000000012,0.0001264,-0.0037011999999995,0.0035330000000008,-0.0043201999999998,0,sub_4
0.0025953999999997,0.0135954000000012,-7.099999999990806e-05,-0.0041331999999995,0.0029016000000008,-0.0036833999999998,0,sub_4
0.0026233999999997,0.0130642000000012,-0.0001469999999999,-0.0043509999999995,0.0022704000000008,-0.0032585999999998,0,sub_4
0.0021955999999997,0.0127838000000011,-0.0002353999999999,-0.0043533999999995,0.0016400000000008,-0.0032595999999998,0,sub_4
0.0017567999999997,0.0132076000000011,0.0003034,-0.0039285999999995,0.0007880000000008,-0.0036827999999998,0,sub_4
0.0016707999999997,0.0137074000000011,0.0007454,-0.0037181999999995,0.0001480000000008,-0.0036805999999998,0,sub_4
0.0009227999999997,0.0139590000000012,0.000683,-0.0028627999999995,0.0005712000000008,-0.0036751999999998,0,sub_4
0.0003261999999997,0.0139688000000012,0.00061,-0.0026473999999995,0.0012086000000008,-0.0034609999999998,0,sub_4
7.619999999976368e-05,0.0142382000000012,0.000391,-0.0028579999999995,0.0018536000000008,-0.0028219999999998,0,sub_4
0.0003775999999997,0.0140946000000012,0.0002802,-0.0030695999999995,0.0024978000000008,-0.0019693999999998,0,sub_4
0.0002331999999997,0.0139928000000012,0.0004918,-0.0032791999999995,0.0029314000000008,-0.0017571999999998,0,sub_4
0.0004813999999997,0.0134098000000012,0.0009764,-0.0041319999999995,0.0025158000000008,-0.0017619999999998,0,sub_4
0.0010861999999997,0.0132582000000012,0.0008128,-0.0041331999999995,0.0014592000000008,-0.0019737999999998,0,sub_4
0.0018377999999997,0.0125574000000012,0.00122,-0.0039227999999995,0.0008194000000008,-0.0019713999999998,0,sub_4
0.0024001999999997,0.0123602000000012,0.0011314,-0.0039207999999995,0.0010332000000008,-0.0021851999999998,0,sub_4
0.0029905999999997,0.0121174000000012,0.0006416,-0.0045599999999995,0.0010364000000008,-0.0024033999999998,0,sub_4
0.0030441999999997,0.0126592000000012,0.0002114,-0.0045543999999995,0.0012546000000008,-0.0026181999999998,0,sub_4
0.0026797999999997,0.0125418000000012,-3.479999999990802e-05,-0.0047603999999995,0.0016872000000008,-0.0030483999999998,0,sub_4
0.0018699999999997,0.0128492000000012,-0.0007791999999998,-0.0045385999999995,0.0019070000000008,-0.0039025999999998,0,sub_4
0.0015689999999997,0.0133562000000012,-0.0007655999999998,-0.0041083999999995,0.0014854000000008,-0.0043271999999998,0,sub_4
0.0010333999999997,0.0134332000000012,-0.0008501999999998,-0.0030389999999995,0.0010606000000008,-0.0045335999999998,0,sub_4
0.0006167999999997,0.0129658000000012,-0.0009499999999998,-0.0021845999999995,0.0010584000000008,-0.0047413999999998,0,sub_4
-0.0003094000000002,0.0132034000000012,-0.0010333999999998,-0.0015463999999995,0.0012668000000008,-0.0040961999999998,0,sub_4
