userAcceleration.x,userAcceleration.y,userAcceleration.z,rotationRate.x,rotationRate.y,rotationRate.z,label,subject
0.0215417999999998,-0.0634587999999987,0.023018,0.0046164000000004,-0.022849799999999,0.0052572000000001,0,sub_11
0.0199031999999998,-0.0662095999999987,0.0247976,0.0151272000000004,-0.019017399999999,-0.0032199999999998,0,sub_11
0.0168669999999998,-0.0609931999999987,0.0244364,0.0223780000000004,-0.019682799999999,-0.0029549999999998,0,sub_11
0.0139137999999998,-0.0536663999999987,0.0226674,0.0253816000000004,-0.011402799999999,0.0017554000000001,0,sub_11
0.0121393999999998,-0.0480193999999987,0.017731,0.0245300000000004,-0.003122199999999,0.0096436000000001,0,sub_11
0.0123701999999998,-0.0443029999999987,0.014729,0.0202262000000004,-0.000593199999999,0.0202926000000001,0,sub_11
0.0141581999999998,-0.0454037999999987,0.012859,0.0117964000000004,-0.011058199999999,0.0339204000000001,0,sub_11
0.0155187999999998,-0.0496575999999987,0.0167904,0.0023016000000004,-0.021093399999999,0.0475402000000001,0,sub_11
0.0174773999999998,-0.0550005999999987,0.0219242,-0.0054995999999995,-0.032631999999999,0.0626694000000001,0,sub_11
0.0193065999999998,-0.0596337999999987,0.0270336,-0.0094361999999995,-0.039706399999999,0.0769652000000001,0,sub_11
0.0205945999999998,-0.0615471999999987,0.029515,-0.0105433999999995,-0.038465199999999,0.0872108000000001,0,sub_11
0.0227537999999998,-0.0590379999999987,0.0309282,-0.0066585999999995,-0.026768399999999,0.0891456000000001,0,sub_11
0.0248973999999998,-0.0601553999999987,0.029702,0.0019692000000004,-0.010800399999999,0.0844852000000001,0,sub_11
0.0230299999999997,-0.0593729999999987,0.028355,0.0137688000000004,-0.003357199999999,0.0777214000000001,0,sub_11
0.0221103999999997,-0.0557453999999987,0.0261654,0.0245286000000004,0.0077208000000009,0.0685956000000001,0,sub_11
0.0211943999999997,-0.0546575999999987,0.0236082,0.0355028000000004,0.0154038000000009,0.0558436000000001,0,sub_11
0.0189523999999997,-0.0559847999999987,0.0220954,0.0479492000000004,0.0177578000000009,0.0424680000000001,0,sub_11
0.0146947999999998,-0.0514879999999987,0.0226188,0.0582238000000004,0.0143558000000009,0.0318620000000001,0,sub_11
0.0116973999999998,-0.0470011999999987,0.0224598,0.0651284000000004,0.0231002000000009,0.0235668000000001,0,sub_11
0.0069263999999998,-0.0461495999999987,0.0190012,0.0662336000000004,0.0269502000000009,0.0188694000000001,0,sub_11
0.0012657999999998,-0.0449635999999987,0.0132148,0.0623814000000004,0.0273778000000009,0.0218330000000001,0,sub_11
-0.0039228000000001,-0.0404981999999987,0.0078432,0.0510094000000004,0.0220560000000009,0.0305198000000001,0,sub_11
-0.0064960000000001,-0.0413399999999987,0.0014154,0.0347288000000004,0.0161138000000009,0.0387458000000001,0,sub_11
-0.0059290000000001,-0.0423211999999987,-0.0011233999999999,0.0158590000000004,0.0010306000000009,0.0441882000000001,0,sub_11
0.0048053999999998,-0.0460849999999987,0.0029566,0.0019294000000004,-0.014252999999999,0.0421878000000001,0,sub_11
0.0170885999999998,-0.0488571999999987,0.0125294,-0.0008549999999995,-0.029531199999999,0.0291556000000001,0,sub_11
0.0285623999999998,-0.0540065999999987,0.0277682,0.0105180000000004,-0.037577199999999,0.0068128000000001,0,sub_11
0.0390215999999998,-0.0578695999999987,0.0434668000000001,0.0321990000000004,-0.034990199999999,-0.0195309999999998,0,sub_11
0.0471767999999998,-0.0613159999999987,0.0516378,0.0577764000000004,-0.019847399999999,-0.0456499999999998,0,sub_11
0.0489649999999998,-0.0615059999999987,0.0479058,0.0810190000000004,0.0033784000000009,-0.0664545999999998,0,sub_11
0.0497641999999998,-0.0631177999999987,0.0397784,0.0972204000000004,0.0319338000000009,-0.0819739999999998,0,sub_11
0.0470347999999998,-0.0652805999999987,0.0317478,0.1058982000000004,0.0534632000000009,-0.0921959999999998,0,sub_11
0.0407995999999998,-0.0639451999999987,0.0264312,0.1021256000000004,0.0641472000000009,-0.0967225999999998,0,sub_11
0.0306121999999998,-0.0589729999999987,0.0261088,0.0923134000000003,0.0660938000000009,-0.0955117999999998,0,sub_11
0.0147647999999998,-0.0521311999999987,0.0262594000000001,0.0850108000000004,0.0658642000000009,-0.0850939999999998,0,sub_11
-0.0016450000000001,-0.0451973999999987,0.0215122,0.0770066000000004,0.0609140000000009,-0.0657019999999998,0,sub_11
-0.0145386000000001,-0.0351041999999987,0.0109566,0.0610454000000003,0.0497822000000009,-0.0386663999999998,0,sub_11
-0.0220042000000001,-0.0311311999999987,-0.0050647999999999,0.0375740000000004,0.0307876000000009,-0.0101775999999998,0,sub_11
-0.0213982000000001,-0.0352939999999987,-0.0194261999999999,0.0119392000000004,0.0028616000000009,0.0159574000000001,0,sub_11
-0.0129462000000001,-0.0438693999999987,-0.0151747999999999,-0.0147825999999995,-0.035051999999999,0.0365428000000001,0,sub_11
-0.0027600000000001,-0.0499547999999987,-0.0010865999999999,-0.0389055999999995,-0.069969599999999,0.0515878000000001,0,sub_11
0.0126011999999998,-0.0571603999999987,0.0158192,-0.0543727999999995,-0.087409199999999,0.0572706000000001,0,sub_11
0.0320503999999998,-0.0662743999999987,0.0312804,-0.0515577999999995,-0.081652799999999,0.0538646000000001,0,sub_11
0.0463705999999998,-0.0710877999999987,0.042307,-0.0360589999999995,-0.061426399999999,0.0439056000000001,0,sub_11
0.0520427999999998,-0.0689255999999987,0.0419942,-0.0164579999999995,-0.036290799999999,0.0282006000000001,0,sub_11
0.0550699999999998,-0.0673673999999987,0.0390780000000001,0.0023038000000004,-0.011988399999999,0.0084316000000001,0,sub_11
0.0498727999999998,-0.0673307999999987,0.0324862000000001,0.0178372000000004,0.0084808000000009,-0.0090049999999998,0,sub_11
0.0384023999999998,-0.0627019999999987,0.0253524000000001,0.0288410000000004,0.0244660000000009,-0.0200581999999997,0,sub_11
0.0283949999999998,-0.0582131999999987,0.0212868000000001,0.0348970000000004,0.0368252000000009,-0.0258001999999997,0,sub_11
0.0213043999999998,-0.0551729999999987,0.0197732,0.0366470000000004,0.0453456000000009,-0.0268669999999998,0,sub_11
0.0131021999999998,-0.0502339999999987,0.0167496,0.0330236000000004,0.0517276000000009,-0.0213455999999998,0,sub_11
0.0097529999999998,-0.0453877999999987,0.0120954,0.0246810000000004,0.0551332000000009,-0.0132897999999998,0,sub_11
0.0082441999999998,-0.0436025999999987,0.011334,0.0160952000000004,0.0502372000000009,-0.0069341999999998,0,sub_11
0.0044371999999998,-0.0429775999999987,0.0134726,0.0085400000000004,0.0359684000000009,-0.0018411999999998,0,sub_11
0.0016605999999998,-0.0435533999999987,0.014808,-8.019999999955077e-05,0.0225536000000009,0.0036706000000001,0,sub_11
0.0044599999999998,-0.0461217999999987,0.0140966000000001,-0.0078153999999995,0.0138326000000009,0.0068324000000001,0,sub_11
0.0066395999999997,-0.0486061999999987,0.0160890000000001,-0.0108429999999995,0.0044704000000009,0.0063960000000001,0,sub_11
0.0075217999999997,-0.0505033999999987,0.0193460000000001,-0.0108907999999995,-0.007667599999999,0.0049158000000001,0,sub_11
0.0093467999999997,-0.0507023999999987,0.0209672000000001,-0.0128361999999995,-0.014261399999999,0.0038424000000001,0,sub_11
0.0149075999999997,-0.0496291999999987,0.0193008,-0.0151727999999995,-0.014243799999999,0.0014758000000001,0,sub_11
0.0197325999999997,-0.0478175999999987,0.0200320000000001,-0.0138617999999995,-0.012311199999999,-0.0034313999999998,0,sub_11
0.0265011999999998,-0.0472855999999987,0.022122,-0.0095597999999995,-0.011658799999999,-0.0104523999999998,0,sub_11
0.0324935999999998,-0.0514679999999987,0.0260938,-0.0065255999999995,-0.007595599999999,-0.0168457999999998,0,sub_11
0.0388299999999997,-0.0565985999999987,0.028862,-0.0034769999999995,0.0011488000000009,-0.0217493999999998,0,sub_11
0.0401461999999998,-0.0628477999999987,0.0332928,0.0014834000000004,0.0107276000000009,-0.0238633999999998,0,sub_11
0.0387461999999998,-0.0697225999999987,0.0362026,0.0068598000000004,0.0209320000000009,-0.0229843999999998,0,sub_11
0.0317335999999998,-0.0719571999999987,0.0375626000000001,0.0115828000000004,0.0324000000000009,-0.0178387999999998,0,sub_11
0.0253439999999998,-0.0678635999999987,0.0340372000000001,0.0143816000000004,0.0438712000000009,-0.0118517999999998,0,sub_11
0.0172981999999998,-0.0620829999999987,0.0280404,0.0167402000000004,0.0513002000000009,-0.0069309999999998,0,sub_11
0.0077847999999998,-0.0551295999999987,0.0211408000000001,0.0180060000000004,0.0523440000000009,-0.0026505999999998,0,sub_11
-0.0020294000000001,-0.0475869999999987,0.014026,0.0160350000000004,0.0461518000000009,0.0024710000000001,0,sub_11
-0.0063916000000001,-0.0433093999999987,0.007465,0.0095676000000004,0.0363542000000009,0.0073522000000001,0,sub_11
-0.0078896000000001,-0.0403087999999987,0.0050296,0.0030848000000004,0.0225112000000009,0.0115974000000001,0,sub_11
-0.0055334000000001,-0.0398893999999987,0.0077708,-0.0034055999999995,0.0061150000000009,0.0149914000000001,0,sub_11
0.0016865999999998,-0.0424187999999987,0.0145594,-0.0081783999999995,-0.010702399999999,0.0156206000000001,0,sub_11
0.0103851999999998,-0.0455091999999987,0.023929,-0.0103735999999995,-0.025603599999999,0.0143426000000001,0,sub_11
0.0180815999999998,-0.0493553999999987,0.0295332,-0.0114633999999995,-0.032622999999999,0.0124212000000001,0,sub_11
0.0242723999999998,-0.0544695999999987,0.029993,-0.0116631999999995,-0.030276199999999,0.0117760000000001,0,sub_11
0.0278369999999998,-0.0582641999999987,0.028151,-0.0105635999999995,-0.023036199999999,0.0117744000000001,0,sub_11
0.0295903999999998,-0.0583989999999987,0.0249792000000001,-0.0094429999999995,-0.013230999999999,0.0096332000000001,0,sub_11
0.0327299999999998,-0.0576361999999987,0.0221748000000001,-0.0068085999999995,-0.004261799999999,0.0021626000000001,0,sub_11
0.0344631999999998,-0.0576701999999987,0.0252904000000001,0.0018098000000004,0.0008754000000009,-0.0112433999999998,0,sub_11
0.0348029999999998,-0.0563799999999987,0.0304886,0.0147108000000004,0.0064356000000009,-0.0276109999999998,0,sub_11
0.0336051999999998,-0.0557007999999987,0.0335454000000001,0.0267592000000004,0.0139094000000009,-0.0422779999999998,0,sub_11
0.0281861999999998,-0.0592331999999986,0.0310494000000001,0.0344990000000004,0.0207250000000009,-0.0484283999999997,0,sub_11
0.0194931999999998,-0.0627163999999987,0.0267126,0.0355668000000004,0.0273004000000009,-0.0420199999999998,0,sub_11
0.0117485999999998,-0.0616615999999987,0.018184,0.0269830000000004,0.0336528000000008,-0.0247827999999998,0,sub_11
0.0076499999999998,-0.0585899999999987,0.0119192,0.0106728000000004,0.0334138000000008,-0.0041729999999998,0,sub_11
0.0058581999999998,-0.0550471999999987,0.0100776,-0.0060975999999995,0.0246584000000008,0.0153764000000001,0,sub_11
0.0084361999999998,-0.0473439999999987,0.015245,-0.0192321999999995,0.0127150000000008,0.0298278000000001,0,sub_11
0.0132917999999998,-0.0397913999999987,0.020867,-0.0286981999999995,0.0022808000000008,0.0366116000000001,0,sub_11
0.0193721999999997,-0.0362023999999987,0.0260320000000001,-0.0323697999999995,-0.008355799999999,0.0357450000000001,0,sub_11
0.0219829999999997,-0.0369757999999987,0.0283628,-0.0304715999999995,-0.017930999999999,0.0310704000000001,0,sub_11
0.0241097999999998,-0.0378489999999987,0.0271754000000001,-0.0272691999999995,-0.024518599999999,0.0240510000000001,0,sub_11
0.0285941999999997,-0.0463677999999987,0.0247004000000001,-0.0227413999999995,-0.024933599999999,0.0138382000000001,0,sub_11
0.0322349999999997,-0.0587947999999987,0.0234506000000001,-0.0143471999999995,-0.021943799999999,0.0012980000000001,0,sub_11
0.0330455999999998,-0.0709193999999987,0.0245628,-0.0046637999999995,-0.015131199999999,-0.0093151999999998,0,sub_11
0.0317147999999998,-0.0795453999999987,0.0264404,0.0033240000000004,-0.002785199999999,-0.0169563999999998,0,sub_11
0.0301101999999997,-0.0849493999999987,0.0260458,0.0111128000000004,0.0161526000000009,-0.0211891999999998,0,sub_11
0.0247677999999998,-0.0826595999999987,0.0242436,0.0182510000000004,0.0367976000000009,-0.0220203999999998,0,sub_11
0.0182607999999998,-0.0745599999999987,0.0221154,0.0225846000000004,0.0529688000000009,-0.0205153999999998,0,sub_11
0.0112759999999997,-0.0616937999999987,0.0186538000000001,0.0234802000000004,0.0646744000000009,-0.0181741999999997,0,sub_11
0.0087403999999997,-0.0483229999999987,0.0144718000000001,0.0215838000000004,0.0712806000000009,-0.0169139999999997,0,sub_11
0.0084591999999998,-0.0388523999999987,0.0134538,0.0172876000000004,0.0632062000000008,-0.0186427999999997,0,sub_11
0.0070489999999998,-0.0326097999999987,0.0155034,0.0105790000000004,0.0412890000000009,-0.0197297999999997,0,sub_11
0.0070891999999998,-0.0308887999999987,0.017362,0.0023578000000004,0.0187234000000009,-0.0171945999999997,0,sub_11
0.0100017999999998,-0.0356897999999987,0.0198112,-0.0067083999999995,-0.000224199999999,-0.0129605999999998,0,sub_11
0.0136661999999998,-0.0441557999999987,0.0227832,-0.0136349999999995,-0.016627599999999,-0.0074331999999998,0,sub_11
0.0157673999999998,-0.0513663999999987,0.027094,-0.0156243999999995,-0.024745799999999,-0.0001727999999998,0,sub_11
0.0198893999999998,-0.0575477999999987,0.0302534,-0.0158491999999995,-0.022208799999999,0.0049500000000001,0,sub_11
0.0238329999999998,-0.0612521999999987,0.031988,-0.0132675999999995,-0.014983999999999,0.0075226000000001,0,sub_11
0.0256307999999998,-0.0596553999999987,0.0301884,-0.0076929999999995,-0.007340199999999,0.0092608000000001,0,sub_11
0.0246035999999998,-0.0558833999999987,0.0285182,-0.0031843999999995,-0.000328599999999,0.0101378000000001,0,sub_11
0.0228365999999998,-0.0525805999999987,0.0262292000000001,-0.0023011999999995,0.0062730000000009,0.0101356000000001,0,sub_11
0.0226631999999998,-0.0490853999999987,0.0238562,-0.0014409999999995,0.0090346000000009,0.0114198000000001,0,sub_11
0.0220771999999998,-0.0464995999999987,0.0222372000000001,-0.0027279999999995,0.0088208000000009,0.0126930000000001,0,sub_11
0.0226375999999998,-0.0477395999999987,0.0225144000000001,-0.0067935999999995,0.0064906000000009,0.0128812000000001,0,sub_11
0.0227869999999998,-0.0505761999999987,0.0228354000000001,-0.0093827999999995,0.0007446000000009,0.0135114000000001,0,sub_11
0.0228547999999998,-0.0532503999999987,0.0227244000000001,-0.0104659999999995,-0.002873599999999,0.0135084000000001,0,sub_11
0.0214265999999998,-0.0567437999999987,0.023,-0.0104583999999995,-0.003078999999999,0.0115860000000001,0,sub_11
0.0198287999999998,-0.0595165999999987,0.0242030000000001,-0.0063793999999995,-0.001161199999999,0.0079800000000001,0,sub_11
0.0187629999999998,-0.0598693999999987,0.0240428000000001,-0.0003703999999995,0.0013950000000009,0.0028912000000001,0,sub_11
0.0181325999999998,-0.0583335999999987,0.0242304000000001,0.0073550000000004,0.0048026000000009,-0.0034685999999998,0,sub_11
0.0181195999999998,-0.0557715999999987,0.0235024000000001,0.0140090000000004,0.0075730000000009,-0.0094077999999998,0,sub_11
0.0179015999999998,-0.0528965999999987,0.0221460000000001,0.0189416000000004,0.0086390000000009,-0.0138611999999998,0,sub_11
0.0178655999999998,-0.0515491999999987,0.0206450000000001,0.0191540000000004,0.0063032000000009,-0.0159931999999998,0,sub_11
0.0168769999999998,-0.0524325999999987,0.0203830000000001,0.0170000000000004,0.0031096000000009,-0.0147221999999998,0,sub_11
0.0160541999999998,-0.0550435999999987,0.019513,0.0112180000000004,0.0033232000000009,-0.0098489999999998,0,sub_11
0.0150805999999998,-0.0583129999999987,0.0193724,0.0047870000000004,0.0039558000000009,-0.0026307999999998,0,sub_11
0.0132243999999998,-0.0584363999999987,0.019525,-0.0014371999999995,0.0041572000000009,0.0056576000000001,0,sub_11
0.0131041999999998,-0.0561989999999987,0.019054,-0.0070087999999995,0.0060652000000009,0.0128802000000001,0,sub_11
0.0140499999999998,-0.0526187999999987,0.0193418,-0.0095749999999995,0.0084034000000009,0.0164912000000001,0,sub_11
0.0152273999999998,-0.0481035999999987,0.020736,-0.0100037999999995,0.0073422000000009,0.0158486000000001,0,sub_11
0.0174853999999998,-0.0444541999999987,0.0220314,-0.0095817999999995,0.0024558000000009,0.0120122000000001,0,sub_11
0.0211827999999998,-0.0433257999999987,0.0221922000000001,-0.0080815999999995,-0.002423999999999,0.0056196000000001,0,sub_11
0.0237541999999998,-0.0449103999999987,0.0229666,-0.0052875999999995,-0.005810999999999,-0.0022613999999998,0,sub_11
0.0250029999999998,-0.0501191999999987,0.0238878000000001,-0.0033499999999995,-0.008773199999999,-0.0090805999999998,0,sub_11
0.0271257999999998,-0.0557887999999987,0.0235470000000001,-0.0014141999999995,-0.010251799999999,-0.0139789999999998,0,sub_11
0.0288425999999998,-0.0597855999999987,0.0230212000000001,0.0009722000000004,-0.006829799999999,-0.0193077999999998,0,sub_11
0.0290703999999997,-0.0652601999999987,0.0240738000000001,0.0046350000000004,-0.003203599999999,-0.0235597999999998,0,sub_11
0.0272691999999998,-0.0665871999999987,0.0233936000000001,0.0076404000000004,0.0001972000000009,-0.0241839999999998,0,sub_11
0.0247793999999998,-0.0627481999999987,0.0218362000000001,0.0093772000000004,0.0087056000000009,-0.0222599999999998,0,sub_11
0.0221611999999998,-0.0576647999999987,0.0209766000000001,0.0104728000000004,0.0174278000000009,-0.0199133999999998,0,sub_11
0.0202211999999998,-0.0518973999999987,0.0217148000000001,0.0115248000000004,0.0180444000000009,-0.0158457999999998,0,sub_11
0.0195535999999998,-0.0457857999999987,0.0222266000000001,0.0091438000000004,0.0156852000000009,-0.0105163999999998,0,sub_11
0.0211637999999998,-0.0430169999999987,0.0232746000000001,0.0041984000000004,0.0124828000000009,-0.0052039999999998,0,sub_11
0.0243335999999998,-0.0472489999999987,0.0232026,-0.0011843999999995,0.0065138000000009,-0.0003183999999998,0,sub_11
0.0237619999999998,-0.0539471999999987,0.0243912000000001,-0.0069995999999995,0.0011778000000009,0.0064862000000001,0,sub_11
0.0198447999999998,-0.0595901999999987,0.0255314000000001,-0.0138677999999995,0.0015904000000009,0.0158382000000001,0,sub_11
0.0171557999999998,-0.0607375999999987,0.0238510000000001,-0.0192135999999995,0.0077526000000009,0.0245522000000001,0,sub_11
0.0157699999999998,-0.0608019999999987,0.0214358000000001,-0.0200545999999995,0.0139204000000009,0.0279568000000001,0,sub_11
0.0128335999999998,-0.0568639999999987,0.0224356000000001,-0.0162109999999995,0.0132730000000009,0.0267026000000001,0,sub_11
0.0109953999999998,-0.0501113999999987,0.0231396000000001,-0.0098041999999995,0.0096482000000009,0.0218382000000001,0,sub_11
0.0129623999999998,-0.0445537999999987,0.0201162000000001,-0.0029445999999995,0.0090158000000009,0.0141956000000001,0,sub_11
0.0141021999999998,-0.0431197999999987,0.0185224000000001,0.0028318000000004,0.0043408000000009,0.0061236000000001,0,sub_11
0.0144495999999998,-0.0431893999999987,0.0177886000000001,0.0028126000000004,-0.003739799999999,0.0022882000000001,0,sub_11
0.0156785999999998,-0.0445687999999987,0.0163704000000001,-0.0034047999999995,-0.009473999999999,0.0031068000000001,0,sub_11
0.0186315999999998,-0.0502587999999987,0.0159132000000001,-0.0123989999999995,-0.013291199999999,0.0064672000000001,0,sub_11
0.0206619999999998,-0.0564503999999987,0.0187214000000001,-0.0205415999999995,-0.017325399999999,0.0100476000000001,0,sub_11
0.0230743999999998,-0.0599793999999987,0.0218836000000001,-0.0260911999999995,-0.016458799999999,0.0112896000000001,0,sub_11
0.0239311999999998,-0.0630105999999987,0.0269680000000001,-0.0224283999999995,-0.011771599999999,0.0081044000000001,0,sub_11
0.0247869999999998,-0.0640249999999987,0.0308890000000001,-0.0110601999999995,-0.005392399999999,0.0013390000000001,0,sub_11
0.0257481999999998,-0.0583703999999987,0.0295814,0.0024638000000004,0.0022722000000009,-0.0090447999999998,0,sub_11
0.0255229999999998,-0.0540437999999987,0.0265132000000001,0.0155552000000004,0.0086602000000009,-0.0194301999999998,0,sub_11
0.0225897999999998,-0.0530065999999987,0.0234490000000001,0.0258364000000004,0.0107814000000009,-0.0259841999999998,0,sub_11
0.0194435999999998,-0.0506087999999987,0.0201644000000001,0.0279768000000004,0.0114166000000009,-0.0268245999999998,0,sub_11
0.0176343999999998,-0.0476929999999987,0.0160922000000001,0.0224166000000004,0.0116372000000009,-0.0238727999999998,0,sub_11
0.0164731999999998,-0.0487565999999987,0.0154252000000001,0.0140538000000004,0.0092954000000009,-0.0170915999999997,0,sub_11
0.0157693999999998,-0.0495605999999987,0.0162270000000001,0.0050404000000004,0.0050366000000009,-0.0098851999999997,0,sub_11
0.0167871999999998,-0.0504097999999987,0.0189492000000001,-0.0022535999999995,0.0016318000000009,-0.0045905999999997,0,sub_11
0.0177707999999998,-0.0525743999999987,0.0213992,-0.0052647999999995,-0.000288999999999,-0.0011907999999997,0,sub_11
0.0187269999999998,-0.0535621999999987,0.0242604000000001,-0.0039931999999995,0.0001232000000009,0.0011678000000001,0,sub_11
0.0202909999999998,-0.0535741999999987,0.0255344000000001,-0.0007829999999995,0.0022426000000009,0.0011874000000001,0,sub_11
0.0217199999999998,-0.0544393999999987,0.0269206000000001,0.0034892000000004,0.0022320000000009,0.0001490000000001,0,sub_11
0.0219487999999998,-0.0542431999999987,0.0255970000000001,0.0054048000000004,0.0011600000000009,0.0001638000000001,0,sub_11
0.0224851999999998,-0.0527319999999987,0.0229500000000001,0.0041178000000004,9.760000000094416e-05,0.0005834000000001,0,sub_11
0.0223487999999998,-0.0545601999999987,0.0207450000000001,0.0002656000000004,-0.001384599999999,0.0016266000000001,0,sub_11
0.0209259999999998,-0.0576605999999987,0.0198336,-0.0033759999999995,-0.002657799999999,0.0035256000000001,0,sub_11
0.0192235999999998,-0.0591209999999987,0.0193328000000001,-0.0065841999999995,-0.001167999999999,0.0067060000000001,0,sub_11
0.0186259999999998,-0.0588679999999987,0.0188830000000001,-0.0072205999999995,0.0015962000000009,0.0086208000000001,0,sub_11
0.0180183999999998,-0.0591143999999987,0.0185750000000001,-0.0052885999999995,0.0039338000000009,0.0084176000000001,0,sub_11
0.0175785999999998,-0.0572309999999987,0.0182276000000001,-0.0018649999999995,0.0032938000000009,0.0056648000000001,0,sub_11
0.0168141999999998,-0.0540201999999987,0.0185170000000001,0.0009194000000004,0.0015958000000009,0.0016272000000001,0,sub_11
0.0168687999999998,-0.0523121999999987,0.0183466000000001,0.0030664000000004,-0.000946199999999,-0.0039093999999997,0,sub_11
0.0163383999999998,-0.0519447999999987,0.0196778000000001,0.0049896000000004,-0.005194399999999,-0.0088043999999997,0,sub_11
0.0181103999999998,-0.0513363999999987,0.0219282,0.0064822000000004,-0.009019999999999,-0.0124209999999997,0,sub_11
0.0209547999999998,-0.0507913999999987,0.0247142,0.0084092000000004,-0.010293999999999,-0.0151831999999997,0,sub_11
0.0240471999999998,-0.0512921999999987,0.0264904,0.0111878000000004,-0.010723799999999,-0.0166587999999997,0,sub_11
0.0254771999999998,-0.0509361999999987,0.027532,0.0130996000000004,-0.010738199999999,-0.0147225999999998,0,sub_11
0.0275933999999998,-0.0505047999999987,0.0267512,0.0115964000000004,-0.008194999999999,-0.0100361999999998,0,sub_11
0.0278021999999998,-0.0509821999999987,0.0252788,0.0073098000000004,-0.006075199999999,-0.0036593999999998,0,sub_11
0.0264365999999998,-0.0535857999999987,0.0238554,0.0002320000000004,-0.005870799999999,0.0046230000000001,0,sub_11
0.0251935999999998,-0.0531373999999987,0.0227286,-0.0083393999999995,-0.005236799999999,0.0133218000000001,0,sub_11
0.0247801999999997,-0.0528317999999986,0.0218492000000001,-0.0158121999999995,-0.001607599999999,0.0179652000000001,0,sub_11
0.0229615999999998,-0.0536613999999987,0.0211492,-0.0200715999999995,0.0018080000000009,0.0196412000000001,0,sub_11
0.0215281999999998,-0.0544157999999987,0.0186226000000001,-0.0228327999999995,0.0056472000000009,0.0206860000000001,0,sub_11
0.0203735999999998,-0.0546111999999987,0.0154202000000001,-0.0249451999999995,0.0094918000000009,0.0198126000000001,0,sub_11
0.0190937999999998,-0.0591039999999987,0.0160646000000001,-0.0251429999999995,0.0092926000000009,0.0161804000000001,0,sub_11
0.0196979999999998,-0.0627295999999987,0.0213624000000001,-0.0217335999999995,0.0039702000000009,0.0119390000000001,0,sub_11
0.0228405999999998,-0.0651621999999987,0.0282218,-0.0119011999999995,0.0014048000000009,0.0056016000000001,0,sub_11
