userAcceleration.x,userAcceleration.y,userAcceleration.z,rotationRate.x,rotationRate.y,rotationRate.z,label,subject
0.0016293999999997,-0.0020339999999987,-0.0078797999999999,-0.0012831999999995,8.120000000093432e-05,-0.0003551999999999,0,sub_3
0.0016721999999997,-0.0025387999999987,-0.0079789999999999,-0.0012861999999995,-0.000133599999999,7.240000000008726e-05,0,sub_3
0.0018407999999997,-0.0032659999999987,-0.0078077999999999,-0.0012891999999995,-0.000772799999999,7.320000000008726e-05,0,sub_3
0.0013401999999997,-0.0028793999999987,-0.0084569999999999,-0.0006437999999995,-0.000350799999999,-0.0001349999999999,0,sub_3
0.0014867999999997,-0.0028523999999987,-0.0082201999999998,-0.0004251999999995,7.260000000089425e-05,-0.0003461999999999,0,sub_3
0.0014367999999997,-0.0023585999999987,-0.0086655999999998,-0.0002091999999995,6.920000000089427e-05,-0.0003431999999999,0,sub_3
0.0019893999999997,-0.0017229999999987,-0.0080857999999998,-0.0002047999999995,0.0002804000000008,-0.0005555999999999,0,sub_3
0.0019489999999997,-0.0008457999999987,-0.0074943999999998,1.2000000000407518e-05,0.0004900000000008,-0.0005527999999999,0,sub_3
0.0021487999999997,-0.0005253999999987,-0.0071319999999998,-0.0004167999999995,0.0002776000000008,-0.0003417999999999,0,sub_3
0.0022333999999997,-0.0008333999999987,-0.0074695999999998,-0.0008453999999995,0.0002774000000008,8.240000000008722e-05,0,sub_3
0.0021601999999997,-0.0011341999999987,-0.0075617999999998,-0.0008453999999995,6.520000000087429e-05,-0.0001307999999999,0,sub_3
0.0015341999999997,-0.0019809999999987,-0.0083703999999998,-0.0002071999999995,-0.0001507999999991,8.760000000008721e-05,0,sub_3
0.0017039999999997,-0.0027205999999987,-0.0084877999999998,-0.0002047999999995,5.740000000089432e-05,0.0003028,0,sub_3
0.0008753999999997,-0.0036083999999987,-0.0091007999999998,9.20000000042768e-06,5.100000000089433e-05,0.0007334,0,sub_3
0.0006891999999997,-0.0035223999999987,-0.0091665999999998,0.0002308000000004,0.0006880000000008,9.520000000008723e-05,0,sub_3
0.0013487999999997,-0.0032303999999987,-0.0091335999999998,0.0004580000000003,0.0023910000000008,-0.0007581999999999,0,sub_3
0.0015301999999997,-0.0027015999999987,-0.0084073999999998,3.2800000000367624e-05,0.0021754000000009,-0.0007589999999999,0,sub_3
0.0017805999999997,-0.0029639999999987,-0.0087659999999998,-0.0001861999999996,0.0011102000000009,-0.0005455999999999,0,sub_3
0.0026163999999997,-0.0023671999999987,-0.0085847999999998,-0.0001871999999996,0.0004726000000009,-0.0009721999999999,0,sub_3
0.0022259999999997,-0.0027713999999987,-0.0085403999999998,0.0002298000000003,-0.000386399999999,-0.0001149999999999,0,sub_3
0.0014089999999997,-0.0033341999999987,-0.0083965999999998,0.0002164000000003,-0.001671599999999,0.0011672,0,sub_3
0.0014631999999997,-0.0037287999999987,-0.0087155999999999,0.0004298000000003,-0.0014603999999991,0.0009534,0,sub_3
0.0014787999999997,-0.0033121999999987,-0.0089047999999999,0.0004354000000004,-0.0008189999999991,-0.0001167999999999,0,sub_3
0.0015697999999997,-0.0028507999999987,-0.0088077999999999,1.1600000000407723e-05,3.3800000000894184e-05,-0.0003357999999999,0,sub_3
0.0020809999999997,-0.0018211999999987,-0.0087165999999999,-0.0001969999999995,0.0006754000000008,-0.0007653999999998,0,sub_3
0.0020055999999997,-0.0014459999999987,-0.0083153999999999,-0.0008361999999995,0.0006784000000008,-0.0009835999999998,0,sub_3
0.0019905999999997,-0.0012705999999987,-0.0086853999999999,-0.0021145999999995,0.0008968000000008,-0.0012063999999998,0,sub_3
0.0018943999999997,-0.0012299999999987,-0.0082599999999999,-0.0027517999999995,0.0015344000000008,-0.0009973999999999,0,sub_3
0.0012843999999997,-0.0020471999999987,-0.0080859999999999,-0.0023261999999995,0.0013160000000008,-0.0007797999999999,0,sub_3
0.0011735999999997,-0.0030493999999987,-0.0083411999999999,-0.0027537999999996,0.0006762000000008,-0.0009949999999999,0,sub_3
0.0017269999999997,-0.0036267999999987,-0.0086635999999999,-0.0029643999999996,0.0006758000000008,-0.0014231999999999,0,sub_3
0.0021103999999997,-0.0033851999999987,-0.0085911999999999,-0.0021109999999995,0.0006690000000008,-0.0012029999999999,0,sub_3
0.0018377999999997,-0.0037733999999987,-0.0091093999999998,-0.0014737999999995,0.0004520000000008,-0.0007709999999999,0,sub_3
0.0021465999999997,-0.0036135999999987,-0.0091633999999998,-0.0018975999999995,0.0010926000000008,-0.0007747999999999,0,sub_3
0.0017805999999997,-0.0033101999999987,-0.0091253999999998,-0.0021081999999995,0.0015204000000008,-0.0009903999999999,0,sub_3
0.0015743999999997,-0.0023973999999987,-0.0089885999999998,-0.0016773999999995,0.0017302000000008,-0.0011999999999999,0,sub_3
0.0009543999999997,-0.0017229999999987,-0.0089567999999998,-0.0018867999999995,0.0013058000000008,-0.0020543999999999,0,sub_3
0.0010803999999997,-0.0010519999999987,-0.0085507999999999,-0.0018855999999995,0.0008780000000008,-0.0022663999999998,0,sub_3
0.0011795999999997,-0.0002941999999987,-0.0090597999999999,-0.0012481999999995,2.0200000000894046e-05,-0.0020459999999998,0,sub_3
0.0019419999999997,0.0007010000000012,-0.0086447999999999,2.8400000000407527e-05,-0.0006285999999991,-0.0013941999999998,0,sub_3
0.0020923999999997,0.0001812000000012,-0.0086403999999999,0.0010866000000004,-0.0012765999999991,-0.0001041999999998,0,sub_3
0.0025919999999997,-0.0005199999999987,-0.0082731999999999,0.0021430000000003,-0.0017141999999991,0.0018266000000001,0,sub_3
0.0025579999999997,-0.0007513999999987,-0.0085611999999999,0.0029908000000003,-0.0019343999999991,0.0029012,0,sub_3
0.0024821999999997,-0.0014005999999987,-0.0083435999999999,0.0032014000000003,-0.0021537999999991,0.0037586,0,sub_3
0.0021251999999997,-0.0023009999999987,-0.0089029999999999,0.0029890000000003,-0.0019437999999991,0.0041852,0,sub_3
0.0017693999999997,-0.0031259999999987,-0.0091295999999999,0.0021404000000003,-0.0015159999999991,0.0039662,0,sub_3
0.0014819999999997,-0.0035827999999987,-0.0092683999999999,0.0012994000000003,-2.0399999999105856e-05,0.0031048,0,sub_3
0.0016241999999997,-0.0046371999999987,-0.0094029999999998,-0.0001807999999996,0.0012660000000008,0.0018118,0,sub_3
0.0017931999999997,-0.0046595999999987,-0.0089301999999998,-0.0008055999999996,0.0029796000000008,9.600000000006703e-05,0,sub_3
0.0015313999999997,-0.0049229999999987,-0.0091459999999998,-0.0020753999999995,0.0044788000000008,-0.0007693999999999,0,sub_3
0.0019159999999997,-0.0046573999999987,-0.0095649999999998,-0.0029163999999995,0.0061904000000008,-0.0018457999999999,0,sub_3
0.0022863999999997,-0.0035943999999987,-0.0094095999999998,-0.0033259999999995,0.0085414000000008,-0.0033471999999999,0,sub_3
0.0018885999999997,-0.0018101999999987,-0.0086723999999998,-0.0026865999999996,0.0081102000000008,-0.0033405999999999,0,sub_3
0.0016555999999997,-0.0012039999999987,-0.0086559999999998,-0.0033321999999996,0.0070426000000008,-0.0029147999999999,0,sub_3
0.0021145999999997,-0.0004763999999987,-0.0080721999999998,-0.0031203999999995,0.0066122000000008,-0.0026975999999999,0,sub_3
0.0019275999999997,2.240000000122318e-05,-0.0078077999999998,-0.0029125999999995,0.0061784000000008,-0.0016257999999999,0,sub_3
0.0012621999999997,-0.0004881999999987,-0.0075361999999998,-0.0022873999999995,0.0044614000000008,0.0003052,0,sub_3
0.0011409999999997,-0.0017183999999987,-0.0077273999999998,-0.0016463999999996,0.0048844000000008,0.0005228,0,sub_3
0.0012153999999997,-0.0020661999999987,-0.0080631999999998,-0.0010013999999996,0.0057352000000008,0.0003124,0,sub_3
0.0011903999999997,-0.0022489999999987,-0.0084593999999998,-0.0007813999999996,0.0059468000000008,-0.0001107999999999,0,sub_3
0.0010303999999997,-0.0025835999999987,-0.0084299999999998,-0.0001325999999996,0.0059464000000008,-0.0011715999999999,0,sub_3
0.0013855999999997,-0.0031839999999987,-0.0091037999999998,-0.0011919999999996,0.0057388000000008,-0.0022441999999999,0,sub_3
0.0012057999999998,-0.0032855999999987,-0.0092203999999998,-0.0031037999999996,0.0061718000000008,-0.0028961999999999,0,sub_3
0.0014433999999998,-0.0034037999999987,-0.0090453999999998,-0.0048041999999995,0.0066022000000008,-0.0031193999999999,0,sub_3
0.0014273999999998,-0.0043197999999987,-0.0088133999999998,-0.0058661999999995,0.0074590000000008,-0.0033413999999999,0,sub_3
0.0016703999999998,-0.0046615999999987,-0.0086465999999998,-0.0075703999999995,0.0074674000000008,-0.0039941999999999,0,sub_3
0.0015267999999998,-0.0043377999999987,-0.0085883999999998,-0.0075663999999995,0.0076830000000008,-0.0046353999999999,0,sub_3
0.0021263999999997,-0.0038613999999987,-0.0085153999999998,-0.0069185999999995,0.0074652000000008,-0.0048389999999999,0,sub_3
0.0020937999999997,-0.0037401999999987,-0.0083709999999998,-0.0054165999999995,0.0074576000000008,-0.0050367999999999,0,sub_3
0.0021465999999997,-0.0022521999999987,-0.0079115999999998,-0.0045563999999995,0.0070258000000008,-0.0052385999999999,0,sub_3
0.0020537999999997,-0.0008405999999987,-0.0079333999999998,-0.0039095999999995,0.0072316000000008,-0.0048017999999999,0,sub_3
0.0020321999999997,-0.0005795999999987,-0.0080965999999998,-0.0041173999999995,0.0072272000000008,-0.0043705999999999,0,sub_3
0.0020033999999997,-0.0006549999999987,-0.0084631999999998,-0.0045469999999996,0.0070140000000008,-0.0039459999999999,0,sub_3
0.0016373999999997,-0.0012437999999987,-0.0084037999999999,-0.0049783999999996,0.0065868000000008,-0.0033073999999999,0,sub_3
0.0009815999999997,-0.0020635999999987,-0.0089767999999999,-0.0054061999999996,0.0065874000000008,-0.0030967999999999,0,sub_3
0.0010237999999997,-0.0034019999999987,-0.0093579999999998,-0.0056215999999996,0.0063742000000008,-0.0028843999999999,0,sub_3
0.0014077999999997,-0.0041377999999987,-0.0092153999999998,-0.0054043999999996,0.0065860000000008,-0.0028811999999999,0,sub_3
0.0015231999999997,-0.0042965999999987,-0.0091079999999998,-0.0051843999999996,0.0072246000000008,-0.0030921999999999,0,sub_3
0.0017997999999997,-0.0037803999999987,-0.0093653999999998,-0.0051747999999996,0.0080788000000008,-0.0037323999999999,0,sub_3
0.0017479999999997,-0.0030787999999987,-0.0087871999999998,-0.0049547999999996,0.0082932000000008,-0.0043701999999999,0,sub_3
0.0017577999999997,-0.0019929999999987,-0.0085483999999998,-0.0043069999999996,0.0087190000000008,-0.0050053999999999,0,sub_3
0.0018137999999997,-0.0010205999999987,-0.0080765999999998,-0.0049451999999996,0.0085108000000008,-0.0056505999999999,0,sub_3
0.0016601999999997,-0.0008179999999987,-0.0079711999999998,-0.0051603999999996,0.0080856000000008,-0.0056515999999999,0,sub_3
0.0017019999999997,-0.0011235999999987,-0.0082655999999998,-0.0051681999999996,0.0070178000000008,-0.0050093999999998,0,sub_3
0.0018929999999997,-0.0016947999999987,-0.0086987999999999,-0.0051679999999996,0.0063678000000008,-0.0045791999999998,0,sub_3
0.0025381999999997,-0.0016911999999987,-0.0084577999999999,-0.0045247999999996,0.0063548000000008,-0.0041451999999998,0,sub_3
0.0029063999999997,-0.0017263999999987,-0.0087161999999998,-0.0028243999999996,0.0048440000000008,-0.0030609999999998,0,sub_3
0.0026369999999997,-0.0018235999999987,-0.0083675999999998,-0.0015537999999996,0.0026954000000008,-0.0019791999999998,0,sub_3
0.0025817999999997,-0.0016389999999987,-0.0082889999999998,-0.0002771999999996,0.0014008000000008,-0.0013255999999998,0,sub_3
0.0024505999999997,-0.0015187999999987,-0.0085735999999998,0.0012020000000003,-0.000314799999999,0.0001824000000001,0,sub_3
0.0011731999999997,-0.0018699999999987,-0.0084451999999998,0.0022554000000003,-0.001815999999999,0.0016872,0,sub_3
0.0003971999999997,-0.0020351999999987,-0.0086089999999998,0.0031114000000003,-0.002478199999999,0.0021248,0,sub_3
0.0010175999999997,-0.0018911999999987,-0.0090303999999998,0.0037608000000003,-0.002709199999999,0.0014924,0,sub_3
0.0006599999999997,-0.0015207999999987,-0.0091027999999998,0.0039796000000003,-0.003578799999999,0.0010712,0,sub_3
0.0007715999999997,-0.0016221999999987,-0.0089317999999999,0.0039860000000003,-0.003810199999999,0.001075,0,sub_3
0.0015129999999997,-0.0019445999999987,-0.0091971999999999,0.0024968000000003,-0.005098999999999,0.0004288,0,sub_3
0.0018033999999997,-0.0021889999999987,-0.0093621999999999,0.0014308000000003,-0.004882199999999,0.000421,0,sub_3
0.0017867999999997,-0.0021767999999987,-0.0095777999999999,0.0001516000000003,-0.004240199999999,0.0008384,0,sub_3
0.0024399999999997,-0.0028787999999987,-0.0094567999999999,-0.0002733999999996,-0.003600399999999,0.0010484,0,sub_3
0.0030357999999997,-0.0029683999999987,-0.0094207999999999,-0.0006823999999996,-0.003836199999999,0.0002016,0,sub_3
0.0030981999999997,-0.0027665999999987,-0.0095473999999998,-2.5399999999632036e-05,-0.003439799999999,0.000216,0,sub_3
0.0031713999999997,-0.0022899999999987,-0.0096139999999998,0.0006288000000003,-0.003470399999999,0.0004446,0,sub_3
0.0028347999999997,-0.0025623999999987,-0.0096451999999998,0.0014990000000003,-0.003287199999999,0.000247,0,sub_3
0.0027977999999997,-0.0020035999999987,-0.0095303999999998,0.0015160000000003,-0.003312999999999,-0.0001699999999999,0,sub_3
0.0024833999999997,-0.0016367999999987,-0.0094071999999998,0.0015160000000003,-0.002888599999999,0.0002568,0,sub_3
0.0022877999999997,-0.0014929999999987,-0.0093437999999999,0.0017264000000003,-0.0035285999999991,0.000259,0,sub_3
0.0020489999999997,-0.0021473999999987,-0.0086755999999999,0.0012978000000003,-0.0039531999999991,0.0002564,0,sub_3
0.0016735999999997,-0.0019359999999987,-0.0084981999999999,0.0008664000000003,-0.004592399999999,0.0006816,0,sub_3
0.0017415999999997,-0.0021543999999987,-0.0085587999999999,0.0006734000000003,-0.004624999999999,0.000696,0,sub_3
0.0019813999999997,-0.0025503999999987,-0.0085491999999999,0.0009082000000003,-0.004445999999999,0.000713,0,sub_3
0.0023571999999997,-0.0026583999999987,-0.0082001999999999,0.0011448000000003,-0.003840999999999,0.0007294,0,sub_3
0.0021931999999997,-0.0024929999999987,-0.0089955999999999,0.0013814000000003,-0.003448199999999,0.0005326,0,sub_3
0.0028805999999997,-0.0023969999999987,-0.0091789999999999,0.0018322000000003,-0.0030553999999991,0.0001234,0,sub_3
0.0021393999999997,-0.0025719999999987,-0.0094027999999999,0.0020464000000003,-0.002843199999999,0.0001246000000001,0,sub_3
0.0020675999999997,-0.0025439999999987,-0.0100565999999998,0.0014052000000004,-0.002841799999999,0.0003336000000001,0,sub_3
0.0018805999999997,-0.0028451999999987,-0.0100221999999998,0.0005798000000004,-0.002237799999999,0.0001336000000001,0,sub_3
0.0023893999999997,-0.0027673999999987,-0.0093041999999998,0.0008240000000003,-0.001210599999999,-0.0002731999999998,0,sub_3
0.0018929999999997,-0.0031199999999987,-0.0090171999999998,0.0010548000000003,-0.002104999999999,0.0003906000000001,0,sub_3
0.0022771999999997,-0.0034845999999987,-0.0084473999999998,0.0014962000000003,-0.003214999999999,0.0014834,0,sub_3
0.0023135999999997,-0.0035417999999987,-0.0075257999999998,0.0027930000000003,-0.004538399999999,0.0019416,0,sub_3
0.0021829999999997,-0.0036137999999987,-0.0082649999999998,0.0042760000000003,-0.005613999999999,0.0032352,0,sub_3
0.0014743999999997,-0.0037417999999987,-0.0088533999999999,0.0042654000000003,-0.006472199999999,0.0047316,0,sub_3
0.0015407999999997,-0.0037567999999987,-0.0088645999999999,0.0046970000000003,-0.005408399999999,0.0047334,0,sub_3
0.0019897999999997,-0.0031151999999987,-0.0094163999999999,0.0044942000000003,-0.0043371999999991,0.0034488,0,sub_3
0.0023915999999997,-0.0028403999999987,-0.0096987999999999,0.0038798000000003,-0.0032919999999991,0.002176,0,sub_3
0.0022659999999997,-0.0029153999999987,-0.0092377999999999,0.0028330000000003,-0.0028867999999991,0.0015418,0,sub_3
0.0023131999999997,-0.0031569999999987,-0.0088239999999999,0.0017842000000003,-0.003119999999999,0.0006948,0,sub_3
0.0024311999999997,-0.0031123999999987,-0.0091825999999999,0.0003068000000003,-0.003141199999999,0.0004854,0,sub_3
0.0022523999999997,-0.0028993999999987,-0.0085143999999999,-0.0003181999999996,-0.002953999999999,0.000709,0,sub_3
0.0017867999999997,-0.0034299999999987,-0.0085117999999998,-0.0007419999999996,-0.002101199999999,0.0009186,0,sub_3
0.0019211999999997,-0.0032435999999987,-0.0084395999999998,-0.0011629999999996,-0.001882399999999,-0.0001527999999999,0,sub_3
0.0023077999999997,-0.0034611999999987,-0.0083449999999998,-0.0007313999999996,-0.0012429999999991,-0.0005777999999999,0,sub_3
0.0026561999999997,-0.0035123999999987,-0.0078847999999998,-0.0002967999999996,-0.0008279999999991,-0.0005679999999999,0,sub_3
0.0025325999999997,-0.0039505999999987,-0.0080909999999998,0.0001380000000003,-0.0004129999999991,-0.0005583999999999,0,sub_3
0.0021909999999997,-0.0034359999999987,-0.0081377999999999,0.0001440000000003,-0.0004223999999991,-0.0005511999999999,0,sub_3
0.0022311999999997,-0.0030887999999987,-0.0080651999999999,-6.13999999996122e-05,0.0002070000000008,-0.0003325999999999,0,sub_3
0.0028735999999997,-0.0027711999999987,-0.0078475999999999,-0.0004801999999996,0.0004128000000008,-0.0005421999999999,0,sub_3
0.0029613999999997,-0.0028717999999987,-0.0077981999999999,-0.0009029999999996,0.0006298000000008,-0.0011863999999999,0,sub_3
0.0028017999999997,-0.0027629999999987,-0.0082999999999999,-0.0013335999999996,-0.0004331999999991,-0.0014015999999999,0,sub_3
0.0034053999999997,-0.0029537999999987,-0.0084303999999998,-0.0011225999999996,-0.0010729999999991,-0.0011809999999999,0,sub_3
0.0034703999999997,-0.0033349999999987,-0.0083837999999998,-5.899999999961214e-05,-0.0015041999999991,-0.0005273999999999,0,sub_3
0.0026167999999997,-0.0028061999999987,-0.0087515999999998,0.0012160000000003,-0.0023621999999991,0.0001282,0,sub_3
0.0020355999999997,-0.0019759999999987,-0.0086217999999998,0.0022806000000003,-0.0032169999999991,0.0001414,0,sub_3
0.0021015999999997,-0.0014377999999987,-0.0079053999999998,0.0022830000000003,-0.002790599999999,0.0003592,0,sub_3
0.0014987999999997,-0.0019691999999987,-0.0084623999999998,0.0016438000000003,-0.002575199999999,0.0003546,0,sub_3
0.0017237999999997,-0.0017269999999987,-0.0091363999999999,0.0005808000000004,-0.002143599999999,-8.059999999991273e-05,0,sub_3
0.0020851999999997,-0.0016723999999987,-0.0093335999999999,0.0003790000000003,-1.0599999999085648e-05,-0.0005119999999999,0,sub_3
0.0022737999999997,-0.0014039999999987,-0.0091085999999999,0.0007970000000003,-9.599999999085688e-06,0.0009872,0,sub_3
0.0023451999999997,-0.0022987999999987,-0.0095439999999999,0.0018532000000003,-0.0006491999999991,0.0022782,0,sub_3
0.0031617999999997,-0.0019521999999987,-0.0085081999999999,0.0033372000000003,-0.0017137999999991,0.0029316,0,sub_3
0.0030483999999997,-0.0019393999999987,-0.0079583999999999,0.0048210000000003,-0.0025661999999991,0.0037984,0,sub_3
0.0028371999999997,-0.0029031999999987,-0.0080637999999999,0.0050228000000003,-0.004052599999999,0.0044434,0,sub_3
0.0026305999999997,-0.0045009999999987,-0.0085355999999999,0.0041778000000003,-0.002768799999999,0.003795,0,sub_3
0.0025825999999997,-0.0049087999999987,-0.0087999999999999,0.0026996000000003,-0.000627799999999,0.0025,0,sub_3
0.0020423999999997,-0.0044421999999987,-0.0088897999999999,0.0010080000000003,0.0015138000000009,0.0012036,0,sub_3
0.0019287999999997,-0.0041763999999987,-0.0085547999999999,-0.0002693999999996,0.0030284000000009,0.0001186,0,sub_3
0.0017301999999997,-0.0031659999999987,-0.0077899999999999,-0.0013381999999995,0.0036894000000008,-0.0007501999999999,0,sub_3
0.0021703999999997,-0.0019543999999987,-0.0077259999999999,-0.0026241999999995,0.0034990000000008,-0.0016193999999998,0,sub_3
0.0020959999999997,-0.0003711999999987,-0.0073851999999999,-0.0022079999999995,0.0030860000000008,-0.0016217999999998,0,sub_3
0.0021049999999997,3.620000000124298e-05,-0.0072869999999999,-0.0013679999999995,0.0028812000000008,-0.0007669999999998,0,sub_3
0.0018379999999997,1.0600000001222956e-05,-0.0074669999999999,-0.0007325999999995,0.0022382000000008,-0.0003343999999998,0,sub_3
0.0022411999999997,-0.0003469999999987,-0.0081897999999999,-0.0007403999999996,0.0009582000000008,9.46000000001072e-05,0,sub_3
0.0023403999999997,-0.0012763999999987,-0.0087743999999998,0.0003178000000003,-0.0001141999999991,0.000958,0,sub_3
0.0022669999999997,-0.0023393999999987,-0.0088955999999998,0.0013694000000003,-0.0009601999999991,0.002029,0,sub_3
0.0022775999999997,-0.0035643999999987,-0.0090961999999998,0.0020000000000003,-0.0013751999999991,0.002242,0,sub_3
0.0018855999999997,-0.0039799999999987,-0.0090953999999998,0.0017810000000003,-0.0015715999999991,0.0018078,0,sub_3
0.0012115999999997,-0.0037681999999987,-0.0084297999999998,0.0024164000000003,-0.0013457999999991,0.0015926,0,sub_3
0.0009143999999997,-0.0036445999999987,-0.0078253999999998,0.0026242000000003,-0.0015437999999991,0.0011614,0,sub_3
0.0008749999999997,-0.0034821999999987,-0.0078867999999998,0.0015592000000003,-0.0019627999999991,0.0003,0,sub_3
0.0006661999999997,-0.0029575999999987,-0.0084111999999998,0.0002790000000003,-0.0023827999999991,-0.0001357999999999,0,sub_3
0.0007553999999997,-0.0029839999999987,-0.0086933999999998,-0.0005753999999996,-0.0021683999999991,0.0002852,0,sub_3
0.0014713999999997,-0.0031223999999987,-0.0094411999999998,-0.0014277999999996,-0.0017399999999991,0.0004924,0,sub_3
0.0017237999999997,-0.0029033999999987,-0.0094827999999998,-0.0020657999999996,-0.0008727999999991,5.740000000006712e-05,0,sub_3
0.0016827999999997,-0.0023869999999987,-0.0085017999999998,-0.0020599999999996,0.0004200000000008,-0.0008009999999999,0,sub_3
0.0013903999999997,-0.0021657999999987,-0.0079751999999998,-0.0014197999999996,0.0012810000000008,-0.0007995999999999,0,sub_3
0.0019921999999997,-0.0021861999999987,-0.0077421999999998,-0.0018503999999995,0.0008690000000009,-0.0012313999999998,0,sub_3
0.0019243999999997,-0.0026199999999987,-0.0072847999999998,-0.0012025999999995,0.0021612000000009,-0.0025123999999998,0,sub_3
0.0017625999999998,-0.0015329999999987,-0.0069625999999999,7.46000000003879e-05,0.0015176000000009,-0.0025025999999998,0,sub_3
0.0019777999999998,-0.0021543999999986,-0.0077757999999999,0.0002728000000003,-0.000406599999999,-0.0010031999999999,0,sub_3
0.0027639999999997,-0.0022803999999987,-0.0073961999999999,0.0002566000000003,-0.002101799999999,-0.0003635999999999,0,sub_3
0.0026767999999997,-0.0019365999999987,-0.0078605999999999,0.0010998000000003,-0.0023093999999991,0.0004938,0,sub_3
0.0030245999999997,-0.0022755999999987,-0.0073911999999999,0.0012962000000003,-0.0033695999999991,0.0019886,0,sub_3
0.0026415999999997,-0.0040761999999987,-0.0070897999999999,0.0010802000000003,-0.0018691999999991,0.0028364,0,sub_3
0.0022065999999997,-0.0032431999999987,-0.0068493999999999,2.4000000000347877e-05,0.0009194000000008,0.0019676,0,sub_3
0.0025971999999997,-0.0019319999999987,-0.0076471999999998,-0.0003929999999996,0.0019904000000008,0.0008952000000001,0,sub_3
0.0028223999999997,-0.0014763999999987,-0.0072295999999998,0.0010996000000003,0.0015598000000008,0.0006926000000001,0,sub_3
0.0019723999999997,-0.0009427999999987,-0.0073529999999998,0.0017386000000003,0.0013444000000009,0.0006974,0,sub_3
0.0016717999999997,-0.0002465999999987,-0.0080471999999998,0.0006610000000003,0.0002926000000009,0.000258,0,sub_3
0.0018967999999997,-0.0007021999999987,-0.0085099999999998,0.0006482000000003,-0.001613599999999,-0.0006001999999999,0,sub_3
0.0015101999999997,-0.0022807999999987,-0.0091035999999998,0.0006364000000003,-0.002245599999999,-0.0003917999999999,0,sub_3
0.0012317999999997,-0.0038615999999987,-0.0096991999999998,0.0002036000000003,-0.002234399999999,-0.0008279999999999,0,sub_3
0.0016845999999997,-0.0043953999999987,-0.0100019999999998,-0.0004453999999996,-0.002437199999999,-0.0008381999999999,0,sub_3
0.0023335999999997,-0.0040987999999987,-0.0098605999999998,-0.0004511999999995,-0.002866599999999,1.6800000000067283e-05,0,sub_3
0.0026721999999997,-0.0037289999999987,-0.0094539999999998,-3.299999999959204e-05,-0.002875599999999,0.0019426,0,sub_3
0.0028229999999997,-0.0029435999999987,-0.0081281999999999,0.0001784000000004,-0.002453599999999,0.0027982,0,sub_3
0.0033903999999997,-0.0010191999999987,-0.0072241999999999,-0.0002521999999996,-0.001810399999999,0.0030028,0,sub_3
0.0036389999999997,0.0005848000000012,-0.0070491999999999,0.0001678000000003,-0.002445999999999,0.0025742,0,sub_3
0.0034523999999997,0.0009654000000012,-0.0070051999999999,0.0014422000000003,-0.003295999999999,0.0017246,0,sub_3
0.0031831999999997,0.0003604000000012,-0.0071053999999998,0.0027166000000003,-0.004358199999999,0.0006614,0,sub_3
0.0026559999999997,-0.0005713999999987,-0.0077517999999998,0.0031288000000003,-0.006486199999999,0.0004482,0,sub_3
