userAcceleration.x,userAcceleration.y,userAcceleration.z,rotationRate.x,rotationRate.y,rotationRate.z,label,subject
0.0249587999999997,0.0342086000000012,-0.0056033999999998,-1.799999999588459e-06,-0.0027703999999991,-0.0016457999999999,0,sub_21
0.0246867999999997,0.0332902000000012,-0.0042731999999999,-0.0002073999999995,-0.0004287999999991,-0.0010093999999999,0,sub_21
0.0245229999999997,0.0325640000000012,-0.0040621999999999,0.0008564000000004,-1.059999999911184e-05,6.58000000000669e-05,0,sub_21
0.0240747999999997,0.0324050000000012,-0.0048679999999999,0.0019184000000004,-0.0008673999999991,0.000288,0,sub_21
0.0237133999999997,0.0332490000000012,-0.0051245999999999,0.0023202000000004,-0.0002167999999991,-0.0003479999999999,0,sub_21
0.0236591999999997,0.0353336000000012,-0.0043889999999999,0.0020818000000004,1.160000000088818e-05,-0.0014151999999999,0,sub_21
0.0240873999999997,0.0362300000000012,-0.0045021999999999,0.0016232000000004,-0.0012503999999991,-0.0024819999999999,0,sub_21
0.0247173999999997,0.0367596000000012,-0.0041745999999999,0.0007304000000004,-0.003791199999999,-0.0031229999999999,0,sub_21
0.0260049999999997,0.0368384000000012,-0.0037939999999999,0.0004748000000004,-0.006336799999999,-0.0031185999999999,0,sub_21
0.0265253999999997,0.0357586000000012,-0.0038521999999999,0.0008900000000004,-0.008894799999999,-0.0031123999999999,0,sub_21
0.0269275999999997,0.0349544000000012,-0.0050719999999999,0.0019462000000004,-0.010605399999999,-0.0024617999999999,0,sub_21
0.0274929999999997,0.0341876000000012,-0.0070271999999998,0.0030198000000004,-0.008693399999999,-0.0020295999999999,0,sub_21
0.0266795999999997,0.0343310000000012,-0.0061751999999998,0.0036506000000004,-0.004853799999999,-0.0015985999999999,0,sub_21
0.0253897999999997,0.0351954000000012,-0.0053905999999998,0.0032108000000004,-0.0016505999999991,-0.0009607999999999,0,sub_21
0.0243743999999997,0.0356188000000012,-0.0050341999999998,0.0029806000000004,6.300000000090817e-05,-0.0009603999999999,0,sub_21
0.0234965999999997,0.0358146000000012,-0.0039841999999998,0.0023180000000004,0.0002876000000009,-0.0011747999999999,0,sub_21
0.0229327999999997,0.0356534000000012,-0.0030545999999998,0.0018552000000004,-0.002258999999999,-0.0011705999999999,0,sub_21
0.0232237999999997,0.0351460000000012,-0.0036345999999998,0.0020610000000004,-0.004176399999999,-0.0013803999999999,0,sub_21
0.0244265999999997,0.0350032000000012,-0.0043197999999998,0.0031212000000004,-0.005459199999999,-0.0011575999999999,0,sub_21
0.0254041999999997,0.0351442000000012,-0.0049197999999999,0.0035276000000003,-0.005236599999999,-8.419999999995297e-05,0,sub_21
0.0265485999999997,0.0353722000000012,-0.0051313999999999,0.0041540000000003,-0.003523399999999,0.0009888,0,sub_21
0.0265787999999997,0.0361376000000012,-0.0041971999999999,0.0045652000000003,-0.002235599999999,0.002061,0,sub_21
0.0269711999999997,0.0364710000000012,-0.0040955999999999,0.0049736000000003,-0.002011399999999,0.0027072,0,sub_21
0.0268921999999997,0.0362838000000012,-0.0039605999999999,0.0051676000000003,-0.002635999999999,0.002712,0,sub_21
0.0268453999999997,0.0361508000000012,-0.0041651999999999,0.0049476000000003,-0.004338799999999,0.002499,0,sub_21
0.0265025999999997,0.0361716000000011,-0.0044717999999999,0.0047304000000003,-0.005826799999999,0.0018584,0,sub_21
0.0263223999999997,0.0359758000000011,-0.0046171999999999,0.0043056000000003,-0.006035799999999,0.0012148,0,sub_21
0.0257107999999997,0.0359374000000011,-0.0048111999999998,0.0043074000000003,-0.0053973999999991,0.0014276,0,sub_21
0.0252667999999997,0.0357080000000011,-0.0048765999999998,0.0043040000000003,-0.0045177999999991,0.0014308,0,sub_21
0.0247561999999997,0.0358896000000012,-0.0048805999999998,0.0040872000000004,-0.0034251999999991,0.0016458,0,sub_21
0.0246553999999997,0.0352444000000012,-0.0043465999999998,0.0034418000000004,-0.0027573999999991,0.0018584,0,sub_21
0.0249505999999997,0.0348296000000012,-0.0045049999999998,0.0027964000000004,-0.0025139999999991,0.0016442,0,sub_21
0.0254169999999997,0.0350396000000012,-0.0047945999999999,0.0025798000000004,-0.0029069999999991,0.0003656,0,sub_21
0.0251973999999997,0.0360166000000012,-0.0050259999999999,0.0021560000000004,-0.0029029999999991,-0.0002783999999999,0,sub_21
0.0251719999999997,0.0362044000000012,-0.0051685999999999,0.0017320000000004,-0.0024745999999991,-0.0004953999999999,0,sub_21
0.0253189999999997,0.0369422000000012,-0.0056099999999999,0.0019368000000004,-0.0026687999999991,0.0001534,0,sub_21
0.0258597999999997,0.0376600000000012,-0.0055389999999998,0.0023500000000004,-0.0032923999999991,0.001445,0,sub_21
0.0263301999999997,0.0368734000000012,-0.0047507999999998,0.0023422000000004,-0.0028483999999991,0.0025186,0,sub_21
0.0272097999999997,0.0364382000000012,-0.0044077999999998,0.0029812000000004,-0.0017641999999991,0.0027414,0,sub_21
0.0272785999999997,0.0362588000000011,-0.0041375999999998,0.0038318000000004,-0.0013189999999991,0.0027528,0,sub_21
0.0268295999999997,0.0361026000000012,-0.0041601999999998,0.0044794000000004,-0.0006777999999991,0.0016882,0,sub_21
0.0263725999999997,0.0366272000000012,-0.0044387999999999,0.0046986000000004,-0.0002489999999991,0.0008346,0,sub_21
0.0259319999999997,0.0373928000000012,-0.0044151999999999,0.0038442000000004,-0.0008833999999991,0.0004022,0,sub_21
0.0256273999999997,0.0379914000000012,-0.0046845999999999,0.0031944000000004,-0.0012833999999991,0.0008332,0,sub_21
0.0259241999999997,0.0376156000000012,-0.0040905999999999,0.0029732000000004,-0.001683199999999,0.00084,0,sub_21
0.0261503999999997,0.0369160000000012,-0.0036069999999999,0.0027492000000004,-0.002297799999999,0.0012744,0,sub_21
0.0261567999999997,0.0362778000000012,-0.0036827999999999,0.0027394000000003,-0.003548999999999,0.0008564,0,sub_21
0.0266241999999997,0.0358492000000012,-0.0046657999999999,0.0033736000000003,-0.003737999999999,0.0006552,0,sub_21
0.0269221999999997,0.0347666000000012,-0.0046479999999999,0.0031612000000003,-0.003948599999999,0.0002268,0,sub_21
0.0269141999999997,0.0346392000000012,-0.0056641999999999,0.0023116000000003,-0.003305599999999,6.40000000008712e-06,0,sub_21
0.0273421999999997,0.0358940000000012,-0.0057179999999999,0.0014648000000003,-0.0022357999999991,-0.0004281999999999,0,sub_21
0.0269407999999997,0.0360238000000012,-0.0050963999999999,0.0010318000000004,-0.0011449999999991,-0.0004263999999999,0,sub_21
0.0261467999999997,0.0365128000000012,-0.0045537999999999,0.0008054000000004,-0.0013341999999991,-0.0002077999999999,0,sub_21
0.0256771999999997,0.0362928000000012,-0.0049515999999998,0.0007914000000004,-0.0019495999999991,-0.0002009999999999,0,sub_21
0.0255497999999997,0.0364700000000012,-0.0048005999999998,0.0012050000000003,-0.0023533999999991,-0.0001913999999999,0,sub_21
0.0260099999999997,0.0358008000000011,-0.0051539999999998,0.0016168000000003,-0.0031831999999991,-0.0001811999999999,0,sub_21
0.0264603999999997,0.0359986000000012,-0.0057303999999998,0.0014034000000003,-0.0029703999999991,3.0800000000067115e-05,0,sub_21
0.0267863999999997,0.0359048000000012,-0.0061901999999998,0.0011908000000003,-0.0023321999999991,0.0004558,0,sub_21
0.0268053999999997,0.0360110000000012,-0.0057737999999998,0.0011898000000003,-0.0019085999999991,0.0010962,0,sub_21
0.0272623999999997,0.0361204000000012,-0.0050063999999998,0.0011880000000003,-0.0019103999999991,0.0015234,0,sub_21
0.0259799999999997,0.0360918000000012,-0.0049221999999998,0.0011712000000004,-0.0014621999999991,0.001951,0,sub_21
0.0261951999999997,0.0357172000000012,-0.0053231999999998,0.0011544000000004,-0.0014383999999991,0.001952,0,sub_21
0.0262655999999997,0.0357414000000012,-0.0048087999999998,0.0007120000000004,-0.0016243999999991,0.001523,0,sub_21
0.0263583999999997,0.0359962000000012,-0.0048555999999998,0.0006982000000004,-0.001810199999999,0.0006698,0,sub_21
0.0262547999999997,0.0364472000000012,-0.0057663999999998,0.0011072000000004,-0.002212999999999,0.0004606,0,sub_21
0.0266619999999997,0.0363378000000012,-0.0054051999999998,0.0013168000000004,-0.003065799999999,0.0004632,0,sub_21
0.0263697999999997,0.0366386000000012,-0.0054161999999998,0.0013158000000004,-0.002854399999999,0.0008902,0,sub_21
0.0259285999999997,0.0366042000000012,-0.0057289999999998,0.0013008000000004,-0.002195199999999,0.0011016,0,sub_21
0.0261031999999997,0.0365334000000012,-0.0053209999999998,0.0010724000000004,-0.0013229999999991,0.001525,0,sub_21
0.0264667999999997,0.0361648000000012,-0.0049547999999998,0.0006326000000004,-0.0004483999999991,0.0015198,0,sub_21
0.0268031999999997,0.0368520000000012,-0.0052261999999998,-2.159999999958855e-05,-0.0006349999999991,0.0006596,0,sub_21
0.0264577999999997,0.0367924000000012,-0.0044607999999998,-0.0004689999999995,-0.0018891999999991,0.0002296,0,sub_21
0.0267049999999997,0.0364618000000012,-0.0043797999999999,-0.0002613999999995,-0.0031683999999991,0.0002328,0,sub_21
0.0266203999999997,0.0362464000000012,-0.0050387999999999,-5.379999999958851e-05,-0.0042351999999991,0.0004492,0,sub_21
0.0265075999999997,0.0361692000000012,-0.0049225999999999,0.0001606000000004,-0.0038105999999991,0.0006638,0,sub_21
0.0264027999999997,0.0356554000000012,-0.0045063999999999,0.0005922000000004,-0.0021101999999991,0.0013056,0,sub_21
0.0264971999999997,0.0355044000000012,-0.0044277999999998,0.0012206000000004,-0.0006063999999991,0.0015178,0,sub_21
0.0263085999999997,0.0357750000000012,-0.0048335999999998,0.0020622000000004,0.0006846000000008,0.001518,0,sub_21
0.0262403999999997,0.0366420000000012,-0.0044447999999998,0.0020514000000004,0.0017670000000008,0.0010854,0,sub_21
0.0257363999999997,0.0375386000000012,-0.0044255999999998,0.0016050000000004,0.0011456000000008,0.0008654,0,sub_21
0.0259329999999997,0.0381784000000012,-0.0044925999999998,0.0013684000000004,9.580000000084798e-05,0.001075,0,sub_21
0.0265985999999997,0.0384632000000012,-0.0045881999999998,0.0013626000000004,-0.0011823999999991,0.0010766,0,sub_21
0.0275725999999997,0.0374118000000012,-0.0041107999999998,0.0007216000000004,-0.0016053999999991,0.000859,0,sub_21
0.0276653999999997,0.0365202000000012,-0.0047163999999998,0.0015666000000004,-0.0001013999999991,0.0006458,0,sub_21
0.0280547999999997,0.0355656000000012,-0.0048929999999998,0.0032720000000004,0.0028910000000008,0.0004368,0,sub_21
0.0284767999999997,0.0353694000000012,-0.0060799999999998,0.0054068000000004,0.0069454000000008,0.0006566,0,sub_21
0.0276237999999997,0.0355814000000012,-0.0058535999999998,0.0105672000000004,0.0190870000000008,0.0004598,0,sub_21
0.0262499999999997,0.0367290000000012,-0.0039053999999998,0.0126888000000004,0.0203708000000008,0.0008968,0,sub_21
0.0262111999999997,0.0376568000000012,-0.0043495999999998,0.0107436000000004,0.0146260000000008,0.0006768,0,sub_21
0.0256393999999997,0.0377266000000012,-0.0058989999999999,0.0090194000000004,0.0101604000000008,2.940000000006687e-05,0,sub_21
0.0252853999999997,0.0376216000000012,-0.0048969999999999,0.0075144000000003,0.0063358000000009,-0.0012581999999999,0,sub_21
0.0263889999999997,0.0372200000000012,-0.0053315999999999,0.0025484000000003,-0.003858599999999,-0.0014971999999999,0,sub_21
0.0273247999999997,0.0370536000000012,-0.0075471999999999,0.0010460000000003,-0.002986199999999,-0.0017261999999999,0,sub_21
0.0274997999999997,0.0367954000000012,-0.0067871999999999,0.0027596000000003,0.0021326000000009,-0.0010835999999999,0,sub_21
0.0277139999999997,0.0369474000000012,-0.0048613999999998,0.0033976000000003,0.0057622000000009,-1.939999999993284e-05,0,sub_21
0.0268875999999997,0.0368314000000012,-0.0044627999999998,0.0029572000000003,0.0072632000000008,0.0014674,0,sub_21
0.0264903999999997,0.0368100000000012,-0.0047539999999998,0.0031600000000003,0.0057676000000008,0.0023252,0,sub_21
0.0263313999999997,0.0371740000000012,-0.0046229999999998,0.0029352000000003,0.0032118000000008,0.0023268,0,sub_21
0.0264043999999997,0.0368408000000012,-0.0046091999999998,0.0025046000000004,0.0021488000000008,0.0021114,0,sub_21
0.0265279999999997,0.0369090000000012,-0.0053007999999998,0.0024944000000004,0.0015256000000008,0.0014664,0,sub_21
0.0269659999999997,0.0368272000000012,-0.0056415999999998,0.0031282000000004,0.0017524000000008,0.0008248,0,sub_21
0.0270839999999997,0.0367560000000012,-0.0053201999999998,0.0029084000000004,0.0019822000000008,0.0001772,0,sub_21
0.0268667999999997,0.0361726000000012,-0.0052303999999998,0.0022590000000004,0.0019986000000008,-4.579999999995295e-05,0,sub_21
0.0266015999999997,0.0362144000000012,-0.0051191999999999,0.0020344000000003,0.0015876000000008,-0.0002651999999999,0,sub_21
0.0266411999999997,0.0362096000000012,-0.0045505999999999,0.0018182000000003,0.0007370000000008,-0.0004791999999999,0,sub_21
0.0268197999999997,0.0364840000000012,-0.0047761999999999,0.0011752000000003,-0.0003243999999991,-0.0009097999999999,0,sub_21
0.0264461999999997,0.0369546000000012,-0.0043335999999999,0.0009618000000003,-0.0003235999999991,-0.0009111999999999,0,sub_21
0.0267091999999997,0.0373558000000012,-0.0044889999999999,0.0009524000000003,-9.91999999991118e-05,-0.0004903999999999,0,sub_21
0.0273075999999997,0.0368612000000012,-0.0047661999999999,0.0009422000000003,0.0001244000000008,0.000144,0,sub_21
0.0276293999999997,0.0363358000000012,-0.0051411999999998,0.0007166000000003,-0.0005017999999991,0.0003508,0,sub_21
0.0278537999999997,0.0366368000000012,-0.0059131999999998,0.0002826000000003,-0.0006985999999991,-8.539999999993293e-05,0,sub_21
0.0278925999999997,0.0362892000000012,-0.0064103999999998,-0.0003637999999996,-0.0006815999999991,-0.0005233999999999,0,sub_21
0.0276047999999997,0.0363572000000012,-0.0067979999999998,-0.0003637999999996,-0.001105999999999,-0.0009501999999999,0,sub_21
0.0268807999999997,0.0368650000000012,-0.0069753999999998,-0.0005761999999995,-0.001528799999999,-0.0015919999999999,0,sub_21
0.0270263999999997,0.0370460000000012,-0.0065609999999998,-0.0005769999999995,-0.001741999999999,-0.0015917999999999,0,sub_21
0.0268447999999997,0.0365888000000012,-0.0060371999999998,-0.0001657999999995,-0.002378199999999,-0.0011665999999999,0,sub_21
0.0268761999999997,0.0364310000000012,-0.0060081999999998,0.0004634000000004,-0.002161999999999,-0.0009547999999999,0,sub_21
0.0273779999999997,0.0364868000000012,-0.0055973999999998,0.0004546000000004,-0.001941799999999,-0.0011745999999999,0,sub_21
0.0268845999999997,0.0367896000000012,-0.0053267999999998,0.0004428000000004,-0.0021487999999991,-0.0011803999999999,0,sub_21
0.0263213999999997,0.0374248000000012,-0.0046137999999999,0.0002176000000004,-0.0023547999999991,-0.0011875999999999,0,sub_21
0.0264957999999997,0.0376678000000012,-0.0043065999999999,-0.0002111999999995,-0.0027793999999991,-0.0011901999999999,0,sub_21
0.0269241999999997,0.0369784000000012,-0.0040549999999998,-0.0002167999999995,-0.0040577999999991,-0.0011885999999999,0,sub_21
0.0264727999999997,0.0364632000000012,-0.0042101999999998,-0.0002195999999995,-0.0049091999999991,-0.0014011999999999,0,sub_21
0.0269993999999997,0.0360354000000012,-0.0043695999999998,-3.1999999999588496e-05,-0.0059859999999991,-0.0016161999999999,0,sub_21
0.0273691999999997,0.0358660000000012,-0.0055673999999998,-5.399999999958852e-05,-0.0064221999999991,-0.0020471999999999,0,sub_21
0.0269355999999997,0.0360962000000012,-0.0058159999999998,0.0003546000000004,-0.0055829999999991,-0.0020493999999999,0,sub_21
0.0264375999999997,0.0373874000000012,-0.0060417999999999,-8.559999999958848e-05,-0.0036755999999991,-0.0020589999999999,0,sub_21
0.0264751999999997,0.0380090000000012,-0.0056951999999999,-9.899999999958849e-05,-0.0015575999999991,-0.0018523999999999,0,sub_21
0.0263881999999997,0.0379118000000012,-0.0043857999999999,-0.0003095999999995,-0.0004931999999991,-0.0014279999999999,0,sub_21
0.0262313999999997,0.0374934000000012,-0.0041597999999999,-0.0003153999999995,-0.0013469999999991,-0.0009997999999999,0,sub_21
0.0265547999999997,0.0363110000000012,-0.0042615999999999,-0.0003229999999995,-0.0028391999999991,-0.0007843999999999,0,sub_21
0.0271327999999997,0.0358740000000012,-0.0047639999999999,-0.0001307999999995,-0.0034909999999991,-0.0012147999999999,0,sub_21
0.0278327999999997,0.0357800000000012,-0.0049855999999999,6.52000000004115e-05,-0.0032905999999991,-0.0016459999999999,0,sub_21
0.0277825999999997,0.0365814000000012,-0.0054171999999999,0.0002634000000004,-0.0022397999999991,-0.0016511999999999,0,sub_21
0.0273109999999997,0.0370676000000012,-0.0050419999999999,0.0002480000000004,-0.000763799999999,-0.0012309999999999,0,sub_21
0.0268127999999997,0.0378628000000012,-0.0043941999999999,-0.0001959999999995,-0.000136799999999,-0.0012399999999999,0,sub_21
0.0265047999999997,0.0378904000000012,-0.0041679999999999,-0.0002025999999995,-0.001203799999999,-0.0008113999999999,0,sub_21
0.0263293999999997,0.0380416000000012,-0.0043273999999999,-0.0002101999999995,-0.002695999999999,-0.0005959999999999,0,sub_21
0.0262397999999997,0.0378314000000012,-0.0045427999999999,-0.0004255999999995,-0.003545599999999,-0.0010235999999999,0,sub_21
0.0265601999999997,0.0375010000000012,-0.0045573999999999,-0.0006537999999995,-0.004192399999999,-0.0018809999999999,0,sub_21
0.0270493999999997,0.0369312000000012,-0.0049719999999999,-0.0002429999999995,-0.004205799999999,-0.0018801999999999,0,sub_21
0.0272551999999997,0.0365748000000012,-0.0050019999999999,-4.259999999958852e-05,-0.003579199999999,-0.0018815999999999,0,sub_21
0.0269091999999997,0.0362736000000012,-0.0048485999999999,-0.0004831999999995,-0.002951199999999,-0.0016739999999999,0,sub_21
0.0266663999999997,0.0359656000000011,-0.0047431999999999,-0.0004961999999995,-0.0021117999999991,-0.0014635999999999,0,sub_21
0.0266425999999997,0.0361756000000011,-0.0048081999999999,0.0001468000000004,-0.0010503999999991,-0.0010331999999999,0,sub_21
0.0267717999999997,0.0364228000000011,-0.0050043999999999,0.0003602000000004,-0.0012633999999991,-0.0012451999999999,0,sub_21
0.0266465999999997,0.0364078000000012,-0.0050875999999999,0.0001448000000004,-0.001688799999999,-0.0012461999999999,0,sub_21
0.0273309999999997,0.0362202000000012,-0.0052779999999999,0.0005562000000004,-0.002547599999999,-0.0012409999999999,0,sub_21
0.0280505999999997,0.0366800000000012,-0.0065369999999999,0.0009698000000004,-0.002980199999999,-0.0012365999999999,0,sub_21
0.0279963999999997,0.0372246000000012,-0.0067889999999999,0.0003174000000004,-0.003196199999999,-0.0012397999999999,0,sub_21
0.0276017999999997,0.0376634000000012,-0.0059687999999999,-0.0005435999999995,-0.001921599999999,-0.0008189999999999,0,sub_21
0.0274261999999997,0.0379960000000012,-0.0055017999999999,-0.0007633999999995,-0.0004363999999991,-0.0003939999999999,0,sub_21
0.0262679999999997,0.0380150000000012,-0.0049059999999999,-0.0007613999999995,0.0002018000000008,-0.0001811999999999,0,sub_21
0.0260855999999997,0.0374916000000012,-0.0039349999999999,-0.0001241999999995,-1.5199999999111496e-05,0.0002508,0,sub_21
0.0262665999999997,0.0365524000000012,-0.0044869999999999,0.0011590000000004,0.0008316000000008,0.0004722,0,sub_21
0.0259775999999997,0.0363706000000012,-0.0057225999999999,0.0022204000000004,0.0010462000000008,0.0002696,0,sub_21
0.0259873999999997,0.0373642000000012,-0.0054167999999999,0.0028550000000004,0.0012624000000008,6.400000000006715e-05,0,sub_21
0.0263821999999997,0.0386122000000012,-0.0053095999999999,0.0030572000000004,0.0010506000000008,0.0007104,0,sub_21
0.0264823999999997,0.0388488000000012,-0.0050321999999999,0.0030440000000004,0.0002012000000009,0.0011426,0,sub_21
0.0270129999999997,0.0387254000000012,-0.0041271999999999,0.0025954000000003,-0.002563999999999,0.0015742,0,sub_21
0.0282233999999997,0.0378566000000012,-0.0035535999999999,0.0025858000000003,-0.004482199999999,0.0017902,0,sub_21
0.0284851999999997,0.0365228000000012,-0.0043545999999998,0.0027934000000003,-0.006185599999999,0.0013664,0,sub_21
0.0292697999999997,0.0355340000000012,-0.0047621999999998,0.0027982000000003,-0.005969199999999,0.0005116,0,sub_21
0.0295899999999997,0.0355976000000012,-0.0048635999999998,0.0023754000000003,-0.0044657999999991,8.440000000008713e-05,0,sub_21
0.0286693999999997,0.0365224000000012,-0.0048509999999998,0.0025900000000004,-0.002754999999999,0.0005162,0,sub_21
0.0272871999999997,0.0378186000000012,-0.0046359999999998,0.0023740000000004,-0.001682599999999,0.0011592,0,sub_21
0.0271075999999997,0.0377664000000012,-0.0044541999999998,0.0023674000000004,-0.001463199999999,0.001805,0,sub_21
0.0262139999999997,0.0376388000000012,-0.0047335999999998,0.0023598000000004,-0.002093399999999,0.0018108,0,sub_21
0.0264425999999997,0.0371048000000012,-0.0052271999999998,0.0021456000000004,-0.002942199999999,0.0011696,0,sub_21
0.0266961999999997,0.0364240000000012,-0.0052819999999998,0.0019340000000004,-0.0035763999999991,0.0001006000000001,0,sub_21
0.0273763999999997,0.0357042000000012,-0.0056393999999998,0.0023616000000004,-0.0037891999999991,-0.0003233999999998,0,sub_21
0.0272879999999997,0.0359130000000012,-0.0059449999999999,0.0021450000000004,-0.0037773999999991,-0.0001051999999998,0,sub_21
0.0276121999999997,0.0358510000000012,-0.0060489999999999,0.0021408000000004,-0.0035549999999991,0.0005416,0,sub_21
0.0271119999999997,0.0359016000000012,-0.0056157999999999,0.0023500000000004,-0.0031211999999991,0.001403,0,sub_21
0.0269001999999997,0.0360802000000012,-0.0055663999999998,0.0021364000000004,-0.0022579999999991,0.0018338,0,sub_21
0.0266737999999997,0.0362124000000012,-0.0051929999999998,0.0017074000000004,-0.0024569999999991,0.0016236,0,sub_21
0.0267373999999997,0.0362974000000012,-0.0045849999999998,0.0017074000000004,-0.0030935999999991,0.0009834,0,sub_21
0.0269345999999997,0.0364530000000011,-0.0042977999999998,0.0021352000000004,-0.0033063999999991,0.0005592,0,sub_21
0.0268481999999997,0.0365426000000011,-0.0048805999999998,0.0021332000000004,-0.0039447999999991,0.0003464,0,sub_21
0.0270233999999997,0.0368624000000011,-0.0055887999999998,0.0023466000000004,-0.0037191999999991,0.000355,0,sub_21
0.0266861999999997,0.0364408000000011,-0.0058203999999998,0.0023496000000004,-0.0028535999999991,0.0003612,0,sub_21
0.0269037999999997,0.0358664000000012,-0.0059837999999998,0.0023546000000004,-0.0015619999999991,0.000367,0,sub_21
0.0266289999999997,0.0353152000000012,-0.0060363999999998,0.0017174000000004,-0.0009063999999991,0.0001556,0,sub_21
0.0266885999999997,0.0353080000000012,-0.0061401999999998,0.0010822000000004,-3.6799999999111815e-05,-0.0002697999999999,0,sub_21
0.0266349999999997,0.0350362000000012,-0.0052577999999999,0.0002288000000004,-3.3799999999111816e-05,-0.0002757999999999,0,sub_21
0.0270319999999997,0.0356672000000012,-0.0049245999999999,1.4600000000411484e-05,0.0001782000000008,0.0001498,0,sub_21
0.0272177999999997,0.0362450000000012,-0.0055801999999999,1.180000000041148e-05,0.0001756000000008,0.0007908,0,sub_21
0.0273519999999997,0.0370830000000012,-0.0058147999999999,-0.0002043999999995,0.0001826000000008,0.0010094,0,sub_21
0.0273557999999997,0.0373158000000012,-0.0056705999999999,-0.0006309999999995,0.0006174000000008,0.0010124,0,sub_21
0.0269391999999997,0.0370956000000012,-0.0063099999999999,-0.0002041999999995,0.0010492000000008,0.0010212,0,sub_21
0.0267675999999997,0.0371370000000012,-0.0060857999999998,-0.0002041999999995,0.0012704000000008,0.0008136,0,sub_21
0.0262599999999997,0.0367624000000012,-0.0052909999999998,9.20000000041157e-06,0.0012786000000008,0.0003942,0,sub_21
0.0262681999999997,0.0360930000000012,-0.0049357999999998,0.0006464000000004,0.0010616000000008,0.0008262,0,sub_21
0.0267703999999997,0.0357682000000012,-0.0048709999999998,0.0012816000000003,0.0006306000000008,0.001472,0,sub_21
0.0276939999999997,0.0360606000000012,-0.0048463999999998,0.0010672000000004,0.0006306000000008,0.0016842,0,sub_21
0.0282211999999997,0.0363110000000012,-0.0052363999999998,0.0010608000000004,0.0010676000000008,0.0018982,0,sub_21
0.0278455999999997,0.0367014000000012,-0.0050397999999998,0.0010544000000004,0.0017170000000008,0.0023254,0,sub_21
0.0273581999999997,0.0369022000000012,-0.0045009999999998,0.0006206000000004,0.0019426000000008,0.0025366,0,sub_21
0.0266321999999997,0.0368336000000012,-0.0039289999999998,0.0001800000000004,0.0006768000000008,0.0027498,0,sub_21
0.0269463999999997,0.0365244000000012,-0.0034587999999998,0.0001660000000004,-0.0010149999999991,0.0025392,0,sub_21
