userAcceleration.x,userAcceleration.y,userAcceleration.z,rotationRate.x,rotationRate.y,rotationRate.z,label,subject
0.0003315999999998,0.0067014000000012,-0.0046635999999999,-0.0101333999999995,0.0095150000000009,0.0178006,0,sub_2
-0.0015626000000001,0.0062778000000011,-0.0035787999999999,-0.0124311999999995,0.0102404000000009,0.0152442,0,sub_2
-0.0038586000000001,0.0053714000000012,-0.0038005999999999,-0.0145135999999995,0.0099058000000009,0.011195,0,sub_2
-0.0054578000000001,0.0079262000000012,-0.0034951999999999,-0.0134145999999995,0.0059354000000009,0.0078138,0,sub_2
-0.0065922000000001,0.0098732000000012,-0.0026405999999999,-0.0101925999999995,0.0006750000000009,0.0055172,0,sub_2
-0.0080454000000001,0.0121712000000012,-0.0034543999999998,-0.0072177999999995,-0.002317399999999,0.0053282,0,sub_2
-0.0079292000000001,0.0150048000000012,-0.0034585999999998,-0.0031761999999995,-0.003403599999999,0.007067,0,sub_2
-0.0076628000000001,0.0163328000000012,-0.0031075999999998,0.0032070000000004,-0.004539799999999,0.0081826,0,sub_2
-0.0072092000000001,0.0120152000000012,-0.0037333999999998,0.0076860000000004,-0.004593799999999,0.0067196,0,sub_2
-0.0075630000000001,0.0086540000000012,-0.0047479999999998,0.0083398000000004,-0.002710999999999,0.003732,0,sub_2
-0.0066444000000001,0.0077762000000012,-0.0045873999999999,0.0094156000000004,-0.001682799999999,0.000962,0,sub_2
-0.0043962000000001,0.0063506000000012,-0.0037977999999999,0.0109076000000004,-0.002575199999999,-0.0013753999999999,0,sub_2
-0.0008750000000001,0.0044824000000012,-0.0037677999999999,0.0111276000000004,-0.002569999999999,-0.0028693999999999,0,sub_2
0.0019373999999998,0.0048740000000012,-0.0039781999999999,0.0092122000000004,-0.001497999999999,-0.0028841999999999,0,sub_2
0.0053455999999997,0.0054728000000012,-0.0037823999999999,0.0072852000000004,-0.001709399999999,-0.0016155999999999,0,sub_2
0.0065519999999997,0.0043168000000012,-0.0037245999999998,0.0066334000000004,-0.002353999999999,0.0003034,0,sub_2
0.0053865999999997,0.0044066000000012,-0.0044753999999998,0.0051204000000004,-0.001958999999999,0.002837,0,sub_2
0.0034399999999997,0.0054116000000012,-0.0052833999999998,0.0027530000000004,-0.002198399999999,0.0049382,0,sub_2
0.0026281999999997,0.0065058000000012,-0.0055419999999998,0.0014494000000004,-0.002868599999999,0.007261,0,sub_2
0.0020551999999997,0.0072388000000012,-0.0052463999999998,0.0012214000000004,-0.003110399999999,0.0080954,0,sub_2
0.0014921999999998,0.0079532000000012,-0.0046877999999999,-6.279999999953232e-05,-0.002702399999999,0.0072124,0,sub_2
0.0013309999999998,0.0068576000000012,-0.0040301999999999,-0.0004817999999995,-0.002906399999999,0.005287,0,sub_2
0.0007311999999998,0.0068422000000012,-0.0040475999999999,-0.0011151999999995,-0.003322599999999,0.0033604,0,sub_2
-0.0010718000000001,0.0074080000000012,-0.0038451999999999,-0.0017823999999995,-0.004381799999999,0.0009844,0,sub_2
-0.0018004000000001,0.0075198000000012,-0.0038085999999999,-0.0016009999999995,-0.005023999999999,0.0001092,0,sub_2
-0.0025548000000001,0.0069230000000012,-0.0044593999999999,-0.0007833999999995,-0.004822999999999,0.0009466,0,sub_2
-0.0027532000000001,0.0077810000000012,-0.0046639999999999,-0.0012421999999994,-0.003552999999999,0.0019872,0,sub_2
-0.0023462000000001,0.0073948000000012,-0.0040053999999999,-0.0017009999999994,-0.002495399999999,0.0028144,0,sub_2
-0.0018784000000001,0.0074074000000012,-0.0036957999999999,-0.0008465999999994,-0.001860999999999,0.0032468,0,sub_2
-0.0024126000000001,0.0070416000000012,-0.0040479999999999,-0.0006313999999995,-0.001647799999999,0.0030344,0,sub_2
-0.0022266000000001,0.0074888000000012,-0.0039217999999999,-0.0010541999999995,-0.001855199999999,0.0019634,0,sub_2
-0.0025236000000001,0.0080050000000012,-0.0039573999999999,-0.0006563999999995,-0.002931799999999,0.0008808,0,sub_2
-0.0026802000000001,0.0087042000000012,-0.0042143999999999,0.0008084000000004,-0.003799799999999,1.900000000007469e-05,0,sub_2
-0.0025246000000001,0.0097030000000012,-0.0043731999999999,0.0016320000000004,-0.003605399999999,0.0004332,0,sub_2
-0.0021058000000001,0.0095036000000012,-0.0032811999999999,0.0033092000000004,-0.003201799999999,0.0010666,0,sub_2
-0.0008820000000001,0.0091706000000012,-0.0026067999999998,0.0054140000000004,-0.002586599999999,0.0017028,0,sub_2
0.0003451999999998,0.0078350000000012,-0.0026315999999998,0.0069076000000004,-0.002591799999999,0.0017132,0,sub_2
0.0016047999999998,0.0062026000000012,-0.0029685999999998,0.0075486000000004,-0.003017599999999,0.0010772,0,sub_2
0.0029389999999998,0.0039674000000012,-0.0027791999999998,0.0073342000000004,-0.004503199999999,-0.0002043999999999,0,sub_2
0.0027587999999998,0.0039304000000012,-0.0038407999999998,0.0060412000000004,-0.005570799999999,-0.0010945999999999,0,sub_2
0.0016593999999998,0.0039182000000012,-0.0052187999999998,0.0041052000000004,-0.006426399999999,-0.0011349999999999,0,sub_2
0.0012151999999998,0.0049934000000012,-0.0058291999999998,0.0017464000000004,-0.006216199999999,-0.0009659999999999,0,sub_2
3.0999999999816764e-05,0.0071666000000012,-0.0047519999999998,2.680000000050767e-05,-0.005160199999999,0.0002746,0,sub_2
-0.0013596000000001,0.0084008000000012,-0.0036857999999998,0.0006532000000005,-0.004113199999999,0.0017452,0,sub_2
-0.0018754000000001,0.0084422000000012,-0.0028075999999998,0.0012894000000004,-0.004118799999999,0.0026042,0,sub_2
-0.0019188000000001,0.0084680000000012,-0.0024623999999998,0.0015038000000004,-0.004755399999999,0.001752,0,sub_2
-0.0023146000000001,0.0085118000000012,-0.0021995999999998,0.0027840000000004,-0.005396399999999,0.0011208,0,sub_2
-0.0016972000000001,0.0075900000000011,-0.0029151999999998,0.0048936000000004,-0.006891799999999,-0.0003783999999999,0,sub_2
-0.0008712000000001,0.0068438000000011,-0.0037683999999998,0.0048762000000004,-0.007100399999999,-0.0021075999999999,0,sub_2
-4.240000000018327e-05,0.0076478000000011,-0.0038889999999999,0.0046474000000004,-0.006033399999999,-0.0029853999999999,0,sub_2
0.0008611999999998,0.0080408000000011,-0.0034147999999999,0.0054758000000004,-0.005402999999999,-0.0021459999999999,0,sub_2
0.0017243999999998,0.0080358000000012,-0.0041159999999999,0.0065118000000004,-0.005839599999999,-0.0010901999999999,0,sub_2
0.0022863999999998,0.0077478000000012,-0.0035761999999999,0.0067156000000004,-0.006273199999999,0.000621,0,sub_2
0.0024077999999998,0.0078518000000012,-0.0039743999999999,0.0067070000000004,-0.007129799999999,0.0016904,0,sub_2
0.0034947999999998,0.0072744000000012,-0.0041837999999999,0.0069136000000004,-0.008409799999999,0.0019072,0,sub_2
0.0033989999999998,0.0061138000000012,-0.0040919999999999,0.0069136000000004,-0.009258599999999,0.0010536000000001,0,sub_2
0.0030215999999998,0.0052268000000012,-0.0039437999999998,0.0054268000000004,-0.009035199999999,-0.0002389999999998,0,sub_2
0.0021899999999998,0.0056224000000012,-0.0046623999999998,0.0028748000000004,-0.008381999999999,-0.0015395999999998,0,sub_2
0.0019863999999998,0.0059002000000012,-0.0041315999999998,0.0013890000000004,-0.006884599999999,-0.0017655999999998,0,sub_2
0.0009783999999998,0.0060646000000012,-0.0038467999999998,0.0005422000000004,-0.005390199999999,-0.0017733999999998,0,sub_2
0.0010529999999998,0.0071926000000012,-0.0045559999999998,-0.0009475999999995,-0.004108399999999,-0.0013581999999999,0,sub_2
0.0008627999999998,0.0084284000000012,-0.0043965999999998,-0.0009485999999995,-0.003472599999999,-0.0005043999999999,0,sub_2
0.0016799999999998,0.0085572000000012,-0.0040697999999998,0.0001184000000004,-0.002839799999999,0.0001432,0,sub_2
0.0018413999999998,0.0087720000000012,-0.0039947999999998,0.0009746000000004,-0.002415799999999,-6.499999999990528e-05,0,sub_2
0.0021515999999998,0.0084522000000012,-0.0040881999999998,0.0007642000000004,-0.002200399999999,-0.0004939999999999,0,sub_2
0.0023647999999998,0.0082194000000012,-0.0039901999999998,0.0005526000000004,-0.002622399999999,-0.0013493999999998,0,sub_2
0.0032023999999997,0.0073748000000012,-0.0041323999999998,0.0001268000000004,-0.003256599999999,-0.0022061999999998,0,sub_2
0.0032163999999997,0.0068792000000012,-0.0039371999999998,0.0001276000000004,-0.004104399999999,-0.0032731999999998,0,sub_2
0.0035115999999997,0.0064712000000012,-0.0043059999999999,-0.0007305999999995,-0.004727999999999,-0.0035025999999998,0,sub_2
0.0036217999999997,0.0068218000000012,-0.0047339999999999,-0.0013745999999995,-0.004927199999999,-0.0035175999999998,0,sub_2
0.0043587999999997,0.0068694000000012,-0.0039935999999998,-0.0018049999999994,-0.005126999999999,-0.0035309999999998,0,sub_2
0.0044415999999998,0.0067670000000012,-0.0038127999999998,-0.0022317999999994,-0.004899199999999,-0.0039721999999998,0,sub_2
0.0048123999999998,0.0069186000000012,-0.0038501999999998,-0.0032975999999994,-0.004880599999999,-0.0048449999999998,0,sub_2
0.0042317999999998,0.0074428000000012,-0.0042093999999998,-0.0041491999999994,-0.005300399999999,-0.0057049999999998,0,sub_2
0.0033087999999998,0.0077928000000012,-0.0040779999999998,-0.0039299999999994,-0.004447199999999,-0.0061317999999998,0,sub_2
0.0014039999999998,0.0080604000000012,-0.0045803999999999,-0.0033019999999994,-0.002725399999999,-0.0055011999999998,0,sub_2
0.0007957999999997,0.0092218000000012,-0.0051355999999999,-0.0041655999999994,-0.000996599999999,-0.0053083999999999,0,sub_2
1.739999999979683e-05,0.0106148000000012,-0.0058071999999999,-0.0048167999999994,0.0015796000000009,-0.0040469999999999,0,sub_2
-0.0002306000000002,0.0105002000000012,-0.0048235999999998,-0.0031171999999994,0.0047876000000008,-0.0029837999999999,0,sub_2
0.0012199999999997,0.0099510000000012,-0.0048359999999998,-0.0027025999999995,0.0056616000000008,-0.0032081999999999,0,sub_2
0.0023637999999997,0.0092516000000012,-0.0050577999999998,-0.0037579999999995,0.0058878000000008,-0.0055659999999999,0,sub_2
0.0030279999999998,0.0074112000000012,-0.0043401999999998,-0.0031149999999995,0.0058882000000008,-0.0062023999999999,0,sub_2
0.0052721999999998,0.0043198000000012,-0.0034895999999998,-0.0016261999999995,0.0037566000000008,-0.0072573999999998,0,sub_2
0.0076161999999998,0.0022790000000012,-0.0043255999999999,-0.0040013999999995,0.0008144000000009,-0.0085589999999998,0,sub_2
0.0082999999999998,0.0038036000000012,-0.0043679999999999,-0.0065919999999995,-0.001067799999999,-0.0083679999999998,0,sub_2
0.0086431999999998,0.0061222000000012,-0.0032171999999999,-0.0062029999999995,-0.001693999999999,-0.0051667999999998,0,sub_2
0.0068481999999998,0.0109828000000012,-0.0023213999999999,-0.0053881999999995,-0.001049399999999,-0.0004685999999998,0,sub_2
0.0028431999999998,0.0123184000000012,-0.0017387999999999,-0.0041371999999995,0.0023610000000009,0.0048700000000001,0,sub_2
0.0002201999999998,0.0090420000000012,-0.0022801999999999,-8.699999999953225e-05,0.0061630000000009,0.0095936000000001,0,sub_2
-3.7000000000183066e-05,0.0022330000000012,-0.0039037999999999,0.0011866000000004,0.0057282000000009,0.0106712,0,sub_2
0.0035325999999998,-0.0009015999999987,-0.0053835999999999,-0.0022359999999995,-0.000209199999999,0.0065956,0,sub_2
0.0091399999999998,-0.0020415999999987,-0.0057745999999999,-0.0061031999999995,-0.009929999999999,-0.0021823999999999,0,sub_2
0.0139195999999998,0.0017580000000012,-0.0060323999999999,-0.0095377999999995,-0.019222999999999,-0.0118123999999999,0,sub_2
0.0112497999999998,0.0099932000000012,-0.0023713999999999,-0.0123265999999995,-0.023844599999999,-0.0180253999999998,0,sub_2
0.0045319999999998,0.0145122000000012,-0.0007147999999999,-0.0091343999999995,-0.019993199999999,-0.0171573999999998,0,sub_2
-0.0044262000000001,0.0138900000000012,-0.0014481999999999,-0.0033921999999995,-0.012340399999999,-0.0100805999999998,0,sub_2
-0.0073694000000001,0.0074666000000012,-0.0041963999999999,-0.0008317999999995,-0.003649199999999,-0.0013143999999998,0,sub_2
-0.0052146000000001,0.0026028000000012,-0.0042927999999999,-0.0008375999999995,0.0010142000000009,0.0046616000000001,0,sub_2
0.0039749999999997,-0.0013723999999987,-0.0052101999999999,-0.0023425999999995,-0.001324999999999,0.0048676,0,sub_2
0.0107579999999997,0.0020752000000012,-0.0040929999999999,-0.0068515999999995,-0.011057199999999,-0.0017731999999998,0,sub_2
0.0153057999999997,0.0072164000000012,-0.0018183999999999,-0.0100689999999995,-0.020146999999999,-0.0103287999999998,0,sub_2
0.0113051999999997,0.0145126000000012,0.000232,-0.0073023999999995,-0.022883199999999,-0.0145777999999998,0,sub_2
0.0034463999999997,0.0141186000000012,-0.0014861999999999,-0.0026087999999995,-0.017768799999999,-0.0124141999999998,0,sub_2
-0.0034682000000001,0.0119814000000012,-0.0040287999999999,-0.0009051999999995,-0.010312199999999,-0.0072831999999998,0,sub_2
-0.0023754000000001,0.0077162000000012,-0.0052633999999999,-0.0015281999999995,-0.0013821999999991,-0.0021715999999998,0,sub_2
0.0010061999999998,0.0051546000000012,-0.0058603999999999,-0.0023681999999995,0.0039378000000008,0.0001658000000001,0,sub_2
0.0060253999999998,0.0044710000000012,-0.0050709999999999,-0.0070393999999995,0.0063090000000008,-0.0026471999999999,0,sub_2
0.0084515999999998,0.0093172000000012,-0.0030895999999999,-0.0115063999999995,0.0044534000000008,-0.0082203999999999,0,sub_2
0.0068787999999998,0.0163302000000012,-0.0016601999999999,-0.0095935999999995,0.0006466000000008,-0.0109693999999999,0,sub_2
-0.0015446000000001,0.0191344000000012,-0.0019939999999999,-0.0006861999999995,-0.0072581999999991,-0.0072549999999999,0,sub_2
-0.0067442000000001,0.0171170000000012,-0.0028947999999999,0.0078020000000004,-0.009849799999999,8.180000000009222e-05,0,sub_2
-0.0084068000000001,0.0113290000000012,-0.0039507999999999,0.0137432000000004,-0.008600799999999,0.0082504,0,sub_2
-0.0061446000000001,0.0067672000000012,-0.0047605999999999,0.0162826000000004,-0.006930999999999,0.0146752,0,sub_2
0.0005781999999998,0.0012820000000012,-0.0051119999999998,0.0156454000000004,-0.006289599999999,0.01467,0,sub_2
0.0089165999999998,0.0004388000000012,-0.0028981999999998,0.0118430000000004,-0.003483399999999,0.0088716,0,sub_2
0.0138065999999997,0.0018500000000012,-0.0021521999999998,0.0076110000000004,-0.000890399999999,0.0034976000000001,0,sub_2
0.0176651999999997,0.0041988000000012,-0.0020745999999998,0.0054920000000004,-0.003200199999999,-0.0005539999999998,0,sub_2
0.0194299999999997,0.0060200000000012,-0.0019967999999998,0.0063390000000004,-0.008934199999999,-0.0032985999999998,0,sub_2
0.0172753999999997,0.0066550000000012,-0.0015529999999999,0.0078100000000004,-0.013623799999999,-0.0013399999999998,0,sub_2
0.0165895999999997,0.0060480000000012,-0.0022817999999999,0.0090550000000004,-0.018323999999999,0.0033944000000001,0,sub_2
0.0137411999999998,0.0059988000000012,-0.0020605999999999,0.0107066000000004,-0.029197399999999,0.0064304,0,sub_2
0.0080211999999998,0.0066086000000012,-0.0010581999999999,0.0146858000000004,-0.042434399999999,0.0098934,0,sub_2
-0.0004176000000001,0.0044802000000012,-0.0009737999999999,0.0187418000000004,-0.040536999999999,0.0114148,0,sub_2
-0.0085402000000001,0.0045206000000012,-0.0008709999999999,0.0276768000000004,-0.0458953999999991,0.0153438,0,sub_2
-0.0102938000000001,0.0075938000000012,0.0013852,0.0433640000000004,-0.074262599999999,0.0131538,0,sub_2
-0.0059838000000001,0.0074588000000012,-0.0040191999999999,0.0523624000000004,-0.081898999999999,0.0006354,0,sub_2
-0.0056436000000001,0.0064094000000012,-0.0121541999999999,0.0450672000000004,-0.053707199999999,-0.0064877999999999,0,sub_2
-0.0015240000000001,0.0082192000000012,-0.0131697999999999,0.0334624000000004,-0.027872199999999,-0.0065877999999999,0,sub_2
0.0079343999999998,0.0111596000000012,-0.0114319999999999,0.0197168000000004,-0.003735199999999,-0.0101331999999999,0,sub_2
0.0108071999999997,0.0097890000000012,-0.0120967999999999,7.18000000004857e-05,0.0410728000000009,-0.0096869999999999,0,sub_2
0.0093229999999997,0.0101792000000012,-0.0062237999999999,-0.0126605999999994,0.0668560000000008,0.000446,0,sub_2
0.0147615999999997,0.0112986000000012,0.0007834,-0.0084559999999995,0.0530052000000008,0.0054276,0,sub_2
0.0200369999999997,0.0101128000000012,0.000647,-0.0002271999999995,0.0265940000000008,0.0044714,0,sub_2
0.0192055999999997,0.0054144000000012,-0.0021115999999998,0.0031470000000004,0.0106446000000008,0.002186,0,sub_2
0.0184077999999997,0.0022816000000012,-0.0044407999999998,0.0022698000000004,-0.0006069999999991,0.0009332,0,sub_2
0.0172925999999997,0.0008868000000012,-0.0051327999999998,-9.219999999953396e-05,-0.009935799999999,-0.0003325999999999,0,sub_2
0.0135383999999997,0.0001488000000012,-0.0046285999999998,-0.0037301999999995,-0.013751999999999,-0.0018485999999999,0,sub_2
0.0090879999999998,0.0017672000000012,-0.0046345999999998,-0.0073593999999995,-0.014589799999999,-0.0023001999999999,0,sub_2
0.0058911999999998,0.0051798000000012,-0.0041713999999999,-0.0090759999999995,-0.015228799999999,-0.0008157999999999,0,sub_2
0.0017725999999998,0.0077530000000012,-0.0036537999999999,-0.0075647999999995,-0.013934399999999,0.0015676,0,sub_2
-0.0024444000000001,0.0098364000000012,-0.0040209999999999,-0.0049847999999995,-0.011793199999999,0.004385,0,sub_2
-0.0056094000000001,0.0110848000000012,-0.0045663999999999,-0.0030265999999994,-0.007511799999999,0.0052724,0,sub_2
-0.0069850000000001,0.0112398000000012,-0.0034917999999999,-0.0012789999999994,-0.003651399999999,0.0050906,0,sub_2
-0.0067736000000001,0.0101168000000012,-0.0033871999999999,0.0004772000000005,0.0002166000000009,0.002986,0,sub_2
-0.0042416000000001,0.0088998000000012,-0.0038923999999998,0.0009300000000004,0.0023600000000009,-0.0006453999999999,0,sub_2
0.0001091999999998,0.0080210000000012,-0.0036017999999998,0.0013826000000004,0.0045034000000009,-0.0042769999999999,0,sub_2
0.0046447999999998,0.0072374000000012,-0.0025615999999998,0.0030982000000004,0.0042930000000009,-0.0064011999999999,0,sub_2
0.0083501999999998,0.0061028000000012,-0.0026143999999998,0.0043718000000004,0.0034698000000009,-0.0065979999999999,0,sub_2
0.0116447999999997,0.0054918000000012,-0.0032467999999998,0.0041392000000004,0.0022164000000009,-0.0044545999999999,0,sub_2
0.0138257999999998,0.0055998000000012,-0.0034051999999999,0.0039008000000004,0.0013824000000009,-0.0006027999999999,0,sub_2
0.0139477999999997,0.0055108000000012,-0.0034707999999999,0.0036596000000004,0.0001214000000009,0.0034632,0,sub_2
0.0132317999999997,0.0056872000000012,-0.0038885999999999,0.0023582000000004,-0.000493399999999,0.0066664,0,sub_2
0.0120501999999997,0.0066048000000012,-0.0038097999999999,0.0010636000000004,-0.002411399999999,0.0079416,0,sub_2
0.0095483999999997,0.0074102000000012,-0.0031381999999999,0.0002064000000004,-0.004321599999999,0.0068698,0,sub_2
0.0065165999999997,0.0070774000000012,-0.0033269999999999,-0.0006403999999995,-0.004949399999999,0.0047282,0,sub_2
0.0039969999999998,0.0069162000000012,-0.0038175999999999,-0.0019061999999995,-0.004507799999999,0.0019414,0,sub_2
0.0026843999999998,0.0068928000000012,-0.0037531999999999,-0.0030101999999995,-0.004174399999999,-0.0008499999999999,0,sub_2
0.0016797999999998,0.0063644000000012,-0.0040447999999999,-0.0041105999999995,-0.002352199999999,-0.0030021999999998,0,sub_2
0.0021121999999998,0.0067472000000012,-0.0042795999999998,-0.0043669999999995,-0.000965799999999,-0.0034389999999998,0,sub_2
0.0027985999999998,0.0082512000000012,-0.0042031999999998,-0.0037813999999995,-0.001290199999999,-0.0030129999999998,0,sub_2
0.0032169999999997,0.0088422000000012,-0.0044171999999998,-0.0025537999999995,-0.000766199999999,-0.0021561999999999,0,sub_2
0.0036205999999997,0.0087074000000012,-0.0045019999999998,-0.0019155999999995,0.0005032000000009,-0.0004441999999999,0,sub_2
0.0039671999999998,0.0088196000000012,-0.0043893999999998,-0.0012773999999995,0.0015604000000009,0.0010544,0,sub_2
0.0043907999999998,0.0079902000000012,-0.0045623999999998,-0.0014917999999995,0.0021968000000009,0.0019068,0,sub_2
0.0063453999999998,0.0068878000000012,-0.0041547999999998,-0.0019145999999995,0.0028384000000009,0.0016894,0,sub_2
0.0085241999999998,0.0062746000000012,-0.0031517999999998,-0.0023451999999995,0.0013510000000009,0.0010472,0,sub_2
0.0095547999999998,0.0061328000000012,-0.0030101999999998,-0.0027737999999995,-0.000134599999999,-2.199999999990712e-05,0,sub_2
0.0103267999999998,0.0060272000000012,-0.0034161999999998,-0.0034167999999995,-0.001620399999999,-0.0008791999999998,0,sub_2
0.0099917999999998,0.0064494000000012,-0.0034729999999998,-0.0036319999999995,-0.002469999999999,-0.0013069999999999,0,sub_2
0.0080331999999998,0.0070996000000012,-0.0041337999999998,-0.0038453999999994,-0.002469199999999,-0.0013083999999998,0,sub_2
0.0063965999999998,0.0077762000000012,-0.0043875999999998,-0.0038443999999994,-0.001619599999999,-0.0006683999999998,0,sub_2
0.0051697999999998,0.0079684000000012,-0.0045181999999998,-0.0036319999999994,-0.001196799999999,-2.659999999988722e-05,0,sub_2
0.0040005999999998,0.0077464000000012,-0.0044659999999998,-0.0034155999999994,-0.000982799999999,-0.0004525999999999,0,sub_2
0.0037917999999998,0.0079210000000012,-0.0046121999999998,-0.0043001999999994,-0.001351199999999,-0.0015275999999998,0,sub_2
0.0042271999999998,0.0085666000000012,-0.0041913999999999,-0.0045465999999994,-0.001723599999999,-0.0021709999999999,0,sub_2
0.0043355999999998,0.0077532000000012,-0.0039079999999999,-0.0050023999999994,-0.001242799999999,-0.0028169999999999,0,sub_2
0.0044581999999998,0.0077660000000012,-0.0037495999999999,-0.0056677999999994,-0.000333599999999,-0.0038921999999998,0,sub_2
0.0048397999999998,0.0082716000000012,-0.0034975999999999,-0.0057007999999995,0.0001422000000009,-0.0036805999999998,0,sub_2
0.0044413999999998,0.0080912000000012,-0.0032057999999998,-0.0037793999999995,0.0014096000000009,-0.0026005999999998,0,sub_2
0.0039979999999998,0.0073748000000012,-0.0035157999999998,-0.0025009999999995,0.0018280000000009,-0.0017375999999998,0,sub_2
0.0042613999999997,0.0077930000000012,-0.0036581999999998,-0.0012255999999995,0.0011826000000009,-0.0013005999999998,0,sub_2
0.0050091999999997,0.0078522000000012,-0.0038007999999998,0.0002584000000004,-0.000528799999999,-0.0008607999999998,0,sub_2
0.0060539999999997,0.0081448000000012,-0.0034371999999998,0.0015320000000004,-0.002024599999999,-0.0008499999999998,0,sub_2
0.0071657999999997,0.0081392000000012,-0.0036703999999998,0.0013138000000004,-0.003513599999999,-0.0012769999999998,0,sub_2
0.0075633999999997,0.0078222000000012,-0.0037551999999998,0.0013128000000004,-0.003938999999999,-0.0014901999999998,0,sub_2
0.0072007999999998,0.0085176000000012,-0.0035369999999998,0.0015282000000004,-0.004147999999999,-0.0012761999999998,0,sub_2
0.0062701999999997,0.0085702000000012,-0.0034235999999998,0.0021656000000004,-0.004574999999999,-0.0002043999999998,0,sub_2
0.0055065999999997,0.0084902000000012,-0.0036351999999998,0.0023762000000004,-0.004788399999999,0.0010778000000001,0,sub_2
0.0050817999999997,0.0086992000000012,-0.0033859999999999,0.0028030000000004,-0.004575399999999,0.0021474000000001,0,sub_2
0.0053159999999997,0.0085974000000012,-0.0027185999999999,0.0032346000000004,-0.004145999999999,0.0023622,0,sub_2
0.0058719999999997,0.0073712000000012,-0.0030155999999999,0.0032366000000004,-0.003931999999999,0.0021484,0,sub_2
0.0064251999999998,0.0065942000000011,-0.0028015999999999,0.0028156000000004,-0.003500999999999,0.0012904,0,sub_2
0.0064553999999998,0.0063648000000011,-0.0032217999999999,0.0023956000000004,-0.003068999999999,0.0002188,0,sub_2
0.0068885999999998,0.0059672000000012,-0.0032517999999999,0.0026100000000004,-0.003281199999999,-0.0002067999999999,0,sub_2
0.0068709999999997,0.0064042000000012,-0.0037815999999998,0.0028086000000004,-0.003896799999999,5.00000000009243e-06,0,sub_2
0.0064657999999997,0.0065842000000012,-0.0034529999999998,0.0025794000000004,-0.004299599999999,0.000641,0,sub_2
0.0066649999999997,0.0075122000000012,-0.0035165999999998,0.0029922000000004,-0.004278399999999,0.001281,0,sub_2
0.0068967999999997,0.0073400000000012,-0.0028947999999998,0.0034032000000004,-0.004683399999999,0.0019214,0,sub_2
0.0063959999999997,0.0074260000000012,-0.0031855999999998,0.0031808000000004,-0.004019199999999,0.0021288,0,sub_2
0.0062297999999998,0.0070638000000012,-0.0030463999999999,0.0029674000000004,-0.004018399999999,0.0021274,0,sub_2
