userAcceleration.x,userAcceleration.y,userAcceleration.z,rotationRate.x,rotationRate.y,rotationRate.z,label,subject
0.0021627999999998,0.0038486000000012,-0.0025011999999999,0.0065144000000004,0.0014214000000008,0.001207,0,sub_23
0.0022327999999998,0.0032888000000011,-0.0027175999999999,0.0067274000000004,0.0014210000000008,0.0012084,0,sub_23
0.0020373999999998,0.0028268000000011,-0.0024343999999999,0.0064836000000004,0.0009886000000008,0.0016506,0,sub_23
0.0019367999999998,0.0021796000000011,-0.0021957999999999,0.0058132000000004,0.0007698000000008,0.0023032,0,sub_23
0.0015737999999998,0.0022284000000011,-0.0023129999999999,0.0051456000000004,0.0007658000000008,0.0025282,0,sub_23
0.0013495999999998,0.0022242000000011,-0.0026005999999999,0.0044772000000004,0.0009730000000008,0.0031802,0,sub_23
0.0011563999999998,0.0022414000000012,-0.0024587999999999,0.0042394000000004,0.0013942000000008,0.003194,0,sub_23
0.0011323999999998,0.0025756000000012,-0.0029945999999999,0.0040304000000004,0.0020358000000008,0.0027642,0,sub_23
0.0010211999999998,0.0028698000000012,-0.0035107999999999,0.0040358000000004,0.0026774000000008,0.0021224,0,sub_23
0.0015707999999998,0.0027626000000011,-0.0032679999999999,0.0042528000000004,0.0028922000000008,0.0014826,0,sub_23
0.0017789999999998,0.0027136000000011,-0.0028961999999999,0.0044438000000004,0.0028832000000008,0.0008576,0,sub_23
0.0020291999999998,0.0027598000000011,-0.0030537999999999,0.0042042000000004,0.0026602000000007,0.0008708,0,sub_23
0.0023401999999998,0.0025308000000011,-0.0024707999999999,0.0039658000000004,0.0028624000000007,0.0010972,0,sub_23
0.0027357999999998,0.0027160000000011,-0.0019909999999999,0.0041530000000004,0.0026382000000007,0.0011134,0,sub_23
0.0023477999999998,0.0022472000000011,-0.0020545999999999,0.0041308000000004,0.0030546000000007,0.0009136,0,sub_23
0.0031041999999998,0.0019076000000011,-0.0023731999999999,0.0034952000000004,0.0039104000000007,0.0006944,0,sub_23
0.0034557999999998,0.0022624000000011,-0.0025803999999999,0.0032892000000004,0.0045550000000008,-0.0003761999999999,0,sub_23
0.0032359999999998,0.0026572000000011,-0.0030133999999998,0.0037136000000004,0.0039158000000008,-0.0005861999999999,0,sub_23
0.0025139999999998,0.0022238000000011,-0.0029407999999998,0.0032488000000004,0.0019908000000008,0.0002814,0,sub_23
0.0022403999999998,0.0021714000000011,-0.0025229999999998,0.0023570000000004,0.0002798000000008,0.0013596,0,sub_23
0.0015523999999998,0.0021866000000012,-0.0022741999999998,0.0018912000000004,-0.0014337999999991,0.0026542,0,sub_23
0.0009257999999998,0.0021944000000012,-0.0018403999999998,0.0020666000000004,-0.0022999999999991,0.0045932,0,sub_23
0.0008213999999998,0.0019938000000012,-0.0017597999999999,0.0020362000000004,-0.0025219999999991,0.0054618,0,sub_23
0.0010685999999998,0.0025530000000011,-0.0021093999999999,0.0022520000000004,-0.0018833999999991,0.0054624,0,sub_23
0.0015005999999998,0.0029896000000011,-0.0026077999999999,0.0033186000000004,-0.0016747999999991,0.005683,0,sub_23
0.0011827999999998,0.0026626000000011,-0.0027079999999999,0.0041736000000004,-0.0018879999999991,0.0050482,0,sub_23
0.0008921999999997,0.0020818000000011,-0.0029491999999999,0.0041452000000004,-0.0029559999999991,0.0044192,0,sub_23
0.0012135999999997,0.0019104000000011,-0.0029071999999999,0.0036912000000004,-0.0040217999999991,0.0035736,0,sub_23
0.0015319999999997,0.0008992000000012,-0.0023907999999999,0.0038786000000004,-0.0046641999999991,0.0029456,0,sub_23
0.0014723999999997,0.0001462000000012,-0.0023135999999999,0.0030020000000004,-0.0048759999999991,0.002096,0,sub_23
0.0023279999999997,0.0008302000000012,-0.0023117999999999,0.0019120000000004,-0.0046627999999991,0.0016716,0,sub_23
0.0025233999999998,0.0013656000000012,-0.0023699999999999,0.0012728000000004,-0.0046593999999991,0.0014534,0,sub_23
0.0026043999999998,0.0016522000000012,-0.0023507999999999,0.0008440000000004,-0.0046591999999991,0.0018776,0,sub_23
0.0024257999999998,0.0021524000000012,-0.0020881999999999,-9.999999999535884e-06,-0.0042315999999991,0.0022982,0,sub_23
0.0018881999999998,0.0025326000000011,-0.0022057999999999,-0.0004615999999995,-0.0035995999999991,0.002945,0,sub_23
0.0020527999999998,0.0025174000000011,-0.0020913999999999,-5.659999999955592e-05,-0.0027555999999991,0.0031702,0,sub_23
0.0024367999999998,0.0023072000000011,-0.0022295999999999,0.0003522000000004,-0.0016959999999991,0.0027544,0,sub_23
0.0024303999999998,0.0022720000000011,-0.0028087999999999,0.0005486000000004,-0.0004227999999992,0.0023366,0,sub_23
0.0027279999999998,0.0019188000000011,-0.0037349999999999,0.0007490000000004,0.0008540000000007,0.0010644,0,sub_23
0.0027781999999998,0.0021380000000011,-0.0038471999999999,0.0009690000000004,0.0010718000000007,-0.0002161999999999,0,sub_23
0.0019297999999998,0.0016182000000011,-0.0038867999999999,0.0009696000000004,0.0004362000000007,-0.0010699999999999,0,sub_23
0.0009771999999998,0.0016874000000011,-0.0034123999999999,0.0005416000000004,1.2400000000771864e-05,-0.0012861999999999,0,sub_23
0.0007423999999998,0.0017234000000011,-0.0029067999999999,0.0003044000000004,-0.0004175999999992,-0.0021327999999999,0,sub_23
0.0006673999999998,0.0027168000000011,-0.0023705999999999,6.240000000046408e-05,-0.0008517999999991,-0.0019111999999999,0,sub_23
0.0009121999999998,0.0031136000000011,-0.0022443999999999,0.0004632000000004,-0.0008613999999991,-0.0018993999999999,0,sub_23
0.0010055999999998,0.0030178000000012,-0.0016217999999999,0.0002230000000004,-0.0008693999999991,-0.0016783999999999,0,sub_23
0.0017257999999998,0.0025940000000011,-0.0018193999999999,0.0001972000000004,-0.0008771999999991,-0.0016695999999999,0,sub_23
0.0020717999999997,0.0025578000000011,-0.0020079999999999,0.0001960000000004,-0.0008775999999991,-0.0014559999999999,0,sub_23
0.0018295999999997,0.0022430000000011,-0.0024795999999999,0.0004090000000004,-0.0010903999999991,-0.0016679999999999,0,sub_23
0.0019187999999997,0.0017850000000011,-0.0023351999999999,0.0001944000000004,-0.0015145999999991,-0.0018827999999999,0,sub_23
0.0018307999999997,0.0022944000000011,-0.0027987999999999,0.0003846000000004,-0.0015225999999991,-0.0020867999999999,0,sub_23
0.0018097999999997,0.0025346000000012,-0.0026995999999999,0.0003604000000004,-0.0017429999999991,-0.0022919999999999,0,sub_23
0.0014781999999998,0.0025076000000012,-0.0023793999999999,0.0003342000000004,-0.0019651999999991,-0.0020699999999998,0,sub_23
0.0019151999999998,0.0026412000000012,-0.0021593999999999,0.0003090000000004,-0.0021863999999991,-0.0020615999999998,0,sub_23
0.0023093999999998,0.0024770000000012,-0.0022385999999999,-0.0001427999999995,-0.0021937999999991,-0.0018427999999998,0,sub_23
0.0027647999999998,0.0028768000000012,-0.0027341999999999,-0.0003563999999994,-0.0024049999999991,-0.0020577999999998,0,sub_23
0.0029851999999998,0.0032710000000012,-0.0031437999999999,-0.0005699999999995,-0.0030403999999991,-0.0026995999999998,0,sub_23
0.0027525999999997,0.0033852000000012,-0.0037071999999999,-0.0003645999999995,-0.0045329999999991,-0.0024827999999998,0,sub_23
0.0026343999999997,0.0026510000000012,-0.0037227999999999,-0.0010381999999995,-0.0062443999999991,-0.0020517999999998,0,sub_23
0.0025029999999997,0.0024078000000012,-0.0038333999999999,-0.0014917999999995,-0.0066773999999991,-0.0018343999999998,0,sub_23
0.0020259999999997,0.0017754000000012,-0.0040449999999999,-0.0019443999999995,-0.0064729999999991,-0.0011905999999999,0,sub_23
0.0013567999999997,0.0016878000000012,-0.0035779999999999,-0.0013281999999995,-0.0054219999999991,-0.0001129999999999,0,sub_23
0.0015203999999998,0.0017830000000011,-0.0033061999999999,-0.0009195999999995,-0.0041529999999991,-0.0001053999999999,0,sub_23
0.0011055999999998,0.0022656000000011,-0.0030011999999999,0.0003690000000004,-0.0024521999999991,-0.0003121999999999,0,sub_23
0.0010643999999998,0.0028526000000011,-0.0025213999999999,0.0020776000000004,-0.0024563999999991,-0.0007277999999999,0,sub_23
0.0013035999999998,0.0028528000000011,-0.0017825999999999,0.0033566000000004,-0.0033103999999991,-0.0013587999999999,0,sub_23
0.0020621999999998,0.0027600000000011,-0.0017013999999999,0.0037596000000004,-0.0050195999999991,-0.0019903999999999,0,sub_23
0.0021995999999997,0.0019994000000012,-0.0011635999999999,0.0037358000000004,-0.0060905999999991,-0.0019847999999999,0,sub_23
0.0021351999999997,0.0017304000000012,-0.0013067999999999,0.0030750000000004,-0.0065201999999991,-0.0019845999999999,0,sub_23
0.0022047999999997,0.0015794000000012,-0.0019435999999999,0.0022056000000004,-0.0060961999999991,-0.0022003999999999,0,sub_23
0.0018565999999997,0.0018882000000012,-0.0024861999999999,0.0017618000000004,-0.0056745999999991,-0.0021995999999999,0,sub_23
0.0013405999999997,0.0020132000000012,-0.0026469999999999,0.0015520000000004,-0.0046091999999991,-0.0019889999999998,0,sub_23
0.0013695999999997,0.0022506000000011,-0.0027465999999999,0.0011318000000004,-0.0033283999999991,-0.0022073999999998,0,sub_23
0.0013563999999998,0.0024390000000011,-0.0021649999999999,0.0009190000000004,-0.0026899999999991,-0.0017825999999998,0,sub_23
0.0009851999999998,0.0024086000000011,-0.0022321999999999,0.0009156000000004,-0.0024799999999991,-0.0009283999999998,0,sub_23
0.0012735999999997,0.0021494000000011,-0.0017069999999999,0.0011050000000004,-0.0020621999999991,-0.0004947999999999,0,sub_23
0.0020601999999997,0.0018618000000011,-0.0018471999999999,0.0012932000000004,-0.0018575999999991,-6.079999999992313e-05,0,sub_23
0.0019805999999997,0.0022772000000012,-0.0023425999999998,0.0014796000000004,-0.0020789999999991,0.0003736,0,sub_23
0.0020619999999997,0.0022118000000012,-0.0028729999999998,0.0023060000000004,-0.0025147999999991,0.0005992,0,sub_23
0.0020233999999997,0.0023008000000012,-0.0023689999999998,0.0031326000000004,-0.0029507999999991,0.0008248,0,sub_23
0.0016759999999997,0.0026740000000012,-0.0027143999999998,0.0033398000000004,-0.0031685999999991,0.0018946,0,sub_23
0.0009065999999997,0.0029120000000012,-0.0026317999999998,0.0033358000000004,-0.0029595999999991,0.0029624,0,sub_23
0.0009289999999997,0.0030342000000011,-0.0023601999999999,0.0039556000000004,-0.0027561999999991,0.0038248,0,sub_23
0.0011199999999997,0.0030896000000011,-0.0025019999999998,0.0043630000000004,-0.0023389999999991,0.0046854,0,sub_23
0.0016087999999997,0.0033042000000011,-0.0027013999999998,0.0043446000000004,-0.0017071999999991,0.0055426,0,sub_23
0.0019529999999997,0.0031460000000011,-0.0030409999999999,0.0047558000000004,-0.0010743999999991,0.005762,0,sub_23
0.0020825999999997,0.0024940000000011,-0.0029073999999999,0.0053814000000004,-0.0006535999999992,0.0055558,0,sub_23
0.0021337999999997,0.0020838000000012,-0.0027735999999998,0.0058126000000004,0.0001984000000007,0.005344,0,sub_23
0.0020229999999997,0.0017892000000012,-0.0029801999999999,0.0058192000000004,0.0008412000000007,0.0044886,0,sub_23
0.0016487999999997,0.0013424000000012,-0.0028863999999999,0.0058228000000004,0.0010570000000007,0.0038474,0,sub_23
0.0018483999999997,0.0014274000000012,-0.0022507999999999,0.0060142000000004,0.0006264000000008,0.0038536,0,sub_23
0.0024241999999997,0.0019382000000012,-0.0018963999999999,0.0055634000000004,0.0001964000000008,0.0042826,0,sub_23
0.0024399999999997,0.0019546000000012,-0.0018969999999999,0.0049030000000004,0.0004070000000008,0.0044956,0,sub_23
0.0027081999999997,0.0025630000000012,-0.0021319999999999,0.0050922000000004,-2.5199999999168128e-05,0.004929,0,sub_23
0.0024577999999998,0.0025672000000012,-0.0022823999999999,0.0052796000000004,-0.0004591999999991,0.0057896,0,sub_23
0.0017745999999998,0.0020634000000012,-0.0019583999999999,0.0044180000000004,-0.0013115999999991,0.0066392,0,sub_23
0.0010231999999998,0.0012256000000012,-0.0023341999999999,0.0037728000000004,-0.0015255999999991,0.0074894,0,sub_23
0.0009183999999998,0.0013142000000012,-0.0021771999999999,0.0035554000000004,-0.0017401999999992,0.008129,0,sub_23
0.0006429999999998,0.0008226000000011,-0.0016855999999999,0.0029170000000004,-0.0006751999999992,0.008764,0,sub_23
0.0004255999999998,0.0012566000000011,-0.0015995999999999,0.0029024000000004,-3.839999999920804e-05,0.0087668,0,sub_23
0.0005447999999998,0.0017312000000011,-0.0022461999999999,0.0037480000000004,0.0014500000000007,0.0081336,0,sub_23
0.0010411999999997,0.0024052000000011,-0.0023713999999999,0.0048040000000004,0.0018742000000007,0.007076,0,sub_23
0.0013937999999997,0.0021924000000011,-0.0026195999999999,0.0056420000000004,0.0014460000000008,0.0062316,0,sub_23
0.0013577999999997,0.0025564000000012,-0.0025645999999999,0.0058350000000004,0.0003794000000008,0.0058108,0,sub_23
0.0018145999999997,0.0024594000000012,-0.0027341999999999,0.0056184000000004,-0.0006831999999991,0.0053834,0,sub_23
0.0022977999999997,0.0018116000000012,-0.0022119999999999,0.0049790000000004,-0.0008917999999991,0.0049518,0,sub_23
0.0022767999999998,0.0021080000000012,-0.0025305999999999,0.0039032000000004,0.0001770000000008,0.0047326,0,sub_23
0.0023613999999998,0.0024094000000012,-0.0026969999999999,0.0030416000000004,0.0012460000000008,0.0043012,0,sub_23
0.0027407999999998,0.0024482000000012,-0.0029343999999999,0.0028164000000004,0.0016726000000008,0.0040886,0,sub_23
0.0026279999999998,0.0021940000000012,-0.0022345999999999,0.0023816000000004,0.0027402000000007,0.0036602,0,sub_23
0.0022027999999998,0.0026574000000012,-0.0024799999999999,0.0017296000000004,0.0033804000000007,0.003658,0,sub_23
0.0021373999999998,0.0025298000000012,-0.0024033999999999,0.0019446000000004,0.0035938000000007,0.0034454,0,sub_23
0.0022075999999998,0.0022962000000012,-0.0027189999999999,0.0019444000000004,0.0038064000000007,0.0036586,0,sub_23
0.0025159999999998,0.0020738000000012,-0.0029161999999999,0.0010992000000004,0.0053028000000007,0.0032234,0,sub_23
0.0036917999999998,0.0020076000000011,-0.0034469999999999,-0.0001843999999995,0.0068020000000008,0.0023608,0,sub_23
0.0040371999999998,0.0021232000000011,-0.0035457999999999,-0.0010383999999995,0.0085148000000008,0.0010738,0,sub_23
0.0035457999999998,0.0020312000000011,-0.0032551999999999,-0.0023269999999995,0.0089490000000008,0.0002126,0,sub_23
0.0029173999999998,0.0022722000000011,-0.0029187999999999,-0.0038345999999995,0.0085298000000008,-0.0002217999999999,0,sub_23
0.0018899999999998,0.0019754000000011,-0.0018843999999999,-0.0044953999999995,0.0072530000000008,-8.199999999923373e-06,0,sub_23
0.0006473999999998,0.0021750000000011,-0.0013953999999999,-0.0042909999999995,0.0061838000000008,0.000849,0,sub_23
0.0004177999999997,0.0021576000000011,-0.0009095999999999,-0.0038789999999995,0.0042598000000008,0.002136,0,sub_23
0.0006763999999997,0.0020498000000011,-0.0011509999999999,-0.0032523999999995,0.0023360000000008,0.003211,0,sub_23
0.0012753999999997,0.0016000000000011,-0.0015715999999999,-0.0026387999999995,0.0004144000000008,0.0038614,0,sub_23
0.0022325999999997,0.0017484000000011,-0.0023803999999999,-0.0020191999999995,-0.0008655999999991,0.00387,0,sub_23
0.0024853999999997,0.0015472000000011,-0.0027499999999998,-0.0016099999999995,-0.0019299999999991,0.0034496,0,sub_23
0.0024393999999998,0.0011314000000011,-0.0031931999999998,-0.0011969999999995,-0.0025665999999991,0.0026014,0,sub_23
0.0019799999999998,0.0013300000000011,-0.0027717999999998,-0.0007841999999995,-0.0025667999999991,0.0023932,0,sub_23
0.0010255999999998,0.0015860000000011,-0.0016611999999998,-0.0001393999999995,-0.0015037999999991,0.0023962,0,sub_23
2.399999999819213e-06,0.0015686000000012,-0.0015139999999998,0.0002900000000004,-0.0008661999999991,0.0023984,0,sub_23
0.0005069999999998,0.0017782000000012,-0.0019561999999999,0.0007156000000004,-0.0006561999999991,0.0028284,0,sub_23
0.0009015999999998,0.0022658000000012,-0.0022929999999999,0.0009154000000004,-0.0002315999999991,0.0032576,0,sub_23
0.0023663999999998,0.0019986000000012,-0.0025537999999999,0.0011210000000004,0.0008350000000008,0.0030452,0,sub_23
0.0036605999999998,0.0023364000000011,-0.0033431999999999,0.0008988000000004,0.0008414000000008,0.0019766,0,sub_23
0.0047129999999997,0.0023846000000011,-0.0034529999999999,0.0006698000000004,0.0002052000000008,0.0017632,0,sub_23
0.0037027999999998,0.0022168000000011,-0.0032029999999999,5.4000000004441984e-06,-0.0014983999999991,0.0024028,0,sub_23
0.0038365999999998,0.0012714000000011,-0.0028363999999999,-0.0002187999999995,-0.0032041999999991,0.0030444,0,sub_23
0.0026937999999998,0.0012484000000011,-0.0027853999999999,-0.0006523999999995,-0.0040571999999991,0.0036834,0,sub_23
0.0019653999999998,0.0006578000000012,-0.0025811999999999,-0.0006551999999995,-0.0036351999999991,0.004751,0,sub_23
0.0011945999999998,0.0006752000000012,-0.0023251999999999,-0.0002429999999995,-0.0029995999999991,0.0056078,0,sub_23
0.0012327999999998,0.0006978000000011,-0.0021299999999999,0.0010274000000004,-0.0021503999999991,0.0056156,0,sub_23
0.0005865999999998,0.0017214000000011,-0.0020481999999999,0.0018680000000004,-0.0017267999999991,0.0058346,0,sub_23
0.0004593999999998,0.0018648000000011,-0.0024773999999999,0.0027018000000004,-0.0027947999999991,0.0060554,0,sub_23
0.0002009999999998,0.0019240000000011,-0.0024413999999999,0.0035326000000004,-0.0042897999999991,0.0064904,0,sub_23
0.0009475999999998,0.0017158000000011,-0.0026207999999999,0.0041676000000004,-0.0055693999999991,0.0062828,0,sub_23
0.0016655999999998,0.0009548000000011,-0.0022909999999999,0.0043836000000004,-0.0055673999999991,0.0056434,0,sub_23
0.0024831999999998,-0.0004471999999987,-0.0019557999999999,0.0043932000000004,-0.0047097999999991,0.0043606,0,sub_23
0.0032009999999998,-0.0005443999999987,-0.0015441999999999,0.0039654000000004,-0.0034225999999991,0.0028596,0,sub_23
0.0039617999999998,-0.0005717999999987,-0.0016661999999999,0.0033232000000004,-0.0021353999999991,0.0015708,0,sub_23
0.0034129999999998,-0.0008271999999987,-0.0018963999999999,0.0024638000000004,-0.0010631999999991,0.0009216,0,sub_23
0.0026591999999998,1.300000000121291e-05,-0.0022825999999999,0.0015978000000004,-0.0006337999999991,0.0011278,0,sub_23
0.0020181999999998,0.0013788000000012,-0.0023911999999999,0.0007258000000004,-0.0008459999999991,0.0019756,0,sub_23
0.0018013999999998,0.0018348000000011,-0.0024287999999999,0.0007170000000004,-0.0017021999999991,0.0030448,0,sub_23
0.0014719999999998,0.0024058000000011,-0.0029535999999998,0.0009226000000004,-0.0027705999999991,0.0036884,0,sub_23
0.0014253999999998,0.0032450000000011,-0.0025951999999999,0.0013414000000004,-0.0038395999999991,0.0043336,0,sub_23
0.0017201999999998,0.0033126000000011,-0.0020853999999999,0.0021760000000004,-0.0046957999999991,0.0047658,0,sub_23
0.0014105999999998,0.0030788000000011,-0.0019309999999999,0.0032270000000004,-0.0051259999999991,0.0049854,0,sub_23
0.0009229999999998,0.0027128000000012,-0.0016373999999998,0.0036398000000004,-0.0051277999999991,0.0052,0,sub_23
0.0008811999999998,0.0020644000000012,-0.0016667999999999,0.0042632000000004,-0.0053451999999991,0.0058436,0,sub_23
0.0011323999999998,0.0015920000000012,-0.0019315999999998,0.0046780000000004,-0.0051331999999991,0.0058442,0,sub_23
0.0017149999999998,0.0010952000000012,-0.0027163999999998,0.0044666000000004,-0.0047061999999991,0.0058422,0,sub_23
0.0022715999999998,0.0013024000000012,-0.0028847999999998,0.0042522000000004,-0.0047061999999991,0.0060542,0,sub_23
0.0019931999999998,0.0020352000000012,-0.0029523999999998,0.0042540000000004,-0.0042799999999991,0.0060536,0,sub_23
0.0018707999999998,0.0028058000000011,-0.0016317999999998,0.0036096000000004,-0.0029981999999991,0.0058314,0,sub_23
0.0020363999999997,0.0025390000000011,-0.0015203999999999,0.0031768000000004,-0.0019311999999991,0.0058246,0,sub_23
0.0017909999999997,0.0026600000000011,-0.0018743999999999,0.0029562000000004,-0.0010779999999991,0.0058194,0,sub_23
0.0017793999999997,0.0020458000000011,-0.0023613999999999,0.0027386000000004,-9.999999999208123e-06,0.0053868,0,sub_23
0.0029599999999997,0.0013358000000011,-0.0026549999999999,0.0027334000000004,0.0008444000000007,0.004956,0,sub_23
0.0032257999999997,0.0009356000000012,-0.0036377999999999,0.0027370000000004,0.0008480000000007,0.0041014,0,sub_23
0.0032325999999998,0.0012632000000012,-0.0033483999999999,0.0023110000000004,0.0006384000000007,0.0036714,0,sub_23
0.0036207999999998,0.0010816000000012,-0.0024149999999999,0.0016746000000004,0.0010688000000007,0.003239,0,sub_23
0.0034891999999998,0.0011740000000012,-0.0014549999999999,0.0010244000000004,0.0010724000000008,0.0030174,0,sub_23
0.0033619999999998,0.0010180000000012,-0.0013145999999999,-0.0004811999999995,0.0010772000000008,0.003217,0,sub_23
0.0034389999999998,0.0006102000000012,-0.0013227999999999,-0.0017685999999995,0.0019344000000007,0.0032034,0,sub_23
0.0040117999999998,0.0002902000000012,-0.0020801999999999,-0.0032539999999995,0.0047158000000007,0.0016904,0,sub_23
0.0051465999999997,0.0007102000000012,-0.0035227999999999,-0.0051565999999995,0.0083560000000007,-0.0011081999999999,0,sub_23
0.0059535999999997,0.0011680000000012,-0.0052299999999999,-0.0076893999999995,0.0119976000000007,-0.0036943999999999,0,sub_23
0.0052371999999997,0.0011814000000012,-0.0060307999999999,-0.0095991999999995,0.0134994000000007,-0.0045641999999999,0,sub_23
0.0044383999999997,0.0016724000000012,-0.0048529999999999,-0.0113071999999995,0.0132926000000007,-0.0045757999999999,0,sub_23
0.0034795999999997,0.0024684000000012,-0.0039833999999999,-0.0123907999999995,0.0124422000000007,-0.0039453999999999,0,sub_23
0.0015105999999998,0.0029656000000011,-0.0023879999999999,-0.0119893999999995,0.0107300000000007,-0.0022353999999999,0,sub_23
0.0002791999999998,0.0030600000000011,-0.0014095999999999,-0.0103135999999995,0.0081592000000007,-8.819999999992367e-05,0,sub_23
0.0001099999999998,0.0029872000000011,-0.0003963999999999,-0.0084159999999995,0.0062320000000007,0.0007778,0,sub_23
3.199999999839269e-06,0.0029768000000011,-0.0013177999999999,-0.0065135999999995,0.0053700000000007,0.0016424,0,sub_23
0.0001319999999998,0.0027834000000011,-0.0015615999999999,-0.0043973999999995,0.0030130000000007,0.0031554,0,sub_23
0.0001897999999998,0.0022486000000011,-0.0022267999999999,-0.0027089999999995,2.0000000000791957e-05,0.004239,0,sub_23
0.0009159999999998,0.0024834000000011,-0.0026015999999999,-0.0020825999999995,-0.0029649999999991,0.004247,0,sub_23
0.0015903999999998,0.0021616000000011,-0.0028615999999999,-0.0012425999999995,-0.0044551999999991,0.0033948,0,sub_23
0.0028165999999998,0.0012314000000011,-0.0031911999999999,-0.0008243999999995,-0.0053029999999991,0.0021116,0,sub_23
0.0030787999999998,0.0007794000000011,-0.0033067999999999,-0.0014635999999995,-0.0046529999999991,0.0001782,0,sub_23
0.0032041999999998,0.0003382000000012,-0.0033509999999999,-0.0025341999999995,-0.0046423999999991,-0.0013301999999999,0,sub_23
0.0026139999999998,-0.0003107999999987,-0.0029561999999999,-0.0031857999999995,-0.0048521999999991,-0.0013395999999999,0,sub_23
0.0016593999999998,0.0003322000000012,-0.0025339999999999,-0.0040479999999995,-0.0057055999999991,-0.0002763999999999,0,sub_23
0.0005665999999998,0.0011460000000012,-0.0019197999999999,-0.0044873999999995,-0.0069881999999991,0.0012178,0,sub_23
0.0004373999999998,0.0017980000000012,-0.0013959999999999,-0.0034369999999995,-0.0087039999999991,0.00315,0,sub_23
0.0009267999999998,0.0028182000000012,-0.0012269999999999,-0.0017499999999995,-0.0091427999999991,0.0050796,0,sub_23
0.0015439999999998,0.0030374000000012,-0.0006079999999999,-5.119999999955594e-05,-0.0082981999999991,0.0057256,0,sub_23
0.0023809999999998,0.0028744000000012,-0.0006365999999999,0.0016532000000004,-0.0070237999999991,0.0055166,0,sub_23
0.0029457999999998,0.0025366000000012,-0.0006713999999999,0.0031472000000004,-0.0055339999999991,0.0048786,0,sub_23
0.0030191999999998,0.0017568000000012,-0.0014509999999999,0.0033562000000004,-0.0051049999999991,0.0042332,0,sub_23
0.0026569999999998,0.0012684000000012,-0.0018327999999999,0.0031428000000004,-0.0055283999999991,0.003805,0,sub_23
