userAcceleration.x,userAcceleration.y,userAcceleration.z,rotationRate.x,rotationRate.y,rotationRate.z,label,subject
0.0003501999999998,0.0005376000000011,-0.0002663999999999,0.0048788000000004,0.0075230000000007,0.0073364,0,sub_23
-0.0001724000000001,-0.0009369999999988,-0.0007169999999999,0.0046800000000004,0.0105076000000007,0.0071176,0,sub_23
0.0013389999999998,-0.0005913999999988,-0.0010045999999999,0.0036152000000004,0.0119990000000007,0.0077484,0,sub_23
0.0020097999999998,-0.0003427999999988,-0.0035255999999998,0.0042564000000004,0.0128470000000007,0.0079646,0,sub_23
0.0020673999999998,-0.0021015999999988,-0.0011017999999999,0.0040384000000004,0.0113586000000008,0.0071096,0,sub_23
0.0030891999999998,-0.0012263999999988,-0.0026637999999999,0.0025364000000004,0.0092348000000008,0.0064602,0,sub_23
0.0048679999999998,-0.0001533999999988,-0.0026495999999998,0.0014668000000004,0.0090246000000008,0.0064522,0,sub_23
0.0044829999999998,-0.0004001999999987,-0.0031993999999998,0.0010450000000004,0.0096674000000008,0.0060212,0,sub_23
0.0048517999999998,0.0003838000000012,-0.0036885999999999,0.0006192000000004,0.0088214000000008,0.0049512,0,sub_23
0.0043501999999998,0.0008942000000012,-0.0036829999999999,-0.0008849999999995,0.0060592000000008,0.004517,0,sub_23
0.0043525999999997,0.0005120000000012,-0.0037581999999999,-0.0021815999999995,0.0028666000000008,0.0049392,0,sub_23
0.0036333999999997,0.0014694000000012,-0.0036581999999999,-0.0034881999999995,-0.0016075999999991,0.0060036,0,sub_23
0.0031057999999997,0.0021926000000012,-0.0029233999999999,-0.0043649999999995,-0.0056563999999991,0.0068568,0,sub_23
0.0016841999999997,0.0025200000000012,-0.0023847999999999,-0.0033127999999995,-0.0080065999999991,0.0075076,0,sub_23
0.0012783999999997,0.0026436000000012,-0.0012163999999999,-0.0016043999999995,-0.0075859999999991,0.0073048,0,sub_23
0.0004149999999997,0.0024656000000012,-0.0008335999999999,0.0001128000000004,-0.0060967999999991,0.0062462,0,sub_23
-0.0002766000000001,0.0017366000000012,-0.0014663999999999,0.0026876000000004,-0.0043953999999991,0.0047664,0,sub_23
-0.0004348000000001,0.0001984000000012,-0.0016551999999999,0.0048346000000004,-0.0029053999999991,0.003284,0,sub_23
-0.0002396000000001,-0.0010025999999987,-0.0016937999999999,0.0056986000000004,-0.0018379999999991,0.0020068,0,sub_23
-0.0007648000000001,-0.0012533999999987,-0.0020003999999999,0.0063480000000004,-0.0009835999999991,0.0007284,0,sub_23
-0.0009616000000001,-0.0021267999999987,-0.0020693999999999,0.0063582000000004,0.0002984000000008,-0.0003413999999999,0,sub_23
-0.0004244000000001,-0.0034825999999987,-0.0015907999999999,0.0055208000000004,0.0026496000000008,-0.0016319999999999,0,sub_23
1.4199999999799527e-05,-0.0040571999999987,-0.0014663999999999,0.0042644000000004,0.0067066000000008,-0.0029277999999999,0,sub_23
0.0005197999999997,-0.0043441999999987,-0.0009625999999999,0.0021584000000004,0.0116190000000008,-0.0042305999999998,0,sub_23
0.0020457999999997,-0.0049071999999987,-0.0010847999999999,-0.0007995999999995,0.0171726000000008,-0.0051125999999998,0,sub_23
0.0030921999999997,-0.0037571999999987,-0.0012071999999999,-0.0037565999999995,0.0229392000000008,-0.0059949999999998,0,sub_23
0.0038805999999997,-0.0019921999999987,-0.0012257999999999,-0.0060825999999995,0.0274220000000008,-0.0062305999999999,0,sub_23
0.0047353999999997,-0.0005013999999987,-0.0014607999999999,-0.0075637999999995,0.0299846000000008,-0.0064577999999998,0,sub_23
0.0047329999999998,0.0008234000000011,-0.0020895999999999,-0.0077755999999995,0.0306234000000008,-0.0062465999999999,0,sub_23
0.0037223999999997,0.0018432000000011,-0.0022611999999999,-0.0075721999999995,0.0289162000000007,-0.0058159999999998,0,sub_23
0.0030237999999997,0.0024860000000011,-0.0028079999999999,-0.0071661999999995,0.0252890000000007,-0.0049539999999998,0,sub_23
0.0020231999999997,0.0028508000000011,-0.0036379999999999,-0.0067703999999995,0.0201676000000007,-0.0032355999999999,0,sub_23
0.0003785999999997,0.0038022000000011,-0.0045443999999999,-0.0059557999999995,0.0137644000000008,-0.0010853999999999,0,sub_23
-0.0002256000000001,0.0039178000000012,-0.0050581999999998,-0.0051419999999995,0.0071480000000008,0.001065,0,sub_23
-0.0004376000000001,0.0040914000000012,-0.0056473999999998,-0.0041099999999995,0.0011718000000008,0.0027888,0,sub_23
0.0001847999999998,0.0039220000000012,-0.0052701999999999,-0.0026471999999995,-0.0037413999999991,0.0045132,0,sub_23
0.0009277999999998,0.0033430000000012,-0.0042675999999999,-0.0009613999999995,-0.0073733999999991,0.005383,0,sub_23
0.0020295999999998,0.0022954000000012,-0.0030897999999999,0.0003114000000004,-0.0092941999999991,0.004966,0,sub_23
0.0030507999999997,0.0009976000000012,-0.0026385999999999,0.0009538000000004,-0.0097185999999991,0.003902,0,sub_23
0.0039449999999997,4.980000000123384e-05,-0.0021885999999999,0.0018104000000004,-0.0097185999999991,0.0030526,0,sub_23
0.0040293999999998,-0.0007531999999987,-0.0021229999999999,0.0024516000000004,-0.0103561999999991,0.0022034,0,sub_23
0.0034239999999998,-0.0012835999999987,-0.0026109999999999,0.0028766000000004,-0.0112079999999991,0.0017804,0,sub_23
0.0028895999999998,-0.0020475999999987,-0.0030979999999999,0.0022284000000004,-0.0122741999999991,0.0024166,0,sub_23
0.0019581999999998,-0.0017247999999987,-0.0031839999999999,0.0017886000000004,-0.0139819999999991,0.0034824,0,sub_23
0.0018423999999997,-0.0013625999999987,-0.0030225999999999,0.0007164000000004,-0.0146197999999991,0.0039016,0,sub_23
0.0009375999999997,-0.0009167999999987,-0.0028793999999999,-0.0003517999999995,-0.0144053999999991,0.0043198,0,sub_23
0.0013985999999997,-0.0010517999999987,-0.0021551999999999,-0.0014105999999994,-0.0126969999999991,0.004095,0,sub_23
0.0016805999999998,-0.0011799999999987,-0.0016205999999999,-0.0020303999999994,-0.0094935999999991,0.0028048,0,sub_23
0.0018745999999997,-0.0011057999999987,-0.0014377999999999,-0.0022175999999994,-0.0052255999999991,0.0013026,0,sub_23
0.0012949999999997,-0.0014309999999987,-0.0012533999999999,-0.0019885999999994,-0.0024537999999991,0.0006598,0,sub_23
0.0013527999999997,-0.0020681999999987,-0.0013171999999999,-0.0017605999999994,-0.0001075999999991,-0.0004121999999999,0,sub_23
0.0008163999999997,-0.0013153999999987,-0.0022391999999999,-0.0017515999999995,0.0018098000000008,-0.0006305999999999,0,sub_23
0.0005521999999997,-0.0007007999999987,-0.0024657999999999,-0.0011103999999995,0.0028692000000008,1.120000000005422e-05,0,sub_23
0.0007639999999997,-0.0003289999999987,-0.0025749999999999,-0.0004729999999995,0.0035008000000008,0.0010808,0,sub_23
0.0008811999999997,0.0001962000000012,-0.0028263999999999,-0.0002585999999995,0.0043494000000008,0.001506,0,sub_23
0.0013787999999997,0.0009300000000012,-0.0029017999999999,0.0003834000000004,0.0054100000000008,0.00215,0,sub_23
0.0018407999999997,0.0005112000000012,-0.0027165999999998,0.0010302000000004,0.0066870000000008,0.0019392,0,sub_23
0.0020117999999997,0.0006846000000012,-0.0021219999999999,0.0014626000000004,0.0079640000000008,0.0019406,0,sub_23
0.0019759999999997,0.0010036000000012,-0.0014691999999999,0.0014710000000004,0.0098796000000008,0.0017216,0,sub_23
0.0019965999999997,0.0007688000000012,-0.0012267999999999,0.0023312000000004,0.0117906000000008,0.0019358,0,sub_23
0.0019217999999997,0.0003936000000012,-0.0015745999999999,0.0027646000000004,0.0130664000000008,0.001507,0,sub_23
0.0026935999999997,0.0006696000000011,-0.0022459999999999,0.0025482000000004,0.0122140000000008,0.0010764,0,sub_23
0.0039759999999998,0.0005312000000011,-0.0040181999999999,0.0018956000000004,0.0090204000000008,0.000432,0,sub_23
0.0043127999999997,7.180000000119395e-05,-0.0044351999999999,0.0010182000000004,0.0034852000000008,0.0002192,0,sub_23
0.0047105999999997,0.0001898000000011,-0.0037571999999999,-0.0007147999999995,-0.0020485999999991,0.0004278,0,sub_23
0.0052697999999997,5.6000000001193984e-05,-0.0020555999999999,-0.0026563999999995,-0.0063039999999991,0.000847,0,sub_23
0.0050417999999998,-5.7999999998786e-05,-0.0007009999999999,-0.0039491999999995,-0.0084319999999991,0.0014816,0,sub_23
0.0043357999999997,-0.0001701999999987,0.0005734,-0.0041669999999995,-0.0086515999999991,0.0021182,0,sub_23
0.0041941999999997,0.0002068000000012,-3.81999999999447e-05,-0.0043771999999995,-0.0078033999999991,0.0021126,0,sub_23
0.0040017999999998,0.0004062000000012,-0.0017667999999999,-0.0045911999999995,-0.0082319999999991,0.0016814,0,sub_23
0.0034941999999998,0.0010378000000012,-0.0039167999999999,-0.0046033999999995,-0.0107937999999991,0.0016814,0,sub_23
0.0025711999999997,0.0012942000000011,-0.0048409999999999,-0.0046241999999995,-0.0150609999999991,0.0018972,0,sub_23
0.0013553999999997,0.0015156000000011,-0.0046231999999999,-0.0052827999999995,-0.0191067999999991,0.0018976,0,sub_23
0.0006625999999998,0.0013552000000011,-0.0033195999999999,-0.0057221999999995,-0.0218749999999991,0.001898,0,sub_23
0.0004105999999998,0.0009864000000011,-0.0019675999999999,-0.0057207999999995,-0.0216659999999991,0.0016812,0,sub_23
0.0002685999999998,0.0006962000000011,-0.0013121999999999,-0.0050675999999995,-0.0186903999999991,0.001679,0,sub_23
0.0003425999999998,0.0007270000000012,-0.0009895999999999,-0.0037665999999995,-0.0144367999999991,0.0012526,0,sub_23
0.0005253999999998,0.0008638000000012,-0.0015669999999999,-0.0024703999999995,-0.0108241999999991,0.0012542,0,sub_23
0.0009035999999998,0.0007988000000011,-0.0024405999999999,-0.0013941999999995,-0.0084901999999991,0.0014696,0,sub_23
0.0009603999999998,0.0009402000000011,-0.0030333999999999,-0.0007511999999995,-0.0080655999999991,0.0012598,0,sub_23
0.0010291999999998,0.0008856000000011,-0.0029687999999999,-0.0003263999999995,-0.0087053999999991,0.00105,0,sub_23
0.0013647999999998,0.0003666000000011,-0.0031961999999999,-0.0009693999999995,-0.0093421999999991,0.0010464,0,sub_23
0.0019729999999998,-6.479999999878604e-05,-0.0034053999999999,-0.0018207999999995,-0.0093373999999991,0.0006132,0,sub_23
0.0023467999999998,0.0002870000000012,-0.0032827999999999,-0.0016027999999995,-0.0087019999999991,0.0001832,0,sub_23
0.0027829999999998,0.0003290000000012,-0.0027947999999999,-0.0009559999999995,-0.0067929999999991,0.0006094,0,sub_23
0.0030817999999998,0.0004586000000012,-0.0022075999999999,-0.0007339999999995,-0.0048809999999991,0.0006052,0,sub_23
0.0027013999999998,0.0009950000000012,-0.0019379999999999,-8.739999999957512e-05,-0.0027599999999992,0.0012446,0,sub_23
0.0027021999999998,0.0009858000000012,-0.0016015999999999,0.0005554000000004,-0.0012787999999992,0.0020986,0,sub_23
0.0030981999999998,0.0004492000000012,-0.0019397999999999,0.0001354000000004,0.0006388000000007,0.0025206,0,sub_23
0.0034625999999998,0.0005446000000012,-0.0023221999999999,-0.0004961999999995,0.0023466000000007,0.0023004,0,sub_23
0.0032623999999998,0.0003886000000012,-0.0031367999999999,-0.0011277999999995,0.0038378000000007,0.0018636,0,sub_23
0.0036833999999998,0.0003100000000012,-0.0034117999999999,-0.0019755999999995,0.0044782000000008,0.0012128,0,sub_23
0.0030243999999998,0.0002086000000012,-0.0035345999999999,-0.0030385999999995,0.0049054000000008,0.0007744,0,sub_23
0.0022327999999998,-0.0001919999999988,-0.0034527999999999,-0.0038929999999995,0.0049032000000008,0.000979,0,sub_23
0.0010917999999998,-0.0004493999999988,-0.0040879999999999,-0.0041051999999995,0.0057490000000008,0.0016142,0,sub_23
0.0001769999999998,0.0009646000000011,-0.0040373999999999,-0.0034659999999995,0.0063824000000008,0.0024724,0,sub_23
-0.0007842000000001,0.0014956000000012,-0.0034415999999999,-0.0017629999999995,0.0061606000000008,0.0031254,0,sub_23
-0.0007400000000001,0.0021740000000012,-0.0031109999999998,0.0003704000000004,0.0061530000000008,0.0031402,0,sub_23
7.859999999986003e-05,0.0021272000000012,-0.0035685999999999,0.0027192000000004,0.0065670000000008,0.0031526,0,sub_23
0.0012917999999998,0.0017618000000012,-0.0034603999999999,0.0046384000000004,0.0057070000000008,0.0025228,0,sub_23
0.0026635999999998,-0.0001177999999987,-0.0029111999999999,0.0054946000000004,0.0052786000000008,0.0014578,0,sub_23
0.0041899999999998,-0.0011939999999987,-0.0034597999999999,0.0048644000000004,0.0059226000000008,-4.619999999992573e-05,0,sub_23
0.0052361999999998,-0.0018947999999987,-0.0037423999999999,0.0042274000000004,0.0057118000000008,-0.0009081999999999,0,sub_23
0.0052575999999998,-0.0016377999999987,-0.0024991999999999,0.0031588000000004,0.0046534000000008,-0.0015551999999999,0,sub_23
0.0049497999999998,-0.0012131999999987,-0.0017287999999999,0.0014500000000004,0.0042338000000008,-0.0015665999999999,0,sub_23
0.0044295999999998,-0.0004029999999987,-0.0021369999999999,-0.0002645999999995,0.0035968000000008,-0.0005093999999999,0,sub_23
0.0037131999999998,0.0002946000000012,-0.0016715999999999,-0.0011309999999995,0.0023112000000008,0.0011916,0,sub_23
0.0029403999999998,0.0007572000000012,-0.0011839999999999,-0.0019963999999995,0.0014506000000008,0.0031056,0,sub_23
0.0017923999999998,0.0011868000000012,-0.0018791999999999,-0.0022179999999995,0.0005910000000008,0.0041696,0,sub_23
0.0011023999999998,0.0010718000000012,-0.0023757999999999,-0.0020137999999995,-0.0009075999999991,0.00481,0,sub_23
0.0006871999999998,0.0007462000000012,-0.0023199999999999,-0.0011625999999995,-0.0019779999999991,0.0043862,0,sub_23
0.0004719999999998,0.0003434000000012,-0.0021357999999999,-0.0005187999999995,-0.0021889999999991,0.0033226,0,sub_23
0.0008317999999998,-7.679999999878578e-05,-0.0030131999999999,0.0001328000000004,-0.0015441999999991,0.0014036,0,sub_23
0.0010003999999998,-0.0004105999999987,-0.0031935999999999,-6.799999999957526e-05,-0.0004711999999992,-0.0003081999999999,0,sub_23
0.0010781999999998,-0.0004709999999987,-0.0034475999999999,-6.0199999999575263e-05,0.0001724000000007,-0.0013769999999999,0,sub_23
0.0011467999999998,-0.0001519999999987,-0.0031871999999998,-0.0004847999999995,-3.9599999999201214e-05,-0.0018111999999999,0,sub_23
0.0014837999999998,0.0001888000000012,-0.0030767999999998,-0.0015541999999995,-0.0004659999999992,-0.0013949999999999,0,sub_23
0.0012573999999998,0.0007188000000012,-0.0025979999999998,-0.0024161999999995,-0.0015347999999992,-0.0003355999999999,0,sub_23
0.0013213999999998,0.0009852000000012,-0.0022575999999998,-0.0024285999999995,-0.0032465999999991,0.000944,0,sub_23
0.0016185999999998,0.0013922000000012,-0.0012377999999999,-0.0022199999999995,-0.0038911999999991,0.0015828,0,sub_23
0.0019665999999998,0.0014306000000012,-0.0008791999999999,-0.0020095999999995,-0.0041063999999991,0.0020118,0,sub_23
0.0019889999999998,0.0010346000000012,-0.0014163999999999,-0.0011551999999995,-0.0038959999999991,0.0020176,0,sub_23
0.0024763999999998,0.0004996000000012,-0.0018987999999999,-0.0005111999999995,-0.0036837999999991,0.0015912,0,sub_23
0.0033011999999998,0.0006288000000012,-0.0021817999999999,-0.0002919999999995,-0.0030437999999991,0.0011614,0,sub_23
0.0030597999999998,0.0003608000000012,-0.0026785999999999,-0.0007165999999995,-0.0030417999999991,0.0009416,0,sub_23
0.0031049999999997,-0.0002207999999987,-0.0029567999999999,-0.0013575999999995,-0.0032537999999991,0.0011478,0,sub_23
0.0028773999999997,-0.0002727999999987,-0.0028933999999999,-0.0022137999999995,-0.0038909999999991,0.001353,0,sub_23
0.0023611999999998,-0.0002873999999987,-0.0023883999999999,-0.0028557999999995,-0.0036779999999991,0.0019892,0,sub_23
0.0017359999999997,-0.0004707999999987,-0.0023725999999999,-0.0030709999999995,-0.0036787999999991,0.002415,0,sub_23
0.0012633999999997,-0.0002025999999987,-0.0021375999999999,-0.0028595999999995,-0.0036809999999991,0.0028438,0,sub_23
0.0008799999999998,-0.0002237999999987,-0.0025259999999999,-0.0026441999999995,-0.0034677999999991,0.0026314,0,sub_23
0.0004261999999998,-1.2399999998785778e-05,-0.0024327999999999,-0.0019993999999995,-0.0030433999999991,0.0024168,0,sub_23
0.0002425999999998,0.0003116000000011,-0.0028921999999999,-0.0011391999999995,-0.0026177999999991,0.0017764,0,sub_23
-1.8000000001798913e-06,0.0003738000000012,-0.0030931999999999,-0.0004933999999995,-0.0021923999999991,0.0013482,0,sub_23
0.0006175999999998,0.0001506000000012,-0.0033405999999999,-0.0002713999999995,-0.0013383999999991,0.0007028,0,sub_23
0.0013103999999998,0.0007572000000011,-0.0037899999999999,0.0003764000000004,-0.0004865999999991,0.000274,0,sub_23
0.0024251999999998,0.0005760000000011,-0.0042333999999999,0.0008090000000004,-5.81999999991812e-05,-0.0005779999999999,0,sub_23
0.0027659999999997,0.0004128000000011,-0.0038789999999999,0.0008052000000004,-0.0009101999999991,-0.0005769999999999,0,sub_23
0.0029673999999997,-0.0003473999999988,-0.0026291999999999,0.0001598000000004,-0.0015503999999991,0.0002704,0,sub_23
0.0028439999999997,-0.0010481999999988,-0.0018527999999999,-0.0002713999999995,-0.0019785999999991,0.0011192,0,sub_23
0.0023353999999998,-0.0009873999999987,-0.0007789999999999,-0.0002701999999995,-0.0013419999999991,0.001756,0,sub_23
0.0015109999999998,-0.0006363999999988,-0.0005359999999999,0.0001578000000004,-0.0007069999999991,0.0023956,0,sub_23
0.0012049999999998,-0.0001787999999988,-0.0005951999999999,0.0010136000000004,-0.0002847999999991,0.0026114,0,sub_23
0.0015789999999998,0.0005348000000011,-0.0017297999999999,0.0016584000000004,0.0003540000000008,0.0021878,0,sub_23
0.0017357999999998,0.0010172000000011,-0.0026057999999999,0.0027262000000004,0.0001394000000008,0.0017682,0,sub_23
0.0016181999999998,0.0005006000000011,-0.0032133999999999,0.0029348000000004,-0.0009263999999991,0.001771,0,sub_23
0.0017983999999998,0.0001642000000012,-0.0034241999999999,0.0027190000000004,-0.0017777999999991,0.0017668,0,sub_23
0.0023423999999998,-0.0004405999999987,-0.0033021999999999,0.0020822000000004,-0.0013493999999991,0.001758,0,sub_23
0.0022717999999998,-0.0007435999999987,-0.0029293999999999,0.0022990000000004,-0.0011361999999991,0.0015418,0,sub_23
0.0025063999999998,-0.0007877999999987,-0.0029691999999999,0.0020940000000004,0.0001436000000008,0.0013212,0,sub_23
0.0025935999999998,-0.0005665999999987,-0.0028795999999999,0.0018862000000004,0.0009966000000008,0.0013148,0,sub_23
0.0026285999999997,-0.0001361999999987,-0.0027913999999999,0.0012500000000004,0.0018514000000008,0.0013092,0,sub_23
0.0025685999999998,0.0002678000000011,-0.0030603999999999,0.0006072000000004,0.0018514000000008,0.0019456,0,sub_23
0.0023309999999998,0.0004490000000011,-0.0031945999999999,-3.459999999957501e-05,0.0016400000000008,0.0021552,0,sub_23
0.0021959999999998,0.0007882000000011,-0.0025771999999999,-0.0002529999999995,0.0005740000000008,0.0025782,0,sub_23
0.0021623999999998,0.0007656000000011,-0.0024211999999999,-0.0004685999999995,0.0001470000000008,0.0030004,0,sub_23
0.0024731999999998,0.0005444000000011,-0.0022609999999999,-4.2799999999555e-05,-6.919999999916103e-05,0.0034268,0,sub_23
0.0023733999999998,0.0001122000000011,-0.0017027999999999,0.0001752000000004,0.0003572000000008,0.0032098,0,sub_23
0.0026367999999998,0.0005334000000011,-0.0015203999999999,0.0001768000000004,0.0007818000000008,0.0036322,0,sub_23
0.0028049999999998,0.0004980000000011,-0.0020845999999999,-0.0002489999999995,0.0012088000000008,0.0038422,0,sub_23
0.0024865999999998,0.0001698000000011,-0.0025073999999999,-0.0004621999999995,0.0007854000000008,0.0034138,0,sub_23
0.0016297999999998,-9.239999999878592e-05,-0.0025945999999999,-0.0011071999999995,-6.51999999991811e-05,0.003624,0,sub_23
0.0016049999999998,9.00000000121407e-06,-0.0031257999999999,-0.0011091999999995,-0.0009167999999991,0.003621,0,sub_23
0.0013793999999998,-0.0006291999999987,-0.0031727999999999,-0.0013195999999995,-0.0013391999999991,0.002975,0,sub_23
0.0015105999999998,-0.0007523999999987,-0.0030717999999999,-0.0015299999999995,-0.0015491999999991,0.0025424,0,sub_23
0.0022109999999998,-0.0005257999999987,-0.0029345999999999,-0.0013147999999995,-0.0015493999999991,0.00254,0,sub_23
0.0022179999999998,-0.0007669999999987,-0.0026749999999999,-0.0010965999999995,-0.0011225999999991,0.0023232,0,sub_23
0.0018885999999998,-0.0010471999999987,-0.0023409999999999,-0.0015183999999995,-0.0004799999999992,0.0018922,0,sub_23
0.0019157999999998,-0.0006933999999987,-0.0023983999999999,-0.0015163999999995,-5.359999999920109e-05,0.0018918,0,sub_23
0.0013689999999998,-0.0003587999999988,-0.0026455999999999,-0.0008751999999995,0.0001574000000007,0.0018962,0,sub_23
0.0011211999999998,-0.0005635999999988,-0.0024969999999999,-0.0008729999999995,0.0001586000000007,0.0018916,0,sub_23
0.0018487999999998,-0.0005271999999988,-0.0021551999999999,-0.0008735999999995,-0.0004793999999992,0.0018878,0,sub_23
0.0021593999999998,-0.0002259999999988,-0.0020421999999999,-0.0008741999999995,-0.0006931999999991,0.0023108,0,sub_23
0.0024379999999998,2.200000000119407e-05,-0.0021483999999999,-0.0010881999999995,-0.0009059999999991,0.0027322,0,sub_23
0.0024069999999998,0.0006556000000012,-0.0021097999999999,-0.0021511999999995,-0.0006871999999992,0.0025062,0,sub_23
0.0023263999999998,0.0017802000000012,-0.0021935999999999,-0.0027999999999995,-0.0009045999999992,0.004211,0,sub_23
0.0027205999999997,0.0021584000000012,-0.0029871999999999,-0.0032353999999995,-0.0021837999999992,0.0048506,0,sub_23
0.0025109999999997,0.0021136000000012,-0.0029461999999999,-0.0028105999999995,-0.0028231999999992,0.0046408,0,sub_23
0.0020665999999998,0.0016298000000012,-0.0026085999999999,-0.0021685999999995,-0.0030357999999992,0.0040046,0,sub_23
0.0017019999999997,0.0008346000000012,-0.0026863999999999,-0.0010995999999995,-0.0030381999999992,0.0040076,0,sub_23
0.0018597999999997,-4.699999999876588e-05,-0.0024545999999999,-0.0010821999999995,-0.0013255999999992,0.002292,0,sub_23
0.0019023999999998,0.0003232000000012,-0.0020371999999999,-0.0012801999999995,0.0005982000000008,0.0012156,0,sub_23
0.0028821999999997,0.0004552000000012,-0.0026671999999999,-0.0021317999999995,-3.399999999918121e-05,0.000565,0,sub_23
0.0032007999999998,0.0003962000000012,-0.0029685999999999,-0.0029929999999995,-0.0015233999999991,0.0011974,0,sub_23
0.0034071999999998,6.240000000123412e-05,-0.0021509999999999,-0.0038569999999995,-0.0032271999999991,0.0018346,0,sub_23
0.0025575999999998,-3.219999999876588e-05,-0.0021647999999999,-0.0038645999999995,-0.0042947999999991,0.002477,0,sub_23
0.0017055999999997,-0.0003253999999987,-0.0020339999999999,-0.0032257999999995,-0.0040859999999991,0.0033316,0,sub_23
0.0012015999999998,0.0001708000000012,-0.0018231999999999,-0.0023697999999995,-0.0032379999999991,0.0039734,0,sub_23
0.0013507999999998,0.0002436000000012,-0.0022065999999999,-0.0017261999999995,-0.0030249999999991,0.00376,0,sub_23
0.0020703999999998,0.0004304000000012,-0.0027067999999999,-0.0012949999999995,-0.0028101999999991,0.0033314,0,sub_23
0.0027813999999998,0.0003924000000012,-0.0026583999999999,-0.0006551999999995,-0.0038735999999991,0.0026922,0,sub_23
0.0028845999999998,-0.0003119999999987,-0.0028137999999999,-0.0006549999999995,-0.0047219999999991,0.0018388,0,sub_23
0.0021833999999998,-0.0004847999999987,-0.0026055999999999,-0.0008653999999995,-0.0047183999999991,0.0011964,0,sub_23
0.0017871999999998,3.200000000121422e-05,-0.0019685999999999,-0.0008575999999995,-0.0036503999999991,0.0005542,0,sub_23
0.0016261999999998,-0.0002983999999987,-0.0018697999999999,-0.0004245999999995,-0.0027973999999991,0.000338,0,sub_23
0.0013863999999997,-0.0005921999999987,-0.0020655999999999,-0.0006287999999995,-0.0013031999999991,0.0001166,0,sub_23
0.0014011999999997,0.0003246000000012,-0.0020895999999999,-0.0004081999999995,-2.41999999991813e-05,0.0001122,0,sub_23
0.0010337999999997,0.0003330000000012,-0.0026647999999999,-0.0001913999999995,0.0010390000000008,0.000749,0,sub_23
0.0008007999999997,6.240000000121417e-05,-0.0029969999999999,-0.0004013999999995,0.0014672000000008,0.0007426,0,sub_23
0.0001899999999997,0.0005154000000012,-0.0032001999999999,-0.0003965999999995,0.0023202000000008,0.000528,0,sub_23
