userAcceleration.x,userAcceleration.y,userAcceleration.z,rotationRate.x,rotationRate.y,rotationRate.z,label,subject
-0.0046744000000001,0.0110888000000012,-0.0045985999999999,-0.0133575999999995,0.0143012000000008,-0.0017485999999999,0,sub_3
-0.0042446000000001,0.0113862000000012,-0.0046009999999999,-0.0154797999999995,0.0153798000000008,-0.0032601999999999,0,sub_3
-0.0044212000000001,0.0136768000000012,-0.0042931999999999,-0.0159075999999996,0.0143194000000008,-0.0041163999999998,0,sub_3
-0.0044354000000001,0.0150806000000012,-0.0036643999999999,-0.0146379999999996,0.0119714000000008,-0.0041043999999998,0,sub_3
-0.0040090000000001,0.0160846000000012,-0.0030993999999998,-0.0103745999999995,0.0091918000000008,-0.0051475999999998,0,sub_3
-0.0038564000000001,0.0153818000000012,-0.0036831999999998,-0.0058949999999996,0.0055652000000008,-0.0076835999999998,0,sub_3
-0.0041022000000001,0.0142494000000012,-0.0041803999999998,-0.0009915999999996,0.0025712000000008,-0.0089355999999998,0,sub_3
-0.0049320000000001,0.0112674000000012,-0.0050097999999998,0.0019984000000003,0.0008630000000008,-0.0104161999999998,0,sub_3
-0.0063368000000001,0.0107802000000012,-0.0065125999999998,0.0030698000000003,-0.0002001999999991,-0.0116975999999999,0,sub_3
-0.0076232000000001,0.0114902000000012,-0.0081819999999999,0.0026354000000003,-0.0008421999999991,-0.0106315999999999,0,sub_3
-0.0083488000000001,0.0130344000000012,-0.0085289999999999,0.0028306000000003,-0.0017079999999991,-0.0074243999999999,0,sub_3
-0.0081966000000002,0.0133994000000012,-0.0071249999999999,0.0023856000000003,-0.0019349999999991,-0.0035815999999999,0,sub_3
-0.0072566000000002,0.0132608000000012,-0.0057957999999999,0.0013032000000003,-0.0017309999999991,-0.0001797999999999,0,sub_3
-0.0052624000000001,0.0121366000000012,-0.0037989999999999,0.0002284000000003,-0.0015201999999991,0.001513,0,sub_3
-0.0039346000000001,0.0107758000000012,-0.0028547999999999,-0.0010567999999995,-0.0019425999999991,0.0019232000000001,0,sub_3
-0.0024944000000001,0.0102240000000012,-0.0021699999999998,-0.0019065999999995,-0.0015099999999991,0.0012670000000001,0,sub_3
-0.0026596000000001,0.0102802000000012,-0.0034827999999998,-0.0019009999999995,-0.0017151999999991,-0.0004505999999998,0,sub_3
-0.0036820000000001,0.0114440000000012,-0.0043645999999998,-0.0008303999999995,-0.0017153999999991,-0.0012977999999998,0,sub_3
-0.0051618000000001,0.0126708000000012,-0.0057605999999998,0.0004500000000003,-0.0015075999999991,-0.0010755999999998,0,sub_3
-0.0065302000000001,0.0143228000000012,-0.0063047999999998,0.0013034000000003,-0.0012983999999991,-0.0008561999999999,0,sub_3
-0.0077278000000001,0.0150256000000012,-0.0070433999999999,0.0015138000000003,-0.001726199999999,-0.0006403999999999,0,sub_3
-0.0079018000000001,0.0161764000000012,-0.0060921999999999,0.0017216000000003,-0.001937399999999,-0.0004297999999999,0,sub_3
-0.0074144000000001,0.0156750000000012,-0.0055935999999999,0.0021428000000003,-0.002573799999999,-0.0006445999999999,0,sub_3
-0.0065802000000002,0.0149642000000012,-0.0047123999999998,0.0025676000000003,-0.002782199999999,-0.0012871999999999,0,sub_3
-0.0050372000000002,0.0130776000000012,-0.0047737999999998,0.0034212000000003,-0.002778199999999,-0.0021407999999998,0,sub_3
-0.0037198000000002,0.0120030000000012,-0.0042909999999998,0.0042738000000003,-0.0031993999999991,-0.0032073999999998,0,sub_3
-0.0025076000000002,0.0107560000000012,-0.0047925999999998,0.0047024000000003,-0.0034113999999991,-0.0038451999999998,0,sub_3
-0.0022058000000001,0.0113266000000012,-0.0051271999999998,0.0047024000000003,-0.0038357999999991,-0.0042717999999999,0,sub_3
-0.0029246000000001,0.0115432000000012,-0.0055079999999998,0.0044918000000003,-0.0049125999999991,-0.0036331999999999,0,sub_3
-0.0036616000000001,0.0125378000000012,-0.0052895999999998,0.0036450000000003,-0.0057715999999991,-0.0036403999999999,0,sub_3
-0.0053820000000001,0.0139156000000012,-0.0052215999999998,0.0028030000000003,-0.005777599999999,-0.0038623999999999,0,sub_3
-0.0069660000000001,0.0149792000000012,-0.0058369999999998,0.0017494000000003,-0.004932199999999,-0.0036595999999999,0,sub_3
-0.0080728000000002,0.0150006000000012,-0.0070481999999999,0.0004852000000003,-0.003446799999999,-0.0034591999999999,0,sub_3
-0.0078296000000002,0.0150416000000011,-0.0079037999999998,0.0002844000000003,-0.001949599999999,-0.0047443999999998,0,sub_3
-0.0077146000000002,0.0154438000000011,-0.0082449999999998,0.0007168000000003,-0.000672799999999,-0.0047429999999998,0,sub_3
-0.0060840000000002,0.0134326000000011,-0.0083779999999998,0.0002872000000003,-0.0002493999999991,-0.0036783999999998,0,sub_3
-0.0041704000000002,0.0112230000000012,-0.0076069999999998,0.0001016000000003,-6.79999999991051e-05,-0.0030305999999998,0,sub_3
-0.0024864000000002,0.0095076000000011,-0.0064579999999998,-0.0007231999999996,0.0001166000000008,-0.0026009999999998,0,sub_3
-0.0017494000000002,0.0084346000000012,-0.0058567999999999,-0.0024025999999996,0.0013644000000008,-0.0008969999999998,0,sub_3
-0.0021900000000001,0.0070592000000012,-0.0058389999999998,-0.0049363999999996,0.0019778000000008,0.0003746000000001,0,sub_3
-0.0033618000000001,0.0088930000000012,-0.0059481999999998,-0.0072463999999996,0.0034484000000008,0.0001512000000001,0,sub_3
-0.0051888000000001,0.0115844000000012,-0.0064281999999998,-0.0095877999999996,0.0040984000000008,-0.0005069999999998,0,sub_3
-0.0066064000000001,0.0135580000000012,-0.0068585999999998,-0.0100049999999996,0.0053816000000008,-0.0013661999999999,0,sub_3
-0.0080532000000001,0.0144786000000012,-0.0067885999999998,-0.0102001999999995,0.0070960000000008,-0.0037197999999999,0,sub_3
-0.0088068000000002,0.0147970000000012,-0.0067101999999999,-0.0099647999999995,0.0092368000000008,-0.0064981999999999,0,sub_3
-0.0083984000000002,0.0136620000000012,-0.0065915999999999,-0.0092847999999995,0.0109304000000008,-0.0092543999999999,0,sub_3
-0.0075638000000002,0.0123666000000012,-0.0062577999999999,-0.0077551999999995,0.0124052000000008,-0.0113633999999999,0,sub_3
-0.0061684000000001,0.0106140000000012,-0.0052089999999999,-0.0066571999999995,0.0128162000000008,-0.0134739999999999,0,sub_3
-0.0035724000000001,0.0092962000000012,-0.0037953999999999,-0.0055637999999995,0.0119498000000008,-0.0157967999999999,0,sub_3
-0.0001888000000001,0.0081368000000012,-0.0020681999999999,-0.0040475999999995,0.0108664000000008,-0.0174753999999999,0,sub_3
0.0010781999999998,0.0083408000000012,-0.0009909999999999,-0.0034111999999995,0.0097996000000008,-0.0176831999999999,0,sub_3
0.0012777999999998,0.0091316000000012,-0.0003069999999999,-0.0044817999999995,0.0093756000000008,-0.0172629999999999,0,sub_3
-0.0006226000000001,0.0118118000000012,-0.0013521999999999,-0.0070425999999995,0.0085152000000008,-0.0153433999999999,0,sub_3
-0.0041748000000001,0.0151204000000012,-0.0034279999999998,-0.0093969999999995,0.0074360000000008,-0.0121401999999999,0,sub_3
-0.0086234000000001,0.0180464000000012,-0.0056549999999998,-0.0108957999999995,0.0061432000000008,-0.0095715999999999,0,sub_3
-0.0118986000000001,0.0189104000000012,-0.0075647999999998,-0.0106877999999995,0.0046324000000008,-0.0072043999999999,0,sub_3
-0.0138118000000001,0.0184780000000012,-0.0096697999999998,-0.0091957999999995,0.0026960000000008,-0.0061095999999999,0,sub_3
-0.0136992000000002,0.0165122000000012,-0.0103457999999998,-0.0057905999999996,0.0009788000000008,-0.0058699999999999,0,sub_3
-0.0121190000000001,0.0142744000000012,-0.0103363999999998,-0.0017441999999996,-0.000527599999999,-0.0056261999999999,0,sub_3
-0.0089610000000001,0.0122782000000012,-0.0090391999999998,0.0020850000000003,-0.001824599999999,-0.0043159999999999,0,sub_3
-0.0059092000000002,0.0110556000000012,-0.0075225999999998,0.0048536000000003,-0.001836599999999,-0.0032141999999999,0,sub_3
-0.0032178000000002,0.0102484000000012,-0.0051329999999998,0.0061288000000003,-0.001631199999999,-0.0019093999999999,0,sub_3
-0.0007436000000002,0.0109934000000012,-0.0035211999999998,0.0056950000000003,-0.001209199999999,2.420000000008804e-05,0,sub_3
0.0001791999999997,0.0120702000000012,-0.0020873999999998,0.0039790000000003,-0.0005723999999991,0.0025896,0,sub_3
-5.4400000000237136e-05,0.0130156000000012,-0.0022315999999998,0.0014152000000003,0.0004970000000008,0.0042938,0,sub_3
-0.0006386000000002,0.0143152000000012,-0.0025165999999998,-0.0007269999999996,-0.0003519999999991,0.0053482,0,sub_3
-0.0019216000000002,0.0147986000000012,-0.0035245999999998,-0.0024483999999996,-0.0022685999999991,0.0066206,0,sub_3
-0.0032386000000002,0.0128478000000012,-0.0041409999999999,-0.0022435999999996,-0.0037623999999991,0.0070512,0,sub_3
-0.0035068000000001,0.0119498000000012,-0.0051431999999998,-0.0005391999999996,-0.0048251999999991,0.0062266,0,sub_3
-0.0046420000000001,0.0107970000000012,-0.0057681999999998,0.0024472000000003,-0.0054661999999991,0.0054104,0,sub_3
-0.0059676000000001,0.0101534000000012,-0.0066335999999998,0.0045800000000003,-0.0058921999999991,0.0048016,0,sub_3
-0.0063394000000001,0.0109676000000012,-0.0069709999999998,0.0069320000000003,-0.005464999999999,0.003766,0,sub_3
-0.0068892000000001,0.0131526000000012,-0.0070615999999998,0.0077904000000003,-0.005456999999999,0.0022932,0,sub_3
-0.0068538000000001,0.0137400000000012,-0.0064331999999999,0.0077894000000003,-0.005882199999999,0.00208,0,sub_3
-0.0066490000000002,0.0144486000000012,-0.0052787999999999,0.0062892000000003,-0.006519599999999,0.002925,0,sub_3
-0.0058480000000002,0.0138902000000012,-0.0042811999999999,0.0047918000000003,-0.006517799999999,0.003769,0,sub_3
-0.0050868000000002,0.0122884000000012,-0.0044561999999999,0.0033112000000003,-0.0063107999999991,0.0042056,0,sub_3
-0.0043488000000002,0.0108888000000012,-0.0052397999999998,0.0016182000000003,-0.0061021999999991,0.0044272,0,sub_3
-0.0043310000000002,0.0094880000000012,-0.0065425999999998,0.0001432000000003,-0.005465799999999,0.0040088,0,sub_3
-0.0042224000000002,0.0092142000000012,-0.0073163999999998,-0.0011155999999996,-0.004615399999999,0.0031644,0,sub_3
-0.0042646000000002,0.0093518000000012,-0.0080091999999998,-0.0017311999999996,-0.0031279999999991,0.0023238,0,sub_3
-0.0045978000000002,0.0105388000000012,-0.0072261999999998,-0.0012995999999996,-0.0022763999999991,0.0021122,0,sub_3
-0.0048168000000002,0.0115548000000012,-0.0069425999999998,-0.0004403999999996,-0.0010011999999991,0.0021166,0,sub_3
-0.0056424000000001,0.0127622000000012,-0.0057321999999998,0.0002016000000003,-0.0005771999999991,0.0021206,0,sub_3
-0.0062780000000001,0.0139452000000012,-0.0054939999999998,0.0010812000000003,-0.0008173999999991,0.001316,0,sub_3
-0.0066408000000001,0.0146930000000012,-0.0052335999999998,0.0023844000000003,-0.001485999999999,0.0007286,0,sub_3
-0.0059592000000001,0.0152852000000012,-0.0058863999999998,0.0030456000000003,-0.002154199999999,0.000564,0,sub_3
-0.0054066000000001,0.0150170000000012,-0.0052329999999998,0.0049804000000003,-0.004105999999999,0.0006236,0,sub_3
-0.0044700000000001,0.0147678000000012,-0.0049279999999998,0.0069162000000003,-0.005420399999999,0.0011098,0,sub_3
-0.0036554000000001,0.0129112000000012,-0.0050427999999998,0.0083992000000003,-0.006708199999999,0.00219,0,sub_3
-0.0025104000000001,0.0119272000000012,-0.0045449999999998,0.0086030000000003,-0.007778599999999,0.003261,0,sub_3
-0.0025182000000001,0.0100430000000012,-0.0043097999999998,0.0081754000000003,-0.007353599999999,0.0038984,0,sub_3
-0.0028068000000001,0.0099630000000012,-0.0045165999999998,0.0058606000000003,-0.005446999999999,0.0034932,0,sub_3
-0.0027994000000001,0.0103550000000012,-0.0053295999999998,0.0031172000000003,-0.004177399999999,0.002872,0,sub_3
-0.0037546000000001,0.0110250000000012,-0.0057489999999998,-5.399999999961668e-05,-0.0029071999999991,0.0024616,0,sub_3
-0.0050410000000001,0.0119676000000012,-0.0068375999999999,-0.0025811999999996,-0.0012113999999991,0.0016278,0,sub_3
-0.0060598000000001,0.0146294000000012,-0.0070073999999999,-0.0036215999999996,-0.0003755999999991,0.0014464,0,sub_3
-0.0066692000000001,0.0148940000000012,-0.0071293999999998,-0.0036331999999996,-0.001022599999999,0.0033698,0,sub_3
-0.0069856000000001,0.0140330000000012,-0.0064335999999998,-0.0023567999999996,-0.0012425999999991,0.00402,0,sub_3
-0.0060488000000001,0.0136420000000011,-0.0052851999999998,-0.0010737999999996,-0.0010321999999991,0.0036014,0,sub_3
-0.0049124000000002,0.0122814000000012,-0.0046125999999998,0.0002190000000003,-0.0008311999999991,0.0036272,0,sub_3
-0.0039756000000002,0.0112658000000012,-0.0044377999999998,0.0004478000000003,-0.0006239999999991,0.0030046,0,sub_3
-0.0034020000000002,0.0116220000000012,-0.0039791999999998,0.0008958000000003,0.0002242000000008,0.0017418,0,sub_3
-0.0033362000000002,0.0125336000000012,-0.0040013999999998,0.0004826000000003,0.0006440000000008,0.0017552,0,sub_3
-0.0032014000000001,0.0132972000000012,-0.0044593999999998,0.0004914000000003,0.0008460000000008,0.0026266,0,sub_3
-0.0040396000000001,0.0151462000000012,-0.0040759999999998,-0.0003677999999996,0.0012682000000008,0.0043292,0,sub_3
-0.0051266000000001,0.0152578000000012,-0.0034589999999998,-0.0012299999999996,0.0016880000000008,0.0066726,0,sub_3
-0.0053378000000001,0.0144172000000012,-0.0045011999999998,-0.0027263999999996,0.0019030000000008,0.0075164,0,sub_3
-0.0056644000000001,0.0138800000000012,-0.0054703999999999,-0.0037947999999996,0.0021276000000008,0.0075116,0,sub_3
-0.0063868000000001,0.0132968000000012,-0.0062397999999999,-0.0040085999999996,0.0023500000000008,0.007299,0,sub_3
-0.0052654000000001,0.0119208000000012,-0.0070907999999999,-0.0023001999999996,0.0017188000000008,0.005819,0,sub_3
-0.0040136000000001,0.0106350000000012,-0.0077235999999999,-0.0003773999999996,0.0004510000000008,0.0034868,0,sub_3
-0.0037114000000001,0.0101550000000012,-0.0063409999999999,0.0013310000000003,3.180000000089566e-05,0.0022202,0,sub_3
-0.0030646000000002,0.0101870000000012,-0.0054835999999999,0.0019770000000003,0.0004592000000008,0.0013696,0,sub_3
-0.0021374000000002,0.0111846000000011,-0.0051671999999999,0.0015560000000003,0.0011024000000009,0.0007248,0,sub_3
-0.0031060000000001,0.0123174000000012,-0.0043643999999999,0.0002786000000003,0.0013216000000009,0.0002884,0,sub_3
-0.0038584000000001,0.0131840000000011,-0.0039943999999999,-0.0012169999999995,0.0017624000000008,0.0004876,0,sub_3
-0.0044630000000001,0.0137498000000011,-0.0042475999999999,-0.0025029999999995,0.0019870000000008,0.0013296,0,sub_3
-0.0051298000000001,0.0139954000000011,-0.0046081999999999,-0.0033641999999995,0.0017840000000008,0.002175,0,sub_3
-0.0055376000000001,0.0134860000000012,-0.0047905999999999,-0.0035851999999995,0.0011544000000008,0.0025982,0,sub_3
-0.0055074000000002,0.0130946000000011,-0.0054717999999998,-0.0035917999999995,0.0005248000000008,0.002809,0,sub_3
-0.0058676000000001,0.0128496000000012,-0.0057091999999998,-0.0029515999999996,0.0005226000000008,0.0028136,0,sub_3
-0.0061250000000001,0.0134524000000012,-0.0061265999999998,-0.0016695999999996,0.0003076000000008,0.0021818,0,sub_3
-0.0061638000000001,0.0137176000000012,-0.0062653999999998,3.8200000000383415e-05,0.0003024000000008,0.00198,0,sub_3
-0.0058522000000001,0.0136848000000012,-0.0060109999999998,0.0017340000000003,0.0005296000000008,0.0017702,0,sub_3
-0.0055740000000001,0.0134010000000012,-0.0056281999999999,0.0030048000000003,0.0011844000000008,0.001557,0,sub_3
-0.0046396000000001,0.0133752000000012,-0.0054399999999999,0.0034156000000003,0.0007752000000008,0.0017664,0,sub_3
-0.0036850000000001,0.0122082000000012,-0.0056497999999999,0.0029720000000003,0.0003682000000008,0.0021836,0,sub_3
-0.0027228000000001,0.0127922000000012,-0.0054015999999999,0.0021054000000003,0.0003906000000008,0.00217,0,sub_3
-0.0029006000000001,0.0127376000000012,-0.0056883999999999,0.0016670000000003,-0.0008913999999991,0.0034504,0,sub_3
-0.0029276000000001,0.0117824000000012,-0.0054839999999999,0.0008040000000003,-0.0015333999999991,0.0049408,0,sub_3
-0.0032816000000002,0.0110038000000012,-0.0058481999999999,-4.6599999999616566e-05,-0.0006789999999991,0.0051474,0,sub_3
-0.0042458000000001,0.0111526000000012,-0.0060891999999999,-4.719999999963655e-05,0.0006146000000008,0.0051342,0,sub_3
-0.0058940000000001,0.0105942000000012,-0.0064547999999999,0.0001628000000003,0.0004194000000008,0.0042698,0,sub_3
-0.0062204000000001,0.0114200000000012,-0.0064133999999999,0.0001698000000003,0.0017198000000008,0.0025476,0,sub_3
-0.0064644000000001,0.0136198000000012,-0.0068891999999999,0.0012408000000003,0.0025894000000008,0.0010468,0,sub_3
-0.0065120000000001,0.0146678000000012,-0.0062431999999999,0.0023022000000003,0.0019652000000008,0.0001888,0,sub_3
-0.0060260000000001,0.0155716000000012,-0.0056115999999999,0.0025116000000003,0.0009000000000008,-2.2199999999932604e-05,0,sub_3
-0.0049126000000001,0.0150032000000012,-0.0046845999999999,0.0025096000000003,0.0013228000000008,0.0008318,0,sub_3
-0.0046040000000001,0.0137720000000012,-0.0042159999999999,0.0018668000000003,0.0013226000000008,0.0014682,0,sub_3
-0.0042020000000001,0.0115182000000012,-0.0038701999999999,0.0005820000000003,0.0011214000000008,0.0016544,0,sub_3
-0.0041506000000001,0.0107702000000012,-0.0042613999999999,-0.0004893999999995,0.0009194000000008,0.001842,0,sub_3
-0.0040842000000001,0.0095070000000012,-0.0041003999999999,-0.0013443999999995,0.0011436000000008,0.001817,0,sub_3
-0.0043200000000001,0.0099352000000012,-0.0049359999999999,-0.0015613999999995,0.0005150000000008,0.00137,0,sub_3
-0.0045144000000001,0.0107794000000012,-0.0053933999999999,-0.0017745999999995,0.0003142000000008,0.0004954,0,sub_3
-0.0050540000000001,0.0120746000000012,-0.0053525999999999,-0.0015591999999995,0.0003152000000008,6.960000000008738e-05,0,sub_3
-0.0056618000000001,0.0134338000000012,-0.0056993999999999,-0.0015533999999995,0.0007448000000008,-0.0007853999999998,0,sub_3
-0.0058668000000001,0.0152650000000012,-0.0062275999999999,-0.0013343999999995,0.0005370000000008,-0.0022791999999998,0,sub_3
-0.0058720000000001,0.0154398000000012,-0.0065049999999999,-0.0009045999999995,0.0001164000000008,-0.0033609999999998,0,sub_3
-0.0054642000000001,0.0152730000000012,-0.0062571999999999,0.0001624000000004,-0.0003087999999991,-0.0037975999999998,0,sub_3
-0.0046212000000001,0.0154436000000012,-0.0060211999999999,0.0008016000000003,-0.0007335999999991,-0.0040235999999998,0,sub_3
-0.0039746000000001,0.0144614000000012,-0.0057033999999999,0.0016504000000003,-0.0011623999999991,-0.0033935999999998,0,sub_3
-0.0041124000000002,0.0134560000000012,-0.0047733999999999,0.0018574000000003,-0.0015905999999991,-0.0023405999999999,0,sub_3
-0.0039762000000002,0.0130016000000012,-0.0042185999999999,0.0014270000000003,-0.0018045999999991,-0.0017023999999999,0,sub_3
-0.0041524000000002,0.0131802000000012,-0.0045751999999999,0.0005688000000003,-0.0020181999999991,-0.0008535999999999,0,sub_3
-0.0052214000000002,0.0129658000000012,-0.0049007999999999,0.0001412000000003,-0.0018051999999991,-0.0004293999999999,0,sub_3
-0.0058312000000002,0.0132288000000012,-0.0052295999999999,0.0001412000000003,-0.0018051999999991,-0.0004293999999999,0,sub_3
-0.0059066000000002,0.0128672000000012,-0.0061791999999999,0.0001454000000003,-0.0013777999999991,-0.0008731999999999,0,sub_3
-0.0058370000000002,0.0123474000000012,-0.0066511999999999,-0.0006951999999996,0.0001214000000008,-0.0021789999999999,0,sub_3
-0.0061778000000002,0.0117482000000012,-0.0066355999999999,-0.0017499999999996,0.0018328000000008,-0.0030591999999999,0,sub_3
-0.0057520000000002,0.0115770000000012,-0.0065687999999999,-0.0034487999999996,0.0039672000000008,-0.0026625999999999,0,sub_3
-0.0053086000000002,0.0126420000000012,-0.0058775999999999,-0.0051457999999996,0.0063156000000008,-0.0024797999999999,0,sub_3
-0.0052268000000002,0.0136676000000012,-0.0057257999999999,-0.0059991999999995,0.0071674000000008,-0.0016323999999999,0,sub_3
-0.0046632000000002,0.0135202000000012,-0.0050267999999998,-0.0062241999999995,0.0065212000000008,0.0002896,0,sub_3
-0.0038000000000002,0.0139784000000012,-0.0041817999999998,-0.0053765999999995,0.0060890000000008,0.000706,0,sub_3
-0.0037372000000002,0.0145248000000012,-0.0042151999999998,-0.0043127999999995,0.0050222000000008,-0.0001571999999999,0,sub_3
-0.0042676000000002,0.0135712000000012,-0.0044177999999998,-0.0019733999999995,0.0037344000000008,-0.0001565999999999,0,sub_3
-0.0043458000000002,0.0130404000000012,-0.0038877999999998,0.0003736000000003,0.0028778000000008,-0.0014381999999999,0,sub_3
-0.0050008000000001,0.0141796000000012,-0.0038835999999998,0.0029370000000003,0.0022352000000008,-0.0031457999999999,0,sub_3
-0.0050062000000001,0.0145042000000012,-0.0041271999999998,0.0050688000000003,0.0007406000000008,-0.0041971999999999,0,sub_3
-0.0045250000000001,0.0141912000000012,-0.0039623999999998,0.0074092000000003,-0.0007589999999991,-0.0041789999999999,0,sub_3
-0.0036320000000001,0.0138770000000012,-0.0038469999999998,0.0082570000000003,-0.0018281999999991,-0.0039579999999999,0,sub_3
-0.0030850000000001,0.0130600000000012,-0.0042005999999998,0.0078222000000003,-0.0020467999999991,-0.0031207999999999,0,sub_3
-0.0028832000000002,0.0116356000000012,-0.0050719999999999,0.0056842000000003,-0.0018315999999991,-0.0027233999999999,0,sub_3
-0.0035600000000002,0.0105720000000012,-0.0059597999999999,0.0031232000000003,-0.0005505999999991,-0.0021165999999999,0,sub_3
-0.0044578000000002,0.0102296000000012,-0.0063281999999999,-7.579999999961611e-05,0.0009466000000008,-0.0017281999999999,0,sub_3
-0.0049534000000002,0.0102606000000012,-0.0074451999999998,-0.0034835999999996,0.0024488000000008,-0.0024095999999998,0,sub_3
-0.0053072000000002,0.0110024000000012,-0.0076473999999998,-0.0053973999999996,0.0035224000000008,-0.0028517999999998,0,sub_3
-0.0055816000000002,0.0121386000000012,-0.0068763999999998,-0.0058213999999996,0.0047996000000008,-0.0022155999999998,0,sub_3
-0.0060422000000002,0.0130772000000011,-0.0067235999999998,-0.0062451999999996,0.0058648000000008,-0.0017925999999998,0,sub_3
-0.0057722000000002,0.0135322000000011,-0.0065155999999998,-0.0060303999999996,0.0058624000000008,-0.0022253999999998,0,sub_3
-0.0060578000000002,0.0140154000000011,-0.0056819999999998,-0.0060315999999996,0.0054338000000008,-0.0024455999999998,0,sub_3
-0.0060060000000002,0.0147412000000011,-0.0056771999999999,-0.0062423999999996,0.0056460000000008,-0.0028815999999998,0,sub_3
-0.0058818000000002,0.0153136000000012,-0.0057621999999999,-0.0055997999999996,0.0058552000000008,-0.0033117999999998,0,sub_3
-0.0054104000000002,0.0154372000000012,-0.0053823999999999,-0.0043209999999996,0.0049978000000008,-0.0039497999999998,0,sub_3
-0.0048534000000002,0.0147406000000012,-0.0053345999999998,-0.0024005999999996,0.0043544000000008,-0.0045765999999998,0,sub_3
-0.0040636000000002,0.0139842000000012,-0.0052877999999998,-5.359999999961628e-05,0.0034974000000008,-0.0054135999999999,0,sub_3
-0.0034478000000001,0.0132598000000012,-0.0047489999999998,0.0022906000000003,0.0022134000000008,-0.0060365999999999,0,sub_3
-0.0029760000000001,0.0126792000000012,-0.0044757999999998,0.0039898000000003,0.0005052000000009,-0.0062349999999999,0,sub_3
-0.0024042000000001,0.0120916000000012,-0.0043823999999998,0.0050480000000003,-0.000989599999999,-0.0060109999999999,0,sub_3
-0.0022640000000001,0.0122244000000012,-0.0045179999999998,0.0052516000000003,-0.002269799999999,-0.0053657999999999,0,sub_3
-0.0031976000000001,0.0128772000000012,-0.0043471999999999,0.0048180000000003,-0.002272199999999,-0.0040857999999999,0,sub_3
-0.0039518000000001,0.0132472000000012,-0.0050243999999999,0.0037376000000003,-0.002278199999999,-0.0013147999999999,0,sub_3
-0.0045850000000001,0.0131804000000012,-0.0058699999999999,0.0015934000000003,-0.0022801999999991,0.0010204,0,sub_3
-0.0049316000000001,0.0127800000000012,-0.0061033999999999,-0.0003307999999996,-0.0016401999999991,0.0025018,0,sub_3
-0.0056828000000001,0.0135784000000012,-0.0060211999999999,-0.0024693999999996,-0.001000399999999,0.0041952,0,sub_3
-0.0056470000000001,0.0128590000000012,-0.0063819999999999,-0.0041751999999996,-0.000157999999999,0.0063234,0,sub_3
-0.0055894000000002,0.0125684000000012,-0.0066753999999999,-0.0045893999999996,0.0015388000000008,0.0067504,0,sub_3
-0.0053610000000001,0.0124226000000012,-0.0071883999999999,-0.0032955999999996,0.0036550000000008,0.0074024,0,sub_3
-0.0054844000000001,0.0120850000000012,-0.0074615999999999,-0.0024257999999996,0.0072604000000008,0.008904,0,sub_3
