userAcceleration.x,userAcceleration.y,userAcceleration.z,rotationRate.x,rotationRate.y,rotationRate.z,label,subject
-0.0057588000000002,0.0036062000000011,-0.0060017999999999,0.0017520000000004,0.0082204000000008,-0.0045675999999998,0,sub_16
-0.0057082000000002,0.0038426000000011,-0.0062269999999999,0.0019722000000004,0.0088622000000008,-0.0054213999999999,0,sub_16
-0.0047784000000001,0.0046252000000011,-0.0062579999999999,0.0024056000000004,0.0099276000000008,-0.0058469999999999,0,sub_16
-0.0043894000000001,0.0051158000000012,-0.0063723999999999,0.0026298000000004,0.0107958000000008,-0.0058563999999999,0,sub_16
-0.0047174000000001,0.0057598000000012,-0.0062255999999998,0.0028512000000004,0.0112370000000008,-0.0056515999999999,0,sub_16
-0.0048178000000001,0.0059964000000012,-0.0065703999999999,0.0030688000000004,0.0116748000000009,-0.0045923999999999,0,sub_16
-0.0047686000000001,0.0056226000000012,-0.0069055999999999,0.0024308000000004,0.0121140000000008,-0.0031117999999999,0,sub_16
-0.0057556000000001,0.0053266000000012,-0.0071767999999999,0.0015806000000004,0.0119182000000008,-0.0024863999999999,0,sub_16
-0.0060550000000001,0.0049526000000012,-0.0074595999999999,0.0017922000000004,0.0112792000000008,-0.0026977999999999,0,sub_16
-0.0063854000000001,0.0050174000000012,-0.0068833999999999,0.0022190000000004,0.0106412000000008,-0.0033349999999999,0,sub_16
-0.0059612000000002,0.0049592000000012,-0.0066605999999999,0.0028582000000004,0.0100016000000008,-0.0037569999999999,0,sub_16
-0.0058076000000002,0.0048790000000012,-0.0062555999999999,0.0034996000000004,0.0085212000000009,-0.0041897999999999,0,sub_16
-0.0052294000000002,0.0039048000000012,-0.0064717999999998,0.0039236000000004,0.0064014000000009,-0.0044097999999998,0,sub_16
-0.0047448000000002,0.0037132000000012,-0.0062043999999998,0.0037114000000004,0.0053484000000009,-0.0044219999999998,0,sub_16
-0.0039856000000001,0.0034404000000012,-0.0073553999999999,0.0028668000000004,0.0060020000000009,-0.0044407999999998,0,sub_16
-0.0039194000000001,0.0035706000000012,-0.0071893999999999,0.0022450000000004,0.0083610000000009,-0.0048873999999998,0,sub_16
-0.0039648000000001,0.0040066000000012,-0.0073413999999999,0.0020440000000004,0.0109192000000009,-0.0051057999999998,0,sub_16
-0.0042548000000001,0.0047074000000012,-0.0066843999999999,0.0022680000000004,0.0130498000000009,-0.0053205999999998,0,sub_16
-0.0048320000000001,0.0050350000000012,-0.0062761999999999,0.0026986000000004,0.0136882000000009,-0.0055319999999998,0,sub_16
-0.0057692000000001,0.0052712000000012,-0.0057611999999998,0.0029072000000004,0.0128344000000009,-0.0053157999999999,0,sub_16
-0.0065618000000001,0.0044886000000012,-0.0056727999999998,0.0031032000000004,0.0087744000000009,-0.0046709999999999,0,sub_16
-0.0067610000000001,0.0029410000000012,-0.0054963999999998,0.0028668000000004,0.0028012000000009,-0.0046675999999999,0,sub_16
-0.0064348000000001,0.0015456000000012,-0.0057857999999998,0.0022016000000004,-0.003808799999999,-0.0048801999999999,0,sub_16
-0.0057588000000001,0.0011472000000012,-0.0072635999999999,0.0015470000000004,-0.008287399999999,-0.0053089999999999,0,sub_16
-0.0044184000000001,0.0010890000000012,-0.0083165999999999,0.0013324000000004,-0.009784999999999,-0.0057383999999999,0,sub_16
-0.0036676000000001,0.0014544000000012,-0.0095427999999999,0.0011354000000004,-0.006798799999999,-0.0063845999999999,0,sub_16
-0.0048314000000001,0.0033514000000012,-0.0099993999999999,0.0005268000000004,0.0002340000000009,-0.0063979999999999,0,sub_16
-0.0060164000000001,0.0060490000000012,-0.0097345999999999,0.0003524000000004,0.0097968000000008,-0.0057619999999998,0,sub_16
-0.0074214000000001,0.0075998000000012,-0.0081497999999999,-0.0004775999999995,0.0172262000000008,-0.0038461999999998,0,sub_16
-0.0088122000000002,0.0077810000000012,-0.0067639999999999,-0.0009093999999995,0.0188992000000008,-0.0012791999999998,0,sub_16
-0.0094600000000002,0.0092140000000011,-0.0047615999999999,-0.0003001999999995,0.0143916000000008,0.0008758000000001,0,sub_16
-0.0074460000000002,0.0092282000000011,-0.0035439999999999,0.0015740000000004,0.0071074000000008,0.0036842000000001,0,sub_16
-0.0053590000000002,0.0073758000000011,-0.0035489999999999,0.0023700000000004,-0.002920199999999,0.00648,0,sub_16
-0.0035668000000001,0.0041472000000011,-0.0035407999999999,0.0027422000000004,-0.012943599999999,0.008632,0,sub_16
-0.0019352000000001,0.0018452000000011,-0.0042597999999999,0.0027020000000004,-0.021255199999999,0.0092832,0,sub_16
-0.0001730000000001,-0.0009901999999987,-0.0061755999999999,0.0013996000000004,-0.025121399999999,0.0090832,0,sub_16
-4.0400000000181176e-05,-0.0017539999999987,-0.0083549999999999,-0.0009399999999995,-0.023864599999999,0.0073738,0,sub_16
-0.0001212000000001,-0.0012889999999987,-0.0099023999999999,-0.0026077999999995,-0.016215799999999,0.0050200000000001,0,sub_16
-0.0016754000000001,0.0009926000000012,-0.0108309999999999,-0.0034115999999995,-0.006438799999999,0.0024558000000001,0,sub_16
-0.0046672000000001,0.0041396000000012,-0.0093369999999999,-0.0037885999999995,0.0041856000000009,0.0007482000000001,0,sub_16
-0.0073934000000001,0.0066244000000012,-0.0079409999999999,-0.0037503999999995,0.0122834000000009,0.0003108000000001,0,sub_16
-0.0090854000000001,0.0072820000000012,-0.0063545999999999,-0.0028949999999995,0.0137676000000009,0.0013830000000001,0,sub_16
-0.0105154000000001,0.0080352000000012,-0.0045787999999999,-0.0016425999999995,0.0086456000000009,0.0024664,0,sub_16
-0.0093592000000002,0.0078010000000012,-0.0037653999999998,0.0004456000000004,0.0013444000000009,0.0033648,0,sub_16
-0.0066368000000002,0.0059596000000012,-0.0046947999999998,0.0018946000000004,-0.005529199999999,0.0044718,0,sub_16
-0.0040534000000002,0.0040212000000012,-0.0053039999999998,0.0027122000000004,-0.011544199999999,0.004505,0,sub_16
-0.0018994000000002,0.0022248000000012,-0.0058167999999999,0.0026898000000004,-0.015634599999999,0.0034618,0,sub_16
-0.0004668000000002,0.0006776000000011,-0.0067565999999998,0.0020378000000004,-0.017166799999999,0.0026246,0,sub_16
-0.0005708000000002,0.0001816000000011,-0.0074635999999999,-0.0007281999999995,-0.015876999999999,0.0021764,0,sub_16
-0.0011348000000002,0.0011568000000011,-0.0082633999999999,-0.0034827999999995,-0.012667199999999,0.0010848,0,sub_16
-0.0030978000000001,0.0032096000000011,-0.0083089999999999,-0.0053829999999995,-0.007974199999999,0.0012792,0,sub_16
-0.0058802000000001,0.0052212000000011,-0.0078357999999999,-0.0062279999999995,-0.002909599999999,0.0019318,0,sub_16
-0.0078276000000001,0.0069346000000012,-0.0072093999999999,-0.0064385999999995,0.0008742000000009,0.0025904,0,sub_16
-0.0088580000000001,0.0077462000000011,-0.0066283999999999,-0.0049557999999995,0.0014572000000009,0.0030512,0,sub_16
-0.0097940000000001,0.0078276000000011,-0.0056149999999999,-0.0026307999999995,-0.000731599999999,0.0033078,0,sub_16
-0.0088942000000002,0.0071372000000011,-0.0054879999999999,0.0003324000000004,-0.003985399999999,0.0029294,0,sub_16
-0.0068840000000002,0.0055146000000011,-0.0057755999999999,0.0022440000000004,-0.006758399999999,0.0020916,0,sub_16
-0.0045806000000002,0.0036420000000012,-0.0061841999999999,0.0037328000000004,-0.008889799999999,0.0010366,0,sub_16
-0.0027972000000002,0.0025360000000012,-0.0066823999999999,0.0037386000000004,-0.008672399999999,-3.179999999990963e-05,0,sub_16
-0.0017214000000002,0.0023180000000012,-0.0079291999999999,0.0026756000000004,-0.006571799999999,-0.0008699999999999,0,sub_16
-0.0018758000000002,0.0022300000000012,-0.0076729999999999,0.0009792000000004,-0.002340999999999,-0.0010745999999999,0,sub_16
-0.0028704000000001,0.0036994000000012,-0.0082231999999999,-0.0013609999999995,0.0016764000000009,-0.0006423999999999,0,sub_16
-0.0044664000000001,0.0049522000000011,-0.0077531999999999,-0.0032773999999995,0.0056898000000009,0.0004336,0,sub_16
-0.0062220000000001,0.0060512000000011,-0.0069627999999999,-0.0032821999999995,0.0077790000000009,0.0015256,0,sub_16
-0.0070518000000001,0.0066812000000011,-0.0053589999999999,-0.0026477999999994,0.0077716000000009,0.002812,0,sub_16
-0.0071360000000001,0.0064236000000011,-0.0046373999999999,-0.0020191999999994,0.0054250000000009,0.0030332,0,sub_16
-0.0065340000000001,0.0054316000000011,-0.0043417999999999,-0.0003275999999995,0.0020102000000009,0.0030494,0,sub_16
-0.0060842000000002,0.0048818000000011,-0.0045465999999999,0.0015686000000004,-0.002054999999999,0.0024356,0,sub_16
-0.0057854000000002,0.0041124000000011,-0.0054503999999999,0.0026154000000004,-0.005052799999999,0.002028,0,sub_16
-0.0055918000000002,0.0033798000000012,-0.0066669999999999,0.0030266000000004,-0.006770799999999,0.001828,0,sub_16
-0.0053828000000002,0.0028732000000012,-0.0074409999999999,0.0023692000000004,-0.007850199999999,0.002688,0,sub_16
-0.0053760000000002,0.0028424000000012,-0.0071425999999999,0.0010736000000004,-0.008501199999999,0.003543,0,sub_16
-0.0054712000000002,0.0027602000000012,-0.0073161999999999,-0.0010599999999995,-0.007857199999999,0.0041682,0,sub_16
-0.0047388000000002,0.0026454000000012,-0.0070199999999999,-0.0031899999999995,-0.006785399999999,0.0043656,0,sub_16
-0.0044074000000002,0.0026676000000012,-0.0066215999999999,-0.0042491999999995,-0.005501799999999,0.0039292,0,sub_16
-0.0045096000000002,0.0033576000000012,-0.0067561999999999,-0.0040289999999995,-0.004652399999999,0.0026468,0,sub_16
-0.0050336000000002,0.0035728000000012,-0.0066869999999999,-0.0031687999999995,-0.004017599999999,0.0011556,0,sub_16
-0.0050116000000002,0.0041434000000011,-0.0064207999999998,-0.0021027999999995,-0.004451199999999,0.0003082,0,sub_16
-0.0054338000000002,0.0045958000000011,-0.0064333999999998,-0.0012567999999995,-0.005738799999999,0.0001012,0,sub_16
-0.0054560000000002,0.0045660000000011,-0.0063641999999998,-0.0010547999999995,-0.007239599999999,0.000531,0,sub_16
-0.0054850000000002,0.0050262000000011,-0.0063231999999998,-0.0012757999999995,-0.008094599999999,0.0013852,0,sub_16
-0.0051576000000002,0.0047288000000011,-0.0065059999999998,-0.0017081999999994,-0.008310399999999,0.0024508,0,sub_16
-0.0049312000000002,0.0044780000000011,-0.0067687999999998,-0.0021367999999994,-0.008098399999999,0.0030884,0,sub_16
-0.0046350000000002,0.0045194000000011,-0.0073527999999998,-0.0023473999999994,-0.007246199999999,0.0032996,0,sub_16
-0.0047842000000002,0.0043754000000011,-0.0074137999999999,-0.0023391999999994,-0.006166399999999,0.0032916,0,sub_16
-0.0046584000000002,0.0033180000000011,-0.0072079999999999,-0.0023339999999995,-0.005725599999999,0.0032844,0,sub_16
-0.0046708000000002,0.0037170000000011,-0.0066675999999999,-0.0023277999999995,-0.005283999999999,0.0030636,0,sub_16
-0.0045814000000002,0.0032588000000012,-0.0064853999999999,-0.0023235999999994,-0.005268399999999,0.0028434,0,sub_16
-0.0045554000000002,0.0030140000000012,-0.0060739999999999,-0.0023181999999994,-0.005464399999999,0.002196,0,sub_16
-0.0045704000000002,0.0034810000000012,-0.0057173999999999,-0.0023171999999994,-0.005887999999999,0.0015556,0,sub_16
-0.0046332000000002,0.0037746000000012,-0.0061661999999999,-0.0023141999999994,-0.005248799999999,0.0015548,0,sub_16
-0.0048430000000002,0.0037448000000011,-0.0062331999999999,-0.0025265999999995,-0.004822799999999,0.0017664,0,sub_16
-0.0055958000000002,0.0038042000000011,-0.0065129999999999,-0.0025237999999995,-0.003954799999999,0.0026116,0,sub_16
-0.0061264000000002,0.0037490000000011,-0.0060987999999999,-0.0025219999999995,-0.003299799999999,0.0034572,0,sub_16
-0.0063834000000001,0.0035878000000011,-0.0059761999999998,-0.0023047999999995,-0.002219399999999,0.0043038,0,sub_16
-0.0063056000000001,0.0036342000000011,-0.0057173999999999,-0.0018733999999995,-0.001775599999999,0.004298,0,sub_16
-0.0058484000000001,0.0033282000000012,-0.0061359999999998,-0.0012285999999995,-0.001756799999999,0.0038668,0,sub_16
-0.0053198000000001,0.0034370000000012,-0.0060505999999998,-0.0003711999999995,-0.001756399999999,0.0030182,0,sub_16
-0.0050324000000001,0.0033692000000012,-0.0063817999999998,-0.0003681999999995,-0.001329399999999,0.002804,0,sub_16
-0.0044352000000001,0.0031220000000012,-0.0066475999999999,-0.0001557999999995,-0.001543199999999,0.0028056,0,sub_16
-0.0040888000000001,0.0029140000000012,-0.0065187999999999,-0.0005851999999995,-0.002384599999999,0.0030072,0,sub_16
-0.0039490000000001,0.0032050000000012,-0.0064351999999999,-0.0010125999999995,-0.002799999999999,0.0032082,0,sub_16
-0.0041428000000001,0.0033884000000012,-0.0057067999999999,-0.0014399999999995,-0.003639599999999,0.0029824,0,sub_16
-0.0040936000000001,0.0038508000000012,-0.0056609999999999,-0.0010139999999995,-0.004482199999999,0.0027626,0,sub_16
-0.0042170000000002,0.0041628000000012,-0.0058381999999999,-0.0014405999999995,-0.005320999999999,0.0023232,0,sub_16
-0.0049200000000002,0.0042942000000011,-0.0062763999999999,-0.0014405999999995,-0.005533199999999,0.0021098,0,sub_16
-0.0053452000000002,0.0044696000000011,-0.0069633999999998,-0.0014433999999995,-0.005959999999999,0.002324,0,sub_16
-0.0051740000000002,0.0046484000000011,-0.0076921999999998,-0.0016531999999995,-0.005302199999999,0.0027364,0,sub_16
-0.0044922000000002,0.0045242000000011,-0.0078959999999998,-0.0018591999999995,-0.004428799999999,0.0025076,0,sub_16
-0.0038910000000001,0.0041292000000011,-0.0073367999999998,-0.0014171999999995,-0.002277599999999,0.0018544000000001,0,sub_16
-0.0031348000000001,0.0037868000000012,-0.0072979999999998,-0.0009695999999995,0.0003032000000009,0.0003460000000001,0,sub_16
-0.0031264000000001,0.0031536000000011,-0.0068225999999998,-9.13999999995382e-05,0.0035224000000009,-0.0013737999999998,0,sub_16
-0.0032666000000001,0.0026144000000011,-0.0068381999999998,0.0005680000000004,0.0060836000000009,-0.0030815999999998,0,sub_16
-0.0036424000000001,0.0026130000000011,-0.0071487999999998,0.0010102000000004,0.0082176000000009,-0.0043631999999998,0,sub_16
-0.0046556000000002,0.0030456000000011,-0.0076975999999998,0.0014436000000004,0.0090708000000009,-0.0050021999999999,0,sub_16
-0.0053970000000002,0.0037242000000011,-0.0075035999999998,0.0016652000000004,0.0097344000000008,-0.0047999999999999,0,sub_16
-0.0049388000000002,0.0040640000000012,-0.0070547999999998,0.0012438000000004,0.0097610000000008,-0.0046013999999999,0,sub_16
-0.0045220000000002,0.0040026000000012,-0.0067567999999999,0.0014606000000004,0.0091472000000008,-0.0046113999999999,0,sub_16
-0.0045850000000001,0.0034588000000012,-0.0061739999999999,0.0010372000000004,0.0081114000000008,-0.0050523999999999,0,sub_16
-0.0042296000000001,0.0034974000000012,-0.0057507999999999,0.0012588000000004,0.0079262000000008,-0.0057037999999999,0,sub_16
-0.0031714000000001,0.0032956000000012,-0.0059343999999999,0.0016866000000004,0.0079256000000009,-0.0059143999999999,0,sub_16
-0.0031630000000001,0.0036176000000012,-0.0063937999999999,0.0021152000000004,0.0083504000000009,-0.0059119999999998,0,sub_16
-0.0035780000000001,0.0042624000000011,-0.0061113999999999,0.0025456000000004,0.0098376000000009,-0.0052699999999998,0,sub_16
-0.0044596000000002,0.0046914000000011,-0.0062007999999999,0.0034052000000004,0.0104968000000008,-0.0039959999999998,0,sub_16
-0.0052404000000002,0.0039612000000011,-0.0064423999999999,0.0027730000000004,0.0115876000000008,-0.0027327999999998,0,sub_16
-0.0064370000000002,0.0035244000000011,-0.0063169999999999,0.0021418000000004,0.0122546000000008,-0.0021101999999998,0,sub_16
-0.0069350000000002,0.0028700000000011,-0.0060077999999999,0.0021488000000004,0.0120688000000008,-0.0019091999999999,0,sub_16
-0.0070238000000002,0.0027068000000012,-0.0059769999999998,0.0017272000000004,0.0108220000000008,-0.0023507999999999,0,sub_16
-0.0062818000000002,0.0026860000000012,-0.0057583999999999,0.0019444000000004,0.0108248000000008,-0.0032039999999999,0,sub_16
-0.0052608000000001,0.0027178000000012,-0.0061055999999998,0.0025818000000004,0.0095468000000008,-0.0038387999999999,0,sub_16
-0.0047696000000001,0.0028478000000012,-0.0057409999999998,0.0030038000000004,0.0078436000000008,-0.0044745999999998,0,sub_16
-0.0042624000000001,0.0030744000000012,-0.0057307999999998,0.0030070000000004,0.0063776000000008,-0.0049153999999998,0,sub_16
-0.0035122000000001,0.0027836000000012,-0.0064403999999999,0.0025874000000004,0.0061896000000008,-0.0049333999999998,0,sub_16
-0.0031270000000001,0.0027002000000012,-0.0066653999999999,0.0019552000000004,0.0064276000000009,-0.0047397999999998,0,sub_16
-0.0033348000000002,0.0027174000000012,-0.0064853999999999,0.0017506000000004,0.0068772000000009,-0.0045435999999998,0,sub_16
-0.0033332000000002,0.0026570000000012,-0.0067921999999999,0.0015480000000004,0.0073284000000008,-0.0047745999999998,0,sub_16
-0.0038990000000002,0.0029310000000011,-0.0067139999999999,0.0013384000000004,0.0081814000000008,-0.0047771999999998,0,sub_16
-0.0047772000000002,0.0030800000000011,-0.0062519999999999,0.0015508000000004,0.0079676000000008,-0.0047753999999999,0,sub_16
-0.0054714000000002,0.0031652000000011,-0.0063759999999999,0.0017614000000004,0.0073276000000008,-0.0047729999999999,0,sub_16
-0.0059210000000001,0.0033766000000011,-0.0064757999999999,0.0019804000000004,0.0065006000000008,-0.0049991999999999,0,sub_16
-0.0062584000000001,0.0040494000000011,-0.0065607999999999,0.0022022000000004,0.0065252000000009,-0.0050127999999999,0,sub_16
-0.0060914000000001,0.0039918000000011,-0.0065929999999999,0.0024222000000004,0.0063358000000009,-0.0048123999999998,0,sub_16
-0.0060320000000001,0.0042334000000011,-0.0063823999999999,0.0024306000000004,0.0065732000000009,-0.0046139999999998,0,sub_16
-0.0061334000000001,0.0044520000000011,-0.0064545999999999,0.0022248000000004,0.0068106000000009,-0.0042035999999998,0,sub_16
-0.0059940000000001,0.0047054000000011,-0.0066503999999999,0.0020114000000004,0.0070236000000009,-0.0039915999999998,0,sub_16
-0.0059252000000001,0.0044406000000011,-0.0065859999999999,0.0020076000000004,0.0068080000000009,-0.0033503999999998,0,sub_16
-0.0055852000000001,0.0041698000000011,-0.0066969999999999,0.0017924000000004,0.0068070000000009,-0.0029245999999999,0,sub_16
-0.0048048000000001,0.0035668000000011,-0.0065483999999999,0.0017906000000004,0.0063810000000009,-0.0029241999999999,0,sub_16
-0.0041374000000001,0.0031450000000011,-0.0064677999999999,0.0017958000000004,0.0057496000000008,-0.0035683999999999,0,sub_16
-0.0037716000000002,0.0030264000000011,-0.0059297999999999,0.0020204000000004,0.0063958000000008,-0.0042127999999999,0,sub_16
-0.0030880000000002,0.0031742000000011,-0.0062277999999999,0.0018134000000004,0.0066146000000008,-0.0042187999999999,0,sub_16
-0.0031616000000002,0.0035260000000012,-0.0060041999999999,0.0013880000000004,0.0061934000000008,-0.0037981999999999,0,sub_16
-0.0035848000000002,0.0036826000000012,-0.0064529999999999,0.0011742000000004,0.0059820000000008,-0.0027353999999999,0,sub_16
-0.0042934000000002,0.0042184000000012,-0.0062661999999999,0.0003082000000004,0.0049128000000009,-0.0010309999999999,0,sub_16
-0.0054306000000002,0.0043582000000011,-0.0066285999999998,-0.0005663999999995,0.0025628000000009,0.001316,0,sub_16
-0.0060466000000002,0.0042180000000011,-0.0062897999999998,-0.0008009999999995,-0.000656399999999,0.0028218,0,sub_16
-0.0066488000000002,0.0041428000000011,-0.0066049999999998,3.700000000046175e-05,-0.003661999999999,0.0032664,0,sub_16
-0.0068034000000002,0.0043310000000011,-0.0063821999999999,2.3400000000461768e-05,-0.006238599999999,0.0037046,0,sub_16
-0.0057780000000002,0.0037720000000011,-0.0062491999999999,0.0008700000000004,-0.007114599999999,0.0043602,0,sub_16
-0.0042342000000002,0.0030740000000011,-0.0062165999999999,0.0010822000000004,-0.007558799999999,0.0041562,0,sub_16
-0.0031526000000002,0.0024234000000011,-0.0064475999999999,0.0008744000000004,-0.006916199999999,0.003513,0,sub_16
-0.0024958000000002,0.0026092000000011,-0.0064191999999999,0.0002410000000004,-0.005634799999999,0.0032934,0,sub_16
-0.0019984000000002,0.0028838000000011,-0.0066843999999999,-0.0003925999999995,-0.004353399999999,0.0030736,0,sub_16
-0.0025960000000002,0.0027532000000011,-0.0069801999999999,-0.0010293999999995,-0.003528799999999,0.002227,0,sub_16
-0.0034972000000001,0.0033148000000011,-0.0069275999999999,-0.0012463999999995,-0.003560399999999,0.0020254,0,sub_16
-0.0045924000000001,0.0037340000000011,-0.0068079999999999,-0.0012527999999995,-0.004019799999999,0.0020394,0,sub_16
-0.0049498000000001,0.0031446000000011,-0.0065299999999999,-0.0016887999999995,-0.005116799999999,0.0020512,0,sub_16
-0.0053984000000001,0.0030796000000012,-0.0066749999999999,-0.0014825999999995,-0.006002199999999,0.0018536,0,sub_16
-0.0049520000000001,0.0033816000000011,-0.0063487999999999,-0.0010587999999995,-0.006854999999999,0.001644,0,sub_16
-0.0040510000000002,0.0032228000000011,-0.0061175999999999,-0.0008415999999995,-0.006215799999999,0.001431,0,sub_16
-0.0040816000000001,0.0033872000000011,-0.0062279999999999,-0.0010491999999995,-0.005148999999999,0.0012144,0,sub_16
-0.0042006000000001,0.0035418000000011,-0.0062359999999999,-0.0008361999999995,-0.003696599999999,0.0012338,0,sub_16
-0.0044636000000001,0.0033442000000011,-0.0060873999999999,-0.0008423999999995,-0.003309399999999,0.0014668,0,sub_16
-0.0048194000000001,0.0038248000000012,-0.0061379999999999,-0.0006379999999995,-0.003137799999999,0.0021288,0,sub_16
-0.0055026000000001,0.0039412000000012,-0.0064555999999999,-0.0006477999999995,-0.003602799999999,0.0023628,0,sub_16
-0.0050510000000002,0.0038206000000012,-0.0062221999999999,-1.4599999999538204e-05,-0.003643199999999,0.0023872,0,sub_16
-0.0045268000000002,0.0038124000000012,-0.0062179999999999,-0.0004383999999995,-0.003002399999999,0.0023834,0,sub_16
-0.0048182000000002,0.0038530000000012,-0.0062267999999999,-0.0006479999999995,-0.001937199999999,0.0025942,0,sub_16
-0.0055034000000002,0.0037962000000012,-0.0061847999999999,-0.0015023999999995,-0.002147199999999,0.0025886,0,sub_16
-0.0058652000000002,0.0032866000000012,-0.0057649999999999,-0.0019461999999995,-0.003678399999999,0.0030376,0,sub_16
-0.0059710000000002,0.0018882000000012,-0.0052497999999999,-0.0030445999999995,-0.007978599999999,0.003913,0,sub_16
-0.0059906000000001,0.0009922000000012,-0.0056651999999999,-0.0028693999999995,-0.014199199999999,0.0043724,0,sub_16
-0.0044048000000001,0.0008702000000012,-0.0070033999999999,-0.0026835999999995,-0.018924999999999,0.0039754,0,sub_16
-0.0031604000000001,0.0013188000000012,-0.0081153999999999,-0.0024729999999995,-0.018535799999999,0.0031446,0,sub_16
-0.0023940000000001,0.0027020000000012,-0.0094521999999999,-0.0026547999999995,-0.012353199999999,0.002281,0,sub_16
-0.0038574000000001,0.0050774000000012,-0.0097469999999999,-0.0028201999999995,-0.002548599999999,0.0014126,0,sub_16
-0.0055292000000002,0.0067870000000012,-0.0089737999999999,-0.0029893999999995,0.0072526000000009,0.001399,0,sub_16
-0.0080478000000002,0.0078086000000012,-0.0068841999999999,-0.0029761999999995,0.0125438000000009,0.0022622,0,sub_16
-0.0087124000000002,0.0074604000000012,-0.0050411999999999,-0.0021411999999995,0.0114380000000009,0.0037802,0,sub_16
-0.0080532000000002,0.0066068000000012,-0.0036955999999999,-0.0006947999999995,0.0043628000000009,0.0057374,0,sub_16
-0.0056334000000002,0.0057176000000012,-0.0038067999999999,0.0009600000000004,-0.004415199999999,0.0070574,0,sub_16
-0.0030668000000002,0.0044498000000012,-0.0041709999999999,0.0019852000000004,-0.011696199999999,0.0075164,0,sub_16
-0.0006290000000002,0.0020748000000012,-0.0051757999999999,0.0023956000000004,-0.015531799999999,0.0073104,0,sub_16
0.0003517999999997,0.0001682000000012,-0.0061923999999999,0.0015392000000004,-0.016804599999999,0.0066652,0,sub_16
0.0001089999999997,-0.0014865999999987,-0.0068011999999999,-0.0001611999999995,-0.017429399999999,0.0045176,0,sub_16
-0.0004344000000002,-0.0021341999999987,-0.0070863999999999,-0.0018617999999995,-0.016999999999999,0.0025854,0,sub_16
-0.0013950000000002,-0.0019365999999987,-0.0082529999999999,-0.0037689999999995,-0.014866199999999,0.0008634,0,sub_16
-0.0028688000000002,0.0005030000000012,-0.0087687999999999,-0.0052407999999994,-0.010391999999999,-0.0004311999999999,0,sub_16
-0.0051002000000001,0.0028986000000012,-0.0087401999999999,-0.0056389999999994,-0.004217999999999,-0.0015069999999999,0,sub_16
-0.0071150000000001,0.0055790000000012,-0.0081319999999999,-0.0051855999999994,0.0023758000000008,-0.0017227999999999,0,sub_16
