userAcceleration.x,userAcceleration.y,userAcceleration.z,rotationRate.x,rotationRate.y,rotationRate.z,label,subject
0.0119889999999997,0.0152000000000011,0.0122118,-0.0045123999999995,-0.010026599999999,0.0013656,0,sub_7
0.0115931999999997,0.0143012000000011,0.010335,-0.0019401999999995,-0.008367399999999,-0.0001651999999999,0,sub_7
0.0105227999999997,0.0142472000000011,0.0100304,-0.0010795999999995,-0.006494199999999,-0.0004261999999999,0,sub_7
0.0094563999999997,0.0149298000000011,0.0094668,-0.0012831999999995,-0.003129399999999,0.000158,0,sub_7
0.0101343999999997,0.0165754000000011,0.0104452,-0.0014883999999995,-0.000402799999999,0.0005294,0,sub_7
0.0097879999999997,0.0168598000000011,0.0111516000000001,-0.0014841999999995,0.0018952000000009,0.00133,0,sub_7
0.0097353999999997,0.0175040000000011,0.0115028,-0.0010573999999995,0.0029548000000009,0.0024,0,sub_7
0.0108661999999997,0.0174354000000011,0.0118448,-0.0006267999999995,0.0029568000000009,0.0015484,0,sub_7
0.0124535999999997,0.0167842000000011,0.0121962,-0.0001999999999995,0.0016822000000009,0.0002712,0,sub_7
0.0122797999999997,0.0152730000000011,0.0120336,-0.0001991999999995,0.0012586000000009,-0.0003691999999999,0,sub_7
0.0123321999999997,0.0150088000000011,0.0119338,-0.0001857999999995,0.0009258000000009,-0.0014451999999999,0,sub_7
0.0122539999999997,0.0149614000000011,0.011774,-0.0001741999999995,0.0001668000000009,-0.0025207999999999,0,sub_7
0.0116585999999997,0.0155686000000011,0.0112188000000001,-0.0001625999999995,4.440000000095635e-05,-0.0029561999999999,0,sub_7
0.0107669999999997,0.0157928000000011,0.0111020000000001,-0.0001479999999995,0.0011978000000009,-0.0027523999999999,0,sub_7
0.0101353999999997,0.0162732000000011,0.0108402000000001,-0.0005591999999995,0.0027780000000009,-0.0023383999999999,0,sub_7
0.0104249999999997,0.0166274000000011,0.0105178000000001,-0.0016231999999995,0.0044818000000009,-0.0012797999999999,0,sub_7
0.0102153999999997,0.0161812000000011,0.0106386000000001,-0.0031177999999995,0.0051228000000009,-0.0004363999999999,0,sub_7
0.0098317999999997,0.0156866000000011,0.0107906000000001,-0.0043805999999995,0.0047310000000009,0.0008518,0,sub_7
0.0099499999999997,0.0156654000000011,0.0103492000000001,-0.0052185999999995,0.0032750000000009,0.0015036,0,sub_7
0.0102605999999997,0.0157486000000011,0.0100374000000001,-0.0051993999999995,0.0022438000000009,0.0017334,0,sub_7
0.0101823999999997,0.0158806000000011,0.0100340000000001,-0.0049665999999995,0.0012120000000009,0.0019646,0,sub_7
0.0104779999999997,0.0166274000000011,0.0098690000000001,-0.0045157999999995,0.0012446000000009,0.002196,0,sub_7
0.0107273999999997,0.0172190000000011,0.0096370000000001,-0.0042947999999995,0.0023118000000009,0.0015554,0,sub_7
0.0102371999999997,0.0171452000000011,0.0097424,-0.0038603999999995,0.0033782000000009,0.000916,0,sub_7
0.0099285999999997,0.0168338000000011,0.0098244000000001,-0.0036439999999995,0.0035922000000009,0.00049,0,sub_7
0.0094199999999997,0.0161472000000011,0.0099100000000001,-0.0027655999999995,0.0040318000000009,-0.0001251999999999,0,sub_7
0.0095653999999997,0.0153532000000012,0.0099096,-0.0023117999999995,0.0048990000000009,-0.0007439999999999,0,sub_7
0.0096753999999997,0.0147584000000012,0.0100522,-0.0012169999999995,0.0061892000000009,-0.0011453999999998,0,sub_7
0.0097901999999997,0.0147024000000011,0.0104546,-0.0007623999999995,0.0081182000000009,-0.0009107999999998,0,sub_7
0.0099099999999997,0.0148068000000011,0.0105164,0.0001180000000004,0.0098328000000009,-0.0006731999999998,0,sub_7
0.0104157999999997,0.0149376000000011,0.010896,0.0001208000000004,0.0106842000000009,-0.0004605999999998,0,sub_7
0.0101639999999997,0.0150610000000011,0.0111704,0.0005456000000004,0.0104688000000009,-0.0002437999999999,0,sub_7
0.0098817999999997,0.0157792000000011,0.0111122,0.0001112000000004,0.0091902000000009,0.0001822,0,sub_7
0.0095819999999997,0.0157816000000011,0.0106828,-0.0005175999999995,0.0074964000000009,0.0010458,0,sub_7
0.0092581999999997,0.0160722000000011,0.010145,-0.0011453999999995,0.0060156000000009,0.0019092,0,sub_7
0.0091877999999997,0.0161598000000011,0.0088468,-0.0015595999999995,0.0041096000000009,0.0023472,0,sub_7
0.0095357999999997,0.0157502000000011,0.0085276,-0.0021873999999995,0.0019924000000009,0.0025706,0,sub_7
0.0099553999999997,0.0146584000000011,0.0086852000000001,-0.0025949999999995,0.0013658000000009,0.0027934,0,sub_7
0.0101403999999997,0.0141788000000011,0.0085852000000001,-0.0025977999999995,0.0003022000000009,0.0023674,0,sub_7
0.0105711999999997,0.0135070000000011,0.0085898,-0.0025987999999995,-0.000759599999999,0.0015142,0,sub_7
0.0104901999999997,0.0134332000000012,0.0091848,-0.0021691999999995,-0.001607199999999,2.280000000008369e-05,0,sub_7
0.0098521999999997,0.0139420000000012,0.0094684,-0.0019375999999995,-0.002025999999999,-0.0006087999999999,0,sub_7
0.0089345999999997,0.0149042000000012,0.0090998,-0.0015003999999995,-0.003513399999999,-0.0005963999999998,0,sub_7
0.0088285999999997,0.0157064000000012,0.0094656,-0.0012821999999995,-0.006065999999999,-0.0003705999999998,0,sub_7
0.0077829999999997,0.0159252000000012,0.0100592000000001,-0.0015011999999995,-0.009899799999999,0.000922,0,sub_7
0.0069437999999997,0.0159408000000012,0.0101986000000001,-0.0019365999999995,-0.013523199999999,0.0030674,0,sub_7
0.0071753999999997,0.0155792000000012,0.0098198,-0.0015251999999995,-0.016296999999999,0.0037148,0,sub_7
0.0081745999999997,0.0145176000000012,0.0096906000000001,-0.0011069999999995,-0.019064799999999,0.0028666,0,sub_7
0.0089453999999997,0.0137620000000011,0.0091224000000001,-0.0002487999999995,-0.019700199999999,0.0011642,0,sub_7
0.0104309999999997,0.0137938000000011,0.0087746000000001,0.0012794000000004,-0.017992799999999,-0.0013847999999999,0,sub_7
0.0110253999999997,0.0131700000000011,0.0085294000000001,0.0028152000000004,-0.014368799999999,-0.0037225999999999,0,sub_7
0.0114507999999997,0.0124514000000011,0.0087046000000001,0.0034986000000004,-0.009892199999999,-0.0054263999999999,0,sub_7
0.0109923999999997,0.0127100000000011,0.0088002000000001,0.0037542000000004,-0.004566199999999,-0.0060659999999999,0,sub_7
0.0105949999999997,0.0128366000000011,0.0083680000000001,0.0037878000000004,-0.000944599999999,-0.0064913999999999,0,sub_7
0.0096921999999997,0.0129656000000011,0.0075972000000001,0.0027324000000004,0.0011914000000009,-0.0069287999999998,0,sub_7
0.0091911999999997,0.0137838000000012,0.0074502,0.0016714000000004,0.0020490000000009,-0.0073645999999998,0,sub_7
0.0084825999999997,0.0147000000000012,0.0073854000000001,0.0008188000000004,0.0024772000000009,-0.0071573999999998,0,sub_7
0.0089417999999997,0.0144642000000011,0.0070304,0.0006262000000004,0.0033214000000009,-0.0069451999999998,0,sub_7
0.0089313999999997,0.0143810000000011,0.0075822000000001,-0.0001967999999995,0.0062982000000009,-0.0067399999999998,0,sub_7
0.0091767999999997,0.0139702000000011,0.0080738000000001,-0.0005949999999995,0.0090596000000009,-0.0063177999999998,0,sub_7
0.0095543999999997,0.0134506000000011,0.0081786000000001,-0.0012103999999995,0.0107574000000009,-0.0061093999999998,0,sub_7
0.0102097999999997,0.0134328000000011,0.0083,-0.0013999999999995,0.0113920000000009,-0.0067513999999998,0,sub_7
0.0096321999999997,0.0140952000000012,0.0089112000000001,-0.0018219999999995,0.0113978000000009,-0.0078223999999998,0,sub_7
0.0085833999999997,0.0145172000000012,0.0087824000000001,-0.0013961999999995,0.0105466000000009,-0.0084591999999998,0,sub_7
0.0079161999999997,0.0146730000000012,0.0085264000000001,-0.0005417999999995,0.0099078000000009,-0.0093069999999999,0,sub_7
0.0079317999999997,0.0148974000000012,0.0079614000000001,-0.0003177999999994,0.0092446000000009,-0.0093039999999999,0,sub_7
0.0070589999999997,0.0149958000000012,0.0076108000000001,-0.0013757999999994,0.0085842000000009,-0.0088825999999998,0,sub_7
0.0072507999999997,0.0147822000000012,0.00711,-0.0026489999999994,0.0072862000000009,-0.0086757999999998,0,sub_7
0.0080897999999997,0.0140106000000011,0.0066018,-0.0041337999999994,0.0062030000000009,-0.0086841999999998,0,sub_7
0.0083975999999997,0.0135586000000011,0.0062274,-0.0054041999999994,0.0061808000000009,-0.0078379999999998,0,sub_7
0.0083627999999997,0.0133262000000011,0.0068712,-0.0051869999999995,0.0068200000000009,-0.0080509999999998,0,sub_7
0.0085375999999997,0.0127518000000011,0.0070762,-0.0045429999999995,0.0074576000000009,-0.0082609999999998,0,sub_7
0.0084693999999997,0.0124716000000011,0.0072620000000001,-0.0041153999999995,0.0078814000000009,-0.0080447999999998,0,sub_7
0.0082795999999997,0.0135178000000012,0.0078558000000001,-0.0038919999999995,0.0076504000000009,-0.0076181999999998,0,sub_7
0.0083273999999997,0.0145888000000012,0.0087604000000001,-0.0038847999999994,0.0063566000000009,-0.0076187999999998,0,sub_7
0.0078513999999997,0.0158522000000012,0.0088258000000001,-0.0047367999999994,0.0046362000000009,-0.0067701999999998,0,sub_7
0.0078149999999997,0.0167740000000012,0.0087856000000001,-0.0049497999999994,0.0031250000000009,-0.0054903999999998,0,sub_7
0.0074789999999997,0.0173306000000012,0.0088994000000001,-0.0045195999999995,0.0024628000000009,-0.0039933999999998,0,sub_7
0.0075859999999997,0.0167040000000012,0.0088502000000001,-0.0038879999999995,0.0018162000000009,-0.0027061999999998,0,sub_7
0.0076559999999997,0.0164326000000011,0.0083804,-0.0038995999999995,0.0005328000000009,-0.0014227999999999,0,sub_7
0.0073969999999997,0.0154572000000011,0.008182,-0.0028441999999995,-0.000966399999999,-0.0003453999999999,0,sub_7
0.0075019999999997,0.0142092000000011,0.0078624,-0.0024163999999995,-0.001593599999999,0.0007244,0,sub_7
0.0078235999999997,0.0131012000000011,0.0071998,-0.0026259999999995,-0.002003799999999,0.001362,0,sub_7
0.0079841999999997,0.0126292000000011,0.0067092,-0.0024049999999995,-0.001775599999999,0.0017882,0,sub_7
0.0084017999999997,0.0120696000000011,0.0068294,-0.0017485999999995,0.0003686000000009,0.002215,0,sub_7
0.0091411999999997,0.0118532000000011,0.006428,-0.0017265999999994,0.0031568000000009,0.0019956,0,sub_7
0.0095357999999997,0.0123092000000011,0.0064644,-0.0012921999999994,0.0042232000000009,0.0013562,0,sub_7
0.0094519999999997,0.0127004000000011,0.0067196,-0.0008587999999994,0.0046520000000009,0.0002904000000001,0,sub_7
0.0091907999999997,0.0133904000000012,0.0072064,-0.0010683999999994,0.0050806000000009,-0.0001389999999998,0,sub_7
0.0083827999999997,0.0135696000000012,0.006751,-0.0008535999999994,0.0040312000000009,-0.0009793999999998,0,sub_7
0.0078175999999997,0.0140778000000012,0.0065684,-0.0010675999999995,0.0027694000000009,-0.0016087999999998,0,sub_7
0.0073035999999997,0.0138838000000012,0.0065884,-0.0012825999999995,0.0012946000000009,-0.0022377999999998,0,sub_7
0.0066671999999997,0.0136980000000012,0.00693,-0.0010715999999995,0.0004540000000009,-0.0020101999999998,0,sub_7
0.0063667999999997,0.0134422000000011,0.0060076,-0.0012863999999995,4.020000000095614e-05,-0.0015723999999998,0,sub_7
0.0069849999999997,0.0134572000000011,0.0057584,-0.0015007999999995,0.0004646000000009,-0.0009335999999999,0,sub_7
0.0075145999999997,0.0126536000000011,0.0062144,-0.0015035999999995,0.0002498000000009,-0.0005059999999999,0,sub_7
0.0076611999999997,0.0123770000000011,0.0062826,-0.0015015999999994,0.0015246000000009,0.0003468,0,sub_7
0.0084281999999997,0.0125714000000011,0.0051658000000001,-0.0019273999999994,0.0019514000000009,0.000557,0,sub_7
0.0087231999999997,0.0128846000000012,0.0056816000000001,-0.0017113999999994,0.0010906000000009,-5.519999999991677e-05,0,sub_7
0.0082577999999997,0.0131524000000012,0.0063790000000001,-0.0019219999999994,0.0002312000000009,-0.0006703999999999,0,sub_7
0.0082709999999997,0.0138950000000012,0.0056416000000001,-0.0019125999999995,0.0012870000000009,-0.0008593999999999,0,sub_7
0.0079717999999997,0.0141174000000011,0.0055882000000001,-0.0016917999999995,0.0014914000000009,-0.0014729999999999,0,sub_7
0.0073673999999997,0.0136838000000011,0.0062604,-0.0014719999999995,0.0016950000000009,-0.0018729999999999,0,sub_7
0.0071783999999997,0.0131480000000011,0.0060946,-0.0014729999999995,0.0019064000000009,-0.0014459999999999,0,sub_7
0.0072865999999997,0.0130344000000011,0.0055226000000001,-0.0014729999999995,0.0023308000000009,-0.0010191999999998,0,sub_7
0.0069003999999997,0.0123412000000011,0.0059724000000001,-0.0010423999999995,0.0012394000000009,-0.0007663999999998,0,sub_7
0.0066933999999997,0.0125634000000012,0.0057302,-0.0010345999999995,0.0010018000000009,-0.0005175999999998,0,sub_7
0.0064563999999997,0.0133096000000012,0.005428,-0.0010247999999995,0.0011902000000009,-0.0002693999999998,0,sub_7
0.0066575999999997,0.0136682000000012,0.0055934,-0.0010139999999995,0.0015916000000009,-2.1599999999896787e-05,0,sub_7
0.0066379999999997,0.0132218000000012,0.0056552,-0.0010051999999995,0.0017792000000009,0.0004402,0,sub_7
0.0068463999999997,0.0129362000000012,0.0060352,-0.0018595999999995,0.0022058000000009,0.0010746,0,sub_7
0.0070145999999997,0.0123002000000012,0.0063286,-0.0022881999999995,0.0022056000000009,0.0014988,0,sub_7
0.0073091999999997,0.0118566000000012,0.0063158,-0.0025083999999995,0.0011394000000009,0.0019258,0,sub_7
0.0074865999999997,0.0119364000000012,0.0059222000000001,-0.0024961999999995,0.0006918000000009,0.0021698,0,sub_7
0.0076605999999997,0.0122156000000012,0.0061234000000001,-0.0024801999999995,0.0006720000000009,0.001986,0,sub_7
0.0075949999999997,0.0128472000000012,0.0054894000000001,-0.0020315999999995,0.0012922000000009,0.0011634000000001,0,sub_7
0.0073589999999997,0.0133030000000012,0.0047934000000001,-0.0017973999999995,0.0021246000000009,0.0007664000000001,0,sub_7
0.0072395999999997,0.0135432000000012,0.0046676000000001,-0.0017783999999995,0.0027440000000009,0.0005818000000001,0,sub_7
0.0068509999999997,0.0127754000000012,0.0049112000000001,-0.0024145999999995,0.0025374000000009,-0.0004905999999998,0,sub_7
0.0069123999999997,0.0124900000000012,0.0046510000000001,-0.0024125999999995,0.0021146000000009,-0.0013445999999998,0,sub_7
0.0063329999999997,0.0120990000000012,0.0048508000000001,-0.0021991999999995,0.0016894000000009,-0.0017697999999999,0,sub_7
0.0065287999999997,0.0119958000000012,0.0050150000000001,-0.0021843999999995,0.0010350000000009,-0.0026037999999998,0,sub_7
0.0065371999999997,0.0119552000000012,0.0049468000000001,-0.0019503999999995,0.0016580000000009,-0.0034377999999998,0,sub_7
0.0061619999999997,0.0124578000000012,0.0049694,-0.0010773999999994,0.0024902000000009,-0.0038403999999998,0,sub_7
0.0057357999999997,0.0122934000000012,0.0051144000000001,-0.0012731999999994,0.0031124000000009,-0.0040365999999998,0,sub_7
0.0061499999999997,0.0123806000000012,0.0050184000000001,-0.0023251999999994,0.0030984000000009,-0.0042379999999998,0,sub_7
0.0057955999999997,0.0124850000000012,0.0050248,-0.0025403999999994,0.0028852000000009,-0.0040255999999999,0,sub_7
0.0058023999999997,0.0123568000000011,0.0053804,-0.0027575999999995,0.0026704000000009,-0.0033859999999998,0,sub_7
0.0060201999999997,0.0122772000000011,0.0046388000000001,-0.0031871999999995,0.0030938000000009,-0.0023213999999999,0,sub_7
0.0059695999999997,0.0130612000000011,0.0046908,-0.0027493999999995,0.0030754000000009,-0.0018767999999999,0,sub_7
0.0057421999999997,0.0132608000000011,0.0046636,-0.0014571999999995,0.0032672000000008,-0.0014263999999998,0,sub_7
0.0062025999999997,0.0133336000000011,0.0044350000000001,-0.0014471999999995,0.0032496000000008,-0.0007709999999998,0,sub_7
0.0062343999999997,0.0134512000000011,0.0040696,-0.0016503999999995,0.0025960000000009,-0.0007571999999999,0,sub_7
0.0057857999999997,0.0139328000000011,0.0043888000000001,-0.0012145999999995,0.0015150000000009,-0.0009519999999998,0,sub_7
0.0059023999999997,0.0133854000000011,0.0038074000000001,-0.0003639999999995,0.0015094000000009,-0.0003051999999998,0,sub_7
0.0061135999999997,0.0131242000000011,0.0033792000000001,6.080000000046621e-05,0.0019306000000009,0.0005518,0,sub_7
0.0051575999999997,0.0127166000000011,0.0033806000000001,0.0004828000000004,0.0019248000000009,0.001623,0,sub_7
0.0054069999999997,0.0117184000000012,0.0032906000000001,0.0007060000000004,0.0031818000000009,0.0033422,0,sub_7
0.0058503999999997,0.0110918000000012,0.0028156000000001,0.0013590000000004,0.0046518000000009,0.0046368,0,sub_7
0.0062327999999997,0.0104658000000012,0.0033774,0.0009440000000004,0.0046394000000009,0.0046442,0,sub_7
0.0062585999999997,0.0104026000000012,0.0035714,0.0001032000000004,0.0044170000000009,0.0042216,0,sub_7
0.0064053999999997,0.0105400000000012,0.0035560000000001,0.0005522000000004,0.0054720000000009,0.0029516,0,sub_7
0.0058931999999997,0.0117104000000012,0.0036578000000001,0.0007712000000005,0.0054762000000009,0.0016714,0,sub_7
0.0062073999999997,0.0120488000000012,0.0044778,-8.339999999949386e-05,0.0048418000000009,0.001239,0,sub_7
0.0058589999999997,0.0133160000000012,0.0051866000000001,-0.0005137999999994,0.0046278000000009,0.0018772,0,sub_7
0.0054345999999997,0.0134560000000012,0.0059068,-0.0009379999999995,0.0035474000000009,0.0029478,0,sub_7
0.0060111999999997,0.0136366000000012,0.0057792000000001,-0.0022223999999995,0.0009786000000009,0.0040144,0,sub_7
0.0059815999999997,0.0138064000000012,0.0057508,-0.0028667999999995,-0.002228999999999,0.0044452,0,sub_7
0.0060489999999997,0.0132010000000012,0.0055192000000001,-0.0026557999999995,-0.004801399999999,0.005095,0,sub_7
0.0057323999999997,0.0120156000000012,0.0044964000000001,-0.0026523999999995,-0.006519199999999,0.005315,0,sub_7
0.0057969999999997,0.0116210000000012,0.0036128000000001,-0.0028667999999995,-0.007367999999999,0.0046736,0,sub_7
0.0057177999999997,0.0111834000000012,0.0034532,-0.0028601999999995,-0.006300999999999,0.004245,0,sub_7
0.0064007999999997,0.0105112000000012,0.0029052000000001,-0.0024237999999995,-0.004171999999999,0.0042454,0,sub_7
0.0062553999999997,0.0100566000000012,0.0029184000000001,-0.0032575999999995,-0.002902399999999,0.0038142,0,sub_7
0.0058507999999997,0.0097134000000012,0.0027218,-0.0043019999999995,-0.000992799999999,0.0033806,0,sub_7
0.0058117999999997,0.0100380000000012,0.0026930000000001,-0.0051281999999995,0.0019812000000009,0.0029474,0,sub_7
0.0051453999999997,0.0108304000000012,0.0027106000000001,-0.0057409999999995,0.0047422000000009,0.0023022,0,sub_7
0.0044467999999997,0.0110220000000012,0.0033150000000001,-0.0061451999999995,0.0064374000000009,0.0016598,0,sub_7
0.0041793999999997,0.0119656000000012,0.0032702,-0.0057069999999995,0.0079316000000009,0.0005926,0,sub_7
0.0042239999999997,0.0129526000000012,0.0036994000000001,-0.0057069999999995,0.0072950000000009,-4.759999999989706e-05,0,sub_7
0.0038147999999997,0.0128980000000012,0.0042566000000001,-0.0055021999999995,0.0051646000000009,-0.0002571999999998,0,sub_7
0.0042031999999997,0.0130504000000012,0.0045142000000001,-0.0050761999999995,0.0021660000000009,-0.0004565999999998,0,sub_7
0.0039825999999997,0.0131488000000012,0.0044484000000001,-0.0048663999999995,-0.001470999999999,-0.0006567999999998,0,sub_7
0.0034899999999997,0.0126478000000012,0.0042284000000001,-0.0048699999999995,-0.004682799999999,-0.0004315999999999,0,sub_7
0.0031263999999997,0.0116728000000011,0.0042360000000001,-0.0037991999999995,-0.006406199999999,-0.0004143999999999,0,sub_7
0.0028643999999997,0.0112386000000011,0.0038240000000001,-0.0027235999999995,-0.007276599999999,-0.0006119999999999,0,sub_7
0.0025915999999997,0.0105422000000011,0.0029584000000001,-0.0016527999999995,-0.006640199999999,-0.0008189999999999,0,sub_7
0.0021907999999997,0.0103250000000011,0.0023280000000001,-0.0005725999999995,-0.004297799999999,-0.0014553999999999,0,sub_7
0.0021507999999997,0.0104922000000011,0.0019350000000001,8.000000000048624e-05,-0.001742599999999,-0.0016677999999998,0,sub_7
0.0022707999999997,0.0108074000000011,0.0016942,0.0005258000000004,0.0007958000000009,-0.0014511999999999,0,sub_7
0.0028053999999997,0.0113838000000011,0.001491,0.0009696000000004,0.0026960000000009,-0.0014473999999999,0,sub_7
0.0040305999999997,0.0121792000000011,0.0025414000000001,0.0007646000000004,0.0026808000000009,-0.0014457999999999,0,sub_7
0.0050817999999997,0.0125134000000011,0.0032296000000001,0.0001310000000004,0.0026654000000009,-0.0010197999999999,0,sub_7
0.0055305999999997,0.0121582000000011,0.0036294000000001,-0.0002843999999995,0.0028658000000009,-0.0014471999999999,0,sub_7
0.0061603999999997,0.0114668000000011,0.0037750000000001,-0.0009235999999995,0.0024444000000009,-0.0020921999999998,0,sub_7
0.0061141999999997,0.0098824000000011,0.0043620000000001,-0.0015675999999995,0.0011700000000009,-0.0025223999999999,0,sub_7
0.0046347999999997,0.0088744000000011,0.0038188000000001,-0.0015695999999995,0.0003194000000009,-0.0029485999999999,0,sub_7
0.0035727999999997,0.0090334000000012,0.0036420000000001,-0.0013639999999995,-0.001810199999999,-0.0033717999999999,0,sub_7
0.0033323999999997,0.0103734000000012,0.003385,-8.759999999953389e-05,-0.003962199999999,-0.0035791999999999,0,sub_7
0.0030663999999997,0.0121960000000012,0.0032500000000001,0.0011908000000004,-0.005900199999999,-0.0040003999999999,0,sub_7
0.0027653999999997,0.0140644000000011,0.0024186,0.0024720000000004,-0.005925999999999,-0.0031421999999999,0,sub_7
0.0021049999999997,0.0141428000000011,0.0026574000000001,0.0028978000000004,-0.006162599999999,-0.0020759999999999,0,sub_7
0.0012707999999997,0.0136040000000011,0.0018724,0.0031074000000004,-0.006825399999999,-0.0007971999999999,0,sub_7
0.0006643999999997,0.0125392000000011,0.0018046,0.0035178000000004,-0.008751199999999,0.0009174,0,sub_7
0.0003909999999997,0.0114854000000011,0.001577,0.0039214000000004,-0.012168399999999,0.0026338,0,sub_7
0.0009845999999997,0.0098532000000011,0.0017588,0.0041236000000004,-0.016223799999999,0.0032674,0,sub_7
0.0025595999999997,0.0089618000000011,0.0011574,0.0045486000000004,-0.018785999999999,0.0032598,0,sub_7
0.0043031999999997,0.0081762000000011,0.0016388,0.0045622000000004,-0.018998999999999,0.0021782,0,sub_7
0.0059259999999997,0.0075676000000012,0.001858,0.0043740000000004,-0.017078999999999,0.000665,0,sub_7
0.0077823999999997,0.0065472000000012,0.002503,0.0041954000000004,-0.013452599999999,-0.0012775999999999,0,sub_7
0.0087867999999997,0.0072986000000012,0.0030576000000001,0.0035830000000004,-0.009393799999999,-0.0034233999999999,0,sub_7
0.0091177999999997,0.0084286000000012,0.0036916,0.0025402000000004,-0.006610199999999,-0.0059979999999998,0,sub_7
0.0090659999999997,0.0099550000000012,0.0045248000000001,0.0019154000000004,-0.005320999999999,-0.0081403999999998,0,sub_7
0.0077039999999997,0.0111366000000012,0.0041938,0.0002346000000004,-0.004467599999999,-0.0090197999999998,0,sub_7
0.0053459999999997,0.0121824000000012,0.0033866,-0.0010223999999995,-0.003830599999999,-0.0094685999999998,0,sub_7
0.0037791999999997,0.0126648000000012,0.002519,-0.0007895999999995,-0.003414399999999,-0.0092659999999998,0,sub_7
0.0029983999999997,0.0127812000000012,0.00211,-0.0003471999999995,-0.002153399999999,-0.0073537999999998,0,sub_7
0.0025457999999997,0.0121382000000012,0.0009244,9.90000000004662e-05,0.0001718000000009,-0.0052293999999998,0,sub_7
0.0023251999999997,0.0119184000000012,0.0010678,0.0011686000000004,0.0018682000000009,-0.0041557999999998,0,sub_7
0.0034531999999997,0.0121424000000012,0.0013652,0.0022384000000004,0.0035646000000009,-0.0030821999999998,0,sub_7
