userAcceleration.x,userAcceleration.y,userAcceleration.z,rotationRate.x,rotationRate.y,rotationRate.z,label,subject
0.0142013999999998,-0.0004015999999987,0.0022524,0.0030494000000005,-0.001478399999999,0.0055668000000001,0,sub_10
0.0147227999999998,-0.0006741999999987,0.0025888,0.0011234000000005,-0.003174399999999,0.0051282000000001,0,sub_10
0.0155927999999998,0.0001018000000012,0.0028826,0.0004852000000005,-0.003594999999999,0.0042698000000001,0,sub_10
0.0159991999999998,0.0002094000000012,0.003209,0.0007012000000005,-0.003807199999999,0.0023384000000001,0,sub_10
0.0163519999999998,-0.0001277999999987,0.003658,0.0004934000000005,-0.004015399999999,-0.0002369999999998,0,sub_10
0.0151523999999998,-0.0004133999999987,0.003693,0.0002836000000005,-0.003800799999999,-0.0019583999999998,0,sub_10
0.0140589999999998,-0.0003959999999987,0.0038606,0.0009272000000005,-0.001467199999999,-0.0015401999999998,0,sub_10
0.0127251999999998,-0.0009401999999987,0.0033952,-0.0001485999999994,-0.001048399999999,-0.0002769999999998,0,sub_10
0.0123321999999998,-0.0002855999999987,0.0021338,-0.0008001999999994,-0.001905199999999,0.0014286000000001,0,sub_10
0.0124711999999998,0.0002368000000012,0.0018338,-0.0005925999999994,-0.002547599999999,0.0020718000000001,0,sub_10
0.0120997999999998,0.0007658000000012,0.0021558,4.740000000052836e-05,-0.002761999999999,0.0018628000000001,0,sub_10
0.0118319999999998,0.0010622000000012,0.001702,0.0015338000000005,-0.004042399999999,0.0005748000000001,0,sub_10
0.0126827999999998,0.0012390000000012,0.001129,0.0034478000000005,-0.004686999999999,-0.0002837999999998,0,sub_10
0.0134711999999998,0.0010688000000012,0.0017956,0.0038750000000005,-0.003834799999999,-0.0011547999999998,0,sub_10
0.0144351999999998,0.0008836000000012,0.0021736,0.0028058000000005,-0.002555599999999,-0.0009685999999998,0,sub_10
0.0145427999999998,0.0002174000000012,0.0013772,0.0019472000000005,-0.001916399999999,-0.0007799999999998,0,sub_10
0.0146641999999998,9.820000000124426e-05,0.001211,0.0004498000000005,-0.002975599999999,-0.0010027999999998,0,sub_10
0.0145513999999998,0.0005980000000012,0.001423,-0.0014627999999994,-0.002537599999999,-0.0022985999999998,0,sub_10
0.0135879999999998,1.940000000126424e-05,0.001618,-0.0033705999999994,0.0002388000000009,-0.0023153999999998,0,sub_10
0.0111643999999998,-0.0001545999999987,0.001333,-0.0044307999999994,0.0034314000000009,-0.0006175999999998,0,sub_10
0.0113207999999998,0.0008072000000012,0.0018238,-0.0050791999999994,0.0064068000000009,0.0019158000000001,0,sub_10
0.0119041999999998,0.0012634000000012,0.0017852,-0.0052989999999994,0.0108678000000009,0.0055184,0,sub_10
0.0122813999999998,0.0008976000000012,0.0013978,-0.0046785999999994,0.0125554000000009,0.009344,0,sub_10
0.0120623999999998,0.0009264000000012,0.0009726,-0.0025665999999994,0.0112652000000009,0.0106202000000001,0,sub_10
0.0132445999999998,0.0012930000000012,0.0002276,-0.0002391999999994,0.0074296000000009,0.0089100000000001,0,sub_10
0.0129039999999998,0.0011960000000012,0.0001706,0.0012372000000005,0.0004064000000009,0.0057246000000001,0,sub_10
0.0133397999999998,0.0006816000000012,0.0014644,0.0027280000000005,-0.002147799999999,0.0038154000000001,0,sub_10
0.0134927999999998,0.0007770000000012,0.0029848,0.0033680000000005,-0.003635399999999,0.0023264000000001,0,sub_10
0.0145429999999998,0.0011868000000012,0.003688,0.0025022000000005,-0.005552599999999,0.0018694000000001,0,sub_10
0.0151095999999998,0.0012434000000012,0.0046738,0.0012152000000005,-0.004704599999999,0.0029016000000001,0,sub_10
0.0153085999999998,0.0004512000000012,0.00517,0.0003684000000005,0.0003980000000009,0.0052130000000001,0,sub_10
0.0144223999999998,0.0002078000000012,0.004208,-0.0013413999999994,0.0016754000000009,0.0058144000000001,0,sub_10
0.0150915999999998,-0.0003655999999987,0.0024356,-0.0021995999999994,-0.000234999999999,0.0036482000000001,0,sub_10
0.0146153999999998,-0.0010401999999987,0.001678,-0.0015527999999994,0.0004054000000009,0.0027972000000001,0,sub_10
0.0150785999999998,-0.0008951999999987,0.0013636,0.0003686000000005,-0.000449199999999,0.0017434000000001,0,sub_10
0.0155803999999998,-0.0002125999999987,0.0007232,0.0010068000000005,-0.002150799999999,0.0004682000000001,0,sub_10
0.0154305999999998,0.0001436000000012,-5.399999999992208e-05,0.0018526000000005,-0.003639199999999,-0.0006169999999998,0,sub_10
0.0131485999999998,0.0005340000000012,-0.0005353999999999,0.0029128000000004,-0.002793399999999,0.0004328000000001,0,sub_10
0.0126493999999998,0.0007342000000012,-0.0003061999999999,0.0031232000000004,-0.003214399999999,-0.0006579999999998,0,sub_10
0.0113835999999998,0.0003788000000012,-4.639999999990199e-05,0.0022696000000004,-0.002567999999999,-0.0013303999999998,0,sub_10
0.0109765999999998,0.0004262000000012,-0.0004177999999999,0.0020534000000004,-0.002562999999999,-0.0019973999999998,0,sub_10
0.0114003999999998,0.0002316000000012,0.000141,0.0018420000000004,-0.002560599999999,-0.0024261999999998,0,sub_10
0.0128585999999998,0.0001342000000012,0.0018646,0.0012058000000005,-0.001281799999999,-0.0020049999999998,0,sub_10
0.0134609999999998,0.0005314000000012,0.0025804,0.0001342000000005,-0.000221399999999,0.0001226000000001,0,sub_10
0.0137525999999998,0.0005972000000012,0.0022792,-0.0011543999999994,0.0004242000000009,0.0013776000000001,0,sub_10
0.0140389999999998,-0.0005975999999987,0.0029138,-0.0011569999999994,0.0012826000000009,0.0015730000000001,0,sub_10
0.0138543999999998,-0.0010299999999987,0.0029972,-0.0007367999999994,0.0012874000000009,0.0017726000000001,0,sub_10
0.0136735999999998,-0.0011375999999987,0.002483,-0.0003203999999994,-0.000620999999999,0.0009064000000001,0,sub_10
0.0139011999999998,-0.0006691999999987,0.002752,0.0009542000000005,-0.002103799999999,-0.0005953999999998,0,sub_10
0.0145303999999998,-0.0001161999999987,0.0032862,0.0015972000000005,-0.002103599999999,-0.0012317999999998,0,sub_10
0.0142623999999998,0.0006816000000012,0.0036032,0.0007446000000005,-0.001463199999999,-0.0008111999999998,0,sub_10
0.0137605999999998,0.0013060000000012,0.0034188,0.0005316000000005,-0.001459399999999,-0.0010383999999998,0,sub_10
0.0134665999999998,0.0015890000000012,0.0038622,0.0005396000000005,0.0006726000000009,-0.0008393999999998,0,sub_10
0.0128319999999998,0.0011092000000012,0.0037424,-0.0003077999999994,0.0032304000000009,0.0002076000000001,0,sub_10
0.0118199999999997,0.0007180000000012,0.0030932,-0.0005235999999994,0.0038684000000009,0.0012614000000001,0,sub_10
0.0114887999999998,0.0006434000000012,0.0019798000000001,0.0007474000000005,0.0023732000000009,0.0016874000000001,0,sub_10
0.0124701999999998,0.0008124000000012,0.0022882000000001,0.0007416000000005,0.0013072000000009,0.0019024000000001,0,sub_10
0.0126103999999998,0.0009678000000012,0.0025506000000001,0.0003128000000005,0.0008826000000009,0.0019000000000001,0,sub_10
0.0128459999999998,0.0006346000000012,0.0019906000000001,0.0003090000000005,-0.000393999999999,0.0014744000000001,0,sub_10
0.0134587999999998,-0.0003095999999987,0.0020328000000001,0.0007280000000005,-0.003164599999999,0.0003938000000001,0,sub_10
0.0140657999999998,1.2441436769705661e-15,0.0035362,0.0007328000000005,-0.002951799999999,-0.0004799999999998,0,sub_10
0.0135619999999998,-0.0003391999999987,0.0035898,9.840000000050806e-05,-0.001674999999999,-0.0005049999999998,0,sub_10
0.0137689999999998,-0.0003471999999987,0.002414,-0.0016151999999994,-0.002315399999999,0.0003194000000001,0,sub_10
0.0135971999999998,-0.0002507999999987,0.0031468,-0.0026849999999994,-0.002742399999999,0.0005072000000001,0,sub_10
0.0133247999999998,0.0003128000000012,0.0033898,-0.0031011999999994,-0.000821799999999,7.440000000011925e-05,0,sub_10
0.0133555999999998,-2.759999999875588e-05,0.0015414,-0.0045929999999994,-0.001663799999999,-0.0012167999999998,0,sub_10
0.0139449999999998,-0.0002881999999987,0.0012008,-0.0037345999999994,-0.002299199999999,-0.0029191999999998,0,sub_10
0.0136549999999998,-0.0001887999999987,0.0019882,-0.0020151999999994,-0.001445199999999,-0.0048311999999998,0,sub_10
0.0136835999999998,0.0002264000000012,0.0006394,-0.0020071999999994,-0.000800599999999,-0.0061309999999998,0,sub_10
0.0141563999999998,0.0004664000000012,1.4400000000098187e-05,-0.0026481999999994,-0.001434599999999,-0.0067925999999998,0,sub_10
0.0139141999999998,0.0008522000000012,0.0013734,-0.0022181999999994,-0.000583599999999,-0.0068077999999998,0,sub_10
0.0130967999999998,0.0010886000000012,0.00167,-0.0028561999999994,-0.000366199999999,-0.0072569999999998,0,sub_10
0.0123319999999998,0.0012100000000012,0.000427,-0.0030721999999994,-0.001852399999999,-0.0083417999999998,0,sub_10
0.0124831999999998,0.0010480000000012,0.001311,-0.0015785999999994,-0.003130799999999,-0.0096115999999998,0,sub_10
0.0123627999999997,0.0008880000000012,0.002173,-0.0007191999999994,-0.002067599999999,-0.0098205999999998,0,sub_10
0.0129481999999997,0.0009252000000012,0.0016506,-0.0009335999999994,-0.001430999999999,-0.0089683999999998,0,sub_10
0.0134871999999998,0.0008804000000012,0.0018506,-0.0013727999999994,-0.001859599999999,-0.0072711999999998,0,sub_10
0.0136107999999998,-0.0003421999999987,0.002723,-0.0020253999999994,-0.001438399999999,-0.0047221999999998,0,sub_10
0.0142363999999998,0.0004152000000012,0.0015318,-0.0026779999999994,-0.002290599999999,-0.0034533999999998,0,sub_10
0.0150381999999998,0.0011038000000012,0.0005746,-0.0033209999999994,-0.003346399999999,-0.0045343999999998,0,sub_10
0.0149497999999998,0.0003176000000012,0.001207,-0.0039467999999994,-0.002052599999999,-0.0071137999999998,0,sub_10
0.0138869999999998,0.0003390000000012,0.0008944000000001,-0.0045629999999994,0.0015784000000009,-0.0088319999999998,0,sub_10
0.0132549999999998,0.0016408000000012,0.0005600000000001,-0.0045495999999994,0.0030758000000009,-0.0103293999999998,0,sub_10
0.0114579999999998,0.0011392000000012,0.0010236000000001,-0.0051847999999994,0.0049922000000009,-0.0094817999999998,0,sub_10
0.0107553999999998,0.0004820000000012,0.0017608,-0.0047693999999994,0.0062588000000009,-0.0062819999999998,0,sub_10
0.0098435999999998,0.0012182000000012,0.0009448,-0.0030811999999994,0.0060288000000009,-0.0028575999999998,0,sub_10
0.0110473999999998,0.0014612000000012,0.00066,-0.0018255999999994,0.0026122000000009,-0.0013549999999998,0,sub_10
0.0121533999999998,0.0012734000000012,0.0008404,-0.0014109999999994,0.0004828000000009,-0.0013555999999998,0,sub_10
0.0132247999999998,0.0007112000000012,0.001803,-0.0005553999999994,0.0002744000000009,-0.0026373999999998,0,sub_10
0.0129481999999998,0.0008298000000012,0.0027484,-0.0007609999999994,0.0002820000000009,-0.0043479999999998,0,sub_10
0.0131957999999998,0.0001176000000012,0.0025798,-0.0018297999999994,-0.000776999999999,-0.0049951999999998,0,sub_10
0.0130045999999998,-0.0004525999999987,0.0023992,-0.0024689999999994,-0.000561599999999,-0.0049999999999997,0,sub_10
0.0130395999999998,-0.0010693999999987,0.0024314,-0.0022549999999994,0.0007154000000009,-0.0043647999999997,0,sub_10
0.0131187999999997,-0.0012263999999987,0.0018178,-0.0029031999999994,0.0002902000000009,-0.0035197999999998,0,sub_10
0.0132647999999998,-0.0015231999999987,0.0008136,-0.0024893999999994,-0.001628399999999,-0.0030927999999998,0,sub_10
0.0133731999999998,-0.0016629999999987,0.0010034,-0.0012133999999994,-0.002269199999999,-0.0033021999999998,0,sub_10
0.0138283999999998,-0.0015063999999987,0.0011558,-0.0005735999999994,-0.002055599999999,-0.0035173999999998,0,sub_10
0.0141905999999998,-0.0011171999999987,0.001321,-0.0007851999999994,-0.001840999999999,-0.0037327999999998,0,sub_10
0.0144591999999998,-0.0005825999999987,0.001286,-0.0007775999999994,-0.001197599999999,-0.0048017999999998,0,sub_10
0.0141351999999998,-0.0001151999999987,0.0012434,-0.0009813999999994,-0.000127399999999,-0.0058727999999998,0,sub_10
0.0132915999999998,0.0006584000000012,0.0013298,-0.0016177999999994,-0.000333999999999,-0.0069451999999998,0,sub_10
0.0130365999999998,0.0012984000000012,0.0015634,-0.0009677999999994,-0.000326399999999,-0.0082207999999997,0,sub_10
0.0128451999999998,0.0010710000000012,0.001867,-0.0007491999999994,-0.000958199999999,-0.0090711999999998,0,sub_10
0.0123409999999998,0.0008748000000012,0.002199,-0.0003181999999994,-0.000530599999999,-0.0086395999999998,0,sub_10
0.0125803999999998,9.8200000001244e-05,0.002244,-0.0005311999999994,-0.000316399999999,-0.0075713999999998,0,sub_10
0.0131913999999998,-3.379999999877596e-05,0.0024944,-0.0007421999999994,0.0005362000000009,-0.0062903999999998,0,sub_10
0.0129663999999998,-0.0005501999999987,0.0026198,-0.0011757999999994,0.0003196000000009,-0.0050111999999998,0,sub_10
0.0127355999999998,-0.0006463999999987,0.0016018,-0.0011863999999994,-0.000750799999999,-0.0037279999999998,0,sub_10
0.0133723999999998,-0.0004901999999987,0.0013704,-0.0011889999999994,-0.002449799999999,-0.0032809999999998,0,sub_10
0.0143169999999998,0.0007716000000012,0.0014984,-0.0007427999999994,-9.899999999900335e-05,-0.0036905999999998,0,sub_10
0.0141367999999998,0.0006142000000012,0.001802,-0.0015797999999994,0.0014048000000009,-0.0043215999999998,0,sub_10
0.0135675999999998,0.0004924000000012,0.0006832,-0.0028519999999994,0.0018414000000009,-0.0040997999999998,0,sub_10
0.0133203999999998,6.380000000124402e-05,0.0009652,-0.0026239999999994,0.0031278000000009,-0.0045095999999998,0,sub_10
0.0131749999999998,-3.879999999875601e-05,0.001504,-0.0019703999999994,0.0054716000000009,-0.0051489999999998,0,sub_10
0.0119353999999998,-0.0001389999999987,0.0009614,-0.0021885999999994,0.0046194000000009,-0.0049357999999998,0,sub_10
0.0117199999999998,-8.159999999877601e-05,0.0005566,-0.0017723999999994,0.0039720000000009,-0.0032229999999998,0,sub_10
0.0115835999999998,0.0002474000000012,0.0018388,-0.0006995999999994,0.0043888000000009,-0.0012669999999998,0,sub_10
0.0119605999999998,0.0012454000000012,0.0020686,-0.0006975999999994,0.0041692000000009,0.0008960000000001,0,sub_10
0.0120877999999998,0.0021304000000012,0.00155,-0.0009129999999994,0.0028860000000009,0.0028452000000001,0,sub_10
0.0116857999999998,0.0016452000000012,0.0017678,-0.0002697999999994,0.0020284000000009,0.0041588000000001,0,sub_10
0.0120933999999998,0.0018474000000012,0.0012698,0.0012326000000004,0.0011730000000009,0.0041966000000001,0,sub_10
0.0121467999999998,0.0017234000000012,0.0006128,0.0020822000000004,-0.000530999999999,0.0033502000000001,0,sub_10
0.0121655999999998,0.0013934000000012,0.0007336,0.0033616000000004,-0.000960799999999,0.0031460000000001,0,sub_10
0.0121235999999998,-1.679999999877604e-05,0.0011676,0.0042132000000004,-0.000753399999999,0.0037926000000001,0,sub_10
0.0129043999999998,-0.0007293999999987,0.0018846,0.0050756000000004,-0.000972399999999,0.0044660000000001,0,sub_10
0.0132887999999998,-0.0013679999999987,0.001913,0.0055094000000005,-0.001615999999999,0.0051368000000001,0,sub_10
0.0138229999999998,-0.0020763999999987,0.0022524,0.0055212000000005,-0.001192999999999,0.0058034000000001,0,sub_10
0.0143613999999998,-0.0024907999999987,0.002167,0.0053234000000005,-0.001189999999999,0.0051872000000001,0,sub_10
0.0144939999999998,-0.0025791999999987,0.0018326,0.0051296000000005,-0.000546999999999,0.0043566000000001,0,sub_10
0.0140715999999998,-0.0016969999999987,0.000944,0.0047048000000004,-0.000968199999999,0.0034996000000001,0,sub_10
0.0136581999999998,-0.0009741999999987,0.0009414,0.0034254000000004,-0.001175199999999,0.0030636000000001,0,sub_10
0.0128473999999998,-0.0005377999999987,0.0008094,0.0030106000000004,-0.000746199999999,0.0033018000000001,0,sub_10
0.0119793999999998,-0.0003195999999987,0.000531,0.0028054000000004,-0.000745799999999,0.0039694000000001,0,sub_10
0.0111861999999998,0.0003304000000012,2.0000000009799506e-07,0.0030192000000004,-0.002663599999999,0.0044286000000001,0,sub_10
0.0113515999999998,0.0005206000000012,-0.0001645999999999,0.0030262000000004,-0.002876999999999,0.0050980000000001,0,sub_10
0.0112397999999998,0.0005932000000012,-0.0001011999999999,0.0032516000000004,-0.002450199999999,0.0053408000000001,0,sub_10
0.0117055999999998,0.0011726000000012,-0.0001629999999999,0.0019762000000004,-0.001592599999999,0.0051172000000001,0,sub_10
0.0130593999999998,0.0014000000000012,4.8000000000098006e-05,-0.0003631999999994,-0.001153199999999,0.0038184000000001,0,sub_10
0.0140761999999998,0.0005670000000012,0.0008394,-0.0031265999999994,-0.000497399999999,0.0020892000000001,0,sub_10
0.0148797999999998,-0.0008839999999987,0.0013918,-0.0056725999999994,-0.000687999999999,-0.0013467999999998,0,sub_10
0.0167047999999998,-0.0020861999999987,0.00181,-0.0060679999999994,0.0001834000000009,-0.0053783999999998,0,sub_10
0.0178393999999998,-0.0031635999999987,0.0024496,-0.0060365999999994,0.0014776000000009,-0.0089803999999998,0,sub_10
0.0164649999999998,-0.0042367999999987,0.0030176,-0.0055861999999994,0.0036124000000009,-0.0100167999999998,0,sub_10
0.0147019999999998,-0.0038975999999987,0.0028502,-0.0040811999999994,0.0044592000000009,-0.0095487999999998,0,sub_10
0.0137221999999998,-0.0023201999999987,0.0021264,-0.0023705999999994,0.0050864000000009,-0.0075833999999998,0,sub_10
0.0122149999999998,-0.0008849999999987,0.0023216,-0.0021705999999994,0.0054982000000009,-0.0041641999999998,0,sub_10
0.0111467999999998,0.0006662000000012,0.001933,-0.0017611999999994,0.0048448000000009,-0.0009557999999998,0,sub_10
0.0108345999999998,0.0016430000000012,0.0009866,-0.0009219999999994,0.0024948000000009,-9.239999999984096e-05,0,sub_10
0.0122137999999998,0.0018630000000012,0.000877,-0.0011401999999994,0.0010058000000009,-0.0005191999999998,0,sub_10
0.0130379999999998,0.0016030000000012,0.001787,-0.0022001999999994,0.0007892000000009,-7.199999999984107e-05,0,sub_10
0.0128423999999998,0.0004200000000012,0.0012092,-0.0030475999999994,-0.000277799999999,-0.0002631999999998,0,sub_10
0.0125329999999998,-0.0011075999999987,0.0002938,-0.0030453999999994,-0.002199799999999,-0.0004473999999998,0,sub_10
0.0133055999999998,-0.0011123999999987,0.0003906000000001,-0.0028221999999994,-0.002205999999999,-0.0004187999999998,0,sub_10
0.0131701999999998,-0.0010809999999987,0.0004348000000001,-0.0021683999999995,-0.001149199999999,-0.0001749999999998,0,sub_10
0.0127455999999998,-0.0016281999999987,0.0001746000000001,-0.0010985999999995,-0.001362599999999,-0.0010217999999998,0,sub_10
0.0130409999999998,-0.0016339999999987,0.0008812000000001,-2.2799999999532114e-05,-0.001152399999999,-0.0024997999999998,0,sub_10
0.0134573999999998,-0.0010313999999987,0.0020252000000001,0.0010530000000004,-0.000729999999999,-0.0037643999999998,0,sub_10
0.0135979999999998,-0.0005567999999987,0.002923,0.0008438000000004,-9.519999999904316e-05,-0.0037561999999998,0,sub_10
0.0135989999999998,6.0000000001243954e-05,0.0033168,0.0004212000000004,0.0009648000000009,-0.0033227999999998,0,sub_10
0.0130385999999998,0.0003204000000012,0.0036768,0.0002092000000004,0.0015972000000009,-0.0026737999999998,0,sub_10
0.0125739999999998,0.0013820000000012,0.0035622,0.0002054000000005,0.0018060000000009,-0.0016057999999998,0,sub_10
0.0126337999999998,0.0015896000000012,0.0031268,-1.079999999949212e-05,0.0020164000000009,-0.0007529999999998,0,sub_10
0.0125353999999998,0.0013466000000012,0.0028634,0.0014760000000004,0.0013686000000009,0.0001128000000001,0,sub_10
0.0127627999999998,0.0012512000000012,0.0031406,0.0027458000000004,0.0007180000000009,0.0018316000000001,0,sub_10
0.0133323999999998,0.0016552000000012,0.0028696,0.0035772000000004,0.0002780000000009,0.0043990000000001,0,sub_10
0.0132493999999998,0.0011534000000012,0.0019722,0.0041886000000004,-0.001015799999999,0.0076068000000001,0,sub_10
0.0126233999999998,0.0008378000000012,0.0018864,0.0043694000000004,-0.002735999999999,0.0112394000000001,0,sub_10
0.0114223999999998,0.0013596000000012,0.0011974000000001,0.0030528000000005,-0.005090999999999,0.0150760000000001,0,sub_10
0.0095479999999998,0.0012800000000012,-0.0002683999999998,0.0012970000000005,-0.010214199999999,0.0189132000000001,0,sub_10
0.0083697999999998,0.0013744000000012,-0.0014535999999998,-0.0008787999999994,-0.015761399999999,0.0227506000000001,0,sub_10
0.0088029999999998,0.0022996000000012,-0.0011873999999998,-0.0034709999999994,-0.019600199999999,0.0259420000000001,0,sub_10
0.0089787999999998,0.0039492000000012,0.0004262000000001,-0.0050051999999994,-0.023022599999999,0.0308456000000001,0,sub_10
0.0093329999999998,0.0061146000000012,0.001522,-0.0050449999999994,-0.024114999999999,0.0378930000000001,0,sub_10
0.0110301999999998,0.0085906000000012,0.0009194,-0.0042227999999994,-0.022444199999999,0.0457976000000001,0,sub_10
0.0122289999999998,0.0084190000000012,0.0007406,-0.0033889999999994,-0.018428999999999,0.0534856000000001,0,sub_10
0.0108811999999998,0.0060002000000012,0.0011502,-0.0033989999999994,-0.010794799999999,0.0626586000000001,0,sub_10
0.0086841999999998,0.0023346000000012,0.0001216,-0.0031769999999994,-0.003148599999999,0.0684188000000001,0,sub_10
0.0071657999999998,-0.0035927999999987,-0.0008471999999999,-0.0025395999999994,-0.004214399999999,0.0679974000000001,0,sub_10
0.0059613999999998,-0.0084425999999987,-6.139999999990207e-05,0.0014964000000005,-0.012944999999999,0.0633366000000001,0,sub_10
0.0071135999999997,-0.0091525999999987,0.002359,0.0079036000000005,-0.019973999999999,0.0559184000000001,0,sub_10
0.0102591999999998,-0.0075665999999987,0.0024746,0.0153900000000005,-0.025510399999999,0.0472240000000001,0,sub_10
0.0137621999999998,-0.0047965999999987,0.0015128,0.0224430000000004,-0.034446399999999,0.0366082000000001,0,sub_10
0.0169315999999998,-0.0019981999999987,0.0032166,0.0299408000000004,-0.033606599999999,0.0317514000000001,0,sub_10
0.0188579999999998,-0.0005431999999987,0.005278,0.0340584000000004,-0.019992799999999,0.0321956000000001,0,sub_10
0.0186715999999998,-0.0001391999999987,0.0057024,0.0381460000000004,-0.008093999999999,0.0366956000000001,0,sub_10
0.0203377999999998,0.0008242000000012,0.007216,0.0420060000000004,0.0027318000000009,0.0433318000000001,0,sub_10
0.0201519999999998,-0.0003725999999987,0.0069504,0.0416002000000005,0.0125132000000009,0.0484438000000001,0,sub_10
0.0172421999999998,0.0012364000000012,0.0055972,0.0397270000000005,0.0303866000000009,0.0558852000000001,0,sub_10
0.0197797999999998,0.0009962000000012,0.0048898,0.0389250000000005,0.0461312000000009,0.0614206000000001,0,sub_10
0.0187371999999998,-0.0002877999999987,0.0026034,0.0334126000000005,0.0525410000000009,0.0611666000000001,0,sub_10
0.0138435999999998,-0.0014759999999987,0.00145,0.0272370000000005,0.0517178000000009,0.0587808000000001,0,sub_10
0.0124115999999998,-0.0009577999999987,0.001059,0.0278942000000005,0.0523602000000009,0.0568684000000001,0,sub_10
0.0155213999999998,-0.0038857999999987,-0.0011329999999999,0.0285484000000005,0.0513024000000009,0.0538898000000001,0,sub_10
0.0111313999999998,-0.0050651999999987,-0.0032075999999999,0.0263964000000005,0.0370762000000009,0.0436382000000001,0,sub_10
0.0080629999999998,-0.0042569999999987,-0.0037393999999999,0.0255284000000005,0.0279418000000009,0.0376618000000001,0,sub_10
0.0081633999999998,-0.0065885999999987,-0.0055313999999999,0.0270408000000005,0.0283744000000009,0.0340422000000001,0,sub_10
0.0067239999999998,-0.0085719999999987,-0.0050587999999999,0.0251258000000005,0.0258364000000009,0.0304024000000001,0,sub_10
0.0070409999999998,-0.0061339999999987,-0.0026143999999999,0.0210608000000005,0.0209570000000009,0.0280326000000001,0,sub_10
0.0079461999999998,-0.0048259999999987,-0.0010145999999999,0.0217188000000005,0.0226650000000009,0.0259008000000001,0,sub_10
0.0107385999999998,-0.0052989999999987,-4.299999999992219e-05,0.0217510000000004,0.0243880000000009,0.0205602000000001,0,sub_10
