userAcceleration.x,userAcceleration.y,userAcceleration.z,rotationRate.x,rotationRate.y,rotationRate.z,label,subject
-0.0129068000000002,0.0495088000000012,0.0189782,-0.0146891999999995,0.0078852000000009,0.0032484,0,sub_7
-0.0162346000000002,0.0519504000000011,0.0197570000000001,-0.0135079999999995,0.0114898000000009,0.0065626,0,sub_7
-0.0182516000000002,0.0523886000000011,0.0213448,-0.0125265999999995,0.0153194000000009,0.0070976,0,sub_7
-0.0194438000000002,0.0542336000000011,0.0236654000000001,-0.0130407999999995,0.0172424000000009,0.0061292,0,sub_7
-0.0189896000000002,0.0559892000000011,0.0258814000000001,-0.0124995999999995,0.0168174000000009,0.005385,0,sub_7
-0.0163188000000002,0.0566864000000011,0.0280086000000001,-0.0102649999999995,0.0140402000000009,0.0052962,0,sub_7
-0.0123004000000002,0.0557062000000011,0.0297682000000001,-0.0074987999999995,0.0131750000000009,0.0061712,0,sub_7
-0.0099502000000002,0.0545822000000011,0.0306944000000001,-0.0053755999999995,0.0120972000000009,0.0074694,0,sub_7
-0.0088814000000002,0.0529772000000011,0.0298688000000001,-0.0017549999999995,0.0101688000000009,0.0070698,0,sub_7
-0.0100010000000002,0.0519748000000011,0.0275644,0.0017358000000004,0.0070184000000009,0.003953,0,sub_7
-0.0120120000000002,0.0514866000000011,0.0259456,0.0067338000000004,0.0064214000000009,0.0004162000000001,0,sub_7
-0.0149018000000002,0.0501956000000012,0.0236344,0.0115164000000004,0.0064598000000009,-0.0020545999999998,0,sub_7
-0.0148592000000001,0.0495894000000012,0.022059,0.0163104000000004,0.0075694000000009,-0.0060223999999998,0,sub_7
-0.0155310000000001,0.0481736000000012,0.0204928,0.0172542000000004,0.0074108000000009,-0.0091607999999998,0,sub_7
-0.0148936000000001,0.0485284000000012,0.0216684,0.0160026000000004,0.0118972000000009,-0.0110981999999998,0,sub_7
-0.0168934000000001,0.0488162000000012,0.0208162,0.0115456000000004,0.0170270000000009,-0.0113493999999998,0,sub_7
-0.0170984000000001,0.0505222000000012,0.020715,0.0068668000000004,0.0189668000000009,-0.0128801999999998,0,sub_7
-0.0169964000000001,0.0501610000000012,0.0193080000000001,0.0019232000000004,0.0194598000000009,-0.0160491999999998,0,sub_7
-0.0139122000000001,0.0511594000000012,0.0197486000000001,-0.0032367999999995,0.0193146000000009,-0.0192187999999999,0,sub_7
-0.0121850000000001,0.0507796000000012,0.0190272,-0.0079919999999995,0.0170260000000009,-0.0196053999999998,0,sub_7
-0.0090280000000002,0.0491472000000012,0.0197294,-0.0121261999999995,0.0108986000000009,-0.0195555999999999,0,sub_7
-0.0082332000000002,0.0473620000000012,0.020732,-0.0175389999999995,0.0066874000000009,-0.0180215999999998,0,sub_7
-0.0092794000000002,0.0483532000000012,0.0233738,-0.0235461999999995,0.0045574000000009,-0.0129331999999998,0,sub_7
-0.0120610000000002,0.0498366000000012,0.0238814,-0.0267707999999995,0.0041228000000009,-0.0080413999999998,0,sub_7
-0.0135428000000002,0.0497490000000012,0.0247504,-0.0250847999999995,0.0019762000000009,-0.0054631999999998,0,sub_7
-0.0147118000000002,0.0515360000000012,0.0264074000000001,-0.0217361999999995,-0.001036399999999,-0.0048511999999998,0,sub_7
-0.0179662000000002,0.0528614000000012,0.0280156000000001,-0.0173233999999995,-0.005752999999999,-0.0052977999999998,0,sub_7
-0.0211424000000002,0.0542512000000011,0.0281268000000001,-0.0116341999999995,-0.012599399999999,-0.0070145999999998,0,sub_7
-0.0226220000000002,0.0543068000000011,0.0272900000000001,-0.0033807999999995,-0.019875799999999,-0.0099947999999998,0,sub_7
-0.0224764000000002,0.0548198000000011,0.0257018,0.0063814000000004,-0.024809599999999,-0.0140355999999998,0,sub_7
-0.0216984000000002,0.0533028000000011,0.0248904,0.0155660000000004,-0.026742999999999,-0.0180281999999998,0,sub_7
-0.0177364000000001,0.0516830000000011,0.0218552,0.0217776000000004,-0.025045799999999,-0.0216187999999999,0,sub_7
-0.0144400000000001,0.0493650000000012,0.0201788000000001,0.0254308000000004,-0.021640199999999,-0.0239477999999999,0,sub_7
-0.0115466000000001,0.0477144000000012,0.0199188000000001,0.0254596000000004,-0.015460799999999,-0.0241691999999999,0,sub_7
-0.0114040000000001,0.0479152000000012,0.0208376000000001,0.0199072000000004,-0.009739199999999,-0.0197627999999999,0,sub_7
-0.0116898000000001,0.0466658000000012,0.0209086000000001,0.0115694000000004,-0.004230199999999,-0.0130253999999998,0,sub_7
-0.0122110000000001,0.0467108000000011,0.0230830000000001,0.0049292000000004,-0.001494199999999,-0.0069135999999999,0,sub_7
-0.0124096000000001,0.0496194000000011,0.0243052000000001,0.0008492000000004,-0.001101599999999,-0.0031307999999999,0,sub_7
-0.0125524000000001,0.0527296000000011,0.0251582000000001,-0.0030249999999995,-0.002838399999999,0.000229,0,sub_7
-0.0128946000000001,0.0531988000000011,0.0252994,-0.0049597999999995,-0.005602999999999,0.0006464000000001,0,sub_7
-0.0142202000000001,0.0542610000000011,0.0250816,-0.0036813999999995,-0.007731199999999,-0.0010509999999998,0,sub_7
-0.0168716000000001,0.0550670000000011,0.0237904,-0.0021835999999995,-0.009905599999999,-0.0032041999999998,0,sub_7
-0.0185918000000001,0.0548270000000011,0.0225136,-0.0004771999999995,-0.011872599999999,-0.0040743999999998,0,sub_7
-0.0192544000000001,0.0536206000000011,0.0221576,0.0031524000000004,-0.012146199999999,-0.0038651999999998,0,sub_7
-0.0188400000000001,0.0519878000000011,0.0219176,0.0059334000000004,-0.010290599999999,-0.0025961999999998,0,sub_7
-0.0171120000000001,0.0507718000000011,0.0213288,0.0063682000000004,-0.008850399999999,-0.0019841999999998,0,sub_7
-0.0149564000000002,0.0499040000000011,0.0208188,0.0070218000000004,-0.007142999999999,-0.0032635999999998,0,sub_7
-0.0127544000000002,0.0482772000000011,0.0207206,0.0078936000000004,-0.004583399999999,-0.0047561999999998,0,sub_7
-0.0125818000000002,0.0474924000000012,0.0192982,0.0064220000000004,-0.002012199999999,-0.0071197999999998,0,sub_7
-0.0127126000000001,0.0475562000000012,0.0191266,0.0038662000000004,-0.000986399999999,-0.0099123999999998,0,sub_7
-0.0125698000000001,0.0474068000000012,0.0194416000000001,0.0021686000000004,0.0004652000000009,-0.0133403999999998,0,sub_7
-0.0126502000000001,0.0473812000000011,0.0197660000000001,0.0015350000000004,0.0019104000000009,-0.0161201999999998,0,sub_7
-0.0141466000000001,0.0480432000000011,0.0202954000000001,4.420000000044325e-05,0.0039918000000009,-0.0174111999999998,0,sub_7
-0.0156568000000001,0.0489648000000011,0.0210194,-0.0005977999999995,0.0050050000000009,-0.0186949999999999,0,sub_7
-0.0163896000000002,0.0499630000000011,0.0207752,0.0002634000000004,0.0043724000000009,-0.0210383999999998,0,sub_7
-0.0183474000000002,0.0518198000000011,0.0207214,0.0002588000000004,0.0043682000000009,-0.0199701999999999,0,sub_7
-0.0193546000000001,0.0533516000000011,0.0209298,-0.0003947999999995,0.0045706000000009,-0.0167701999999998,0,sub_7
-0.0192918000000001,0.0542786000000011,0.0208262,0.0011110000000004,0.0042922000000009,-0.0135253999999998,0,sub_7
-0.0192192000000001,0.0530104000000011,0.0217152,0.0019700000000004,0.0037980000000009,-0.0090027999999998,0,sub_7
-0.0192384000000001,0.0522512000000011,0.0225108,0.0013354000000004,0.0043700000000009,-0.0034237999999998,0,sub_7
-0.0184638000000001,0.0516984000000011,0.0219928,0.0021980000000004,0.0040914000000009,0.0004576000000001,0,sub_7
-0.0182174000000002,0.0501688000000011,0.0216946000000001,0.0032790000000004,0.0044530000000009,0.0039124,0,sub_7
-0.0185848000000002,0.0499220000000011,0.0215662,0.0022024000000004,0.0046606000000009,0.0062548,0,sub_7
-0.0181142000000002,0.0513064000000011,0.019785,0.0006944000000004,0.0033798000000009,0.0081688,0,sub_7
-0.0173268000000002,0.0510514000000012,0.018388,0.0011076000000004,0.0025176000000009,0.0103092000000001,0,sub_7
-0.0166520000000002,0.0494892000000012,0.0184222,0.0023822000000004,0.0027280000000009,0.0114406000000001,0,sub_7
-0.0170540000000001,0.0496918000000012,0.018104,0.0021650000000004,0.0029454000000009,0.0121342000000001,0,sub_7
-0.0160460000000001,0.0491380000000012,0.0174918000000001,2.7600000000463364e-05,0.0044426000000009,0.0140946000000001,0,sub_7
-0.0139550000000001,0.0478806000000012,0.0184298000000001,-0.0023157999999995,0.0072206000000009,0.0156248000000001,0,sub_7
-0.0114828000000001,0.0472464000000012,0.0190960000000001,-0.0052895999999995,0.0102216000000009,0.0152276000000001,0,sub_7
-0.0093416000000001,0.0485484000000012,0.0208732000000001,-0.0069889999999995,0.0112954000000009,0.0145734000000001,0,sub_7
-0.0081850000000002,0.0480134000000011,0.0226214000000001,-0.0063401999999995,0.0123618000000009,0.0137220000000001,0,sub_7
-0.0099864000000002,0.0463896000000011,0.0243730000000001,-0.0078309999999995,0.0104598000000009,0.0111504000000001,0,sub_7
-0.0125398000000002,0.0465574000000011,0.0225642000000001,-0.0088891999999995,0.0094102000000009,0.0081532000000001,0,sub_7
-0.0152304000000002,0.0483192000000011,0.022595,-0.0067595999999995,0.0081538000000009,0.0060808000000001,0,sub_7
-0.0185034000000002,0.0480078000000011,0.0216648000000001,-0.0074075999999995,0.0075404000000009,0.0054836000000001,0,sub_7
-0.0201938000000002,0.0480360000000011,0.0211962000000001,-0.0136235999999995,0.0043820000000009,0.0067736000000001,0,sub_7
-0.0197598000000002,0.0491328000000012,0.0186008000000001,-0.0157873999999995,0.0014200000000009,0.0087326000000001,0,sub_7
-0.0193886000000002,0.0498496000000012,0.0197254,-0.0149657999999995,-0.001978599999999,0.010713,0,sub_7
-0.0198160000000002,0.0487804000000012,0.0198158000000001,-0.0141245999999995,-0.002416999999999,0.0130694,0,sub_7
-0.0190790000000002,0.0484146000000012,0.0191974,-0.0139093999999995,-0.001567399999999,0.0134972,0,sub_7
-0.0185584000000002,0.0479948000000012,0.0178048000000001,-0.0109231999999995,-5.2399999999049385e-05,0.0116384,0,sub_7
-0.0183226000000001,0.0476960000000012,0.0184626000000001,-0.0062221999999995,0.0029488000000009,0.009576,0,sub_7
-0.0178196000000001,0.0474178000000012,0.0193124000000001,-0.0008773999999995,0.0074366000000009,0.0081572000000001,0,sub_7
-0.0167552000000001,0.0468876000000012,0.0193490000000001,0.0006152000000004,0.0093812000000009,0.0067146000000001,0,sub_7
-0.0168918000000001,0.0466070000000012,0.0190232000000001,0.0012476000000004,0.0104742000000009,0.0059080000000001,0,sub_7
-0.0167212000000001,0.0467388000000012,0.0180402000000001,0.0040446000000004,0.0140924000000009,0.0044274000000001,0,sub_7
-0.0164680000000001,0.0463682000000011,0.0180680000000001,0.0061964000000004,0.0160110000000009,0.0023034000000001,0,sub_7
-0.0153060000000001,0.0458214000000011,0.0180450000000001,0.0047210000000004,0.0173056000000009,-0.0004859999999998,0,sub_7
-0.0149252000000001,0.0471148000000011,0.0177462000000001,0.0015132000000004,0.0173326000000009,-0.0019417999999998,0,sub_7
-0.0137374000000001,0.0487340000000011,0.0181582000000001,0.0006372000000004,0.0156400000000009,-0.0016697999999998,0,sub_7
-0.0126238000000001,0.0488500000000011,0.0206188,-0.0013209999999995,0.0118156000000009,-0.0001209999999998,0,sub_7
-0.0126352000000001,0.0491706000000012,0.0219766000000001,-0.0047659999999995,0.0097000000000009,0.0016290000000001,0,sub_7
-0.0141406000000001,0.0497144000000012,0.0216656,-0.0075709999999995,0.0067334000000009,0.0025300000000001,0,sub_7
-0.0152594000000002,0.0497906000000012,0.0206810000000001,-0.0067223999999995,0.0046042000000009,0.0014706000000001,0,sub_7
-0.0163464000000001,0.0495748000000012,0.0206462,-0.0071499999999995,0.0026950000000009,-0.0002391999999998,0,sub_7
-0.0178064000000001,0.0503368000000012,0.0195342,-0.0069367999999995,0.0022700000000009,-0.0006643999999998,0,sub_7
-0.0183650000000001,0.0501622000000012,0.0182862,-0.0058849999999995,0.0018374000000009,-0.0006277999999998,0,sub_7
-0.0195144000000001,0.0496104000000011,0.0179566,-0.0044111999999995,0.0016114000000009,0.0006934000000001,0,sub_7
-0.0196870000000001,0.0498390000000011,0.0182098,-0.0040107999999995,0.0015952000000009,0.0037158000000001,0,sub_7
-0.0198428000000002,0.0489290000000011,0.0178022,-0.0025407999999995,0.0030634000000009,0.0075984000000001,0,sub_7
-0.0194462000000002,0.0460218000000011,0.0180902,-0.0032005999999995,0.0039058000000009,0.0099714,0,sub_7
-0.0189390000000002,0.0450576000000011,0.0184616000000001,-0.0042711999999995,0.0039062000000009,0.0108186000000001,0,sub_7
-0.0176536000000002,0.0448848000000012,0.0184536,-0.0040557999999995,0.0047560000000009,0.0112462000000001,0,sub_7
-0.0168092000000002,0.0441898000000012,0.0187042,-0.0036253999999995,0.0058190000000009,0.0114616000000001,0,sub_7
-0.0168600000000002,0.0435654000000012,0.0188512000000001,-0.0057505999999995,0.0066598000000009,0.0110106000000001,0,sub_7
-0.0171858000000002,0.0462014000000012,0.0186070000000001,-0.0055257999999995,0.0072826000000009,0.0097218000000001,0,sub_7
-0.0170070000000002,0.0478964000000012,0.018527,-0.0033779999999995,0.0089624000000009,0.0088722000000001,0,sub_7
-0.0159268000000002,0.0482384000000012,0.0198002,-0.0037963999999995,0.0091606000000009,0.0077930000000001,0,sub_7
-0.0160630000000002,0.0478976000000012,0.0201672,-0.0054977999999995,0.0082996000000009,0.0062788000000001,0,sub_7
-0.0159968000000002,0.0486914000000012,0.0194476,-0.0050673999999995,0.0068162000000009,0.0039336000000001,0,sub_7
-0.0154074000000002,0.0480384000000012,0.0190762,-0.0046425999999995,0.0051154000000009,0.0026568000000001,0,sub_7
-0.0148528000000002,0.0467374000000012,0.0197966,-0.0052873999999995,0.0038402000000009,0.0024402000000001,0,sub_7
-0.0153292000000002,0.0466012000000012,0.0186638000000001,-0.0059041999999995,0.0029724000000009,0.0021954000000001,0,sub_7
-0.0163230000000002,0.0469422000000012,0.0181130000000001,-0.0065199999999995,0.0025300000000009,0.0021638000000001,0,sub_7
-0.0171286000000002,0.0469338000000012,0.0186278000000001,-0.0058507999999995,0.0031482000000009,0.0021398000000001,0,sub_7
-0.0180086000000002,0.0470226000000012,0.0192012000000001,-0.0056085999999995,0.0037680000000009,0.0021128000000001,0,sub_7
-0.0191294000000002,0.0479914000000012,0.0176906,-0.0070771999999995,0.0033292000000009,0.0018616000000001,0,sub_7
-0.0197798000000002,0.0486098000000012,0.0173578,-0.0070791999999995,0.0026910000000009,0.0016488000000001,0,sub_7
-0.0187400000000002,0.0483004000000012,0.0169558,-0.0055847999999995,0.0028988000000009,0.001659,0,sub_7
-0.0180534000000002,0.0477436000000012,0.0164988,-0.0055963999999995,0.0020398000000009,0.0033692,0,sub_7
-0.0172188000000002,0.0468886000000012,0.0165026,-0.0068721999999995,0.0013580000000009,0.0052568,0,sub_7
-0.0169182000000002,0.0455176000000012,0.0166838,-0.0070657999999995,0.0023836000000009,0.0054406,0,sub_7
-0.0170680000000001,0.0450724000000012,0.017045,-0.0061869999999995,0.0027740000000009,0.00371,0,sub_7
-0.0174164000000001,0.0448658000000012,0.0181418,-0.0061663999999995,0.0014656000000009,0.0013346000000001,0,sub_7
-0.0173434000000001,0.0455178000000012,0.0184188000000001,-0.0065715999999995,0.0003716000000009,-0.0010439999999998,0,sub_7
-0.0180566000000001,0.0465572000000012,0.0175614000000001,-0.0052817999999995,0.0001634000000009,-0.0033847999999999,0,sub_7
-0.0184224000000001,0.0475010000000012,0.0178024000000001,-0.0033653999999995,-0.000907599999999,-0.0035835999999999,0,sub_7
-0.0196520000000002,0.0466576000000012,0.017492,-0.0020937999999995,-0.001344199999999,-0.0020787999999999,0,sub_7
-0.0203394000000002,0.0467310000000012,0.0166498000000001,-0.0012287999999995,-0.002456799999999,-0.0010227999999999,0,sub_7
-0.0210234000000002,0.0466046000000012,0.0165472000000001,0.0002840000000004,-0.003564599999999,-0.0016713999999998,0,sub_7
-0.0207794000000002,0.0464334000000012,0.0168034000000001,0.0024280000000004,-0.006592199999999,-0.0023131999999998,0,sub_7
-0.0203618000000002,0.0465094000000012,0.0169080000000001,0.0050000000000004,-0.009620599999999,-0.0031655999999998,0,sub_7
-0.0191420000000002,0.0469080000000012,0.0172594000000001,0.0080082000000004,-0.011580799999999,-0.0050843999999998,0,sub_7
-0.0183056000000002,0.0469220000000012,0.0180996,0.0127128000000004,-0.011799999999999,-0.0076149999999998,0,sub_7
-0.0170914000000002,0.0469286000000012,0.0186116,0.0165610000000004,-0.011169999999999,-0.0086571999999998,0,sub_7
-0.0160924000000001,0.0465932000000012,0.0190344000000001,0.0178566000000004,-0.008614399999999,-0.0095059999999998,0,sub_7
-0.0153070000000001,0.0458098000000012,0.0186920000000001,0.0181028000000004,-0.007157399999999,-0.0103937999999998,0,sub_7
-0.0145018000000001,0.0447564000000012,0.0181256000000001,0.0166240000000004,-0.007196199999999,-0.0087279999999998,0,sub_7
-0.0141004000000001,0.0429708000000012,0.0164278000000001,0.0123676000000004,-0.007016399999999,-0.0060135999999998,0,sub_7
-0.0148328000000001,0.0416744000000012,0.0155158000000001,0.0076872000000004,-0.007469199999999,-0.0045831999999998,0,sub_7
-0.0159584000000001,0.0414982000000012,0.0143522,0.0042958000000004,-0.006857799999999,-0.0039995999999998,0,sub_7
-0.0166986000000001,0.0423538000000012,0.0147044000000001,0.0004580000000004,-0.005568599999999,-0.0033869999999998,0,sub_7
-0.0172386000000001,0.0435078000000012,0.0148358,-0.0029463999999995,-0.003638399999999,-0.0036267999999998,0,sub_7
-0.0184554000000001,0.0465662000000011,0.0168392,-0.0042217999999995,-0.002144399999999,-0.0032103999999998,0,sub_7
-0.0191188000000001,0.0484756000000011,0.0181008,-0.0039771999999995,-0.001116599999999,-0.0032417999999999,0,sub_7
-0.0189106000000001,0.0502116000000011,0.0202582,-0.0033223999999995,-0.003499799999999,-0.0030523999999998,0,sub_7
-0.0182934000000001,0.0513336000000011,0.0202758,-0.0028835999999995,-0.006521399999999,-0.0028637999999999,0,sub_7
-0.0171694000000001,0.0521136000000011,0.020373,-0.0011683999999995,-0.009762999999999,-0.0020249999999998,0,sub_7
-0.0165744000000001,0.0497616000000012,0.0190672,0.0001256000000004,-0.012785799999999,-0.0022575999999998,0,sub_7
-0.0162296000000001,0.0475722000000012,0.0176876000000001,-0.0005211999999995,-0.015123599999999,-0.0031137999999998,0,sub_7
-0.0162502000000002,0.0447404000000012,0.014414,-0.0011553999999995,-0.014904199999999,-0.0041867999999998,0,sub_7
-0.0171172000000002,0.0431018000000012,0.013311,-0.0009315999999995,-0.013410199999999,-0.0050417999999998,0,sub_7
-0.0186250000000002,0.0412044000000012,0.0127764000000001,-0.0015243999999995,-0.010876399999999,-0.0061439999999998,0,sub_7
-0.0194302000000002,0.0402608000000012,0.0124182000000001,-0.0029619999999995,-0.006634399999999,-0.0074679999999999,0,sub_7
-0.0201202000000002,0.0416404000000011,0.0127118,-0.0037613999999995,-0.002820599999999,-0.0087869999999999,0,sub_7
-0.0204540000000002,0.0438870000000011,0.0139544,-0.0037121999999995,-7.499999999902975e-05,-0.0100985999999998,0,sub_7
-0.0206130000000001,0.0445454000000011,0.0143304,-0.0049515999999995,0.0016064000000009,-0.0105631999999999,0,sub_7
-0.0207614000000001,0.0452828000000011,0.0145828,-0.0060107999999995,0.0035268000000009,-0.0103593999999998,0,sub_7
-0.0204304000000001,0.0471718000000011,0.0149934,-0.0058039999999995,0.0026714000000009,-0.0097157999999998,0,sub_7
-0.0198420000000001,0.0465988000000011,0.0160426,-0.0043209999999995,0.0022324000000009,-0.0077819999999998,0,sub_7
-0.0192216000000001,0.0455220000000011,0.0159486,-0.0040799999999995,0.0043358000000009,-0.0054489999999998,0,sub_7
-0.0183548000000001,0.0451854000000011,0.0156476,-0.0040525999999995,0.0051666000000009,-0.0043975999999998,0,sub_7
-0.0172420000000002,0.0458320000000011,0.0160162000000001,-0.0042431999999995,0.0045086000000009,-0.0037731999999998,0,sub_7
-0.0167306000000002,0.0453724000000012,0.0164614,-0.0050797999999995,0.0042722000000009,-0.0014445999999998,0,sub_7
-0.0165652000000002,0.0461394000000012,0.0159720000000001,-0.0050569999999995,0.0044622000000009,3.480000000014062e-05,0,sub_7
-0.0174152000000002,0.0457718000000012,0.0168138000000001,-0.0052923999999995,0.0006238000000009,0.0011064000000001,0,sub_7
-0.0173416000000002,0.0461380000000012,0.0178634,-0.0053047999999995,-0.000660399999999,0.0026034000000001,0,sub_7
-0.0171086000000002,0.0464954000000012,0.017899,-0.0046675999999995,-0.000452999999999,0.0034622000000001,0,sub_7
-0.0170666000000002,0.0470730000000012,0.01786,-0.0033857999999995,-2.0199999999029934e-05,0.0026192000000001,0,sub_7
-0.0174170000000002,0.0453482000000012,0.0176762,-0.0048931999999995,-0.002137599999999,0.0026146000000001,0,sub_7
-0.0168362000000002,0.0453328000000012,0.0173158,-0.0068253999999995,-0.002766399999999,0.0036732000000001,0,sub_7
-0.0181086000000002,0.0455382000000011,0.0172616000000001,-0.0068411999999995,-0.004041999999999,0.0049598000000001,0,sub_7
-0.0197386000000002,0.0451550000000011,0.0168244000000001,-0.0070797999999995,-0.006174199999999,0.0075278000000001,0,sub_7
-0.0208376000000002,0.0449218000000011,0.0158300000000001,-0.0079543999999995,-0.0078875999999989,0.0105148000000001,0,sub_7
-0.0215680000000001,0.0464508000000011,0.0155130000000001,-0.0077525999999995,-0.008322999999999,0.0126532000000001,0,sub_7
-0.0226270000000001,0.0474070000000011,0.0144320000000001,-0.0058323999999995,-0.007693199999999,0.0133068000000001,0,sub_7
-0.0228268000000001,0.0469134000000011,0.0137776,-0.0030583999999995,-0.005981199999999,0.0133368,0,sub_7
-0.0232208000000001,0.0462454000000011,0.0132536,-0.0002795999999995,-0.003840399999999,0.0127254000000001,0,sub_7
-0.0229854000000001,0.0460616000000011,0.0137998,0.0018580000000004,-0.001698199999999,0.0123232000000001,0,sub_7
-0.0219692000000002,0.0448394000000011,0.013557,0.0039986000000004,0.0008708000000009,0.0117068000000001,0,sub_7
-0.0204856000000002,0.0438158000000012,0.0144352,0.0050714000000004,0.0034426000000009,0.0112966000000001,0,sub_7
-0.0189336000000002,0.0437390000000012,0.0146314,0.0046524000000004,0.0047242000000009,0.0108648000000001,0,sub_7
-0.0173080000000002,0.0438306000000012,0.0152628,0.0050906000000004,0.0066426000000009,0.0102244000000001,0,sub_7
-0.0161630000000002,0.0426132000000012,0.0153504,0.0048918000000004,0.0087780000000009,0.0091520000000001,0,sub_7
-0.0148958000000002,0.0427740000000012,0.016153,0.0027586000000004,0.0090340000000009,0.0087274,0,sub_7
-0.0142950000000002,0.0440080000000012,0.016355,0.0008330000000004,0.0088598000000009,0.0091594,0,sub_7
-0.0142318000000002,0.0443580000000012,0.0162164,-0.0010963999999995,0.0080456000000009,0.0098058,0,sub_7
-0.0147044000000002,0.0438798000000012,0.0168888,-0.0043087999999995,0.0055358000000009,0.0093772,0,sub_7
-0.0155778000000002,0.0441668000000012,0.0166678,-0.0070917999999995,0.0026026000000009,0.007884,0,sub_7
-0.0169276000000002,0.0444450000000012,0.0159908,-0.0079443999999995,0.0013334000000009,0.0063842,0,sub_7
-0.0179424000000002,0.0448786000000012,0.0151566,-0.0092265999999995,6.300000000098939e-05,0.0055222,0,sub_7
-0.0191052000000002,0.0450188000000012,0.015109,-0.0113661999999995,-0.0007835999999989,0.0059356,0,sub_7
-0.0203274000000002,0.0452258000000012,0.0141438,-0.0137135999999995,-0.0007609999999989,0.007444,0,sub_7
-0.0208260000000002,0.0456912000000012,0.0148972,-0.0128603999999995,-0.0003251999999989,0.0094016000000001,0,sub_7
-0.0203634000000002,0.0453562000000011,0.0156456000000001,-0.0113659999999995,0.000533400000001,0.0115766000000001,0,sub_7
-0.0203660000000002,0.0440814000000011,0.0165166,-0.0105087999999995,0.0022458000000009,0.0139598000000001,0,sub_7
-0.0207024000000002,0.0431784000000011,0.0159938000000001,-0.0087913999999995,0.0039612000000009,0.0148536,0,sub_7
-0.0204094000000001,0.0437478000000011,0.0157490000000001,-0.0057955999999995,0.0052316000000009,0.014232,0,sub_7
-0.0204108000000001,0.0435522000000011,0.014664,-0.0047141999999995,0.0071504000000009,0.0129552,0,sub_7
