userAcceleration.x,userAcceleration.y,userAcceleration.z,rotationRate.x,rotationRate.y,rotationRate.z,label,subject
0.0021801999999998,0.0031938000000012,-0.0035585999999998,0.0013518000000004,0.0013862000000008,-0.0006975999999999,0,sub_20
0.0025775999999998,0.0025252000000012,-0.0029969999999998,0.0013512000000004,0.0018208000000008,-0.0011275999999999,0,sub_20
0.0023177999999998,0.0023190000000012,-0.0024611999999998,0.0007116000000004,0.0031072000000008,-0.0009223999999999,0,sub_20
0.0019733999999998,0.0030808000000012,-0.0025007999999998,7.440000000044586e-05,0.0035364000000008,-0.0011411999999999,0,sub_20
0.0017961999999997,0.0034214000000012,-0.0025861999999998,0.0005012000000004,0.0033228000000008,-0.0013515999999999,0,sub_20
0.0019083999999997,0.0032800000000012,-0.0023109999999998,0.0004964000000004,0.0024698000000008,-0.0011369999999999,0,sub_20
0.0020923999999997,0.0036620000000012,-0.0026573999999998,0.0011308000000004,0.0014014000000008,-0.0009175999999999,0,sub_20
0.0019991999999997,0.0040800000000012,-0.0029799999999998,0.0013376000000004,0.0001344000000008,-0.0011321999999999,0,sub_20
0.0025271999999997,0.0037298000000012,-0.0032597999999998,0.0015444000000004,-0.000920399999999,-0.0011335999999999,0,sub_20
0.0024129999999997,0.0033028000000012,-0.0029387999999998,4.8000000000465815e-05,-0.0006925999999991,-0.0007211999999999,0,sub_20
0.0019351999999997,0.0036136000000012,-0.0030971999999998,-0.0014425999999995,0.0006012000000008,-0.0005235999999999,0,sub_20
0.0012003999999997,0.0040838000000012,-0.0029409999999998,-0.0025035999999995,0.0021084000000008,-0.0007507999999999,0,sub_20
0.0009989999999998,0.0038160000000012,-0.0032019999999998,-0.0022893999999995,0.0023208000000008,-0.0007495999999999,0,sub_20
0.0013215999999998,0.0036292000000012,-0.0039081999999998,-0.0018655999999995,0.0018924000000008,-0.0005323999999999,0,sub_20
0.0016557999999998,0.0046622000000012,-0.0045575999999999,-0.0008075999999995,0.0008334000000009,-0.0007423999999999,0,sub_20
0.0015523999999998,0.0047260000000012,-0.0040893999999998,-0.0001725999999995,0.0002038000000009,-0.0013831999999999,0,sub_20
0.0019053999999998,0.0045974000000012,-0.0041137999999998,0.0002490000000004,-5.999999990719158e-07,-0.0015983999999999,0,sub_20
0.0019835999999998,0.0048842000000012,-0.0038017999999998,0.0002468000000004,0.0004356000000009,-0.0018175999999999,0,sub_20
0.0012819999999997,0.0051992000000012,-0.0026895999999998,0.0002456000000004,0.0008726000000009,-0.0022503999999999,0,sub_20
0.0007283999999997,0.0043800000000012,-0.0018005999999998,0.0002464000000004,0.0012980000000009,-0.0020371999999999,0,sub_20
0.0012627999999997,0.0037774000000012,-0.0016247999999998,0.0008836000000004,0.0015054000000008,-0.0011783999999999,0,sub_20
0.0014865999999997,0.0034844000000012,-0.0015651999999998,0.0015200000000004,0.0010752000000008,-0.0007461999999999,0,sub_20
0.0020529999999997,0.0028512000000012,-0.0020737999999998,0.0021522000000004,0.0002234000000009,-0.0003177999999999,0,sub_20
0.0025451999999997,0.0029382000000012,-0.0022825999999998,0.0021490000000004,0.0004392000000009,0.0001048,0,sub_20
0.0026425999999997,0.0030992000000012,-0.0022437999999998,0.0015114000000004,0.0015110000000009,9.460000000008604e-05,0,sub_20
0.0019989999999998,0.0035696000000012,-0.0023831999999998,0.0006594000000004,0.0021584000000009,-0.0001301999999999,0,sub_20
0.0014097999999998,0.0039582000000012,-0.0025315999999998,-0.0001935999999995,0.0025928000000009,-0.0003547999999998,0,sub_20
0.0011621999999998,0.0043828000000012,-0.0020399999999998,-0.0010423999999995,0.0034490000000009,-0.0005753999999999,0,sub_20
0.0011381999999998,0.0044836000000012,-0.0019717999999998,-0.0016815999999995,0.0036644000000009,-0.0005801999999999,0,sub_20
0.0015167999999998,0.0043140000000012,-0.0021091999999998,-0.0018939999999995,0.0036660000000009,-0.0007953999999998,0,sub_20
0.0020869999999998,0.0044938000000012,-0.0024077999999999,-0.0018939999999995,0.0034572000000009,-0.0012253999999998,0,sub_20
0.0025439999999998,0.0040842000000012,-0.0023895999999999,-0.0014681999999995,0.0034582000000009,-0.0012253999999998,0,sub_20
0.0021609999999998,0.0037542000000012,-0.0025277999999999,-0.0012585999999995,0.0028206000000009,-0.0012261999999998,0,sub_20
0.0021263999999997,0.0035160000000012,-0.0026329999999999,-0.0004127999999995,0.0015408000000009,-0.0010079999999999,0,sub_20
0.0026487999999997,0.0031672000000012,-0.0031283999999999,0.0004322000000004,4.820000000092823e-05,-0.0007895999999999,0,sub_20
0.0021413999999997,0.0022330000000012,-0.0031763999999998,0.0006438000000004,-0.000166399999999,-0.0005741999999999,0,sub_20
0.0019777999999997,0.0014654000000012,-0.0032677999999998,-0.0004161999999995,0.0011166000000009,-0.0007969999999999,0,sub_20
0.0015765999999997,0.0014738000000012,-0.0036095999999998,-0.0018943999999995,0.0041064000000009,-0.0012383999999999,0,sub_20
0.0015301999999997,0.0018720000000012,-0.0036065999999998,-0.0040087999999995,0.0079486000000009,-0.0018983999999999,0,sub_20
0.0009581999999997,0.0028824000000012,-0.0031983999999998,-0.0048477999999995,0.0109332000000009,-0.0023345999999999,0,sub_20
0.0016373999999997,0.0045390000000012,-0.0031175999999998,-0.0042055999999995,0.0115672000000009,-0.0023303999999998,0,sub_20
0.0017441999999997,0.0059514000000012,-0.0031251999999998,-0.0020841999999995,0.0094246000000009,-0.0018847999999998,0,sub_20
0.0025817999999997,0.0072068000000012,-0.0025585999999998,0.0004534000000004,0.0051492000000009,-0.0012201999999999,0,sub_20
0.0025365999999998,0.0075194000000012,-0.0020317999999998,0.0025622000000004,0.0004512000000009,-0.0003447999999999,0,sub_20
0.0024551999999998,0.0073160000000012,-0.0017541999999998,0.0033936000000004,-0.003390999999999,0.000734,0,sub_20
0.0022657999999998,0.0063052000000012,-0.0016123999999998,0.0027372000000004,-0.005949599999999,0.001801,0,sub_20
0.0024575999999998,0.0051652000000012,-0.0008885999999998,0.0005972000000004,-0.007015599999999,0.0026446,0,sub_20
0.0023137999999998,0.0034976000000012,-0.0005829999999999,-0.0019627999999995,-0.006588799999999,0.0034836,0,sub_20
0.0025375999999998,0.0021574000000012,-0.0009669999999999,-0.0038759999999995,-0.005097199999999,0.0038984,0,sub_20
0.0024811999999998,0.0009308000000012,-0.0012897999999999,-0.0053623999999995,-0.004031599999999,0.0038894,0,sub_20
0.0028897999999998,-1.7599999998756567e-05,-0.0016171999999998,-0.0059935999999995,-0.002754999999999,0.0036724,0,sub_20
0.0029655999999998,-0.0001553999999987,-0.0029951999999998,-0.0051285999999995,-0.000625599999999,0.0032484,0,sub_20
0.0031975999999998,0.0006208000000012,-0.0039663999999998,-0.0038377999999995,0.0008648000000009,0.0024008,0,sub_20
0.0027239999999998,0.0016684000000012,-0.0048015999999998,-0.0023345999999995,0.0021414000000009,0.001555,0,sub_20
0.0022355999999998,0.0030310000000012,-0.0053069999999998,-0.0012571999999995,0.0038448000000008,0.0009194,0,sub_20
0.0013347999999998,0.0043824000000012,-0.0054403999999999,3.18000000004458e-05,0.0049036000000008,7.680000000006609e-05,0,sub_20
0.0006989999999998,0.0058760000000012,-0.0046291999999999,0.0013120000000004,0.0042570000000008,-0.0005499999999999,0,sub_20
0.0005737999999998,0.0067022000000012,-0.0049081999999999,0.0025892000000004,0.0033956000000008,-0.0007491999999999,0,sub_20
0.0012505999999998,0.0073160000000012,-0.0045585999999999,0.0030130000000004,0.0023250000000008,-0.0011677999999999,0,sub_20
0.0018973999999998,0.0071258000000012,-0.0038373999999999,0.0038568000000004,0.0003982000000009,-0.0009413999999999,0,sub_20
0.0024329999999998,0.0068564000000012,-0.0030211999999999,0.0040528000000004,-0.002588799999999,-8.159999999993398e-05,0,sub_20
0.0034797999999998,0.0054806000000012,-0.0035505999999999,0.0038230000000004,-0.004936799999999,0.0012016,0,sub_20
0.0037421999999998,0.0040524000000012,-0.0024549999999999,0.0031732000000004,-0.006439799999999,0.0022712,0,sub_20
0.0036155999999998,0.0020612000000012,-0.0018635999999999,0.0020986000000004,-0.007303199999999,0.0035506,0,sub_20
0.0035815999999998,0.0009402000000012,-0.0026159999999999,0.0008184000000004,-0.007310199999999,0.0039728,0,sub_20
0.0040545999999998,0.0001580000000012,-0.0031051999999999,-2.2599999999554312e-05,-0.005609999999999,0.0033278,0,sub_20
0.0042399999999998,0.0005096000000012,-0.0030383999999999,-0.0010703999999995,-0.003054199999999,0.0020394,0,sub_20
0.0048215999999998,0.0008692000000012,-0.0031809999999999,-0.0016913999999995,-0.000700799999999,0.0001092,0,sub_20
0.0043087999999998,0.0015888000000012,-0.0028297999999999,-0.0014635999999995,0.0007968000000009,-0.0016003999999999,0,sub_20
0.0034165999999998,0.0025078000000012,-0.0025403999999999,-0.0012425999999995,0.0012272000000009,-0.0028811999999999,0,sub_20
0.0022633999999998,0.0039834000000012,-0.0031389999999999,-0.0010267999999995,0.0007868000000008,-0.0030873999999999,0,sub_20
0.0012955999999998,0.0047730000000012,-0.0030759999999998,-0.0005991999999995,0.0001316000000009,-0.0030779999999999,0,sub_20
0.0007445999999997,0.0059786000000012,-0.0029915999999998,0.0002532000000004,-0.000526599999999,-0.0026383999999999,0,sub_20
0.0009169999999997,0.0071894000000012,-0.0032007999999998,0.0008930000000004,-0.001183399999999,-0.0024137999999999,0,sub_20
0.0011967999999997,0.0072398000000012,-0.0032351999999998,0.0015348000000004,-0.001626199999999,-0.0024031999999999,0,sub_20
0.0010843999999998,0.0061588000000012,-0.0033339999999998,0.0017482000000004,-0.001626799999999,-0.0024015999999999,0,sub_20
0.0009275999999997,0.0055206000000012,-0.0032627999999999,0.0017452000000004,-0.001841399999999,-0.0019741999999999,0,sub_20
0.0007643999999998,0.0043808000000012,-0.0038419999999999,0.0013116000000004,-0.002270399999999,-0.0009085999999999,0,sub_20
0.0009109999999997,0.0036286000000012,-0.0047493999999999,0.0013096000000004,-0.002497599999999,-5.159999999993373e-05,0,sub_20
0.0015903999999997,0.0032024000000012,-0.0048485999999999,0.0006732000000004,-0.0016563999999991,0.000586,0,sub_20
0.0025845999999997,0.0031792000000012,-0.0044943999999999,3.880000000044577e-05,-0.0008135999999991,0.0007964,0,sub_20
0.0026799999999997,0.0030604000000012,-0.0039421999999999,-0.0003803999999995,0.0002424000000008,0.0007944,0,sub_20
0.0028411999999997,0.0039200000000012,-0.0036767999999999,-0.0007985999999995,0.0015116000000008,0.0007922,0,sub_20
0.0029971999999997,0.0043068000000012,-0.0029697999999999,-0.0014347999999995,0.0023662000000008,0.0007868,0,sub_20
0.0029235999999997,0.0045738000000012,-0.0022397999999998,-0.0010071999999995,0.0027900000000009,0.001003,0,sub_20
0.0023345999999997,0.0046544000000012,-0.0018153999999998,-0.0001537999999995,0.0027870000000009,0.001009,0,sub_20
0.0025571999999997,0.0047956000000012,-0.0020101999999998,0.0004816000000004,0.0019316000000009,0.0012282,0,sub_20
0.0023641999999998,0.0038260000000012,-0.0018565999999998,0.0009018000000004,0.0004388000000009,0.0012332,0,sub_20
0.0025403999999998,0.0030946000000012,-0.0018809999999998,0.0015342000000004,-0.001055799999999,0.0014532,0,sub_20
0.0025985999999998,0.0026604000000012,-0.0021197999999999,0.0019534000000004,-0.002337199999999,0.001885,0,sub_20
0.0032425999999998,0.0025770000000012,-0.0021749999999999,0.0017324000000004,-0.003404199999999,0.0025256,0,sub_20
0.0032463999999998,0.0026580000000012,-0.0023021999999999,0.0010884000000004,-0.004041799999999,0.0027356,0,sub_20
0.0033289999999998,0.0028494000000012,-0.0025757999999999,0.0008832000000004,-0.004682999999999,0.0027318,0,sub_20
0.0029017999999998,0.0033398000000012,-0.0024499999999998,0.0002532000000004,-0.004684199999999,0.002938,0,sub_20
0.0025531999999998,0.0035202000000012,-0.0027083999999998,-0.0005883999999995,-0.004683199999999,0.0027154,0,sub_20
0.0019713999999998,0.0034156000000012,-0.0029363999999998,-0.0010001999999995,-0.004256599999999,0.0022818,0,sub_20
0.0020821999999998,0.0030470000000012,-0.0030623999999998,-0.0005575999999995,-0.003619999999999,0.0018538,0,sub_20
0.0021873999999998,0.0032222000000012,-0.0028703999999998,-0.0007623999999995,-0.002126199999999,0.0014232,0,sub_20
0.0016793999999998,0.0027162000000012,-0.0029723999999999,-0.0005423999999995,-0.001059999999999,0.000996,0,sub_20
0.0020621999999998,0.0025062000000012,-0.0033279999999998,-0.0001145999999995,-0.001060599999999,0.0007854,0,sub_20
0.0024289999999998,0.0021678000000012,-0.0036179999999998,0.0003122000000004,-0.001058599999999,0.0007856,0,sub_20
0.0027633999999998,0.0026560000000012,-0.0034017999999998,-0.0007487999999995,-0.000197399999999,0.000347,0,sub_20
0.0027561999999998,0.0033076000000012,-0.0032687999999998,-0.0009601999999995,0.0002330000000009,0.0003422,0,sub_20
0.0028611999999998,0.0036376000000012,-0.0029303999999998,-0.0007475999999995,-0.000189399999999,0.0001278,0,sub_20
0.0022477999999998,0.0037788000000012,-0.0026295999999998,-0.0003283999999995,-0.001467199999999,0.0005568,0,sub_20
0.0023339999999998,0.0041568000000012,-0.0025053999999998,9.080000000040568e-05,-0.002960799999999,0.0007752,0,sub_20
0.0021655999999998,0.0036196000000012,-0.0025475999999998,0.0011472000000004,-0.004671399999999,0.0014258,0,sub_20
0.0021955999999998,0.0023356000000012,-0.0024943999999999,0.0017798000000004,-0.005741399999999,0.0020726,0,sub_20
0.0026723999999998,0.0019690000000012,-0.0029977999999999,0.0022036000000004,-0.006166599999999,0.0022932,0,sub_20
0.0029007999999998,0.0021816000000012,-0.0033047999999999,0.0019988000000004,-0.004457399999999,0.0020794,0,sub_20
0.0024473999999998,0.0020926000000012,-0.0026585999999999,0.0015834000000004,-0.001895999999999,0.0020766,0,sub_20
0.0020775999999998,0.0022696000000012,-0.0026901999999999,0.0007374000000004,-0.000185399999999,0.0020718,0,sub_20
0.0019363999999997,0.0029358000000012,-0.0026301999999999,-0.0001105999999995,0.0006748000000009,0.0016408,0,sub_20
0.0021195999999997,0.0032504000000012,-0.0023475999999999,-0.0009583999999995,0.0019560000000009,0.0016332,0,sub_20
0.0027881999999997,0.0032252000000011,-0.0017179999999999,-0.0011689999999995,0.0021714000000009,0.0012042,0,sub_20
0.0029485999999997,0.0036542000000012,-0.0020533999999999,-0.0009565999999995,0.0013210000000009,0.000566,0,sub_20
0.0033697999999997,0.0036496000000012,-0.0020043999999999,0.0005364000000004,0.0004672000000009,-6.299999999993359e-05,0,sub_20
0.0029009999999997,0.0031072000000012,-0.0025635999999999,0.0016026000000004,3.9400000000909e-05,-0.0002681999999999,0,sub_20
0.0027879999999998,0.0026754000000012,-0.0027749999999999,0.0020286000000004,-0.000386199999999,-0.0004777999999999,0,sub_20
0.0029893999999998,0.0023844000000012,-0.0026951999999999,0.0013916000000004,4.4200000000909006e-05,-0.0006959999999999,0,sub_20
0.0028533999999998,0.0023114000000012,-0.0022499999999999,0.0005422000000004,0.0011126000000008,-0.0004893999999999,0,sub_20
0.0022697999999998,0.0023808000000012,-0.0024425999999999,-0.0005247999999995,0.0011164000000008,-0.0004967999999999,0,sub_20
0.0026133999999998,0.0029580000000012,-0.0021113999999999,-0.0009495999999995,0.0011194000000009,-0.0009269999999999,0,sub_20
0.0025675999999998,0.0036960000000012,-0.0023893999999999,-0.0011619999999995,0.0013332000000009,-0.0009287999999999,0,sub_20
0.0022411999999998,0.0037374000000012,-0.0026277999999999,-0.0005231999999995,0.0011244000000009,-0.0011413999999999,0,sub_20
0.0025827999999997,0.0040380000000012,-0.0031421999999999,0.0001118000000004,6.340000000090891e-05,-0.0013529999999999,0,sub_20
0.0027741999999997,0.0040570000000012,-0.0033721999999999,0.0003268000000004,0.0009196000000009,-0.0011425999999999,0,sub_20
0.0023529999999997,0.0037598000000012,-0.0034941999999999,-9.939999999955414e-05,0.0015652000000009,-0.0009365999999999,0,sub_20
0.0026225999999997,0.0033860000000012,-0.0033391999999999,-0.0007389999999995,0.0017870000000009,-0.0011587999999999,0,sub_20
0.0022991999999997,0.0035930000000012,-0.0037309999999999,-0.0009523999999995,0.0020000000000009,-0.0009469999999999,0,sub_20
0.0021173999999997,0.0031612000000012,-0.0037589999999998,-0.0011639999999995,0.0022146000000009,-0.0011623999999998,0,sub_20
0.0016937999999997,0.0028590000000012,-0.0033999999999998,-0.0013753999999995,0.0024292000000009,-0.0013777999999998,0,sub_20
0.0023167999999997,0.0025654000000012,-0.0034233999999998,-0.0017983999999995,0.0030792000000009,-0.0016011999999998,0,sub_20
0.0019963999999997,0.0024460000000012,-0.0038863999999998,-0.0017973999999995,0.0030886000000009,-0.0018207999999998,0,sub_20
0.0019597999999997,0.0028966000000012,-0.0030469999999998,-0.0015831999999995,0.0030972000000009,-0.0020389999999999,0,sub_20
0.0016131999999997,0.0028794000000012,-0.0025813999999999,-0.0013687999999995,0.0035304000000008,-0.0018303999999999,0,sub_20
0.0017765999999997,0.0029578000000012,-0.0028141999999999,-0.0011583999999995,0.0028992000000008,-0.0018341999999999,0,sub_20
0.0014473999999997,0.0033954000000012,-0.0025297999999998,-9.339999999953418e-05,0.0022572000000009,-0.0020395999999998,0,sub_20
0.0013347999999998,0.0033176000000012,-0.0021903999999998,0.0007590000000004,0.0020412000000009,-0.0020333999999998,0,sub_20
0.0011805999999998,0.0029052000000012,-0.0026777999999998,0.0009706000000004,0.0018266000000009,-0.0018179999999998,0,sub_20
0.0015161999999998,0.0030042000000012,-0.0028825999999998,0.0005416000000004,0.0018396000000009,-0.0018275999999999,0,sub_20
0.0019485999999998,0.0028864000000012,-0.0026291999999998,0.0003280000000004,0.0022780000000009,-0.0018363999999999,0,sub_20
0.0018117999999998,0.0024370000000012,-0.0025593999999999,-0.0003151999999995,0.0022910000000009,-0.0016339999999999,0,sub_20
0.0013397999999998,0.0022634000000012,-0.0021419999999999,-0.0009543999999995,0.0027318000000009,-0.0018593999999999,0,sub_20
0.0019883999999998,0.0024308000000012,-0.0024599999999999,-0.0011679999999995,0.0029580000000009,-0.0020815999999999,0,sub_20
0.0017399999999998,0.0025406000000012,-0.0030419999999999,-0.0005315999999995,0.0021036000000009,-0.0020761999999999,0,sub_20
0.0013379999999998,0.0031090000000012,-0.0030405999999999,-0.0005343999999995,0.0014644000000009,-0.0020753999999999,0,sub_20
0.0017651999999998,0.0038494000000012,-0.0035419999999998,-0.0005323999999995,0.0016784000000009,-0.0022891999999998,0,sub_20
0.0023435999999998,0.0041486000000012,-0.0037639999999998,-0.0005333999999995,0.0014654000000009,-0.0022889999999998,0,sub_20
0.0019087999999998,0.0036310000000012,-0.0029549999999998,-0.0005333999999995,0.0014654000000009,-0.0022889999999998,0,sub_20
0.0017329999999998,0.0034336000000012,-0.0026937999999998,-0.0007457999999995,0.0016792000000009,-0.0022907999999998,0,sub_20
0.0022575999999997,0.0025378000000012,-0.0023593999999998,-0.0001085999999995,0.0008256000000009,-0.0024989999999998,0,sub_20
0.0023185999999997,0.0017458000000012,-0.0015341999999999,0.0011648000000004,-3.379999999909116e-05,-0.0018481999999998,0,sub_20
0.0022327999999997,0.0014982000000012,-0.0017605999999999,0.0026536000000004,-0.000255399999999,-0.0009827999999998,0,sub_20
0.0022383999999997,0.0015812000000012,-0.0023663999999999,0.0030784000000004,-0.000682999999999,-0.0009791999999998,0,sub_20
0.0022781999999997,0.0016226000000012,-0.0024269999999999,0.0035080000000004,-4.519999999909115e-05,-0.0009769999999998,0,sub_20
0.0018449999999997,0.0025552000000012,-0.0029595999999999,0.0033004000000004,0.0014462000000009,-0.0007665999999999,0,sub_20
0.0017171999999997,0.0036202000000012,-0.0037141999999999,0.0024518000000004,0.0020902000000008,-0.0012005999999999,0,sub_20
0.0016797999999998,0.0039792000000012,-0.0029573999999999,0.0011754000000004,0.0023102000000008,-0.0018507999999999,0,sub_20
0.0014827999999998,0.0041170000000012,-0.0029695999999999,0.0003318000000004,0.0020988000000008,-0.0014291999999999,0,sub_20
0.0017823999999997,0.0041252000000012,-0.0026825999999999,-8.419999999955416e-05,0.0016744000000009,-0.0014313999999999,0,sub_20
0.0018077999999997,0.0035964000000012,-0.0026041999999999,-0.0002871999999995,0.0010350000000009,-0.0012183999999999,0,sub_20
0.0015125999999997,0.0032342000000012,-0.0021369999999999,-0.0002797999999995,0.0003922000000009,-0.0003627999999999,0,sub_20
0.0016911999999997,0.0028534000000012,-0.0026813999999999,-5.699999999955414e-05,-0.000249599999999,6.700000000006638e-05,0,sub_20
0.0015983999999997,0.0025108000000012,-0.0031859999999999,0.0001598000000004,0.0003876000000009,0.0002814,0,sub_20
0.0019027999999997,0.0021242000000012,-0.0036165999999999,-0.0002663999999995,0.0006000000000009,0.0007054,0,sub_20
0.0022543999999997,0.0019196000000012,-0.0037225999999998,-0.0006883999999995,0.0014544000000009,0.0004878,0,sub_20
0.0021949999999998,0.0020882000000012,-0.0038313999999998,-0.0004721999999995,0.0014562000000009,-0.0001515999999999,0,sub_20
0.0024881999999997,0.0027538000000012,-0.0036233999999998,0.0003764000000004,0.0006002000000009,6.900000000006638e-05,0,sub_20
0.0026479999999997,0.0039766000000012,-0.0026823999999998,0.0016422000000004,-0.002175799999999,0.0005088,0,sub_20
0.0021157999999997,0.0044626000000012,-0.0024663999999998,0.0031230000000004,-0.004958799999999,0.0007398,0,sub_20
0.0022209999999997,0.0048334000000012,-0.0017483999999999,0.0039638000000004,-0.007314999999999,0.001393,0,sub_20
0.0019635999999997,0.0038476000000012,-0.0013397999999999,0.0033186000000004,-0.007961599999999,0.0020336,0,sub_20
0.0017451999999998,0.0030522000000012,-0.0016307999999999,0.0014028000000004,-0.007109799999999,0.0020226,0,sub_20
0.0022501999999998,0.0021656000000012,-0.0025949999999999,-0.0009329999999995,-0.004977399999999,0.0017934,0,sub_20
0.0028257999999998,0.0014264000000012,-0.0030137999999999,-0.0030493999999995,-0.001771599999999,0.0011336,0,sub_20
0.0022355999999998,0.0011118000000012,-0.0042407999999999,-0.0041027999999995,0.0007904000000009,0.0006958,0,sub_20
0.0027355999999998,0.0011756000000012,-0.0050989999999999,-0.0038823999999995,0.0016344000000009,6.180000000004624e-05,0,sub_20
0.0027755999999997,0.0018404000000012,-0.0051735999999999,-0.0017483999999995,0.0014046000000009,-0.0001301999999999,0,sub_20
0.0027437999999997,0.0019076000000012,-0.0045751999999999,0.0005998000000004,0.0009628000000008,-0.0007477999999999,0,sub_20
0.0021561999999997,0.0030458000000012,-0.0038207999999999,0.0029432000000004,-0.000119799999999,-0.0009371999999999,0,sub_20
0.0023869999999997,0.0043298000000012,-0.0029551999999999,0.0048588000000004,-0.001413999999999,-0.0011293999999999,0,sub_20
0.0021075999999997,0.0055716000000012,-0.0026479999999999,0.0059228000000004,-0.002056999999999,-0.0011211999999999,0,sub_20
0.0020237999999998,0.0058292000000012,-0.0022411999999999,0.0054970000000004,-0.002054599999999,-0.0013377999999999,0,sub_20
0.0015517999999998,0.0062504000000012,-0.0014989999999999,0.0042168000000004,-0.001625599999999,-0.0009199999999999,0,sub_20
0.0019675999999998,0.0052150000000012,-0.0015593999999998,0.0027200000000004,-0.001419799999999,-6.819999999993368e-05,0,sub_20
0.0024429999999998,0.0040002000000012,-0.0021053999999998,0.0020680000000004,-0.003346599999999,0.0005786,0,sub_20
0.0031161999999998,0.0027786000000012,-0.0019285999999998,0.0020550000000004,-0.005488599999999,0.0012302,0,sub_20
0.0033115999999998,0.0021928000000012,-0.0025243999999998,0.0007638000000004,-0.006987999999999,0.0020856,0,sub_20
0.0030099999999998,0.0013680000000012,-0.0030355999999998,0.0001184000000004,-0.008060199999999,0.0020904,0,sub_20
0.0023691999999998,0.0011828000000012,-0.0026881999999998,-0.0009533999999995,-0.008697199999999,0.002511,0,sub_20
0.0018023999999998,0.0015650000000012,-0.0027413999999998,-0.0024451999999995,-0.007841399999999,0.0029266,0,sub_20
0.0019741999999998,0.0020722000000012,-0.0027573999999998,-0.0037205999999995,-0.006347399999999,0.003343,0,sub_20
0.0017427999999998,0.0019480000000012,-0.0022029999999998,-0.0035031999999995,-0.005078399999999,0.003136,0,sub_20
0.0022639999999998,0.0022508000000012,-0.0029173999999999,-0.0024349999999995,-0.004239199999999,0.0031492,0,sub_20
0.0025529999999998,0.0029990000000012,-0.0037049999999999,-0.0007255999999995,-0.004038199999999,0.002313,0,sub_20
0.0024361999999997,0.0031664000000012,-0.0038185999999999,0.0009894000000004,-0.002771199999999,0.001262,0,sub_20
0.0013131999999997,0.0035878000000012,-0.0043729999999999,0.0020624000000004,-0.001503399999999,0.0006338,0,sub_20
0.0013057999999997,0.0042034000000012,-0.0044683999999999,0.0029188000000004,-0.000867199999999,0.000639,0,sub_20
0.0009407999999997,0.0046370000000012,-0.0036931999999999,0.0031340000000004,-0.000654199999999,0.0004266,0,sub_20
