userAcceleration.x,userAcceleration.y,userAcceleration.z,rotationRate.x,rotationRate.y,rotationRate.z,label,subject
2.899999999987032e-05,0.0070858000000012,-0.0117541999999999,-0.0026369999999995,2.5600000000939453e-05,0.0038716000000001,0,sub_1
0.0009097999999998,0.0058626000000012,-0.0103657999999999,-0.0011359999999995,-0.000169399999999,0.0006730000000001,0,sub_1
0.0022053999999998,0.0037854000000012,-0.0095073999999999,-4.2399999999512015e-05,-0.000361599999999,-0.0055149999999998,0,sub_1
0.0036755999999998,0.0010850000000012,-0.0094165999999999,0.0019156000000004,8.940000000095955e-05,-0.0134065999999998,0,sub_1
0.0051035999999998,-0.0008381999999987,-0.0093215999999999,0.0045046000000004,-0.000743199999999,-0.0204373999999998,0,sub_1
0.0071647999999998,-0.0015917999999987,-0.0093047999999999,0.0057878000000005,-0.002853799999999,-0.0240623999999998,0,sub_1
0.0087273999999998,-0.0005791999999987,-0.0089397999999999,0.0074698000000005,-0.005414799999999,-0.0219155999999998,0,sub_1
0.0087295999999998,0.0016724000000012,-0.0079787999999999,0.0074302000000004,-0.006284799999999,-0.0148691999999998,0,sub_1
0.0067227999999998,0.0052342000000012,-0.0066573999999999,0.0037562000000004,-0.005874999999999,-0.0050727999999998,0,sub_1
0.0038617999999998,0.0084476000000012,-0.0046501999999999,-0.0007653999999995,-0.004183399999999,0.0045022000000001,0,sub_1
0.0006375999999998,0.0104864000000012,-0.0031691999999998,-0.0035603999999995,-0.001644999999999,0.0115294000000001,0,sub_1
-0.0022456000000001,0.0119560000000012,-0.0031555999999998,-0.0044177999999995,0.0011140000000009,0.0149378000000001,0,sub_1
-0.0029842000000001,0.0115802000000012,-0.0045807999999998,-0.0022783999999994,0.0021732000000009,0.0145238000000001,0,sub_1
-0.0018520000000001,0.0105280000000012,-0.0069457999999998,0.0034930000000005,0.0023868000000009,0.0113516000000001,0,sub_1
7.999999999850488e-06,0.0088186000000012,-0.0100459999999998,0.0096962000000005,0.0019666000000009,0.0064742000000001,0,sub_1
0.0031401999999998,0.0064376000000012,-0.0127799999999999,0.0131270000000005,0.0004962000000009,0.0002970000000001,0,sub_1
0.0065623999999998,0.0033966000000012,-0.0140945999999999,0.0133632000000005,-0.001169999999999,-0.0073975999999998,0,sub_1
0.0085233999999998,0.0027130000000012,-0.0134983999999999,0.0110470000000005,-0.001122599999999,-0.0151119999999998,0,sub_1
0.0092965999999998,0.0029250000000012,-0.0123071999999999,0.0070210000000005,-0.001507599999999,-0.0217621999999998,0,sub_1
0.0098837999999998,0.0032906000000012,-0.0114461999999999,0.0025520000000005,-0.002541999999999,-0.0254237999999998,0,sub_1
0.0083927999999998,0.0025346000000012,-0.0096429999999999,0.0023436000000004,-0.002324199999999,-0.0262797999999998,0,sub_1
0.0049451999999998,0.0013464000000012,-0.0081091999999999,0.0046812000000004,-0.001906799999999,-0.0245631999999998,0,sub_1
0.0013451999999998,5.860000000128501e-05,-0.0065929999999999,0.0087074000000004,-0.002785199999999,-0.0200559999999998,0,sub_1
-0.0047830000000001,-0.0016645999999987,-0.0059765999999999,0.0114392000000004,-0.002823799999999,-0.0114999999999998,0,sub_1
-0.0080410000000001,-0.0012657999999987,-0.0043039999999999,0.0107534000000004,-0.003278799999999,-0.0025399999999998,0,sub_1
-0.0094158000000001,0.0026466000000012,-0.0033383999999999,0.0060140000000004,-0.004779799999999,0.0051110000000001,0,sub_1
-0.0092058000000001,0.0076508000000012,-0.0033215999999999,0.0017126000000005,-0.006069199999999,0.0112776000000001,0,sub_1
-0.0074000000000001,0.0111634000000012,-0.0062171999999999,-0.0015069999999994,-0.006499799999999,0.0148868000000001,0,sub_1
-0.0030594000000001,0.0122674000000011,-0.0088285999999999,-0.0021477999999994,-0.006922599999999,0.0144550000000001,0,sub_1
-0.0020290000000001,0.0105214000000012,-0.0115559999999999,0.0025438000000005,-0.006933399999999,0.0140494000000001,0,sub_1
-0.0015698000000001,0.0064894000000012,-0.0134373999999998,0.0121234000000005,-0.008464599999999,0.0166710000000001,0,sub_1
0.0011051999999998,0.0023190000000012,-0.0142723999999998,0.0208298000000005,-0.011707999999999,0.0220664000000001,0,sub_1
0.0056747999999998,-0.0001573999999987,-0.0113691999999998,0.0242128000000005,-0.011951999999999,0.0280622000000001,0,sub_1
0.0111907999999998,0.0001348000000012,-0.0075103999999998,0.0225062000000005,-0.008117399999999,0.0310264000000001,0,sub_1
0.0145899999999998,0.0013074000000012,-0.0041817999999999,0.0163694000000005,-0.000833399999999,0.0269158000000001,0,sub_1
0.0176375999999998,0.0030662000000012,-0.0014309999999999,0.0092038000000005,0.0069130000000009,0.0146790000000001,0,sub_1
0.0185325999999998,0.0049330000000012,0.0011,0.0044078000000005,0.0170060000000009,-0.0003215999999998,0,sub_1
0.0151355999999998,0.0053114000000012,0.0020732,0.0010926000000005,0.0256026000000009,-0.0146789999999998,0,sub_1
0.0102759999999998,0.0049308000000012,0.0006294,-0.0029009999999994,0.0290738000000009,-0.0256163999999998,0,sub_1
0.0074721999999998,0.0043146000000012,-0.0026029999999999,-0.0082321999999994,0.0269802000000009,-0.0292923999999998,0,sub_1
0.0044001999999998,0.0033852000000012,-0.0070899999999999,-0.0159533999999994,0.0235828000000009,-0.0246513999999998,0,sub_1
0.0011049999999998,0.0011236000000012,-0.0119327999999999,-0.0258365999999994,0.0176204000000009,-0.0161767999999998,0,sub_1
-0.0009064000000001,-0.0011401999999987,-0.0170629999999999,-0.0340273999999994,0.0086616000000009,-0.0066085999999998,0,sub_1
-0.0018760000000001,-0.0019677999999987,-0.0205599999999999,-0.0377349999999994,-0.001160199999999,0.0017102000000001,0,sub_1
-0.0021080000000001,-0.0017919999999987,-0.0221647999999999,-0.0375711999999994,-0.009270799999999,0.0049264000000001,0,sub_1
-0.0023648000000001,-0.0013337999999987,-0.0206953999999999,-0.0348137999999994,-0.015233599999999,0.0021680000000001,0,sub_1
-0.0025022000000001,-7.319999999873521e-05,-0.0167549999999998,-0.0303149999999994,-0.017988599999999,-0.0050689999999998,0,sub_1
-0.0035344000000001,0.0017162000000012,-0.0117035999999998,-0.0238751999999994,-0.018397399999999,-0.0146455999999998,0,sub_1
-0.0050592000000001,0.0036892000000012,-0.0073549999999998,-0.0174283999999994,-0.016252999999999,-0.0233711999999998,0,sub_1
-0.0062854000000001,0.0052286000000012,-0.0036615999999998,-0.0118479999999994,-0.012631199999999,-0.0278319999999998,0,sub_1
-0.0055850000000001,0.0068928000000012,-0.0026617999999998,-0.0082021999999994,-0.007534799999999,-0.0269591999999998,0,sub_1
-0.0045210000000001,0.0095552000000012,-0.0034509999999999,-0.0069211999999994,-0.002657599999999,-0.0224705999999998,0,sub_1
-0.0024210000000001,0.0118544000000012,-0.0038019999999999,-0.0075703999999994,0.0020060000000009,-0.0160723999999998,0,sub_1
0.0013307999999998,0.0120952000000012,-0.0045455999999998,-0.0063121999999994,0.0045344000000009,-0.0096661999999998,0,sub_1
0.0043051999999998,0.0115668000000012,-0.0047147999999998,-0.0016397999999994,0.0051412000000009,-0.0051563999999998,0,sub_1
0.0057347999999998,0.0097028000000012,-0.0035547999999998,0.0043128000000005,0.0029852000000009,-0.0034111999999998,0,sub_1
0.0071995999999998,0.0067504000000011,-0.0031585999999998,0.0089884000000005,0.0001998000000009,-0.0029559999999998,0,sub_1
0.0084049999999998,0.0043636000000012,-0.0041285999999998,0.0119546000000005,-0.003006599999999,-0.0022983999999998,0,sub_1
0.0084507999999998,0.0034190000000012,-0.0048951999999999,0.0112960000000005,-0.004717399999999,4.960000000013496e-05,0,sub_1
0.0083023999999998,0.0016964000000012,-0.0056505999999999,0.0076494000000005,-0.004720799999999,0.0042974,0,sub_1
0.0081335999999998,0.0010214000000012,-0.0069307999999999,0.0027286000000005,-0.002380599999999,0.0096014,0,sub_1
0.0074545999999998,0.0005436000000012,-0.0084417999999998,-0.0004861999999994,0.0001700000000009,0.0144824,0,sub_1
0.0060135999999998,0.0002776000000012,-0.0098317999999998,-0.0021995999999994,0.0025098000000009,0.0174512,0,sub_1
0.0037673999999998,0.0007242000000012,-0.0098487999999998,-0.0022011999999994,0.0044232000000009,0.0189368,0,sub_1
0.0012233999999998,0.0022812000000012,-0.0106651999999998,-0.0017655999999994,0.0067684000000009,0.018502,0,sub_1
-0.0020828000000001,0.0039046000000012,-0.0116861999999998,-0.0002633999999994,0.0080488000000009,0.0170076,0,sub_1
-0.0041666000000001,0.0049020000000012,-0.0115291999999998,0.0020856000000005,0.0069806000000009,0.0155294,0,sub_1
-0.0042336000000001,0.0053200000000012,-0.0109591999999998,0.0057100000000005,0.0050548000000009,0.0142750000000001,0,sub_1
-0.0038036000000001,0.0047140000000012,-0.0103957999999999,0.0082724000000004,0.0027128000000009,0.0115182000000001,0,sub_1
-0.0014376000000001,0.0028624000000012,-0.0097175999999999,0.0089068000000004,-0.001532199999999,0.0072464000000001,0,sub_1
0.0028107999999998,0.0020638000000012,-0.0088633999999999,0.0069838000000005,-0.004492399999999,0.0035962000000001,0,sub_1
0.0057661999999998,0.0009230000000012,-0.0080017999999998,0.0025148000000005,-0.004035199999999,0.0001376000000001,0,sub_1
0.0075321999999998,0.0001736000000012,-0.0060121999999998,-0.0030125999999994,-0.000807599999999,-0.0024771999999998,0,sub_1
0.0094855999999998,-0.0002131999999987,-0.0052703999999998,-0.0055527999999994,0.0032586000000009,-0.0042175999999998,0,sub_1
0.0101239999999998,0.0015970000000012,-0.0057307999999998,-0.0063897999999994,0.0075210000000009,-0.0035875999999998,0,sub_1
0.0088069999999998,0.0028598000000012,-0.0057285999999998,-0.0080853999999994,0.0109334000000009,-0.0027489999999998,0,sub_1
0.0075165999999998,0.0043922000000012,-0.0064929999999998,-0.0110699999999994,0.0139180000000009,-0.0004231999999998,0,sub_1
0.0063551999999998,0.0051790000000012,-0.0077403999999998,-0.0147145999999994,0.0147688000000009,0.0033894000000001,0,sub_1
0.0042983999999998,0.0071200000000012,-0.0085867999999999,-0.0185881999999994,0.0132722000000009,0.0082716000000001,0,sub_1
0.0019765999999998,0.0085616000000011,-0.0086245999999999,-0.0209645999999994,0.0113492000000009,0.0118826,0,sub_1
0.0001771999999998,0.0089160000000012,-0.0102273999999998,-0.0203505999999994,0.0083570000000009,0.0138068,0,sub_1
-0.0004636000000001,0.0084288000000011,-0.0128779999999998,-0.0156843999999994,0.0017414000000009,0.012559,0,sub_1
0.0005601999999998,0.0076344000000011,-0.0152431999999998,-0.0086537999999994,-0.004871199999999,0.0083434,0,sub_1
0.0014375999999998,0.0048388000000012,-0.0157799999999999,-0.0011759999999994,-0.008708799999999,0.0024184000000001,0,sub_1
0.0018733999999998,0.0019354000000012,-0.0142753999999998,0.0054572000000005,-0.011262399999999,-0.0041547999999998,0,sub_1
0.0018191999999998,2.260000000122481e-05,-0.0116681999999999,0.0110284000000005,-0.012322399999999,-0.0103101999999998,0,sub_1
0.0011323999999998,-0.0004447999999987,-0.0076231999999999,0.0146810000000005,-0.010188399999999,-0.0141381999999998,0,sub_1
-0.0008994000000001,0.0012380000000012,-0.0042045999999999,0.0168308000000005,-0.007420399999999,-0.0154139999999998,0,sub_1
-0.0011542000000001,0.0021874000000012,-0.0027753999999999,0.0155484000000005,-0.005293199999999,-0.0132947999999998,0,sub_1
0.0004961999999998,0.0035198000000012,-0.0031081999999999,0.0140448000000005,-0.002747599999999,-0.0090413999999998,0,sub_1
0.0040637999999998,0.0044684000000012,-0.0046989999999999,0.0146680000000005,-0.000851799999999,-0.0039173999999998,0,sub_1
0.0064621999999998,0.0059062000000012,-0.0051755999999999,0.0174250000000005,-0.000663199999999,-5.279999999986606e-05,0,sub_1
0.0074997999999998,0.0056808000000012,-0.0053017999999999,0.0201820000000005,-0.001110799999999,0.0031718000000001,0,sub_1
0.0071371999999998,0.0064782000000012,-0.0050355999999999,0.0222952000000005,-0.002406999999999,0.0061760000000001,0,sub_1
0.0068167999999998,0.0066610000000012,-0.0055081999999999,0.0224784000000004,-0.004341599999999,0.0106632000000001,0,sub_1
0.0048369999999998,0.0061360000000012,-0.0056425999999999,0.0188248000000004,-0.004986399999999,0.0155490000000001,0,sub_1
0.0034757999999998,0.0037288000000012,-0.0071415999999999,0.0115556000000004,-0.004123199999999,0.0193394000000001,0,sub_1
0.0032609999999998,0.0014428000000012,-0.0098075999999999,0.0057872000000004,-0.003683999999999,0.0212180000000001,0,sub_1
0.0043437999999998,4.320000000124474e-05,-0.0125173999999999,0.0038798000000004,-0.002392799999999,0.0197076000000001,0,sub_1
0.0038477999999998,-0.0005807999999987,-0.0140651999999999,0.0036950000000005,-0.001093999999999,0.0147910000000001,0,sub_1
0.0038669999999998,-0.0002819999999987,-0.0134367999999999,0.0033064000000005,0.0008506000000009,0.0083766000000001,0,sub_1
0.0034847999999998,0.0012334000000012,-0.0129551999999999,0.0048348000000005,0.0029986000000009,0.0028264000000001,0,sub_1
0.0018415999999998,0.0029888000000012,-0.0114855999999999,0.0052846000000005,0.0040790000000009,-0.0012345999999998,0,sub_1
-0.0003240000000001,0.0040702000000012,-0.0099899999999999,0.0040068000000005,0.0036618000000009,-0.0023149999999998,0,sub_1
-0.0018684000000001,0.0049074000000012,-0.0080091999999998,0.0014380000000005,0.0034518000000009,-0.0008409999999998,0,sub_1
-0.0031984000000001,0.0054140000000012,-0.0077879999999998,0.0001370000000005,0.0019528000000009,0.0021390000000001,0,sub_1
-0.0021804000000001,0.0040694000000012,-0.0084947999999998,-0.0018093999999994,-0.000398199999999,0.0055464000000001,0,sub_1
0.0007615999999998,0.0032914000000012,-0.0102479999999998,-0.0050243999999994,-0.001673199999999,0.0074482000000001,0,sub_1
0.0038883999999998,0.0027580000000012,-0.0110451999999998,-0.0086495999999994,-0.002507599999999,0.0061422000000001,0,sub_1
0.0066823999999998,0.0019742000000012,-0.0119021999999999,-0.0109809999999994,-0.003334399999999,0.0018542000000001,0,sub_1
0.0091721999999998,0.0009428000000012,-0.0102459999999999,-0.0126605999999994,-0.003091799999999,-0.0039301999999998,0,sub_1
0.0089939999999998,0.0022180000000012,-0.0085567999999999,-0.0134819999999994,-0.001786999999999,-0.0097099999999998,0,sub_1
0.0067099999999998,0.0039080000000012,-0.0064835999999999,-0.0134501999999994,0.0005756000000009,-0.0144169999999998,0,sub_1
0.0040035999999998,0.0041554000000012,-0.0058279999999999,-0.0132069999999994,0.0044210000000009,-0.0172017999999998,0,sub_1
0.0014391999999998,0.0038758000000012,-0.0057093999999999,-0.0121169999999994,0.0080452000000009,-0.0186985999999998,0,sub_1
5.419999999985011e-05,0.0041584000000012,-0.0083491999999999,-0.0099871999999994,0.0078220000000009,-0.0180425999999998,0,sub_1
0.0001755999999998,0.0046020000000012,-0.0100889999999999,-0.0076583999999994,0.0060998000000009,-0.0156741999999998,0,sub_1
0.0001283999999998,0.0037080000000012,-0.0104277999999999,-0.0051263999999994,0.0037296000000009,-0.0113839999999998,0,sub_1
-0.0006316000000001,0.0037296000000012,-0.0098675999999999,-0.0021771999999994,-0.000348199999999,-0.0066613999999998,0,sub_1
-0.0004178000000001,0.0041786000000012,-0.0090095999999999,-0.0002987999999994,-0.004425799999999,-0.0010917999999998,0,sub_1
-0.0003204000000001,0.0049764000000012,-0.0076355999999999,-0.0001073999999994,-0.005508599999999,0.0029668000000001,0,sub_1
-0.0001884000000001,0.0054786000000012,-0.0060577999999999,-0.0009627999999994,-0.004659799999999,0.0044518000000001,0,sub_1
0.0016957999999998,0.0059250000000012,-0.0056585999999999,-0.0015907999999994,-0.002524199999999,0.0038036000000001,0,sub_1
0.0050655999999998,0.0062428000000012,-0.0054933999999999,-0.0019967999999994,0.0006794000000009,0.0023012000000001,0,sub_1
0.0065027999999998,0.0077960000000012,-0.0063741999999999,-0.0011257999999994,0.0026032000000009,0.0001684000000001,0,sub_1
0.0064149999999998,0.0096070000000012,-0.0072665999999999,0.0008004000000004,0.0028140000000009,-0.0008905999999998,0,sub_1
0.0044231999999998,0.0091800000000012,-0.0090469999999999,0.0027084000000004,0.0010984000000009,0.0001892000000001,0,sub_1
0.0022443999999998,0.0074686000000012,-0.0097473999999999,0.0046042000000004,-0.002326199999999,0.0023392000000001,0,sub_1
0.0003973999999998,0.0053850000000012,-0.0100893999999998,0.0065058000000004,-0.005745799999999,0.0032074000000001,0,sub_1
-0.0003622000000001,0.0018394000000012,-0.0098971999999998,0.0092740000000004,-0.007035599999999,0.0034382000000001,0,sub_1
-0.0005922000000001,-0.0026181999999986,-0.0102545999999998,0.0133376000000004,-0.007042599999999,0.0015438000000001,0,sub_1
0.0013299999999998,-0.0044769999999986,-0.0105635999999998,0.0169824000000004,-0.006828799999999,-0.0018491999999998,0,sub_1
0.0039751999999998,-0.0029603999999986,-0.0116177999999998,0.0180724000000004,-0.006176199999999,-0.0061149999999998,0,sub_1
0.0050075999999998,-0.0017091999999987,-0.0112849999999999,0.0165994000000005,-0.004243199999999,-0.0086957999999998,0,sub_1
0.0052113999999998,-6.679999999871511e-05,-0.0109719999999999,0.0114912000000005,-0.001879999999999,-0.0091661999999998,0,sub_1
0.0052431999999998,0.0025746000000012,-0.0097979999999999,0.0038096000000005,0.0002690000000009,-0.0070905999999998,0,sub_1
0.0049245999999998,0.0050978000000012,-0.0076477999999998,-0.0015369999999994,0.0017630000000009,-0.0030749999999998,0,sub_1
0.0043875999999998,0.0065708000000012,-0.0062025999999998,-0.0043299999999994,0.0023932000000009,0.0016004000000001,0,sub_1
0.0038711999999998,0.0082644000000012,-0.0079503999999998,-0.0047869999999994,0.0002466000000009,0.0060864000000001,0,sub_1
0.0034691999999998,0.0096816000000012,-0.0091735999999998,-0.0011843999999994,-0.003394599999999,0.0078252000000001,0,sub_1
0.0032255999999998,0.0099888000000012,-0.0100989999999998,0.0047778000000005,-0.006396399999999,0.0074432000000001,0,sub_1
0.0024971999999998,0.0086124000000012,-0.0101899999999999,0.0105396000000005,-0.008749199999999,0.0047038000000001,0,sub_1
0.0005205999999998,0.0055210000000012,-0.0086339999999999,0.0156682000000005,-0.010245199999999,0.0013178000000001,0,sub_1
-0.0009480000000001,0.0025638000000012,-0.0054497999999999,0.0201674000000005,-0.008546799999999,-0.0012219999999998,0,sub_1
-0.0018378000000001,-0.0004069999999987,-0.0035867999999999,0.0201804000000005,-0.006413399999999,-0.0020843999999998,0,sub_1
-0.0011950000000001,-0.0029077999999987,-0.0035499999999999,0.0154926000000005,-0.004905999999999,-0.0021241999999998,0,sub_1
0.0013301999999998,-0.0032925999999987,-0.0044445999999999,0.0076080000000005,-0.002323599999999,-0.0017551999999998,0,sub_1
0.0049233999999998,-0.0012467999999987,-0.0061761999999999,-6.239999999949342e-05,-0.000164999999999,-0.0020249999999998,0,sub_1
0.0081405999999998,0.0011970000000012,-0.0076975999999999,-0.0064737999999994,-0.002485399999999,-0.0020663999999998,0,sub_1
0.0116493999999998,0.0034952000000012,-0.0085291999999999,-0.0099073999999994,-0.005460599999999,-0.0008083999999998,0,sub_1
0.0120759999999998,0.0047010000000012,-0.0067287999999999,-0.0097137999999994,-0.006962799999999,0.0019686000000001,0,sub_1
0.0106467999999998,0.0049332000000012,-0.0051733999999999,-0.0082391999999994,-0.007195599999999,0.0058210000000001,0,sub_1
0.0066143999999998,0.0032030000000012,-0.0049761999999998,-0.0076103999999994,-0.005296999999999,0.0100920000000001,0,sub_1
0.0026693999999998,0.0016982000000012,-0.0063741999999998,-0.0080281999999994,-0.001467399999999,0.0117892000000001,0,sub_1
-0.0018688000000001,0.0008992000000012,-0.0079981999999998,-0.0103463999999994,0.0030226000000009,0.0098444000000001,0,sub_1
-0.0048288000000001,0.0011848000000012,-0.0100303999999998,-0.0124443999999994,0.0060316000000009,0.0049118000000001,0,sub_1
-0.0071692000000001,0.0022874000000012,-0.0119715999999998,-0.0117791999999994,0.0054140000000009,-0.0012787999999998,0,sub_1
-0.0068540000000001,0.0042584000000012,-0.0133901999999998,-0.0096317999999994,0.0030834000000009,-0.0066023999999998,0,sub_1
-0.0064690000000001,0.0044456000000012,-0.0135587999999998,-0.0077065999999994,0.0015940000000009,-0.0091551999999998,0,sub_1
-0.0071182000000001,0.0038906000000012,-0.0131007999999999,-0.0047299999999994,0.0007240000000009,-0.0076423999999998,0,sub_1
-0.0070318000000001,0.0030370000000012,-0.0132289999999999,-0.0021953999999994,-0.000582199999999,-0.0031407999999998,0,sub_1
-0.0046276000000001,0.0027092000000012,-0.0124781999999999,-8.919999999947338e-05,-0.001039599999999,0.0026386000000001,0,sub_1
-0.0006108000000001,0.0024538000000012,-0.0108211999999999,0.0041486000000005,-0.002779399999999,0.0075802000000001,0,sub_1
0.0041761999999998,0.0037266000000012,-0.0092895999999999,0.0113842000000005,-0.004094799999999,0.0106234000000001,0,sub_1
0.0091767999999998,0.0067082000000012,-0.0073495999999999,0.0190586000000005,-0.006673399999999,0.0096122000000001,0,sub_1
0.0140665999999998,0.0096314000000012,-0.0062457999999998,0.0256584000000004,-0.011587999999999,0.0077390000000001,0,sub_1
0.0156813999999998,0.0095324000000012,-0.0054383999999998,0.0269188000000004,-0.016487799999999,0.0068968000000001,0,sub_1
0.0147237999999998,0.0071452000000012,-0.0039139999999998,0.0213514000000004,-0.017543999999999,0.0098476000000001,0,sub_1
0.0126429999999998,0.0060388000000012,-0.0020589999999998,0.0102394000000004,-0.015395199999999,0.0153196000000001,0,sub_1
0.0108531999999998,0.0039926000000012,-0.0012887999999998,-0.0017219999999995,-0.011542599999999,0.0216380000000001,0,sub_1
0.0083593999999998,0.0016020000000012,-0.0009749999999999,-0.0089661999999994,-0.006201799999999,0.024572,0,sub_1
0.0058747999999998,0.0003822000000012,-0.0031085999999998,-0.0070167999999994,-0.000877399999999,0.023511,0,sub_1
0.0035015999999998,0.0024164000000012,-0.0063017999999998,-0.0005759999999994,0.0021064000000009,0.0177840000000001,0,sub_1
0.0021227999999998,0.0025546000000012,-0.0090195999999998,0.0062882000000005,0.0023284000000009,0.0097106000000001,0,sub_1
0.0006487999999998,0.0013430000000012,-0.0113749999999998,0.0112238000000005,0.0014882000000009,0.0024798000000001,0,sub_1
-0.0017926000000001,0.0021654000000012,-0.0135975999999998,0.0118756000000005,-0.000200799999999,-0.0020027999999998,0,sub_1
-0.0045920000000001,0.0031026000000012,-0.0139523999999999,0.0063194000000005,-0.003159399999999,-0.0033225999999998,0,sub_1
-0.0074954000000001,0.0027602000000012,-0.0143799999999999,-0.0009533999999994,-0.005484399999999,-0.0018777999999998,0,sub_1
-0.0084826000000001,0.0028756000000012,-0.0152047999999999,-0.0056717999999994,-0.007826199999999,0.0012964000000001,0,sub_1
-0.0078650000000001,0.0045344000000012,-0.0153297999999999,-0.0063325999999994,-0.009541999999999,0.0042844000000001,0,sub_1
-0.0059500000000001,0.0047634000000012,-0.0138323999999999,-0.0031355999999994,-0.008921399999999,0.0058010000000001,0,sub_1
-0.0031244000000001,0.0039402000000012,-0.0121185999999999,0.0015688000000005,-0.007229999999999,0.0049744000000001,0,sub_1
-7.72000000001499e-05,0.0025576000000012,-0.0097073999999999,0.0060714000000005,-0.006375799999999,0.0007292000000001,0,sub_1
0.0021047999999998,0.0015560000000012,-0.0088545999999999,0.0088746000000004,-0.006569199999999,-0.0063035999999998,0,sub_1
0.0037719999999998,0.0005834000000012,-0.0077943999999999,0.0095508000000004,-0.006112399999999,-0.0142065999999998,0,sub_1
0.0051127999999998,-0.0010991999999987,-0.0071945999999998,0.0063760000000004,-0.005651199999999,-0.0197861999999998,0,sub_1
0.0066837999999998,-0.0011575999999987,-0.0065277999999998,0.0025472000000004,-0.005626799999999,-0.0223763999999998,0,sub_1
0.0090649999999998,0.0005924000000012,-0.0074859999999998,-0.0021531999999995,-0.005403199999999,-0.0206997999999998,0,sub_1
0.0100857999999998,0.0029700000000012,-0.0075875999999998,-0.0081427999999994,-0.004121599999999,-0.0160425999999998,0,sub_1
0.0104857999999998,0.0043284000000012,-0.0062883999999998,-0.0141379999999994,-0.001567599999999,-0.0094669999999998,0,sub_1
0.0096379999999998,0.0063890000000012,-0.0047055999999999,-0.0171387999999994,0.0022560000000009,-0.0032993999999998,0,sub_1
0.0079241999999998,0.0078060000000012,-0.0040471999999999,-0.0194899999999994,0.0056614000000009,0.0003094000000001,0,sub_1
0.0059705999999998,0.0069472000000012,-0.0032953999999999,-0.0192759999999994,0.0071520000000009,0.0009474000000001,0,sub_1
0.0039881999999998,0.0060428000000012,-0.0031215999999999,-0.0162909999999994,0.0067204000000009,0.0003252000000001,0,sub_1
0.0020619999999998,0.0059744000000012,-0.0048527999999998,-0.0133185999999994,0.0035146000000009,0.0003500000000001,0,sub_1
0.0016781999999998,0.0049928000000012,-0.0068595999999998,-0.0122757999999994,-0.000754399999999,0.0014308000000001,0,sub_1
0.0024591999999998,0.0035212000000012,-0.0087733999999998,-0.0114413999999994,-0.002047399999999,0.0044292000000001,0,sub_1
0.0029921999999998,0.0024546000000012,-0.0098425999999998,-0.0114531999999994,-0.000568399999999,0.0080568000000001,0,sub_1
0.0028357999999998,0.0033920000000012,-0.0095431999999998,-0.0114543999999994,0.0019810000000009,0.0104012000000001,0,sub_1
0.0027265999999998,0.0035980000000012,-0.0093829999999999,-0.0095249999999994,0.0049574000000009,0.0108358000000001,0,sub_1
