userAcceleration.x,userAcceleration.y,userAcceleration.z,rotationRate.x,rotationRate.y,rotationRate.z,label,subject
0.0073519999999997,-0.0086193999999987,-0.0132441999999998,-0.0116407999999995,0.0047096000000009,-0.0048433999999999,0,sub_8
0.0079501999999997,-0.0079349999999987,-0.0138607999999998,-0.0116145999999995,0.0045000000000009,-0.0052609999999999,0,sub_8
0.0078165999999997,-0.0082885999999987,-0.0143907999999998,-0.0120123999999995,0.0051432000000009,-0.0054687999999999,0,sub_8
0.0081531999999997,-0.0083629999999987,-0.0149865999999998,-0.0124119999999995,0.0053602000000009,-0.0056761999999999,0,sub_8
0.0081003999999997,-0.0096809999999987,-0.0156867999999998,-0.0124109999999995,0.0057854000000009,-0.0054629999999999,0,sub_8
0.0084573999999997,-0.0097487999999987,-0.0163535999999998,-0.0124119999999995,0.0055724000000009,-0.0054627999999999,0,sub_8
0.0085373999999997,-0.0101439999999987,-0.0162937999999998,-0.0121967999999995,0.0059976000000009,-0.0054617999999999,0,sub_8
0.0085041999999997,-0.0102863999999987,-0.0164129999999998,-0.0121577999999995,0.0059922000000009,-0.0050225999999999,0,sub_8
0.0084997999999997,-0.0109647999999987,-0.0163843999999998,-0.0116921999999995,0.0061976000000009,-0.0043669999999998,0,sub_8
0.0088237999999997,-0.0103497999999987,-0.0157523999999998,-0.0114379999999995,0.0064054000000009,-0.0041401999999998,0,sub_8
0.0085115999999997,-0.0104097999999987,-0.0153537999999998,-0.0109733999999995,0.0061856000000009,-0.0036977999999998,0,sub_8
0.0081351999999997,-0.0097885999999987,-0.0156953999999998,-0.0111507999999995,0.0051174000000009,-0.0036859999999998,0,sub_8
0.0084131999999997,-0.0101469999999987,-0.0159381999999998,-0.0105125999999995,0.0044768000000009,-0.0038943999999998,0,sub_8
0.0082987999999997,-0.0102859999999987,-0.0162633999999998,-0.0103029999999995,0.0036238000000009,-0.0038917999999998,0,sub_8
0.0080953999999997,-0.0104443999999987,-0.0168633999999998,-0.0096675999999995,0.0025564000000009,-0.0038859999999998,0,sub_8
0.0078239999999997,-0.0105339999999987,-0.0178759999999998,-0.0087701999999995,0.0016946000000009,-0.0036515999999999,0,sub_8
0.0079597999999997,-0.0118915999999987,-0.0176943999999998,-0.0076565999999995,0.0012592000000009,-0.0036297999999999,0,sub_8
0.0073959999999997,-0.0119161999999987,-0.0175819999999998,-0.0076107999999995,0.0008266000000009,-0.0034017999999999,0,sub_8
0.0076293999999997,-0.0108873999999987,-0.0191591999999998,-0.0052265999999995,-0.002168399999999,-0.0037951999999999,0,sub_8
0.0073393999999997,-0.0109143999999987,-0.0198639999999998,-0.0045389999999995,-0.003025999999999,-0.0044167999999999,0,sub_8
0.0078531999999997,-0.0111639999999987,-0.0199663999999998,-0.0049609999999995,-0.002595799999999,-0.0050611999999999,0,sub_8
0.0073265999999997,-0.0109313999999987,-0.0203825999999998,-0.0058077999999995,-0.000677199999999,-0.0046423999999999,0,sub_8
0.0074129999999997,-0.0104529999999987,-0.0209611999999998,-0.0066497999999995,0.0018824000000009,-0.0046515999999999,0,sub_8
0.0072617999999997,-0.0105895999999987,-0.0198493999999998,-0.0096177999999995,0.0061540000000009,-0.0046777999999999,0,sub_8
0.0073181999999997,-0.0103027999999987,-0.0183565999999998,-0.0108249999999995,0.0080574000000009,-0.0046721999999999,0,sub_8
0.0072545999999997,-0.0104287999999987,-0.0179951999999998,-0.0111843999999995,0.0084672000000009,-0.0048721999999999,0,sub_8
0.0082613999999997,-0.0112095999999987,-0.0180671999999998,-0.0115485999999995,0.0075998000000009,-0.0052841999999999,0,sub_8
0.0089539999999997,-0.0118335999999987,-0.0175803999999998,-0.0106335999999995,0.0065148000000009,-0.0056869999999999,0,sub_8
0.0080943999999997,-0.0126509999999987,-0.0177965999999998,-0.0097157999999995,0.0067054000000009,-0.0054505999999999,0,sub_8
0.0081745999999997,-0.0134899999999987,-0.0192971999999998,-0.0099309999999995,0.0071288000000009,-0.0045979999999999,0,sub_8
0.0077051999999997,-0.0137381999999987,-0.0199363999999998,-0.0103577999999995,0.0079792000000009,-0.0037473999999998,0,sub_8
0.0071235999999997,-0.0127727999999987,-0.0200137999999998,-0.0111343999999995,0.0090206000000009,-0.0035187999999998,0,sub_8
0.0064085999999997,-0.0128389999999987,-0.0204715999999998,-0.0129807999999995,0.0096388000000009,-0.0030835999999998,0,sub_8
0.0068941999999997,-0.0131395999999987,-0.0207217999999998,-0.0148271999999995,0.0098328000000009,-0.0030749999999998,0,sub_8
0.0068903999999997,-0.0135205999999987,-0.0203261999999998,-0.0160325999999995,0.0098132000000009,-0.0034889999999998,0,sub_8
0.0072789999999997,-0.0139893999999987,-0.0203291999999998,-0.0170225999999995,0.0102188000000009,-0.0039021999999999,0,sub_8
0.0070609999999997,-0.0144483999999987,-0.0209975999999998,-0.0176599999999995,0.0112846000000009,-0.0034807999999999,0,sub_8
0.0072015999999997,-0.0146533999999987,-0.0215109999999998,-0.0178705999999995,0.0117124000000009,-0.0036963999999999,0,sub_8
0.0072731999999997,-0.0148701999999987,-0.0213315999999998,-0.0185059999999995,0.0125676000000009,-0.0039155999999999,0,sub_8
0.0066419999999997,-0.0148691999999987,-0.0218635999999998,-0.0188491999999995,0.0142480000000009,-0.0045365999999999,0,sub_8
0.0063375999999997,-0.0140979999999987,-0.0217387999999998,-0.0196221999999995,0.0152908000000009,-0.0051597999999999,0,sub_8
0.0063777999999997,-0.0141163999999987,-0.0220205999999998,-0.0199701999999995,0.0152696000000009,-0.0064195999999999,0,sub_8
0.0061911999999997,-0.0141857999999987,-0.0219083999999998,-0.0211725999999995,0.0156748000000009,-0.0070449999999999,0,sub_8
0.0057281999999997,-0.0139465999999987,-0.0221173999999998,-0.0217367999999995,0.0158640000000009,-0.0074519999999998,0,sub_8
0.0066405999999997,-0.0136321999999987,-0.0216355999999998,-0.0225911999999995,0.0156540000000009,-0.0074575999999998,0,sub_8
0.0071325999999997,-0.0145269999999987,-0.0214787999999998,-0.0230159999999995,0.0156572000000009,-0.0078877999999998,0,sub_8
0.0074001999999997,-0.0146709999999987,-0.0208781999999998,-0.0240827999999995,0.0156608000000009,-0.0078951999999998,0,sub_8
0.0077923999999997,-0.0151377999999987,-0.0205947999999998,-0.0250787999999995,0.0160628000000009,-0.0076633999999998,0,sub_8
0.0080185999999997,-0.0152389999999987,-0.0207457999999998,-0.0260737999999995,0.0166778000000009,-0.0074317999999998,0,sub_8
0.0073095999999997,-0.0154657999999987,-0.0217819999999998,-0.0272839999999995,0.0166554000000009,-0.0074145999999998,0,sub_8
0.0065555999999997,-0.0150131999999987,-0.0223669999999998,-0.0284959999999995,0.0159948000000009,-0.0076101999999998,0,sub_8
0.0064635999999997,-0.0157979999999987,-0.0227359999999998,-0.0284287999999995,0.0149044000000009,-0.0080099999999998,0,sub_8
0.0064661999999997,-0.0155691999999987,-0.0230955999999998,-0.0275781999999995,0.0134134000000009,-0.0088565999999999,0,sub_8
0.0066273999999997,-0.0155929999999987,-0.0233483999999998,-0.0260883999999995,0.0112828000000009,-0.0101253999999999,0,sub_8
0.0068167999999997,-0.0151493999999987,-0.0227519999999998,-0.0252311999999995,0.0110710000000009,-0.0111873999999999,0,sub_8
0.0065419999999997,-0.0151051999999987,-0.0220749999999998,-0.0245271999999995,0.0118978000000009,-0.0107303999999998,0,sub_8
0.0063335999999997,-0.0143707999999987,-0.0219971999999998,-0.0240365999999995,0.0125132000000009,-0.0104881999999998,0,sub_8
0.0063777999999997,-0.0133079999999987,-0.0222067999999998,-0.0222683999999995,0.0112118000000009,-0.0115165999999998,0,sub_8
0.0066897999999997,-0.0130779999999987,-0.0222887999999998,-0.0209259999999995,0.0099126000000009,-0.0127613999999998,0,sub_8
0.0068663999999997,-0.0130857999999987,-0.0226735999999998,-0.0198027999999995,0.0081846000000009,-0.0131527999999998,0,sub_8
0.0078827999999997,-0.0134229999999987,-0.0232217999999998,-0.0193789999999995,0.0066950000000009,-0.0140023999999999,0,sub_8
0.0085257999999997,-0.0141035999999987,-0.0231975999999998,-0.0185293999999995,0.0054154000000009,-0.0144219999999998,0,sub_8
0.0080931999999997,-0.0155257999999987,-0.0232531999999998,-0.0183189999999995,0.0060486000000009,-0.0131393999999998,0,sub_8
0.0072343999999997,-0.0158495999999987,-0.0230007999999998,-0.0178345999999995,0.0068592000000009,-0.0107603999999998,0,sub_8
0.0070621999999997,-0.0162949999999987,-0.0227381999999998,-0.0162841999999995,0.0061798000000009,-0.0096537999999998,0,sub_8
0.0064353999999997,-0.0158673999999987,-0.0228611999999998,-0.0134553999999995,0.0044332000000009,-0.0091779999999998,0,sub_8
0.0057709999999997,-0.0145287999999987,-0.0233401999999998,-0.0119011999999995,0.0039692000000009,-0.0087127999999999,0,sub_8
0.0056911999999997,-0.0138527999999987,-0.0233875999999998,-0.0120499999999994,0.0045758000000009,-0.0080469999999999,0,sub_8
0.0057189999999997,-0.0143113999999987,-0.0237127999999998,-0.0131091999999994,0.0062840000000009,-0.0080565999999999,0,sub_8
0.0056961999999997,-0.0143499999999987,-0.0240879999999998,-0.0145913999999994,0.0090580000000009,-0.0078567999999999,0,sub_8
0.0060841999999997,-0.0146353999999987,-0.0240995999999998,-0.0171375999999995,0.0131116000000009,-0.0070251999999999,0,sub_8
0.0062879999999997,-0.0159249999999987,-0.0243687999999998,-0.0198979999999995,0.0169530000000009,-0.0061947999999999,0,sub_8
0.0065093999999997,-0.0171563999999987,-0.0243641999999998,-0.0215111999999995,0.0203202000000009,-0.0057567999999999,0,sub_8
0.0069557999999997,-0.0169225999999987,-0.0243227999999998,-0.0222737999999995,0.0230452000000009,-0.0053117999999999,0,sub_8
0.0067333999999997,-0.0170799999999987,-0.0243233999999998,-0.0221923999999995,0.0238490000000009,-0.0046447999999999,0,sub_8
0.0063927999999997,-0.0176563999999987,-0.0247749999999998,-0.0204067999999995,0.0229466000000009,-0.0050319999999998,0,sub_8
0.0058659999999997,-0.0169209999999987,-0.0245815999999998,-0.0190469999999995,0.0224710000000009,-0.0052089999999998,0,sub_8
0.0060445999999997,-0.0157073999999987,-0.0243419999999998,-0.0184087999999995,0.0222550000000009,-0.0049905999999998,0,sub_8
0.0058049999999997,-0.0147511999999987,-0.0239139999999998,-0.0181981999999995,0.0216152000000009,-0.0049883999999998,0,sub_8
0.0056839999999997,-0.0142351999999987,-0.0235233999999998,-0.0175607999999995,0.0209738000000009,-0.0049831999999998,0,sub_8
0.0057323999999997,-0.0135501999999987,-0.0230783999999998,-0.0172531999999995,0.0198418000000009,-0.0043071999999998,0,sub_8
0.0063529999999997,-0.0142741999999987,-0.0228683999999998,-0.0154597999999995,0.0170000000000009,-0.0036187999999998,0,sub_8
0.0059057999999997,-0.0151457999999987,-0.0232325999999998,-0.0136643999999995,0.0137356000000009,-0.0037843999999998,0,sub_8
0.0060431999999997,-0.0161297999999987,-0.0235163999999998,-0.0114451999999995,0.0106794000000009,-0.0030925999999998,0,sub_8
0.0068007999999997,-0.0171963999999987,-0.0236121999999998,-0.0090115999999995,0.0078356000000009,-0.0023997999999998,0,sub_8
0.0071199999999997,-0.0173931999999987,-0.0234987999999998,-0.0066759999999995,0.0050586000000009,-0.0025935999999999,0,sub_8
0.0068479999999997,-0.0173687999999987,-0.0240325999999998,-0.0041221999999995,0.0024974000000009,-0.0036405999999998,0,sub_8
0.0068705999999997,-0.0167193999999987,-0.0238383999999998,-0.0022997999999995,0.0007144000000009,-0.0033713999999998,0,sub_8
0.0060835999999997,-0.0168665999999987,-0.0238601999999998,-0.0009021999999995,-0.000428799999999,-0.0028925999999998,0,sub_8
0.0060113999999997,-0.0163311999999987,-0.0241525999999998,0.0004954000000004,-0.001996399999999,-0.0028403999999998,0,sub_8
0.0056321999999997,-0.0163319999999987,-0.0254625999999998,0.0018882000000004,-0.004841399999999,-0.0030003999999998,0,sub_8
0.0061525999999997,-0.0162207999999987,-0.0252719999999998,0.0024314000000004,-0.006618999999999,-0.0029539999999999,0,sub_8
0.0064445999999997,-0.0169627999999987,-0.0260177999999998,0.0026438000000004,-0.007044999999999,-0.0031655999999999,0,sub_8
0.0074799999999997,-0.0176535999999987,-0.0264037999999998,0.0024334000000004,-0.007465999999999,-0.0042347999999999,0,sub_8
0.0071337999999997,-0.0180473999999987,-0.0265735999999998,0.0024372000000004,-0.007250399999999,-0.0048759999999999,0,sub_8
0.0071617999999997,-0.0182785999999987,-0.0258205999999998,0.0024438000000004,-0.005122399999999,-0.0042375999999999,0,sub_8
0.0060345999999997,-0.0185817999999987,-0.0257955999999998,0.0018324000000004,-0.003221999999999,-0.0029519999999999,0,sub_8
0.0058457999999997,-0.0182773999999987,-0.0256131999999998,0.0031328000000004,-0.004306799999999,-0.0027173999999999,0,sub_8
0.0056377999999997,-0.0171917999999987,-0.0253347999999998,0.0048568000000004,-0.005820199999999,-0.0022655999999999,0,sub_8
0.0056741999999997,-0.0165393999999987,-0.0252049999999998,0.0050940000000004,-0.006261199999999,-0.0022527999999998,0,sub_8
0.0055639999999997,-0.0165737999999987,-0.0254595999999998,0.0038632000000004,-0.005430399999999,-0.0020295999999998,0,sub_8
0.0059313999999997,-0.0168573999999987,-0.0255999999999998,0.0038858000000004,-0.005227199999999,-0.0022345999999998,0,sub_8
0.0062989999999997,-0.0175117999999987,-0.0257557999999998,0.0030568000000004,-0.004382799999999,-0.0022327999999998,0,sub_8
0.0062351999999997,-0.0190787999999987,-0.0262537999999998,0.0024414000000004,-0.003538999999999,-0.0022293999999998,0,sub_8
0.0063363999999997,-0.0201605999999987,-0.0269103999999998,0.0018240000000004,-0.002484799999999,-0.0015853999999998,0,sub_8
0.0067999999999997,-0.0205489999999987,-0.0271751999999998,0.0024660000000004,-0.002272999999999,-0.0017947999999998,0,sub_8
0.0072081999999997,-0.0199425999999987,-0.0275371999999998,0.0031100000000004,-0.001847399999999,-0.0022179999999998,0,sub_8
0.0064017999999997,-0.0195233999999987,-0.0277971999999998,0.0035396000000004,-0.000785199999999,-0.0017889999999998,0,sub_8
0.0061889999999997,-0.0183779999999987,-0.0276547999999998,0.0030270000000004,0.0006240000000009,-0.0011039999999998,0,sub_8
0.0062377999999997,-0.0174263999999987,-0.0272839999999998,0.0027250000000004,0.0009690000000009,-0.0008433999999998,0,sub_8
0.0060997999999997,-0.0168615999999987,-0.0268465999999998,0.0022078000000004,0.0008886000000009,-0.0005837999999999,0,sub_8
0.0059683999999997,-0.0169577999999987,-0.0264551999999998,0.0016894000000004,0.0003828000000009,-0.0005373999999999,0,sub_8
0.0070767999999997,-0.0173467999999987,-0.0266461999999998,0.0018122000000004,-0.000760799999999,-0.0013401999999999,0,sub_8
0.0074581999999997,-0.0181307999999987,-0.0271147999999998,0.0022380000000004,-0.001611799999999,-0.0019771999999999,0,sub_8
0.0074401999999997,-0.0192215999999987,-0.0277639999999998,0.0026656000000004,-0.001400199999999,-0.0019745999999999,0,sub_8
0.0072431999999997,-0.0195583999999987,-0.0284295999999998,0.0028828000000004,-0.000760999999999,-0.0021875999999999,0,sub_8
0.0068045999999997,-0.0200965999999987,-0.0285635999999998,0.0025690000000004,0.0002188000000009,-0.0017229999999999,0,sub_8
0.0060617999999997,-0.0197701999999987,-0.0280623999999998,0.0028934000000004,0.0011944000000009,-0.0008267999999999,0,sub_8
0.0057569999999997,-0.0191691999999987,-0.0281265999999998,0.0034284000000004,0.0008936000000009,-0.0005681999999999,0,sub_8
0.0060821999999997,-0.0181333999999987,-0.0275011999999998,0.0037508000000004,0.0003822000000009,-0.0007379999999998,0,sub_8
0.0057205999999997,-0.0178359999999987,-0.0266867999999998,0.0036474000000004,0.0011464000000009,0.0001556,0,sub_8
0.0058421999999997,-0.0172517999999987,-0.0263273999999998,0.0034312000000004,0.0015690000000009,0.0012218,0,sub_8
0.0055473999999997,-0.0168433999999987,-0.0267937999999998,0.0034274000000004,0.0009290000000009,0.0014364,0,sub_8
0.0060229999999997,-0.0162635999999987,-0.0268739999999998,0.0044904000000004,-0.000139199999999,0.0012316,0,sub_8
0.0056333999999997,-0.0165921999999987,-0.0272113999999998,0.0060540000000004,-0.001476799999999,0.0012782,0,sub_8
0.0060565999999997,-0.0175909999999987,-0.0285337999999998,0.0078280000000004,-0.003878799999999,0.0009004000000001,0,sub_8
0.0065253999999997,-0.0185561999999987,-0.0297259999999998,0.0098222000000004,-0.005426799999999,-0.0001179999999998,0,sub_8
0.0074853999999997,-0.0197577999999987,-0.0296715999999998,0.0116078000000004,-0.005484199999999,-0.0007123999999998,0,sub_8
0.0072639999999997,-0.0212711999999987,-0.0292833999999998,0.0119026000000004,-0.004048399999999,-0.0004645999999998,0,sub_8
0.0069899999999997,-0.0220013999999987,-0.0294419999999998,0.0114826000000004,-0.002767799999999,-0.0006829999999998,0,sub_8
0.0068431999999997,-0.0214003999999987,-0.0284079999999998,0.0114912000000004,-0.001274599999999,-0.0011121999999998,0,sub_8
0.0067965999999997,-0.0203133999999987,-0.0276387999999998,0.0114950000000004,-0.000210199999999,-0.0008997999999998,0,sub_8
0.0059805999999997,-0.0196347999999987,-0.0271967999999998,0.0108944000000004,-0.000235599999999,-0.0002347999999999,0,sub_8
0.0056007999999997,-0.0191875999999987,-0.0269273999999998,0.0105034000000004,-0.001538399999999,6.000000000095057e-06,0,sub_8
0.0061059999999997,-0.0186117999999987,-0.0267095999999998,0.0103258000000004,-0.002417399999999,0.0006752,0,sub_8
0.0063263999999997,-0.0192247999999987,-0.0275451999999998,0.0101434000000004,-0.003724999999999,0.0019858,0,sub_8
0.0060083999999997,-0.0199675999999987,-0.0280199999999998,0.0097486000000004,-0.005030999999999,0.003081,0,sub_8
0.0059509999999997,-0.0207291999999987,-0.0284953999999998,0.0091018000000003,-0.005883399999999,0.0037184,0,sub_8
0.0058839999999997,-0.0210389999999987,-0.0294153999999998,0.0090998000000003,-0.005672799999999,0.004359,0,sub_8
0.0052877999999997,-0.0219913999999987,-0.0300907999999998,0.0088864000000003,-0.005884199999999,0.004144,0,sub_8
0.0049047999999997,-0.0224709999999987,-0.0304239999999998,0.0089110000000003,-0.006739799999999,0.0024568,0,sub_8
0.0050213999999997,-0.0234339999999987,-0.0302273999999998,0.0089392000000004,-0.006955399999999,0.0005554,0,sub_8
0.0057589999999997,-0.0233029999999987,-0.0303399999999998,0.0076892000000004,-0.006315999999999,-0.0009287999999998,0,sub_8
0.0063021999999997,-0.0235249999999987,-0.0297327999999998,0.0055886000000004,-0.004822199999999,-0.0022063999999998,0,sub_8
0.0062921999999997,-0.0230959999999987,-0.0287393999999998,0.0028460000000004,-0.003115799999999,-0.0028477999999998,0,sub_8
0.0064733999999997,-0.0226387999999987,-0.0278445999999998,-0.0003459999999995,-0.001187199999999,-0.0028723999999998,0,sub_8
0.0064843999999997,-0.0219303999999987,-0.0277195999999998,-0.0033273999999995,-0.000322799999999,-0.0033215999999998,0,sub_8
0.0054465999999997,-0.0219737999999987,-0.0274337999999998,-0.0052419999999995,0.0003256000000009,-0.0039767999999998,0,sub_8
0.0047537999999997,-0.0218247999999987,-0.0271559999999998,-0.0060923999999995,-0.001164599999999,-0.0046051999999998,0,sub_8
0.0046235999999997,-0.0219917999999987,-0.0275741999999998,-0.0065151999999995,-0.002443199999999,-0.0052309999999998,0,sub_8
0.0044081999999997,-0.0220739999999987,-0.0280869999999998,-0.0071493999999995,-0.003719399999999,-0.0062855999999998,0,sub_8
0.0040479999999997,-0.0221653999999987,-0.0284307999999998,-0.0079959999999995,-0.003932999999999,-0.0064883999999999,0,sub_8
0.0039875999999997,-0.0219381999999987,-0.0289257999999998,-0.0092721999999995,-0.004147599999999,-0.0060531999999999,0,sub_8
0.0041777999999997,-0.0220225999999987,-0.0292713999999998,-0.0120421999999995,-0.002436999999999,-0.0052201999999999,0,sub_8
0.0044059999999997,-0.0216821999999987,-0.0291623999999998,-0.0139587999999995,-0.001365799999999,-0.0050211999999999,0,sub_8
0.0047741999999997,-0.0212519999999987,-0.0291239999999998,-0.0152389999999995,-0.001148999999999,-0.0048167999999999,0,sub_8
0.0047113999999997,-0.0206251999999987,-0.0289313999999998,-0.0163153999999995,-0.001572399999999,-0.0048137999999999,0,sub_8
0.0054745999999997,-0.0211091999999987,-0.0299499999999998,-0.0163239999999995,-0.003059599999999,-0.0060837999999999,0,sub_8
0.0059175999999997,-0.0218069999999987,-0.0307051999999998,-0.0165467999999995,-0.004334599999999,-0.0069281999999999,0,sub_8
0.0063681999999997,-0.0222171999999987,-0.0309271999999998,-0.0157027999999995,-0.004976799999999,-0.0071251999999999,0,sub_8
0.0060359999999997,-0.0225471999999987,-0.0307855999999998,-0.0146387999999995,-0.003491999999999,-0.0066823999999998,0,sub_8
0.0063769999999997,-0.0228047999999987,-0.0302401999999998,-0.0139889999999995,-0.001787999999999,-0.0071071999999998,0,sub_8
0.0063463999999997,-0.0222145999999987,-0.0282155999999998,-0.0144071999999995,-0.000293399999999,-0.0075391999999998,0,sub_8
0.0059083999999997,-0.0209015999999987,-0.0273615999999998,-0.0135451999999995,-0.000288799999999,-0.0094559999999998,0,sub_8
0.0059267999999997,-0.0199671999999987,-0.0268391999999998,-0.0137487999999995,-0.000491799999999,-0.0118071999999998,0,sub_8
0.0067955999999997,-0.0203171999999987,-0.0273517999999998,-0.0141983999999995,-0.001540599999999,-0.0143663999999999,0,sub_8
0.0068747999999997,-0.0211751999999987,-0.0279269999999998,-0.0152901999999995,-0.002588999999999,-0.0165027999999999,0,sub_8
0.0063263999999997,-0.0219109999999987,-0.0289295999999998,-0.0168057999999995,-0.002360199999999,-0.0180029999999999,0,sub_8
0.0063863999999997,-0.0226055999999987,-0.0297581999999998,-0.0185327999999995,-0.001067799999999,-0.0188649999999999,0,sub_8
0.0066481999999997,-0.0239381999999987,-0.0311301999999998,-0.0209019999999995,0.0002250000000009,-0.0193041999999999,0,sub_8
0.0060867999999997,-0.0236757999999987,-0.0314171999999998,-0.0238787999999995,0.0023668000000009,-0.0195411999999999,0,sub_8
0.0059683999999997,-0.0225437999999987,-0.0312211999999998,-0.0249389999999995,0.0042862000000009,-0.0191237999999999,0,sub_8
0.0056443999999997,-0.0214893999999987,-0.0304281999999998,-0.0251871999999995,0.0057918000000009,-0.0191285999999998,0,sub_8
0.0052831999999997,-0.0202367999999987,-0.0293167999999998,-0.0250165999999995,0.0055914000000009,-0.0191281999999998,0,sub_8
0.0045989999999997,-0.0189747999999987,-0.0277875999999998,-0.0244209999999995,0.0053878000000009,-0.0186975999999998,0,sub_8
0.0043985999999997,-0.0178489999999987,-0.0268073999999998,-0.0236167999999995,0.0041182000000009,-0.0182641999999998,0,sub_8
0.0048527999999997,-0.0178131999999987,-0.0264653999999998,-0.0234507999999995,0.0030648000000009,-0.0180491999999998,0,sub_8
0.0054845999999997,-0.0178611999999987,-0.0262573999999998,-0.0219667999999995,0.0017778000000009,-0.0171825999999999,0,sub_8
0.0062261999999997,-0.0187577999999987,-0.0263731999999998,-0.0202693999999995,0.0007022000000009,-0.0161011999999999,0,sub_8
0.0065321999999997,-0.0194809999999987,-0.0271571999999998,-0.0185709999999995,-0.000372399999999,-0.0152333999999998,0,sub_8
0.0064001999999997,-0.0208925999999987,-0.0273429999999998,-0.0171141999999995,-0.001007199999999,-0.0137219999999998,0,sub_8
0.0059029999999997,-0.0213891999999987,-0.0286005999999998,-0.0158669999999995,-0.001213399999999,-0.0126397999999998,0,sub_8
0.0054207999999997,-0.0216743999999987,-0.0299137999999998,-0.0150465999999995,-0.001418199999999,-0.0115605999999998,0,sub_8
0.0057593999999997,-0.0213427999999987,-0.0307905999999998,-0.0148613999999995,-0.001191999999999,-0.0111271999999998,0,sub_8
0.0053505999999997,-0.0207001999999987,-0.0304429999999998,-0.0157383999999995,0.0001032000000009,-0.0107025999999999,0,sub_8
0.0050445999999997,-0.0199849999999987,-0.0300207999999998,-0.0161565999999995,0.0020222000000009,-0.0107079999999998,0,sub_8
0.0046027999999997,-0.0196737999999987,-0.0295049999999998,-0.0163709999999995,0.0028708000000009,-0.0096423999999998,0,sub_8
0.0050087999999997,-0.0196159999999987,-0.0290903999999998,-0.0170111999999995,0.0035096000000009,-0.0090065999999998,0,sub_8
0.0044359999999997,-0.0195603999999987,-0.0292693999999998,-0.0176455999999995,0.0043760000000009,-0.0077153999999998,0,sub_8
0.0046583999999997,-0.0192481999999987,-0.0299431999999998,-0.0172177999999995,0.0043856000000009,-0.0062019999999998,0,sub_8
0.0052575999999997,-0.0197205999999987,-0.0306775999999998,-0.0176415999999995,0.0041876000000009,-0.0053351999999998,0,sub_8
0.0057429999999997,-0.0200641999999987,-0.0300135999999998,-0.0172051999999995,0.0046294000000009,-0.0053177999999998,0,sub_8
0.0055245999999997,-0.0206037999999987,-0.0297959999999998,-0.0161275999999995,0.0057064000000009,-0.0048695999999998,0,sub_8
0.0049319999999997,-0.0212223999999987,-0.0296607999999998,-0.0148443999999995,0.0069776000000009,-0.0042213999999999,0,sub_8
0.0047979999999997,-0.0221385999999987,-0.0296313999999998,-0.0133469999999995,0.0078246000000009,-0.0042119999999998,0,sub_8
0.0045779999999997,-0.0222077999999987,-0.0293691999999998,-0.0114255999999995,0.0080310000000009,-0.0041987999999998,0,sub_8
0.0045791999999997,-0.0220527999999987,-0.0302039999999998,-0.0107489999999995,0.0076178000000009,-0.0043777999999998,0,sub_8
0.0052559999999997,-0.0213723999999987,-0.0301733999999998,-0.0104991999999995,0.0072060000000009,-0.0045597999999998,0,sub_8
0.0060749999999997,-0.0210079999999987,-0.0297437999999998,-0.0113161999999995,0.0067982000000009,-0.0047491999999998,0,sub_8
0.0063239999999997,-0.0208621999999987,-0.0295911999999998,-0.0121293999999995,0.0074546000000009,-0.0047263999999998,0,sub_8
