userAcceleration.x,userAcceleration.y,userAcceleration.z,rotationRate.x,rotationRate.y,rotationRate.z,label,subject
0.0082003999999997,0.0047052000000012,-0.0016003999999999,-0.0176881999999995,0.0205766000000008,-0.0032293999999998,0,sub_4
0.0084099999999997,0.0083302000000012,-0.0017681999999999,-0.0121951999999995,0.0090498000000008,-0.0025353999999998,0,sub_4
0.0081575999999997,0.0117600000000012,-0.0020015999999999,-0.0026671999999996,-0.006327999999999,-0.0013809999999998,0,sub_4
0.0054935999999997,0.0118050000000012,-0.0032295999999999,0.0070856000000004,-0.018937399999999,-1.4799999999893976e-05,0,sub_4
0.0019133999999997,0.0100472000000012,-0.0055249999999999,0.0128420000000003,-0.025368199999999,0.0017414000000001,0,sub_4
-0.0006882000000002,0.0092468000000012,-0.0071147999999999,0.0149980000000003,-0.026032999999999,0.0032514000000001,0,sub_4
-0.0009196000000002,0.0087618000000012,-0.0081607999999999,0.0154616000000003,-0.024344999999999,0.0038920000000001,0,sub_4
-0.0005596000000002,0.0082838000000012,-0.0090721999999999,0.0157202000000003,-0.021587399999999,0.0036752000000001,0,sub_4
0.0002277999999997,0.0080418000000012,-0.0098987999999999,0.0170428000000003,-0.0194729999999991,0.0034666000000001,0,sub_4
0.0010849999999997,0.0075330000000012,-0.0089839999999999,0.0187594000000003,-0.0175605999999991,0.0032626000000001,0,sub_4
0.0019191999999997,0.0063964000000012,-0.0089543999999999,0.0194042000000003,-0.0164975999999991,0.0032658,0,sub_4
0.0021001999999997,0.0050558000000012,-0.0094447999999999,0.0181296000000004,-0.0145781999999991,0.0038954,0,sub_4
0.0016857999999997,0.0040200000000012,-0.0102959999999999,0.0150094000000004,-0.0122915999999991,0.0047116,0,sub_4
0.0019863999999997,0.0039656000000012,-0.0106231999999999,0.0095430000000004,-0.0099957999999991,0.0052978,0,sub_4
0.0016279999999997,0.0045558000000012,-0.0115669999999999,0.0038690000000004,-0.0070575999999991,0.0052408,0,sub_4
0.0021765999999997,0.0054624000000012,-0.0108937999999999,-9.119999999959896e-05,-0.0030583999999991,0.0047670000000001,0,sub_4
0.0030531999999997,0.0064572000000012,-0.0098545999999999,-0.0014851999999995,0.0011492000000008,0.0032426000000001,0,sub_4
0.0032133999999997,0.0068912000000012,-0.0081827999999998,-0.0010373999999995,0.0047740000000008,0.0021730000000001,0,sub_4
0.0038099999999997,0.0074108000000012,-0.0066857999999998,0.0011108000000004,0.0066892000000008,0.0009036000000001,0,sub_4
0.0046465999999997,0.0074382000000012,-0.0056755999999998,0.0030974000000004,0.0063714000000008,7.100000000010616e-05,0,sub_4
0.0046619999999997,0.0070520000000012,-0.0053389999999998,0.0042188000000004,0.0041366000000008,-0.0001239999999998,0,sub_4
0.0043339999999997,0.0070522000000012,-0.0050995999999998,0.0049030000000004,0.0001964000000008,0.0003210000000001,0,sub_4
0.0053573999999997,0.0071156000000012,-0.0050533999999999,0.0055806000000004,-0.005447599999999,0.0005544000000001,0,sub_4
0.0054205999999997,0.0068050000000012,-0.0050101999999999,0.0064782000000004,-0.009812999999999,0.0005742000000001,0,sub_4
0.0055421999999997,0.0066138000000012,-0.0046131999999999,0.0090272000000004,-0.012590799999999,0.0003820000000001,0,sub_4
0.0052477999999997,0.0069740000000012,-0.0043217999999999,0.0124306000000004,-0.015370799999999,-1.799999999989386e-05,0,sub_4
0.0053747999999997,0.0069862000000012,-0.0045479999999999,0.0151920000000004,-0.018574599999999,-0.0004217999999998,0,sub_4
0.0041033999999997,0.0070378000000012,-0.0051319999999999,0.0166808000000004,-0.019857199999999,-0.0006233999999999,0,sub_4
0.0031385999999997,0.0067792000000012,-0.0062857999999999,0.0165452000000003,-0.020651999999999,-0.0001777999999999,0,sub_4
0.0029573999999997,0.0064536000000012,-0.0071643999999999,0.0147044000000003,-0.021014599999999,0.0002554,0,sub_4
0.0029135999999997,0.0057220000000012,-0.0086355999999999,0.0120200000000003,-0.019667999999999,0.0002532,0,sub_4
0.0020717999999997,0.0054728000000012,-0.0093783999999999,0.0091316000000003,-0.016402599999999,3.340000000008614e-05,0,sub_4
0.0012993999999997,0.0052954000000012,-0.0102603999999999,0.0058222000000004,-0.011857199999999,-0.0001909999999998,0,sub_4
0.0012235999999997,0.0056488000000012,-0.0101523999999999,0.0024350000000004,-0.006304199999999,-0.0006489999999998,0,sub_4
0.0011031999999997,0.0062064000000011,-0.0103467999999999,-0.0005233999999995,-0.0001143999999991,-0.0008913999999998,0,sub_4
0.0015259999999997,0.0068308000000011,-0.0095479999999999,-0.0029919999999995,0.0055362000000008,-0.0011129999999998,0,sub_4
0.0025105999999997,0.0070336000000012,-0.0082005999999999,-0.0041851999999995,0.0103292000000008,-0.0011109999999998,0,sub_4
0.0042837999999997,0.0072856000000012,-0.0068707999999998,-0.0041115999999995,0.0123472000000008,-0.0008827999999998,0,sub_4
0.0060663999999997,0.0074714000000012,-0.0053281999999998,-0.0031957999999995,0.0120178000000008,-0.0004321999999998,0,sub_4
0.0068375999999997,0.0072236000000012,-0.0035973999999998,-0.0022915999999995,0.0091318000000008,2.160000000010604e-05,0,sub_4
0.0064843999999997,0.0072252000000012,-0.0023985999999998,-0.0012429999999995,0.0057166000000008,0.0006742000000001,0,sub_4
0.0062373999999997,0.0069158000000012,-0.0025457999999998,-0.0008381999999996,0.0014516000000008,0.0013234,0,sub_4
0.0061133999999997,0.0070484000000012,-0.0029663999999999,-1.7999999996182528e-06,-0.0021741999999991,0.0015474,0,sub_4
0.0049491999999997,0.0073136000000012,-0.0042243999999999,0.0012650000000003,-0.0049491999999991,0.0017734,0,sub_4
0.0037049999999997,0.0072760000000012,-0.0051563999999999,0.0023336000000003,-0.006479799999999,0.0017862,0,sub_4
0.0033273999999997,0.0069108000000012,-0.0062455999999999,0.0036184000000003,-0.007584199999999,0.0015862,0,sub_4
0.0035931999999997,0.0078166000000011,-0.0068055999999999,0.0049080000000003,-0.007623399999999,0.0013848000000001,0,sub_4
0.0032743999999997,0.0081548000000011,-0.0063189999999999,0.0061986000000003,-0.007661599999999,0.0009698000000001,0,sub_4
0.0031459999999997,0.0079624000000011,-0.0057955999999998,0.0070654000000003,-0.007271399999999,0.0003376000000001,0,sub_4
0.0033429999999997,0.0076144000000012,-0.0054539999999998,0.0081342000000003,-0.007061199999999,0.0001310000000001,0,sub_4
0.0035513999999997,0.0077688000000012,-0.0055781999999998,0.0081334000000003,-0.006849799999999,0.0005580000000001,0,sub_4
0.0031879999999997,0.0068052000000012,-0.0053563999999998,0.0070626000000004,-0.0064405999999991,0.0007596000000001,0,sub_4
0.0031343999999997,0.0061062000000012,-0.0056923999999998,0.0053536000000004,-0.0053907999999991,0.0011696000000001,0,sub_4
0.0036945999999997,0.0054724000000012,-0.0062475999999998,0.0034284000000004,-0.0049793999999991,0.0015788000000001,0,sub_4
0.0043297999999997,0.0054864000000012,-0.0066567999999998,0.0019346000000004,-0.0041409999999991,0.0013496000000001,0,sub_4
0.0052913999999997,0.0051870000000012,-0.0065163999999999,0.0008734000000004,-0.0026623999999991,0.0004816000000001,0,sub_4
0.0058601999999997,0.0053962000000012,-0.0061951999999999,0.0002448000000004,-0.0011643999999991,-0.0005929999999998,0,sub_4
0.0059035999999997,0.0056484000000012,-0.0058197999999999,-0.0001741999999995,-9.519999999910867e-05,-0.0012383999999998,0,sub_4
0.0052369999999997,0.0065492000000012,-0.0047847999999999,0.0002592000000004,0.0007580000000008,-0.0018773999999998,0,sub_4
0.0047459999999997,0.0074366000000012,-0.0038373999999999,0.0002622000000004,0.0011850000000008,-0.0020915999999998,0,sub_4
0.0036063999999997,0.0086082000000012,-0.0032861999999999,0.0004436000000004,0.0007742000000008,-0.0018793999999998,0,sub_4
0.0023631999999997,0.0097422000000012,-0.0030811999999999,0.0012604000000004,-0.0004921999999991,-0.0014479999999998,0,sub_4
0.0015189999999997,0.0110256000000012,-0.0032025999999999,0.0020790000000004,-0.0015445999999991,-0.0012303999999998,0,sub_4
0.0007909999999997,0.0114584000000012,-0.0039151999999999,0.0031110000000003,-0.0019609999999991,-0.0003711999999998,0,sub_4
0.0005273999999997,0.0107820000000012,-0.0049267999999999,0.0037144000000003,-0.0025897999999991,0.0006988000000001,0,sub_4
0.0009897999999997,0.0095734000000011,-0.0058887999999999,0.0034962000000003,-0.0028055999999991,0.0015520000000001,0,sub_4
0.0021137999999997,0.0076960000000011,-0.0059855999999999,0.0022142000000003,-0.0019539999999991,0.0028238000000001,0,sub_4
0.0045871999999997,0.0049562000000011,-0.0056591999999999,0.0004798000000003,-0.0010751999999991,0.0036638000000001,0,sub_4
0.0078607999999997,0.0027930000000012,-0.0049043999999999,-0.0023165999999995,-0.0001885999999991,0.0034280000000001,0,sub_4
0.0100697999999997,0.0023838000000011,-0.0043139999999999,-0.0040441999999995,0.0006960000000008,0.0027726000000001,0,sub_4
0.0111187999999997,0.0025798000000012,-0.0032091999999998,-0.0042791999999995,0.0007258000000009,0.0014878000000001,0,sub_4
0.0109291999999997,0.0033546000000012,-0.0025475999999998,-0.0032349999999995,-9.839999999908872e-05,-0.0004279999999998,0,sub_4
0.0082543999999997,0.0056032000000012,-0.0021975999999998,-0.0015211999999995,-0.000734999999999,-0.0025515999999998,0,sub_4
0.0036543999999997,0.0086200000000012,-0.0029447999999998,0.0006136000000004,-0.001802599999999,-0.0038171999999998,0,sub_4
0.0006025999999997,0.0110094000000012,-0.0033587999999998,0.0021004000000003,-0.003511399999999,-0.0040183999999998,0,sub_4
-0.0014142000000002,0.0125942000000012,-0.0042517999999999,0.0023024000000003,-0.005007799999999,-0.0029467999999998,0,sub_4
-0.0016154000000002,0.0128408000000012,-0.0052871999999999,0.0016388000000003,-0.004998399999999,-0.0014583999999998,0,sub_4
-8.54000000002143e-05,0.0109836000000012,-0.0060457999999999,0.0003370000000003,-0.004348399999999,0.0002382000000001,0,sub_4
0.0035133999999997,0.0082620000000012,-0.0060147999999999,-0.0013905999999996,-0.003271599999999,0.0021450000000001,0,sub_4
0.0069345999999997,0.0054336000000012,-0.0053711999999999,-0.0033227999999995,-0.001549799999999,0.0027678,0,sub_4
0.0094385999999997,0.0028240000000012,-0.0038145999999999,-0.0037519999999995,0.0005998000000008,0.0016912,0,sub_4
0.0108137999999997,0.0021382000000012,-0.0020391999999999,-0.0024669999999995,0.0003874000000009,0.0004186,0,sub_4
0.0111225999999997,0.0037996000000012,-0.0003293999999999,9.060000000040149e-05,-0.001533799999999,-0.0008429999999999,0,sub_4
0.0096693999999997,0.0059094000000011,0.000939,0.0043308000000004,-0.003862399999999,-0.0023091999999999,0,sub_4
0.0065973999999997,0.0086888000000012,0.0017208,0.0094274000000004,-0.005554999999999,-0.0037703999999998,0,sub_4
0.0034789999999997,0.0114680000000012,0.0009258000000001,0.0140876000000004,-0.007678999999999,-0.0035247999999998,0,sub_4
-9.86000000002145e-05,0.0129616000000012,-0.0006855999999998,0.0172572000000004,-0.0085219999999991,-0.0026503999999999,0,sub_4
-0.0030164000000002,0.0133408000000011,-0.0028545999999998,0.0182920000000004,-0.0085095999999991,-0.0007237999999999,0,sub_4
-0.0040468000000002,0.0130068000000012,-0.0049531999999998,0.0165774000000004,-0.0080861999999991,0.0014,0,sub_4
-0.0039914000000002,0.0111500000000012,-0.0074111999999998,0.0133652000000003,-0.007448599999999,0.0045814,0,sub_4
-0.0023348000000002,0.0086184000000012,-0.0077851999999998,0.0086700000000003,-0.005310999999999,0.006896,0,sub_4
0.0012455999999997,0.0054724000000012,-0.0075021999999998,0.0035548000000003,-0.002317199999999,0.0085656,0,sub_4
0.0071699999999997,0.0019282000000012,-0.0061399999999998,-0.0007177999999995,0.0004844000000008,0.008745,0,sub_4
0.0118659999999997,-0.0009323999999987,-0.0040037999999998,-0.0043447999999995,0.0032890000000008,0.007647,0,sub_4
0.0161015999999997,-0.0024755999999987,-0.0013559999999998,-0.0073305999999995,0.0050312000000008,0.005273,0,sub_4
0.0184845999999997,-0.0027615999999987,0.0005028,-0.0090445999999995,0.0046392000000008,0.0026968000000001,0,sub_4
0.0181365999999997,0.0001382000000012,0.00233,-0.0090585999999995,0.0025378000000008,-7.899999999989408e-05,0,sub_4
0.0140835999999997,0.0048262000000012,0.0029512,-0.0075659999999995,-0.000226799999999,-0.0026287999999998,0,sub_4
0.0093851999999997,0.0095164000000012,0.00261,-0.0041585999999995,-0.004064199999999,-0.0049501999999998,0,sub_4
0.0039425999999997,0.0134476000000012,0.0011594,0.0003136000000004,-0.007270399999999,-0.0061967999999998,0,sub_4
-0.0008370000000002,0.0160362000000012,-0.0010135999999999,0.0047810000000004,-0.008333799999999,-0.0070217999999998,0,sub_4
-0.0031842000000002,0.0156908000000012,-0.0040881999999999,0.0075474000000004,-0.007264199999999,-0.0070067999999998,0,sub_4
-0.0040330000000002,0.0138806000000012,-0.0065073999999999,0.0081856000000003,-0.004272199999999,-0.0063681999999998,0,sub_4
-0.0025752000000002,0.0113452000000012,-0.0073419999999999,0.0071226000000003,0.0004286000000009,-0.0053163999999998,0,sub_4
0.0003879999999997,0.0088146000000012,-0.0064709999999999,0.0056292000000003,0.0044908000000009,-0.0040531999999998,0,sub_4
0.0035457999999997,0.0068156000000012,-0.0048925999999999,0.0034974000000003,0.0064098000000008,-0.0025749999999999,0,sub_4
0.0055839999999997,0.0062062000000012,-0.0019839999999999,0.0022084000000003,0.0057700000000008,-0.0013011999999999,0,sub_4
0.0081735999999997,0.0057986000000012,0.0013758,0.0015426000000004,0.0025874000000008,-0.0004467999999999,0,sub_4
0.0093903999999997,0.0055730000000012,0.003349,0.0017244000000004,-0.0023009999999991,-1.1599999999894205e-05,0,sub_4
0.0098309999999997,0.0055876000000012,0.0037094,0.0019090000000004,-0.0073989999999991,-0.0004305999999998,0,sub_4
0.0104151999999997,0.0057332000000012,0.0029454,0.0023100000000004,-0.0120707999999991,-0.0010623999999998,0,sub_4
0.0104665999999997,0.0054978000000012,0.0011344,0.0022930000000004,-0.0152479999999991,-0.0021263999999998,0,sub_4
0.0090273999999997,0.0051924000000012,-0.0013783999999999,0.0025044000000004,-0.0167357999999991,-0.0031911999999998,0,sub_4
0.0075049999999997,0.0048440000000012,-0.0030103999999998,0.0016576000000004,-0.0160903999999991,-0.0040523999999998,0,sub_4
0.0052543999999997,0.0059310000000012,-0.0038745999999998,0.0006062000000004,-0.0133145999999991,-0.0047041999999998,0,sub_4
0.0031905999999997,0.0079442000000012,-0.0035593999999998,-0.0004479999999995,-0.0090311999999991,-0.0053577999999998,0,sub_4
0.0022221999999997,0.0101028000000012,-0.0028853999999998,-0.0010745999999995,-0.0043239999999991,-0.0057951999999998,0,sub_4
0.0009467999999997,0.0115920000000012,-0.0016523999999998,-0.0014857999999995,0.0010206000000008,-0.0060183999999998,0,sub_4
0.0006397999999998,0.0123416000000012,-0.0009439999999999,-0.0010521999999995,0.0050816000000008,-0.0055929999999998,0,sub_4
0.0022113999999998,0.0119062000000012,-0.0007781999999999,-0.0019083999999995,0.0074410000000008,-0.0047471999999998,0,sub_4
0.0037329999999998,0.0105060000000012,-0.0010711999999999,-0.0031887999999995,0.0082942000000008,-0.0039025999999998,0,sub_4
0.0044361999999998,0.0085572000000012,-0.0006865999999999,-0.0046861999999995,0.0085082000000008,-0.0028451999999998,0,sub_4
0.0065681999999997,0.0067754000000012,-0.0008393999999999,-0.0059789999999995,0.0070162000000008,-0.0015703999999998,0,sub_4
0.0085947999999997,0.0058122000000012,-0.0005413999999999,-0.0068487999999995,0.0044582000000008,-0.0005049999999998,0,sub_4
0.0096157999999997,0.0052118000000012,0.000214,-0.0064591999999995,0.0023446000000008,0.0001344000000001,0,sub_4
0.0103137999999997,0.0053608000000012,0.0015266,-0.0045737999999996,1.540000000089213e-05,0.0001436000000001,0,sub_4
0.0108923999999997,0.0059996000000012,0.0027128,-0.0020523999999996,-0.0033803999999991,-5.499999999987412e-05,0,sub_4
0.0105605999999997,0.0075064000000012,0.0036226,0.0015380000000003,-0.0069903999999991,-0.0008869999999998,0,sub_4
0.0089255999999997,0.0090958000000012,0.0038534,0.0055600000000003,-0.0097487999999991,-0.0019305999999998,0,sub_4
0.0070539999999997,0.0103254000000012,0.0031268,0.0091768000000003,-0.0133781999999991,-0.0031825999999998,0,sub_4
0.0047805999999997,0.0104268000000012,0.0015708,0.0115134000000004,-0.0165787999999991,-0.0040167999999998,0,sub_4
0.0035679999999997,0.0095456000000012,-0.0003375999999999,0.0125690000000004,-0.0176273999999991,-0.0046517999999998,0,sub_4
0.0031265999999997,0.0075054000000011,-0.0023209999999999,0.0108592000000004,-0.016112199999999,-0.0046683999999998,0,sub_4
0.0040117999999997,0.0053744000000011,-0.0039077999999999,0.0078798000000004,-0.012885599999999,-0.0053369999999998,0,sub_4
0.0056269999999997,0.0032264000000011,-0.0039461999999999,0.0038394000000004,-0.0077401999999991,-0.0053745999999998,0,sub_4
0.0072693999999997,0.0018742000000012,-0.0032673999999999,0.0004380000000004,-0.0019611999999991,-0.0045539999999998,0,sub_4
0.0078157999999997,0.0024130000000012,-0.0022765999999999,-0.0021051999999995,0.0029438000000008,-0.0035097999999998,0,sub_4
0.0077757999999997,0.0048236000000012,-0.0005251999999999,-0.0025203999999995,0.0065630000000008,-0.0024489999999998,0,sub_4
0.0064345999999997,0.0081916000000012,0.0013446,-0.0025175999999995,0.0088998000000008,-0.0007427999999998,0,sub_4
0.0036559999999997,0.0115962000000012,0.0020014,-0.0010427999999996,0.0093272000000008,0.0007678000000001,0,sub_4
0.0009401999999997,0.0145892000000012,0.0022428,0.0004348000000003,0.0101816000000008,0.0020644000000001,0,sub_4
-0.0018884000000002,0.0169568000000012,0.0016696,0.0014828000000003,0.0106106000000008,0.0035720000000001,0,sub_4
-0.0036306000000002,0.0176702000000012,0.0009532,0.0012440000000003,0.0097650000000008,0.0052860000000001,0,sub_4
-0.0039750000000002,0.0167448000000012,-0.0001471999999999,0.0012070000000003,0.0072108000000008,0.0078580000000001,0,sub_4
-0.0016488000000002,0.0147898000000012,-0.0003491999999999,0.0016096000000004,0.0042172000000008,0.0102148000000001,0,sub_4
0.0026877999999997,0.0110940000000012,-0.0004243999999999,0.0013704000000004,0.0001632000000009,0.0119274000000001,0,sub_4
0.0099709999999997,0.0046482000000012,0.0005048,0.0002902000000004,-0.002815799999999,0.0119238000000001,0,sub_4
0.0168439999999997,-0.0012713999999987,0.0015324,-0.0003527999999995,-0.004513799999999,0.0108532000000001,0,sub_4
0.0227955999999997,-0.0050321999999987,0.0032824,-0.0009903999999995,-0.004470399999999,0.0078680000000001,0,sub_4
0.0251205999999997,-0.0076147999999987,0.0048626,-0.0007743999999995,-0.004217799999999,0.0051022000000001,0,sub_4
0.0247911999999997,-0.0073683999999987,0.0062092,0.0002930000000003,-0.004606599999999,0.0021294000000001,0,sub_4
0.0204585999999997,-0.0023845999999987,0.0062172,0.0026290000000003,-0.007131999999999,-0.0004045999999998,0,sub_4
0.0125147999999997,0.0050084000000012,0.0053228,0.0038944000000003,-0.010293799999999,-0.0027315999999998,0,sub_4
0.0035619999999997,0.0116904000000012,0.003484,0.0045286000000003,-0.013059799999999,-0.0042191999999998,0,sub_4
-0.0058954000000002,0.0184400000000012,0.0002876,0.0045266000000003,-0.014334599999999,-0.0050721999999998,0,sub_4
-0.0134398000000002,0.0237510000000012,-0.0029867999999999,0.0045188000000003,-0.0147657999999991,-0.0037897999999998,0,sub_4
-0.0164308000000001,0.0252410000000012,-0.0056517999999999,0.0038810000000003,-0.0117825999999991,-0.0007947999999998,0,sub_4
-0.0136374000000001,0.0211014000000012,-0.0067365999999999,0.0038986000000003,-0.0051805999999991,0.0024140000000001,0,sub_4
-0.0090624000000001,0.0150938000000012,-0.0068253999999999,0.0039248000000003,0.0033388000000008,0.0056204,0,sub_4
0.0007545999999998,0.0070144000000012,-0.0043015999999999,0.0028956000000003,0.0129332000000008,0.0073224,0,sub_4
0.0118657999999998,-0.0001867999999987,-0.0010889999999999,0.0005958000000004,0.0227528000000008,0.0070924,0,sub_4
0.0199465999999997,-0.0043301999999987,0.003805,-0.0008671999999995,0.0280902000000008,0.00558,0,sub_4
0.0233905999999997,-0.0037001999999987,0.0082152,-0.0008661999999995,0.0266058000000008,0.0038726,0,sub_4
0.0237407999999997,-0.0013781999999987,0.0113674,0.0014490000000004,0.0196022000000008,0.0019884,0,sub_4
0.0192245999999997,0.0042476000000012,0.012206,0.0045956000000004,0.0087564000000009,0.0011834,0,sub_4
0.0116787999999997,0.0109332000000012,0.0111038,0.0083738000000003,-0.003584599999999,0.000812,0,sub_4
0.0042143999999997,0.0152228000000012,0.0070452,0.0110926000000003,-0.013792999999999,0.0008576000000001,0,sub_4
-0.0011262000000002,0.0164722000000012,0.002522,0.0121188000000004,-0.019950999999999,0.0017410000000001,0,sub_4
-0.0037196000000002,0.0157540000000012,-0.0012989999999999,0.0101860000000004,-0.021228399999999,0.0032248000000001,0,sub_4
-0.0018710000000002,0.0119500000000012,-0.0040863999999999,0.0067874000000004,-0.0175953999999991,0.0034100000000001,0,sub_4
0.0021107999999997,0.0064154000000012,-0.0051055999999999,0.0029764000000004,-0.0111895999999991,0.0031616000000001,0,sub_4
0.0064381999999997,0.0021218000000012,-0.0039079999999999,2.560000000042181e-05,-0.0039319999999991,0.0022772000000001,0,sub_4
0.0098775999999997,0.0003776000000012,-0.0020843999999999,-0.0014393999999995,0.0026964000000008,0.0007746000000001,0,sub_4
0.0118769999999997,0.0014546000000012,0.000598,-0.0018461999999995,0.0069792000000008,-0.0011447999999998,0,sub_4
0.0099613999999997,0.0054868000000012,0.0031912,-0.0014215999999995,0.0076320000000008,-0.0017717999999998,0,sub_4
0.0067351999999997,0.0099320000000012,0.0053356,-0.0003711999999995,0.0052990000000009,-0.0021769999999998,0,sub_4
0.0032239999999997,0.0142642000000012,0.0061618,0.0013098000000004,0.0016820000000009,-0.0017215999999998,0,sub_4
0.0006053999999997,0.0163438000000012,0.0057836,0.0015040000000004,-0.001730999999999,-0.0008611999999998,0,sub_4
1.5199999999785696e-05,0.0148310000000012,0.0037004,0.0008446000000004,-0.004292199999999,0.0008466,0,sub_4
0.0032763999999997,0.0099650000000012,0.0021246,-0.0006631999999995,-0.004925599999999,0.0018954,0,sub_4
0.0070645999999997,0.0051396000000012,0.0007882,-0.0030073999999995,-0.0021455999999991,0.0025068,0,sub_4
0.0118861999999997,0.0002750000000012,0.0004434,-0.0055591999999995,0.0012770000000008,0.002475,0,sub_4
0.0160373999999997,-0.0026285999999987,0.0013252,-0.0059819999999995,0.0029902000000008,0.0018194,0,sub_4
0.0180075999999997,-0.0020267999999987,0.0031328,-0.0049129999999995,0.0032110000000008,0.0001078000000001,0,sub_4
0.0154941999999997,0.0022892000000012,0.0050214,-0.0017153999999995,0.0012874000000008,-0.0011491999999998,0,sub_4
0.0115299999999997,0.0071480000000012,0.0060684,0.0021100000000004,-0.0027713999999991,-0.0017581999999998,0,sub_4
0.0063911999999997,0.0123570000000012,0.0064478,0.0055078000000004,-0.007041999999999,-0.0023699999999998,0,sub_4
0.0016793999999998,0.0161340000000012,0.0056318,0.0071922000000004,-0.009369999999999,-0.0021489999999998,0,sub_4
-0.0012458000000001,0.0167422000000012,0.0041018,0.0078116000000004,-0.010207199999999,-0.0008689999999998,0,sub_4
-0.0012248000000001,0.0148246000000012,0.0012602,0.0063060000000004,-0.009331599999999,0.0001804000000001,0,sub_4
0.0008545999999998,0.0114434000000012,9.10000000000703e-05,0.0043814000000004,-0.006749999999999,0.0012246000000001,0,sub_4
0.0035637999999998,0.0069848000000012,-0.0005271999999999,0.0016060000000004,-0.0033141999999991,0.0024754,0,sub_4
0.0067891999999997,0.0033214000000012,-0.0007863999999999,-0.0005191999999995,-0.0003281999999991,0.003525,0,sub_4
0.0100951999999997,0.0020362000000012,0.0005994,-0.0020041999999995,0.0015946000000008,0.0035122,0,sub_4
0.0117965999999997,0.0021702000000012,0.0032116,-0.0024269999999995,0.0020238000000009,0.0030814,0,sub_4
0.0120677999999997,0.0032922000000012,0.0050236,-0.0017869999999995,0.0009604000000009,0.002019,0,sub_4
0.0114175999999997,0.0055898000000012,0.0065848,-0.0005207999999995,-0.000539599999999,0.0007350000000001,0,sub_4
0.0099521999999997,0.0085886000000012,0.0074814,0.0007444000000004,-0.002464999999999,-0.0007621999999998,0,sub_4
0.0075209999999997,0.0110238000000012,0.007311,0.0017954000000004,-0.004178399999999,-0.0018337999999998,0,sub_4
0.0055555999999997,0.0118146000000012,0.006046,0.0026348000000004,-0.004828199999999,-0.0022673999999998,0,sub_4
