userAcceleration.x,userAcceleration.y,userAcceleration.z,rotationRate.x,rotationRate.y,rotationRate.z,label,subject
0.0206457999999997,0.0536462000000012,-0.1587107999999999,0.0390852000000004,0.1744054000000009,0.0641852,0,sub_15
0.0773581999999997,-0.0251659999999987,-0.0104077999999999,-0.0408855999999995,-0.033504399999999,0.17862,0,sub_15
0.0926197999999998,-0.0909397999999988,0.0831108,-0.1452911999999995,-0.121620999999999,0.2470108,0,sub_15
0.0705421999999998,-0.1447013999999988,0.114021,-0.2974633999999995,-0.215274599999999,0.3028974,0,sub_15
0.0602159999999997,-0.1832789999999987,0.1158716,-0.4518575999999996,-0.236031399999999,0.3556802,0,sub_15
0.0517773999999997,-0.1915651999999987,0.095321,-0.5877603999999995,-0.190541599999999,0.3959022,0,sub_15
0.0379287999999998,-0.1805327999999987,0.040919,-0.6899843999999996,-0.124850599999999,0.4166782,0,sub_15
0.0196259999999998,-0.1485413999999987,-0.0015353999999999,-0.7562103999999996,-0.136984199999999,0.4211410000000001,0,sub_15
0.0031231999999998,-0.1001781999999988,-0.0388487999999999,-0.7410533999999995,-0.080614199999999,0.380151,0,sub_15
-0.0032558000000001,-0.0437655999999988,-0.0725187999999999,-0.6927195999999995,0.0225928000000009,0.316263,0,sub_15
-0.0113794000000001,0.0154362000000011,-0.0870287999999999,-0.6039879999999995,0.0763004000000009,0.2349882,0,sub_15
-0.0258012000000001,0.0876760000000012,-0.0811229999999999,-0.4454691999999994,0.0394232000000009,0.1555988,0,sub_15
-0.0417924000000001,0.1383374000000012,-0.0722079999999999,-0.2464295999999994,0.0028108000000009,0.081406,0,sub_15
-0.0480326000000001,0.1558060000000011,-0.0433155999999999,-0.0556447999999995,-0.052789399999999,0.020853,0,sub_15
-0.0565252000000001,0.1405790000000012,-0.0202691999999999,0.1202972000000004,-0.128179199999999,-0.0329415999999999,0,sub_15
-0.0511442000000001,0.1046326000000012,-0.0013823999999999,0.2538310000000005,-0.191702799999999,-0.0870477999999999,0,sub_15
-0.0362322000000002,0.0579476000000012,0.0212592,0.3059338000000004,-0.195690799999999,-0.1471399999999999,0,sub_15
-0.0144022000000002,0.0240412000000012,0.037568,0.2873224000000004,-0.167277199999999,-0.2034949999999999,0,sub_15
0.0072343999999997,0.0022870000000012,0.039663,0.2230166000000004,-0.128335199999999,-0.2424499999999999,0,sub_15
0.0252369999999997,-0.0074025999999987,0.031678,0.1370280000000004,-0.100469999999999,-0.2631689999999999,0,sub_15
0.0337281999999997,-0.0168647999999987,0.0248554,0.0569178000000004,-0.076530399999999,-0.2663229999999999,0,sub_15
0.0331469999999998,-0.0270285999999987,0.0131002,-0.0208817999999995,-0.034169999999999,-0.2427789999999999,0,sub_15
0.0193147999999998,-0.0538931999999987,0.005164,-0.0989233999999995,0.0151680000000009,-0.2057857999999999,0,sub_15
0.0053925999999998,-0.0757589999999987,-0.0021597999999999,-0.1789313999999995,0.0653208000000009,-0.1576979999999999,0,sub_15
-0.0255288000000002,-0.0767205999999987,-0.0053893999999999,-0.2332463999999995,0.1436850000000009,-0.1007073999999999,0,sub_15
-0.0545182000000001,-0.0286463999999987,0.0029236,-0.2504987999999994,0.2057352000000008,-0.0453597999999999,0,sub_15
-0.0624106000000001,-0.0094129999999987,-0.0097029999999999,-0.2271561999999995,0.2129660000000008,-0.0090999999999999,0,sub_15
-0.0524966000000002,0.0253164000000012,-0.0234123999999999,-0.1842831999999995,0.2068832000000008,0.0362862,0,sub_15
-0.0259412000000002,0.0633704000000011,-0.0259479999999999,-0.1098789999999995,0.1906738000000009,0.0825464,0,sub_15
0.0125323999999998,0.0786304000000011,-0.0165365999999999,-0.0570101999999995,0.1737048000000009,0.1243844,0,sub_15
0.0444807999999997,0.0562378000000011,-0.0232387999999999,-0.0335799999999995,0.1449612000000009,0.1525724,0,sub_15
0.0576615999999997,0.0561722000000011,-0.0156081999999999,-0.0168155999999995,0.1414252000000009,0.1697856,0,sub_15
0.0676867999999997,0.0477320000000011,-0.0053355999999999,0.0103134000000004,0.1388114000000009,0.160578,0,sub_15
0.0638347999999997,0.0322766000000011,-0.0045747999999999,0.0140818000000004,0.1391362000000009,0.129412,0,sub_15
0.0691821999999997,0.0230354000000011,-0.0079379999999999,0.0257018000000004,0.1156286000000009,0.084017,0,sub_15
0.0651541999999997,0.0261106000000012,-0.0115627999999999,0.0441526000000004,0.0946462000000009,0.0405892,0,sub_15
0.0538251999999998,0.0372070000000012,-0.0099125999999999,0.0531582000000004,0.0795880000000009,0.015675,0,sub_15
0.0226397999999998,0.0432668000000012,-0.0108701999999999,0.0619972000000004,0.0431612000000009,0.0065968,0,sub_15
-0.0127238000000001,0.0469946000000012,-0.0120523999999999,0.0907866000000004,-0.011891599999999,0.0028092,0,sub_15
-0.0509640000000001,0.0458872000000011,-0.0139059999999999,0.1342882000000004,-0.067217599999999,0.0012612,0,sub_15
-0.0678692000000001,0.0321182000000011,-0.0140657999999999,0.1795188000000004,-0.108524599999999,0.008894,0,sub_15
-0.0732010000000002,0.0107114000000011,-0.0106675999999999,0.2196938000000004,-0.143601999999999,0.0081512,0,sub_15
-0.0661536000000002,0.0025474000000012,-0.0037717999999999,0.2484788000000004,-0.155815999999999,0.0006766,0,sub_15
-0.0527546000000001,-0.0061781999999987,0.006593,0.2551404000000005,-0.163224399999999,-0.0172135999999999,0,sub_15
-0.0317368000000001,-0.0161489999999987,0.019003,0.2338800000000004,-0.163718199999999,-0.0350939999999999,0,sub_15
-0.0169610000000001,-0.0234473999999987,0.031782,0.1817926000000004,-0.135993799999999,-0.0500211999999999,0,sub_15
-0.0053742000000001,-0.0227739999999987,0.0394602,0.1047474000000004,-0.097353999999999,-0.0557361999999999,0,sub_15
0.0070335999999998,-0.0214317999999987,0.040185,0.0159446000000004,-0.059116999999999,-0.0570463999999999,0,sub_15
0.0145505999999998,-0.0157043999999987,0.0382724,-0.0657603999999995,-0.000483199999999,-0.0504283999999999,0,sub_15
0.0173155999999998,-0.0049115999999987,0.0309526,-0.1260399999999995,0.0768282000000009,-0.0445391999999999,0,sub_15
0.0182635999999998,0.0052432000000012,0.0098842,-0.1609327999999995,0.1523490000000009,-0.0391111999999999,0,sub_15
0.0190195999999998,0.0146722000000012,-0.0066511999999999,-0.1624599999999995,0.2454368000000009,-0.0334727999999999,0,sub_15
0.0225643999999998,0.0228086000000012,-0.0172047999999999,-0.1309269999999995,0.3358514000000009,-0.0273863999999999,0,sub_15
0.0262963999999997,0.0274438000000012,-0.0301437999999999,-0.0730441999999995,0.4114356000000009,-0.0116963999999999,0,sub_15
0.0253173999999997,0.0272570000000012,-0.0412353999999999,-0.0136777999999995,0.4522264000000008,0.0190036,0,sub_15
0.0249213999999997,0.0257136000000012,-0.0369277999999999,0.0434014000000004,0.4638168000000008,0.0546386,0,sub_15
0.0220235999999997,0.0233580000000012,-0.0339613999999999,0.0879760000000004,0.4481864000000009,0.0910732,0,sub_15
0.0139149999999997,0.0214908000000012,-0.0301433999999999,0.1115502000000004,0.4128142000000008,0.1276,0,sub_15
0.0034129999999998,0.0238928000000012,-0.0212895999999999,0.1086212000000004,0.3626404000000008,0.1590468,0,sub_15
-0.0071178000000001,0.0285052000000012,-0.0156599999999999,0.0931358000000004,0.3089322000000009,0.1795144,0,sub_15
-0.0176672000000002,0.0339568000000012,-0.0066915999999999,0.0664078000000004,0.2585054000000009,0.1883628,0,sub_15
-0.0250704000000001,0.0376764000000012,-0.0014931999999999,0.0366978000000004,0.1964104000000009,0.1848164,0,sub_15
-0.0274232000000001,0.0387826000000012,0.000313,0.0143066000000004,0.1388036000000009,0.171488,0,sub_15
-0.0276034000000002,0.0382608000000012,-0.0011559999999999,-0.0011751999999995,0.0935528000000009,0.1524234,0,sub_15
-0.0269172000000001,0.0336460000000012,0.001687,-0.0110411999999995,0.0591654000000009,0.1291114,0,sub_15
-0.0258262000000001,0.0268274000000012,0.0001644,-0.0110585999999995,0.0279566000000009,0.101591,0,sub_15
-0.0244022000000001,0.0197444000000012,0.0011284,-0.0071631999999995,0.0112280000000009,0.072584,0,sub_15
-0.0211540000000001,0.0133130000000012,0.006328,-0.0081349999999995,0.0030402000000009,0.0431048,0,sub_15
-0.0181570000000001,0.0091870000000012,0.0107462,-0.0178301999999995,0.0008468000000009,0.0139842,0,sub_15
-0.0145436000000001,0.0086636000000012,0.0119878,-0.0332979999999995,-0.003246399999999,-0.0145331999999999,0,sub_15
-0.0111296000000001,0.0113852000000012,0.0095494,-0.0481303999999995,-0.005860799999999,-0.0404843999999999,0,sub_15
-0.0088754000000001,0.0161758000000011,0.0056566,-0.0576745999999995,-0.014264199999999,-0.0619045999999999,0,sub_15
-0.0094406000000001,0.0251668000000011,-3.659999999991379e-05,-0.0578487999999995,-0.020594599999999,-0.0770665999999999,0,sub_15
-0.0104900000000001,0.0329528000000011,-0.0031177999999999,-0.0452425999999995,-0.025715999999999,-0.0859449999999999,0,sub_15
-0.0126700000000001,0.0404468000000011,-0.0059873999999999,-0.0236977999999995,-0.031950399999999,-0.0907003999999999,0,sub_15
-0.0139626000000001,0.0459972000000011,-0.0056429999999999,0.0018772000000004,-0.042464199999999,-0.0943537999999999,0,sub_15
-0.0092838000000001,0.0459624000000011,-0.0054711999999999,0.0247252000000004,-0.041891999999999,-0.0973995999999999,0,sub_15
-0.0060142000000001,0.0417472000000011,-0.0060305999999999,0.0456368000000004,-0.043661799999999,-0.0991739999999999,0,sub_15
-0.0035314000000001,0.0334344000000011,-0.0061823999999999,0.0639754000000004,-0.051375399999999,-0.1041633999999999,0,sub_15
0.0011365999999998,0.0220068000000011,-0.0071975999999999,0.0757148000000004,-0.053534999999999,-0.1070695999999999,0,sub_15
0.0054305999999998,0.0107450000000011,-0.0088181999999999,0.0795430000000004,-0.054408199999999,-0.1051189999999999,0,sub_15
0.0047087999999998,0.0025324000000012,-0.0047171999999999,0.0773824000000004,-0.054848999999999,-0.0995787999999999,0,sub_15
0.0057765999999998,-0.0053739999999987,-0.0004939999999999,0.0677902000000004,-0.045257799999999,-0.0921805999999999,0,sub_15
0.0074557999999998,-0.0077941999999987,4.620000000004577e-05,0.0473034000000004,-0.033517799999999,-0.0799473999999999,0,sub_15
0.0094381999999998,-0.0062557999999987,0.0013508,0.0265938000000004,-0.020724399999999,-0.0645123999999999,0,sub_15
0.0106993999999998,-0.0043271999999987,0.0017306,0.0093268000000004,-0.001127199999999,-0.0486347999999999,0,sub_15
0.0112567999999998,0.0037770000000012,-0.0027233999999999,0.0010120000000004,0.0163082000000009,-0.0326919999999999,0,sub_15
0.0092053999999998,0.0120466000000012,-0.0091783999999999,0.0003048000000004,0.0175240000000009,-0.0164613999999999,0,sub_15
0.0077519999999998,0.0195050000000012,-0.0117331999999999,0.0096032000000004,0.0135916000000009,-0.0001543999999999,0,sub_15
0.0048481999999998,0.0265238000000012,-0.0141511999999999,0.0208006000000004,0.0047530000000009,0.0159584,0,sub_15
0.0013445999999998,0.0336062000000012,-0.0141847999999999,0.0319838000000004,-0.006856999999999,0.032502,0,sub_15
-0.0037768000000001,0.0349512000000012,-0.0129853999999999,0.0459408000000004,-0.022296199999999,0.0452244,0,sub_15
-0.0076476000000001,0.0330474000000012,-0.0100201999999999,0.0556446000000004,-0.037495599999999,0.0549256,0,sub_15
-0.0092668000000001,0.0278354000000012,-0.0065245999999999,0.0566260000000004,-0.049882799999999,0.0615712,0,sub_15
-0.0132624000000001,0.0214080000000012,-0.0090707999999999,0.0505338000000004,-0.072884399999999,0.0647628,0,sub_15
-0.0171894000000001,0.0164282000000012,-0.0143135999999999,0.0405394000000004,-0.113964199999999,0.0634638,0,sub_15
-0.0192990000000001,0.0139074000000012,-0.0192139999999999,0.0124980000000004,-0.183101799999999,0.0614336,0,sub_15
-0.0194084000000001,0.0188246000000012,-0.0227875999999999,-0.0155203999999995,-0.250309199999999,0.0561966,0,sub_15
-0.0193696000000001,0.0277328000000012,-0.0228141999999999,-0.0264947999999995,-0.326299399999999,0.0480988,0,sub_15
-0.0122698000000001,0.0365092000000012,-0.0168505999999999,-0.0107895999999995,-0.363352599999999,0.0298826,0,sub_15
-0.0066930000000001,0.0426344000000012,-0.0137997999999998,0.0226926000000004,-0.388524599999999,0.0087842,0,sub_15
-0.0043940000000001,0.0408642000000012,-0.0067843999999999,0.0749828000000004,-0.359645199999999,-0.0124655999999999,0,sub_15
-0.0012482000000001,0.0312468000000012,0.0049822,0.1268242000000004,-0.332693799999999,-0.0307251999999999,0,sub_15
-0.0001260000000001,0.0201982000000012,0.0079942,0.1599262000000004,-0.286969999999999,-0.0386709999999999,0,sub_15
-0.0039546000000001,0.0109944000000012,0.0148274,0.1716016000000004,-0.250587599999999,-0.0362859999999999,0,sub_15
-0.0119748000000001,0.0008396000000012,0.0194446,0.1687468000000004,-0.210777999999999,-0.0258883999999999,0,sub_15
-0.0170380000000002,-0.0037105999999987,0.0175436,0.1561460000000004,-0.200123599999999,-0.0131737999999999,0,sub_15
-0.0200222000000001,-0.0111999999999987,0.0142902,0.1404194000000004,-0.176022799999999,-0.0037027999999999,0,sub_15
-0.0205258000000001,-0.0197553999999987,0.0124902,0.1283574000000004,-0.158267399999999,-0.0089395999999999,0,sub_15
-0.0154084000000001,-0.0253777999999987,0.0076596,0.1139158000000004,-0.156659999999999,-0.0231455999999999,0,sub_15
0.0010447999999998,-0.0241489999999987,0.0082924,0.0931506000000004,-0.144351199999999,-0.0440321999999999,0,sub_15
0.0177919999999998,-0.0177765999999987,0.0093838,0.0670850000000004,-0.128397199999999,-0.0683765999999999,0,sub_15
0.0289691999999997,-0.0034759999999987,0.0083702,0.0433540000000004,-0.120101599999999,-0.0976087999999999,0,sub_15
0.0356493999999997,0.0118600000000012,0.0072312,0.0246914000000004,-0.121632199999999,-0.1248701999999999,0,sub_15
0.0357209999999997,0.0243724000000012,0.0050868,0.0156354000000004,-0.113430799999999,-0.1433173999999999,0,sub_15
0.0290469999999997,0.0276552000000012,0.001213,0.0175006000000004,-0.092288399999999,-0.1574319999999999,0,sub_15
0.0224823999999997,0.0274360000000012,-0.0003887999999999,0.0363364000000004,-0.040758599999999,-0.1663393999999999,0,sub_15
0.0142277999999998,0.0285722000000012,-0.0051597999999999,0.0728494000000004,0.0168340000000009,-0.1616715999999999,0,sub_15
0.0052517999999998,0.0095068000000012,-0.0004787999999999,0.1119382000000004,0.0774022000000009,-0.1574167999999999,0,sub_15
0.0018825999999998,-0.0095819999999987,0.0039508,0.1265964000000004,0.1578862000000009,-0.1574173999999999,0,sub_15
0.0137597999999998,-0.0310095999999987,0.0005062,0.1304270000000004,0.2244730000000009,-0.1358979999999999,0,sub_15
0.0251257999999998,-0.0612903999999987,-0.0119687999999999,0.1362034000000004,0.2575698000000009,-0.1059897999999999,0,sub_15
0.0119713999999998,-0.0902201999999987,-0.0622741999999999,0.1493128000000004,0.2606000000000009,-0.0759917999999999,0,sub_15
-0.0088932000000001,-0.0917721999999987,-0.1545457999999999,0.3048092000000004,0.1902178000000009,-0.0857113999999999,0,sub_15
-0.0192916000000001,-0.1107203999999987,-0.1502845999999999,0.6656654000000005,0.0562012000000009,-0.1308753999999999,0,sub_15
-0.0500806000000001,-0.1244691999999988,-0.1132517999999999,0.7694108000000004,0.0446118000000009,-0.1995701999999999,0,sub_15
-0.0691966000000001,-0.1042459999999988,-0.1176943999999999,0.6543778000000005,-0.148258199999999,-0.2458465999999999,0,sub_15
-0.0582534000000001,-0.0625081999999987,-0.1092905999999999,0.5681966000000005,-0.356656199999999,-0.2701097999999999,0,sub_15
-0.0208090000000001,-0.0327993999999988,-0.0155379999999999,0.3285890000000004,-0.345793199999999,-0.1683933999999999,0,sub_15
-0.0249840000000001,0.0011816000000012,-0.0382191999999999,-0.1754683999999995,-0.3815679999999991,-0.0026621999999999,0,sub_15
-0.0104944000000001,0.0513198000000012,-0.0642475999999999,-0.4212625999999996,-0.5511779999999991,0.1082152,0,sub_15
0.0007305999999998,0.0829452000000012,-0.0280081999999999,-0.4711117999999995,-0.500194599999999,0.188773,0,sub_15
0.0151917999999998,0.0885710000000012,0.037183,-0.5652421999999995,-0.389572799999999,0.25869,0,sub_15
0.0061951999999998,0.0953280000000011,0.0512248,-0.6379729999999996,-0.423222799999999,0.2652752,0,sub_15
0.0256049999999998,0.1099622000000011,0.091965,-0.6190557999999996,-0.368649799999999,0.2411956,0,sub_15
0.0423995999999997,0.1126036000000011,0.1166828,-0.5727927999999995,-0.302873599999999,0.268781,0,sub_15
0.0377591999999997,0.1036200000000011,0.1408928,-0.4939729999999995,-0.269545199999999,0.2840302,0,sub_15
0.0257325999999997,0.0947572000000011,0.1687514,-0.4073701999999995,-0.242731399999999,0.270073,0,sub_15
0.0218361999999997,0.0849204000000012,0.2004312,-0.3151875999999995,-0.200651999999999,0.216611,0,sub_15
0.0192287999999997,0.0814104000000012,0.2185494,-0.2158371999999995,-0.141508599999999,0.1520676,0,sub_15
0.0117149999999998,0.0731764000000012,0.2329076,-0.1233881999999995,-0.078396599999999,0.0601244,0,sub_15
0.0177305999999998,0.0697514000000012,0.2307086,-0.0342445999999995,-0.013478799999999,-0.0542767999999999,0,sub_15
0.0281961999999998,0.0687028000000012,0.2174562,0.0523806000000004,0.0470292000000009,-0.1825767999999999,0,sub_15
0.0391087999999997,0.0731604000000012,0.1975594,0.1359956000000004,0.1128324000000009,-0.3004359999999999,0,sub_15
0.0443397999999997,0.0845760000000011,0.182537,0.2161812000000004,0.1841510000000009,-0.4093532,0,sub_15
0.0328785999999997,0.1133122000000012,0.1566178,0.2904256000000004,0.2504490000000009,-0.4830541999999999,0,sub_15
0.0193929999999997,0.1376492000000012,0.1141698,0.3631466000000004,0.3409166000000009,-0.5258182,0,sub_15
0.0055365999999997,0.1604718000000011,0.0695402,0.4223878000000004,0.470655000000001,-0.5208704,0,sub_15
-0.0056370000000001,0.1804768000000011,0.015261,0.4415778000000004,0.627773000000001,-0.4551351999999999,0,sub_15
-0.0318976000000001,0.1693280000000012,-0.0940561999999999,0.4269884000000005,0.7669344000000009,-0.3451747999999999,0,sub_15
-0.0589996000000001,0.1228910000000012,-0.2141993999999999,0.4295140000000004,0.833547200000001,-0.2226105999999999,0,sub_15
-0.0475724000000001,0.0908086000000012,-0.2836615999999999,0.4057348000000004,0.7897074000000011,-0.0547961999999999,0,sub_15
-0.0245750000000001,0.0668554000000012,-0.3061807999999999,0.3239880000000005,0.644129400000001,0.1377402,0,sub_15
-0.0184598000000001,0.0280638000000012,-0.2926471999999999,0.2383152000000004,0.428674800000001,0.2790640000000001,0,sub_15
0.0059665999999998,0.0018274000000012,-0.2143991999999999,0.1569128000000004,0.163552800000001,0.3698476,0,sub_15
0.0488049999999998,-0.0294127999999987,-0.1004721999999999,0.0224444000000004,-0.072489399999999,0.427322,0,sub_15
0.0448733999999998,-0.0743085999999988,-0.0169269999999999,-0.1203643999999995,-0.2381337999999989,0.4164956,0,sub_15
0.0291917999999998,-0.1158219999999988,0.033817,-0.2327919999999995,-0.3505923999999989,0.3455654,0,sub_15
0.0308931999999998,-0.1347713999999988,0.0605472,-0.3088731999999995,-0.413256599999999,0.2605086,0,sub_15
0.0231723999999998,-0.1346635999999988,0.0605696,-0.3840689999999995,-0.420320399999999,0.176455,0,sub_15
0.0079021999999998,-0.1070861999999988,0.036727,-0.4276277999999995,-0.360197199999999,0.0995866,0,sub_15
-0.0011222000000001,-0.0722601999999987,0.0131184,-0.4488589999999995,-0.301493799999999,0.0386856,0,sub_15
-0.0163356000000001,-0.0357085999999987,-0.0159685999999999,-0.4240141999999995,-0.237657399999999,-0.0137817999999999,0,sub_15
-0.0339226000000001,0.0006652000000012,-0.0372523999999999,-0.3820375999999995,-0.198429799999999,-0.0564813999999999,0,sub_15
-0.0436130000000001,0.0277962000000012,-0.0386869999999999,-0.3066187999999995,-0.167858399999999,-0.0946633999999999,0,sub_15
-0.0498714000000001,0.0532334000000012,-0.0267417999999999,-0.2275779999999995,-0.1735687999999989,-0.1203821999999999,0,sub_15
-0.0529672000000001,0.0732876000000012,-0.0069929999999999,-0.1490165999999995,-0.1712609999999989,-0.1262457999999999,0,sub_15
-0.0527640000000001,0.0799466000000012,0.0084826,-0.0933819999999995,-0.1732025999999989,-0.1151723999999999,0,sub_15
-0.0519654000000001,0.0757262000000012,0.0141116,-0.0560407999999995,-0.1574171999999989,-0.0991219999999999,0,sub_15
-0.0477812000000001,0.0659532000000011,0.0138366,-0.0304505999999995,-0.144150799999999,-0.0822959999999999,0,sub_15
-0.0389076000000001,0.0537578000000011,0.0150106,-0.0075017999999995,-0.113144399999999,-0.0772615999999999,0,sub_15
-0.0141544000000001,0.0372078000000011,0.0162282,0.0008260000000004,-0.070749599999999,-0.0836671999999999,0,sub_15
0.0175499999999997,0.0193622000000011,0.0205184,-0.0042455999999995,-0.027845199999999,-0.0993535999999999,0,sub_15
0.0530991999999997,0.0047482000000011,0.0219,-0.0364825999999995,0.0008770000000009,-0.1145707999999999,0,sub_15
0.0860645999999997,-0.0051551999999987,0.0255168,-0.0924277999999995,0.0285996000000009,-0.1256793999999999,0,sub_15
0.1037787999999997,0.0013928000000012,0.017494,-0.1598005999999995,0.0511632000000009,-0.1154967999999999,0,sub_15
0.0988409999999997,0.0165144000000012,0.0008676000000001,-0.2110637999999995,0.0640264000000009,-0.0910885999999999,0,sub_15
0.0803819999999997,0.0318988000000012,-0.0186195999999998,-0.2283813999999995,0.0833664000000009,-0.0641015999999999,0,sub_15
0.0487529999999997,0.0504936000000012,-0.0331993999999998,-0.1930333999999995,0.0946374000000009,-0.0363089999999999,0,sub_15
0.0172107999999997,0.0516186000000012,-0.0507337999999998,-0.1302343999999995,0.0964098000000009,-0.0012621999999999,0,sub_15
-0.0090318000000001,0.0411018000000012,-0.0438495999999998,-0.0492967999999995,0.0889958000000009,0.024309,0,sub_15
-0.0276700000000001,0.0308298000000012,-0.0288191999999999,0.0302288000000004,0.0850550000000009,0.0351246,0,sub_15
-0.0415560000000001,0.0201302000000012,-0.0119769999999999,0.0841678000000004,0.0861004000000009,0.0466096,0,sub_15
-0.0473038000000001,0.0071972000000012,0.0054094,0.1046314000000004,0.0936502000000009,0.0589206,0,sub_15
-0.0499128000000001,0.0127110000000012,0.0273302,0.1074600000000004,0.1127872000000009,0.065966,0,sub_15
-0.0479820000000001,0.0172920000000012,0.0300402,0.0911924000000004,0.1507604000000009,0.0677266,0,sub_15
-0.0442750000000001,0.0189570000000012,0.0251556,0.0673010000000004,0.1985726000000009,0.0664302,0,sub_15
-0.0384428000000001,0.0230568000000012,0.018027,0.0511072000000004,0.2410676000000009,0.0562214,0,sub_15
-0.0286780000000001,0.0267600000000012,0.0068322,0.0377438000000004,0.2895448000000009,0.0394018,0,sub_15
-0.0196958000000001,0.0303466000000012,-0.0019855999999999,0.0333170000000004,0.3305416000000009,0.0207314,0,sub_15
-0.0090598000000001,0.0312982000000012,-0.0094681999999999,0.0426444000000004,0.3446504000000009,0.0009096,0,sub_15
-0.0006416000000002,0.0307612000000011,-0.0151055999999999,0.0582944000000004,0.3395688000000009,-0.0205525999999999,0,sub_15
0.0112443999999997,0.0280786000000011,-0.0176029999999999,0.0700232000000004,0.3248800000000009,-0.0336977999999999,0,sub_15
0.0152129999999997,0.0243368000000011,-0.0155275999999999,0.0818348000000004,0.292037600000001,-0.0359233999999999,0,sub_15
0.0152553999999997,0.0209772000000011,-0.0114775999999999,0.0874770000000004,0.262415800000001,-0.0390507999999999,0,sub_15
0.0158403999999997,0.0163088000000012,-0.0098675999999999,0.0864942000000004,0.2366274000000009,-0.0360335999999999,0,sub_15
0.0138287999999997,0.0137790000000012,-0.0093757999999999,0.0870048000000004,0.2135926000000009,-0.0302321999999999,0,sub_15
0.0110567999999997,0.0132672000000011,-0.0070287999999999,0.0873462000000004,0.1927196000000009,-0.0321259999999999,0,sub_15
0.0080131999999997,0.0181432000000011,-0.0051825999999999,0.0830856000000004,0.1904062000000009,-0.0359983999999999,0,sub_15
0.0066179999999997,0.0212658000000011,-0.0044683999999999,0.0753840000000004,0.1885054000000009,-0.0334859999999999,0,sub_15
