userAcceleration.x,userAcceleration.y,userAcceleration.z,rotationRate.x,rotationRate.y,rotationRate.z,label,subject
0.0070263999999998,-0.0166225999999987,0.0035556,-8.139999999967054e-05,0.0005768000000008,0.0029842000000001,0,sub_14
0.0069597999999998,-0.0158991999999987,0.0037344,-7.959999999965052e-05,0.0005908000000008,0.0023346000000001,0,sub_14
0.0067275999999998,-0.0165319999999987,0.0038372,-0.0005025999999996,0.0006078000000008,0.0012548000000001,0,sub_14
0.0063679999999998,-0.0170467999999987,0.0033368,-0.0005007999999996,0.0003972000000008,0.0006142000000001,0,sub_14
0.0063103999999998,-0.0166089999999987,0.0036262,0.0005670000000003,-2.999999999911051e-05,-1.8599999999836954e-05,0,sub_14
0.0060613999999998,-0.0167919999999987,0.003147,0.0014214000000003,-0.0004565999999991,-0.0006529999999998,0,sub_14
0.0059449999999998,-0.0166621999999987,0.0035088,0.0012054000000003,-0.0002291999999991,-0.0006701999999998,0,sub_14
0.0059777999999998,-0.0156847999999987,0.0037506,0.0012036000000003,-0.0002137999999991,-0.0011127999999998,0,sub_14
0.0064261999999998,-0.0153035999999987,0.0041158,0.0007742000000003,-0.0004099999999991,-0.0015581999999998,0,sub_14
0.0067909999999998,-0.0155339999999987,0.004152,-0.0007181999999996,0.0002498000000008,-0.0020121999999998,0,sub_14
0.0069473999999998,-0.0154871999999987,0.0040126,-0.0015743999999996,0.0002672000000008,-0.0022471999999998,0,sub_14
0.0069059999999998,-0.0156497999999987,0.0035782,-0.0024279999999996,5.800000000088952e-05,-0.0024665999999998,0,sub_14
0.0071613999999998,-0.0161045999999987,0.0038824,-0.0028557999999996,5.8600000000889535e-05,-0.0022559999999998,0,sub_14
0.0074161999999998,-0.0159907999999987,0.0040506,-0.0035001999999996,0.0002886000000008,-0.0024971999999998,0,sub_14
0.0071327999999998,-0.0164909999999987,0.0038556,-0.0037217999999996,8.900000000088952e-05,-0.0023073999999998,0,sub_14
0.0073697999999998,-0.0171403999999987,0.0038332,-0.0039365999999996,0.0005322000000008,-0.0029729999999998,0,sub_14
0.0075537999999998,-0.0178943999999987,0.0041956,-0.0030863999999996,0.0005454000000008,-0.0036305999999998,0,sub_14
0.0068401999999998,-0.0174801999999987,0.0036642,-0.0024485999999996,0.0007724000000008,-0.0042899999999998,0,sub_14
0.0070041999999998,-0.0176253999999986,0.0029976,-0.0015923999999996,0.0007720000000008,-0.0049247999999998,0,sub_14
0.0069935999999998,-0.0167863999999986,0.0030022,-0.0007359999999995,0.0009838000000008,-0.0053463999999998,0,sub_14
0.0069757999999998,-0.0161503999999986,0.0038984,-0.0007379999999995,0.0009822000000008,-0.0049191999999997,0,sub_14
0.0071479999999998,-0.0154165999999987,0.003505,-0.0005255999999996,0.0009806000000008,-0.0047039999999997,0,sub_14
0.0073047999999998,-0.0158355999999986,0.0039096,-0.0005385999999996,0.0012018000000008,-0.0040881999999997,0,sub_14
0.0066813999999998,-0.0160885999999987,0.003878,-0.0005531999999996,0.0012088000000008,-0.0032585999999997,0,sub_14
0.0068443999999998,-0.0163833999999987,0.0038074,-0.0012081999999996,0.0010060000000008,-0.0026467999999998,0,sub_14
0.0067309999999998,-0.0165665999999986,0.0035132,-0.0012219999999996,0.0008018000000008,-0.0022441999999998,0,sub_14
0.0068251999999998,-0.0160777999999986,0.003701,-0.0018729999999995,0.0010268000000008,-0.0020601999999998,0,sub_14
0.0068591999999998,-0.0163855999999987,0.0033898,-0.0020813999999995,0.0012440000000008,-0.0029165999999998,0,sub_14
0.0064673999999998,-0.0166013999999987,0.0044786,-0.0008011999999996,0.0010274000000008,-0.0031209999999998,0,sub_14
0.0059563999999998,-0.0160377999999987,0.0050716,0.0024042000000003,0.0010206000000008,-0.0041667999999997,0,sub_14
0.0066269999999998,-0.0163371999999987,0.003934,0.0045390000000003,0.0012362000000008,-0.0058799999999997,0,sub_14
0.0069597999999998,-0.0169891999999987,0.0031062,0.0049686000000003,0.0023084000000008,-0.0071791999999998,0,sub_14
0.0070875999999998,-0.0171991999999987,0.0035678,0.0047476000000003,0.0023124000000008,-0.0071995999999998,0,sub_14
0.0077119999999998,-0.0170467999999987,0.0032364,0.0030388000000003,0.0031756000000008,-0.0076587999999998,0,sub_14
0.0080445999999997,-0.0178921999999987,0.0021178,0.0004746000000003,0.0044644000000008,-0.0072699999999998,0,sub_14
0.0075629999999997,-0.0173391999999987,0.0023612,-0.0012361999999996,0.0048914000000008,-0.0060005999999998,0,sub_14
0.0074403999999997,-0.0169749999999987,0.0026448,-0.0012457999999996,0.0038220000000008,-0.0049309999999998,0,sub_14
0.0075801999999998,-0.0161861999999987,0.001845,-0.0008245999999996,0.0036100000000008,-0.0051547999999998,0,sub_14
0.0077653999999998,-0.0161097999999987,0.001358,0.0002358000000003,0.0029704000000008,-0.0055873999999998,0,sub_14
0.0078571999999998,-0.0161529999999987,0.002088,0.0004370000000003,0.0014800000000008,-0.0055975999999998,0,sub_14
0.0073503999999998,-0.0169809999999987,0.0024182,8.000000003290098e-07,0.0010554000000008,-0.0051863999999998,0,sub_14
0.0065799999999998,-0.0179617999999987,0.003081,-8.599999999650988e-06,0.0012658000000008,-0.0041319999999998,0,sub_14
0.0061331999999998,-0.0185439999999987,0.0038154,0.0004114000000003,0.0016826000000008,-0.0022067999999998,0,sub_14
0.0057351999999998,-0.0188233999999987,0.0043666,0.0010448000000003,0.0020988000000008,-0.0002799999999998,0,sub_14
0.0062005999999998,-0.0190005999999987,0.0040408,0.0027518000000003,0.0027294000000008,0.0003722000000001,0,sub_14
0.0070337999999998,-0.0188115999999987,0.004206,0.0053152000000003,0.0029352000000008,-3.7399999999876856e-05,0,sub_14
0.0074885999999998,-0.0184953999999987,0.0043042,0.0076668000000003,0.0029310000000008,-0.0008793999999998,0,sub_14
0.0079351999999998,-0.0182667999999987,0.0041518,0.0089486000000003,0.0022914000000008,-0.0017279999999998,0,sub_14
0.0082415999999998,-0.0180069999999987,0.00395,0.0091626000000003,0.0020790000000008,-0.0019435999999998,0,sub_14
0.0074735999999998,-0.0172425999999987,0.0043686,0.0078782000000003,0.0018676000000008,-0.0011015999999998,0,sub_14
0.0067445999999998,-0.0166639999999987,0.0047414,0.0065928000000003,0.0016552000000008,-4.579999999987676e-05,0,sub_14
0.0063359999999998,-0.0162031999999987,0.0047452,0.0050954000000003,0.0016570000000008,0.0007984000000001,0,sub_14
0.0057901999999998,-0.0156211999999987,0.0042326,0.0040256000000003,0.0016582000000008,0.0014318000000001,0,sub_14
0.0054013999999998,-0.0152411999999987,0.0036342,0.0029626000000003,0.0014482000000008,0.0012178000000001,0,sub_14
0.0053157999999998,-0.0153951999999986,0.0031618,0.0029682000000003,0.0010238000000008,0.0003708000000001,0,sub_14
0.0055371999999998,-0.0158471999999986,0.0033802,0.0029730000000003,0.0008108000000008,-4.939999999983687e-05,0,sub_14
0.0058659999999998,-0.0162689999999986,0.0033928,0.0029740000000003,-4.219999999911048e-05,-0.0002549999999998,0,sub_14
0.0060693999999998,-0.0166657999999986,0.0036474,0.0027664000000003,-4.139999999911046e-05,-0.0006767999999998,0,sub_14
0.0064841999999998,-0.0172319999999986,0.0042196,0.0023376000000003,-4.159999999911045e-05,-0.0002523999999998,0,sub_14
0.0068511999999998,-0.0177969999999986,0.0044214,0.0021252000000003,0.0003844000000008,-4.0799999999816826e-05,0,sub_14
0.0070539999999998,-0.0183075999999986,0.0040066,0.0016986000000003,0.0003860000000008,-4.3799999999816825e-05,0,sub_14
0.0068939999999998,-0.0183485999999986,0.0040126,0.0014870000000003,0.0008070000000008,0.0003950000000001,0,sub_14
0.0076387999999998,-0.0185727999999986,0.0042356,0.0014850000000003,0.0005874000000008,0.0010498000000001,0,sub_14
0.0079833999999998,-0.0182795999999986,0.0042752,0.0027690000000003,0.0005806000000008,0.0006450000000001,0,sub_14
0.0081395999999998,-0.0182617999999986,0.0042054,0.0040510000000003,0.0007844000000008,0.0008810000000001,0,sub_14
0.0079887999999998,-0.0175573999999986,0.0041036,0.0049100000000003,0.0014174000000008,0.0006862000000001,0,sub_14
0.0079497999999998,-0.0179459999999986,0.0038634,0.0053406000000003,0.0016316000000008,4.8000000000183137e-05,0,sub_14
0.0070509999999998,-0.0176967999999986,0.0034542,0.0059846000000003,0.0020572000000008,-0.0003753999999998,0,sub_14
0.0061671999999998,-0.0176613999999987,0.0030296,0.0057722000000003,0.0022710000000008,-0.0003771999999998,0,sub_14
0.0058031999999997,-0.0172687999999987,0.0028892,0.0049168000000003,0.0018478000000008,-0.0003827999999998,0,sub_14
0.0055209999999998,-0.0170599999999987,0.0030622,0.0049118000000003,0.0011966000000008,6.840000000018308e-05,0,sub_14
0.0056363999999998,-0.0161661999999987,0.003147,0.0051240000000003,0.0009724000000008,9.34000000001631e-05,0,sub_14
0.0061755999999998,-0.0165859999999987,0.0032052,0.0055514000000003,0.0011736000000008,0.0001194000000001,0,sub_14
0.0066233999999998,-0.0153133999999987,0.0039678,0.0076830000000003,0.0011540000000008,0.0005848000000001,0,sub_14
0.0072883999999998,-0.0147387999999987,0.004018,0.0102482000000002,0.0015634000000008,-1.559999999985696e-05,0,sub_14
0.0078431999999998,-0.0150219999999987,0.003228,0.0104732000000002,0.0026338000000008,-0.0015107999999998,0,sub_14
0.0081453999999998,-0.0160419999999987,0.002432,0.0094168000000002,0.0037080000000008,-0.0028013999999998,0,sub_14
0.0076423999999998,-0.0159977999999987,0.003955,0.0085572000000002,0.0032764000000008,-0.0034281999999998,0,sub_14
0.0072013999999998,-0.0175395999999986,0.004626,0.0070642000000003,0.0043384000000008,-0.0040613999999998,0,sub_14
0.0064611999999998,-0.0184823999999986,0.0040848,0.0055654000000003,0.0053952000000008,-0.0034125999999998,0,sub_14
0.0065831999999998,-0.0178687999999987,0.0042142,0.0049124000000003,0.0051692000000008,-0.0023291999999998,0,sub_14
0.0068241999999998,-0.0166923999999987,0.005257,0.0046824000000003,0.0040894000000008,-0.0012417999999998,0,sub_14
0.0073739999999998,-0.0164411999999987,0.0035682,0.0031868000000003,0.0038806000000008,-0.0010383999999998,0,sub_14
0.0075247999999998,-0.0162693999999987,0.0016734,0.0006204000000003,0.0023990000000008,-0.0012679999999998,0,sub_14
0.0075937999999998,-0.0160885999999987,0.0022428,-0.0019457999999996,0.0007052000000008,-0.0017109999999998,0,sub_14
0.0071443999999998,-0.0166465999999987,0.0029582,-0.0032471999999996,-0.0003663999999991,-0.0017057999999998,0,sub_14
0.0068179999999998,-0.0172937999999987,0.0025754,-0.0034777999999996,-0.0001649999999991,-0.0012673999999998,0,sub_14
0.0066421999999998,-0.0176375999999987,0.0029976,-0.0030691999999996,-0.000178799999999,-0.0008243999999998,0,sub_14
0.0067783999999998,-0.0174539999999987,0.0045262,-0.0022337999999996,-0.000406399999999,-0.0005917999999998,0,sub_14
0.0068343999999998,-0.0172655999999987,0.004742,-0.0013947999999996,-0.0002061999999991,-0.0007869999999998,0,sub_14
0.0066903999999998,-0.0170829999999987,0.0046562,-0.0009679999999996,4.600000000869599e-06,-0.0005705999999998,0,sub_14
0.0063795999999998,-0.0166553999999987,0.0046628,-0.0014033999999996,-0.0010625999999991,0.0002824000000001,0,sub_14
0.0064265999999998,-0.0161541999999987,0.0045534,-0.0011967999999996,-0.0017059999999991,0.0011394000000001,0,sub_14
0.0062977999999997,-0.0158347999999987,0.0038972,-0.0003451999999996,-0.0014983999999991,0.0017862000000001,0,sub_14
0.0066069999999997,-0.0155955999999987,0.0033326,-0.0001539999999996,-0.0019365999999991,0.0026506000000001,0,sub_14
0.0068877999999997,-0.0151965999999987,0.0029472,-0.0003857999999996,-0.002157999999999,0.0028708000000001,0,sub_14
0.0066749999999998,-0.0153655999999987,0.0032246,-0.0001811999999996,-0.001523399999999,0.0018112000000001,0,sub_14
0.0066169999999998,-0.0157461999999987,0.0031426,1.9800000000348944e-05,-0.001316599999999,0.0011794000000001,0,sub_14
0.0069757999999998,-0.0159189999999987,0.002923,-0.0010633999999996,-0.001533199999999,0.0009664000000001,0,sub_14
0.0067749999999998,-0.0162177999999987,0.0030322,-0.0017015999999996,-0.001529399999999,0.0005348000000001,0,sub_14
0.0071579999999998,-0.0165539999999987,0.0035618,-0.0012747999999996,-0.0017429999999991,0.0003244000000001,0,sub_14
0.0072741999999998,-0.0166697999999987,0.004221,-0.0006589999999996,-0.0021805999999991,0.0005476000000001,0,sub_14
0.0067979999999997,-0.0165033999999987,0.0044336,-0.0006785999999996,-0.0017627999999991,0.0005516000000001,0,sub_14
0.0064831999999997,-0.0165981999999987,0.0039448,-0.0007001999999996,-0.0017711999999991,0.0005562000000001,0,sub_14
0.0066547999999998,-0.0166819999999987,0.0046376,-0.0007243999999996,-0.0017819999999991,0.0012016000000001,0,sub_14
0.0062587999999998,-0.0168843999999987,0.0047256,-0.0009601999999996,-0.0015783999999991,0.0016318000000001,0,sub_14
0.0063901999999998,-0.0164143999999987,0.0037424,-0.0003209999999996,-0.0013693999999991,0.0020632000000001,0,sub_14
0.0063345999999998,-0.0156201999999987,0.0032616,0.0001038000000003,-0.0015847999999991,0.0022800000000001,0,sub_14
0.0060699999999998,-0.0149887999999987,0.0033434,0.0005286000000003,-0.0018001999999991,0.0024968000000001,0,sub_14
0.0055137999999998,-0.0144827999999987,0.002936,0.0007438000000003,-0.0015871999999991,0.0022844000000001,0,sub_14
0.0057385999999998,-0.0145919999999987,0.0023304,0.0011412000000003,-0.0018105999999991,0.0016528000000001,0,sub_14
0.0060407999999998,-0.0152303999999987,0.00227,0.0009002000000003,-0.0018179999999991,0.0008028000000001,0,sub_14
0.0064143999999998,-0.0157633999999987,0.0023266,0.0010850000000003,-0.0018277999999991,0.0001694000000001,0,sub_14
0.0069101999999998,-0.0158809999999987,0.0030636,0.0016968000000003,-0.0014145999999991,-3.439999999981678e-05,0,sub_14
0.0078031999999998,-0.0163873999999986,0.0033404,0.0018788000000003,-0.0018511999999991,-0.0004535999999998,0,sub_14
0.0076397999999998,-0.0161489999999987,0.0040554,0.0010252000000003,-0.0014237999999991,-3.299999999983676e-05,0,sub_14
0.0074241999999998,-0.0155357999999986,0.0041384,-0.0002559999999996,-0.0009957999999991,0.0005984000000001,0,sub_14
0.0073469999999998,-0.0160199999999986,0.0044074,-0.0013237999999996,-0.0012051999999991,0.0005912000000001,0,sub_14
0.0070301999999998,-0.0170653999999986,0.0038776,-0.0026265999999996,-0.001212799999999,0.0005898000000001,0,sub_14
0.0067131999999998,-0.0167897999999986,0.0039194,-0.0024375999999996,-0.001651799999999,0.0005992000000001,0,sub_14
0.0066321999999998,-0.0173811999999986,0.003866,-0.0013941999999996,-0.002092999999999,0.0004010000000001,0,sub_14
0.0064839999999998,-0.0174147999999987,0.0035614,-0.0003515999999996,-0.002534799999999,0.0004164000000001,0,sub_14
0.0066649999999998,-0.0171729999999986,0.0033596,-0.0003749999999996,-0.002123199999999,0.0010642000000001,0,sub_14
0.0061567999999998,-0.0168763999999986,0.0036164,0.0004786000000003,-0.0021261999999991,0.0010702000000001,0,sub_14
0.0052659999999998,-0.0155917999999987,0.0043768,0.0026182000000003,-0.0010673999999991,0.0008700000000001,0,sub_14
0.0047911999999998,-0.0152553999999987,0.002981,0.0026094000000003,-0.0008559999999991,0.0002314000000001,0,sub_14
0.0051475999999998,-0.0161037999999986,0.0017598,0.0006820000000003,2.00000000889506e-07,-0.0002077999999998,0,sub_14
0.0043375999999998,-0.0160975999999986,0.003099,-0.0008233999999996,-0.0004225999999991,-0.0008559999999998,0,sub_14
0.0043911999999998,-0.0158987999999986,0.0038962,-0.0019021999999996,-0.0006345999999991,-0.0012879999999998,0,sub_14
0.0050963999999998,-0.0175811999999986,0.0023298,-0.0046859999999996,0.0002220000000008,-0.0010921999999998,0,sub_14
0.0059247999999998,-0.0170305999999986,0.0027474,-0.0055413999999996,0.0002232000000009,-0.0006707999999998,0,sub_14
0.0060581999999998,-0.0161601999999987,0.0047522,-0.0049051999999996,-0.000843399999999,-0.0008785999999998,0,sub_14
0.0074295999999998,-0.0158813999999987,0.0038572,-0.0034115999999996,-0.000848599999999,-0.0008681999999998,0,sub_14
0.0082771999999998,-0.0158213999999987,0.0024618,-0.0031999999999996,-0.001275399999999,-0.0008661999999998,0,sub_14
0.0080223999999998,-0.0159475999999987,0.0024314,-0.0038545999999996,-0.002978399999999,-0.0006547999999998,0,sub_14
0.0074105999999998,-0.0168665999999987,0.0030202,-0.0045091999999996,-0.0036203999999991,0.0006234000000001,0,sub_14
0.0067901999999998,-0.0177741999999987,0.0026444,-0.0045195999999996,-0.0034123999999991,0.0019050000000001,0,sub_14
0.0061963999999998,-0.0181937999999987,0.0027648,-0.0047423999999996,-0.0032027999999991,0.0029716000000001,0,sub_14
0.0059369999999998,-0.0179757999999987,0.0035812,-0.0043261999999996,-0.0032085999999991,0.0040430000000001,0,sub_14
0.0059855999999998,-0.0175577999999987,0.0036676,-0.0032591999999996,-0.003000199999999,0.0042638000000001,0,sub_14
0.0060027999999998,-0.0168991999999987,0.0032614,-0.0019749999999996,-0.002789199999999,0.0036316000000001,0,sub_14
0.0062271999999998,-0.0163723999999987,0.0031782,-0.0009091999999996,-0.003218199999999,0.0034260000000001,0,sub_14
0.0060331999999998,-0.0164397999999987,0.002953,0.0003654000000003,-0.003644999999999,0.0034320000000001,0,sub_14
0.0060049999999998,-0.0171055999999987,0.0028686,0.0010018000000003,-0.003431199999999,0.0036464000000001,0,sub_14
0.0059651999999998,-0.0169943999999987,0.0034336,0.0014240000000003,-0.003217399999999,0.0040730000000001,0,sub_14
0.0059177999999998,-0.0168209999999987,0.0040378,0.0016308000000003,-0.003428999999999,0.0044986000000001,0,sub_14
0.0058109999999998,-0.0163245999999987,0.0039844,0.0018406000000003,-0.003425999999999,0.0044966000000001,0,sub_14
0.0057521999999998,-0.0157741999999987,0.003917,0.0018406000000003,-0.003213799999999,0.0047100000000001,0,sub_14
0.0059871999999998,-0.0154777999999987,0.0035274,0.0016272000000003,-0.003212999999999,0.0047084000000001,0,sub_14
0.0062819999999998,-0.0156775999999987,0.0035484,0.0011962000000003,-0.003631399999999,0.0047026000000001,0,sub_14
0.0064595999999998,-0.0159415999999987,0.0034304,0.0007692000000003,-0.003197599999999,0.0046958000000001,0,sub_14
0.0067123999999998,-0.0161431999999987,0.0038798,0.0003402000000003,-0.002977599999999,0.0049028000000001,0,sub_14
0.0071809999999998,-0.0165797999999987,0.0039738,-0.0003021999999996,-0.002969199999999,0.0048950000000001,0,sub_14
0.0068469999999998,-0.0167297999999987,0.0038114,-0.0005147999999996,-0.002747599999999,0.0044626000000001,0,sub_14
0.0066387999999998,-0.0167359999999987,0.0035626,0.0001282000000003,-0.002322999999999,0.0042530000000001,0,sub_14
0.0066675999999998,-0.0173373999999987,0.003549,0.0007712000000003,-0.002110399999999,0.0038298000000001,0,sub_14
0.0063711999999998,-0.0177003999999987,0.002927,0.0018420000000003,-0.001898599999999,0.0031962000000001,0,sub_14
0.0063195999999998,-0.0175487999999987,0.0029624,0.0031262000000003,-0.001475199999999,0.0027772000000001,0,sub_14
0.0063689999999998,-0.0174089999999987,0.0031252,0.0039768000000003,-0.001896999999999,0.0027808000000001,0,sub_14
0.0063693999999998,-0.0173037999999987,0.0031204,0.0035464000000002,-0.002102999999999,0.0032022000000001,0,sub_14
0.0064159999999998,-0.0165953999999987,0.0029866,0.0029016000000003,-0.002309199999999,0.0038358000000001,0,sub_14
0.0064981999999998,-0.0163675999999987,0.0031452,0.0022586000000003,-0.0023013999999991,0.0042556000000001,0,sub_14
0.0061129999999998,-0.0161747999999987,0.0030504,0.0014032000000003,-0.0022919999999991,0.0044602000000001,0,sub_14
0.0057645999999998,-0.0161973999999987,0.003113,0.0007640000000003,-0.001652199999999,0.0048822000000001,0,sub_14
0.0057263999999998,-0.0162643999999987,0.0032864,0.0007678000000003,-0.001012199999999,0.0046678000000001,0,sub_14
0.0052671999999998,-0.0163605999999987,0.003401,0.0011984000000003,-0.000797999999999,0.0040296000000001,0,sub_14
0.0053087999999998,-0.0164619999999987,0.002976,0.0014208000000003,-0.000789799999999,0.0036026000000001,0,sub_14
0.0055497999999998,-0.0161187999999987,0.002742,0.0010022000000003,-0.001204599999999,0.0029582000000001,0,sub_14
0.0059071999999998,-0.0152179999999987,0.0032302,0.0005884000000003,-0.0009785999999991,0.0018856000000001,0,sub_14
0.0062923999999998,-0.0144953999999987,0.003264,0.0003926000000003,-0.0003245999999991,0.0001732000000001,0,sub_14
0.0066141999999998,-0.0148733999999987,0.0033334,-1.559999999963093e-05,0.0003310000000008,-0.0017543999999998,0,sub_14
0.0062089999999998,-0.0152101999999987,0.0040036,0.0002044000000003,0.0009728000000008,-0.0026081999999998,0,sub_14
0.0060855999999998,-0.0147227999999987,0.0049988,0.0025620000000003,0.0022472000000008,-0.0036615999999998,0,sub_14
0.0065687999999998,-0.0161499999999987,0.0042472,0.0032098000000003,0.0028884000000008,-0.0047261999999998,0,sub_14
0.0063101999999998,-0.0172973999999987,0.00388,0.0025858000000003,0.0037584000000008,-0.0053809999999998,0,sub_14
0.0063817999999998,-0.0167501999999987,0.0036256,0.0013150000000003,0.0039878000000008,-0.0051847999999998,0,sub_14
0.0061977999999998,-0.0164179999999987,0.0035516,0.0002652000000003,0.0046478000000008,-0.0062695999999998,0,sub_14
0.0059315999999997,-0.0172659999999987,0.001942,-0.0020667999999996,0.0053106000000008,-0.0069359999999998,0,sub_14
0.0055281999999997,-0.0169293999999987,0.0018342,-0.0033367999999996,0.0051166000000008,-0.0073801999999998,0,sub_14
0.0054051999999997,-0.0167623999999987,0.001736,-0.0033463999999996,0.0034104000000008,-0.0069507999999998,0,sub_14
0.0048135999999997,-0.0171415999999987,0.0018672,-0.0018575999999996,0.0025522000000008,-0.0067257999999998,0,sub_14
0.0050871999999997,-0.0176321999999987,0.0016472,-0.0010145999999996,0.0016910000000008,-0.0052233999999998,0,sub_14
0.0048417999999997,-0.0181881999999987,0.0020596,-0.0005959999999996,0.0004200000000008,-0.0037379999999998,0,sub_14
0.0040697999999997,-0.0178593999999987,0.0027064,0.0002522000000003,-0.0002133999999991,-0.0022503999999998,0,sub_14
0.0040527999999997,-0.0181181999999987,0.0030978,0.0013186000000003,-0.0002065999999991,-0.0011893999999998,0,sub_14
0.0046109999999998,-0.0179665999999987,0.00327,0.0017476000000003,0.0004416000000008,-0.0001335999999998,0,sub_14
0.0051995999999997,-0.0177251999999987,0.0033586,0.0032494000000003,0.0008792000000008,-0.0005653999999998,0,sub_14
0.0057745999999998,-0.0170959999999987,0.0034302,0.0045354000000003,0.0013042000000008,-0.0014115999999998,0,sub_14
0.0070441999999998,-0.0167699999999987,0.0033144,0.0056080000000003,0.0015178000000008,-0.0024725999999998,0,sub_14
0.0079851999999998,-0.0158547999999987,0.0036676,0.0062530000000003,0.0017320000000008,-0.0033229999999998,0,sub_14
0.0080381999999997,-0.0151197999999987,0.003654,0.0058260000000003,0.0013240000000008,-0.0037707999999998,0,sub_14
0.0075827999999998,-0.0147135999999987,0.003347,0.0036900000000003,0.0011322000000008,-0.0035899999999998,0,sub_14
0.0071291999999998,-0.0146771999999987,0.0036262,0.0009110000000003,0.0007282000000008,-0.0029859999999998,0,sub_14
0.0061733999999998,-0.0148879999999987,0.0033086,-0.0014431999999996,0.0003210000000008,-0.0019517999999998,0,sub_14
0.0051835999999998,-0.0152249999999987,0.0023714,-0.0035821999999996,0.0001268000000008,-0.0011299999999998,0,sub_14
0.0048683999999998,-0.0157939999999987,0.0015898,-0.0050767999999996,-0.0002931999999991,-0.0013535999999998,0,sub_14
0.0044683999999998,-0.0157249999999987,0.0016032,-0.0059311999999996,-0.0009275999999991,-0.0017859999999998,0,sub_14
0.0047157999999998,-0.0156239999999987,0.0011984,-0.0061493999999996,-0.0015511999999991,-0.0022343999999998,0,sub_14
0.0048773999999998,-0.0154619999999987,0.0014132,-0.0063645999999996,-0.001535599999999,-0.0026835999999998,0,sub_14
0.0051639999999998,-0.0153877999999987,0.0020208,-0.0067931999999996,-0.001731399999999,-0.0033475999999998,0,sub_14
