userAcceleration.x,userAcceleration.y,userAcceleration.z,rotationRate.x,rotationRate.y,rotationRate.z,label,subject
-0.0008592000000002,0.0020434000000011,-0.0011783999999999,0.0020314000000004,0.0016864000000009,0.0034946,0,sub_10
-3.3800000000225665e-05,0.0009850000000011,-0.0013139999999999,0.0005068000000004,0.0027764000000009,0.0045602,0,sub_10
0.0006675999999997,8.840000000117902e-05,-0.0012779999999999,-0.0010187999999995,0.0030168000000009,0.004986,0,sub_10
0.0014097999999997,0.0004960000000011,-0.0012953999999999,-0.0012641999999995,0.0017674000000009,0.003927,0,sub_10
0.0021523999999997,0.0009696000000011,-0.0011689999999998,-0.0019351999999995,0.0011568000000009,0.0032916,0,sub_10
0.0025605999999997,0.0023372000000011,-0.0001639999999998,-0.0027849999999995,0.0011632000000009,0.002431,0,sub_10
0.0020359999999997,0.0040550000000011,5.580000000010345e-05,-0.0036383999999995,0.0003174000000009,0.0015716,0,sub_10
0.0005483999999997,0.0061308000000011,-0.0001815999999998,-0.0027875999999995,-0.000961399999999,0.0009384,0,sub_10
-0.0001998000000002,0.0069314000000011,-0.0008931999999998,-0.0015091999999995,-0.001391999999999,0.000948,0,sub_10
-0.0007214000000002,0.0076620000000012,-0.0016147999999999,-0.0002571999999995,-0.002408799999999,0.0003294,0,sub_10
-0.0020116000000002,0.0069786000000011,-0.0024383999999999,0.0020616000000004,-0.004065999999999,-0.0009217999999999,0,sub_10
-0.0030010000000001,0.0058604000000011,-0.0031417999999999,0.0039556000000004,-0.004234599999999,-0.0011097999999999,0,sub_10
-0.0032746000000001,0.0043090000000011,-0.0038057999999999,0.0047864000000004,-0.002910599999999,-0.0006661999999999,0,sub_10
-0.0030208000000001,0.0027708000000011,-0.0038877999999999,0.0043324000000004,-0.002435199999999,-1.6799999999929373e-05,0,sub_10
-0.0019960000000001,0.0014858000000011,-0.0037649999999999,0.0043382000000004,-0.000732399999999,0.0004084,0,sub_10
-0.0005322000000002,0.0009576000000011,-0.0030847999999999,0.0015798000000004,0.0035350000000009,0.0012382,0,sub_10
-0.0010876000000002,0.0009340000000011,-0.0024531999999999,-0.0010033999999995,0.0059442000000009,0.0012412,0,sub_10
-0.0008680000000002,0.0015378000000011,-0.0028065999999999,-0.0029501999999995,0.0077112000000009,0.001463,0,sub_10
0.0012115999999997,0.0022918000000011,-0.0029515999999999,-0.0042521999999995,0.0094802000000009,0.000621,0,sub_10
0.0025869999999997,0.0026868000000011,-0.0017577999999999,-0.0064057999999995,0.0118904000000009,-1.3999999999949384e-05,0,sub_10
0.0009145999999997,0.0035882000000011,-0.0016573999999999,-0.0062121999999995,0.0140802000000009,-0.0008459999999999,0,sub_10
-0.0006654000000002,0.0042696000000011,-0.0023233999999999,-0.0047165999999995,0.0140768000000009,-0.0012627999999999,0,sub_10
0.0004513999999997,0.0052216000000011,-0.0023841999999998,-0.0034439999999995,0.0119434000000009,-0.0016783999999999,0,sub_10
0.0002583999999997,0.0063630000000011,-0.0023545999999998,-0.0025981999999995,0.0100238000000009,-0.0018835999999999,0,sub_10
-0.0019050000000002,0.0063082000000011,-0.0030313999999998,-0.0017587999999995,0.0100678000000009,-0.0027175999999999,0,sub_10
-0.0025148000000002,0.0059098000000011,-0.0034943999999998,-0.0011367999999995,0.0094726000000009,-0.0033385999999999,0,sub_10
-0.0016442000000002,0.0049578000000011,-0.0033935999999998,-0.0011537999999995,0.0095170000000009,-0.0035375999999999,0,sub_10
-0.0031670000000002,0.0037042000000011,-0.0032491999999999,-0.0011697999999995,0.0099868000000009,-0.0035235999999999,0,sub_10
-0.0028926000000002,0.0024736000000011,-0.0026011999999998,-0.0018221999999995,0.0123720000000009,-0.0024481999999999,0,sub_10
-0.0007310000000002,0.0026134000000011,-0.0019611999999998,-0.0020403999999995,0.0121564000000009,-0.0015947999999999,0,sub_10
-0.0001986000000002,0.0025976000000011,-0.0020799999999998,-0.0018413999999995,0.0093842000000009,-0.0011625999999999,0,sub_10
0.0002159999999997,0.0033394000000011,-0.0027193999999998,-0.0018499999999995,0.0072544000000009,-0.0013735999999999,0,sub_10
0.0004503999999997,0.0040566000000011,-0.0024573999999998,-0.0024929999999995,0.0068296000000009,-0.0011637999999999,0,sub_10
-0.0015850000000002,0.0049294000000011,-0.0030973999999999,-0.0022957999999995,0.0057808000000009,-0.0011569999999999,0,sub_10
-0.0038900000000002,0.0054490000000011,-0.0042887999999999,-0.0018901999999995,0.0043026000000009,-0.0005073999999999,0,sub_10
-0.0037290000000002,0.0061462000000011,-0.0051851999999999,-0.0021245999999995,0.0036756000000009,0.0009914,0,sub_10
-0.0029198000000002,0.0056360000000011,-0.0052745999999999,-0.0025695999999995,0.0039008000000009,0.0027012,0,sub_10
-0.0029544000000002,0.0051264000000011,-0.0050273999999999,-0.0025849999999995,0.0045514000000009,0.0041998,0,sub_10
-0.0029146000000002,0.0039686000000011,-0.0047051999999999,-0.0019515999999995,0.0043310000000009,0.0054864,0,sub_10
-0.0024220000000002,0.0027548000000011,-0.0043927999999999,-0.0015305999999995,0.0041122000000009,0.006558,0,sub_10
-0.0021890000000002,0.0016300000000011,-0.0044055999999999,-0.0010989999999995,0.0058126000000009,0.0071998,0,sub_10
-0.0019326000000002,0.0008438000000011,-0.0044753999999998,-0.0017393999999995,0.0068906000000009,0.0071934,0,sub_10
-0.0010728000000002,-0.0004051999999988,-0.0048449999999998,-0.0032265999999995,0.0086142000000009,0.0063258,0,sub_10
-0.0001202000000002,-0.0008097999999988,-0.0051727999999998,-0.0061881999999995,0.0135432000000009,0.0043754,0,sub_10
0.0011101999999997,9.320000000119908e-05,-0.0046185999999998,-0.0095659999999995,0.0201806000000009,0.001779,0,sub_10
0.0025453999999997,0.0027284000000011,-0.0022785999999998,-0.0125141999999995,0.0268190000000009,-0.0014553999999999,0,sub_10
0.0031339999999997,0.0063710000000011,-0.0001685999999999,-0.0129091999999995,0.0306684000000009,-0.0046677999999999,0,sub_10
0.0023373999999997,0.0099454000000011,0.0009712,-0.0107667999999995,0.0296076000000009,-0.0076425999999999,0,sub_10
0.0014267999999997,0.0118214000000012,0.0012112,-0.0063061999999995,0.0242764000000009,-0.0097415999999999,0,sub_10
2.479999999979391e-05,0.0112648000000011,8.920000000008331e-05,-0.0007921999999995,0.0168076000000009,-0.0109759999999999,0,sub_10
-0.0012540000000002,0.0082068000000011,-0.0017273999999999,0.0044978000000004,0.0078446000000009,-0.0113553999999999,0,sub_10
-0.0009950000000002,0.0031748000000011,-0.0027995999999999,0.0070264000000004,0.0027220000000009,-0.0106907999999999,0,sub_10
0.0005783999999997,-0.0015613999999988,-0.0032211999999999,0.0067908000000004,0.0001640000000009,-0.0096215999999999,0,sub_10
0.0015833999999997,-0.0049673999999988,-0.0032841999999999,0.0048588000000004,-0.001537199999999,-0.0087783999999999,0,sub_10
0.0033829999999997,-0.0069813999999988,-0.0033549999999999,0.0014362000000004,-0.003654999999999,-0.0090131999999999,0,sub_10
0.0048463999999997,-0.0074493999999987,-0.0037135999999998,-0.0032617999999995,-0.005551799999999,-0.0101117999999999,0,sub_10
0.0045311999999997,-0.0049789999999987,-0.0037689999999998,-0.0071043999999995,-0.007662199999999,-0.0118449999999999,0,sub_10
0.0015641999999997,-0.0012751999999987,-0.0037961999999998,-0.0096629999999995,-0.009374999999999,-0.0133533999999999,0,sub_10
-0.0010192000000002,0.0039584000000012,-0.0041395999999998,-0.0113853999999995,-0.012166999999999,-0.0120771999999999,0,sub_10
-0.0026788000000002,0.0108150000000012,-0.0038495999999998,-0.0107779999999995,-0.016468199999999,-0.0084329999999999,0,sub_10
-0.0041836000000002,0.0164820000000011,-0.0024503999999998,-0.0086777999999995,-0.020562999999999,-0.0043511999999999,0,sub_10
-0.0078828000000002,0.0176510000000012,-0.0037019999999998,-0.0048745999999995,-0.024879399999999,0.0003836,0,sub_10
-0.0097010000000002,0.0168610000000012,-0.0060475999999999,0.0010558000000004,-0.029819999999999,0.0053452,0,sub_10
-0.0107796000000002,0.0139554000000011,-0.0086975999999999,0.0063594000000004,-0.032836799999999,0.0092316,0,sub_10
-0.0104880000000002,0.0080276000000012,-0.0097243999999998,0.0084940000000004,-0.030549599999999,0.0126674,0,sub_10
-0.0099212000000002,0.0025180000000011,-0.0117363999999998,0.0097914000000004,-0.024849999999999,0.0158792,0,sub_10
-0.0059182000000002,-0.0002613999999988,-0.0107143999999998,0.0098258000000004,-0.016796199999999,0.0175836,0,sub_10
-0.0030114000000002,-0.0015307999999988,-0.0094669999999998,0.0075256000000004,-0.008086599999999,0.0171344,0,sub_10
-0.0005652000000002,-0.0015269999999988,-0.0073741999999998,0.0056502000000004,-0.000865599999999,0.015622,0,sub_10
0.0004711999999997,0.0003548000000011,-0.0068073999999998,0.0037578000000004,0.0036220000000009,0.0138938,0,sub_10
0.0003977999999997,0.0025134000000011,-0.0050395999999998,0.0020738000000004,0.0066194000000009,0.0117418,0,sub_10
-0.0010780000000002,0.0053444000000011,-0.0049397999999998,0.0016654000000004,0.0089712000000009,0.0100268,0,sub_10
-0.0021730000000002,0.0075174000000011,-0.0051559999999998,0.0014548000000004,0.0096112000000009,0.0100244,0,sub_10
-0.0033850000000002,0.0081484000000011,-0.0050631999999998,0.0012494000000004,0.0097874000000009,0.0104432,0,sub_10
-0.0051398000000002,0.0084492000000011,-0.0047929999999998,0.0014754000000004,0.0110274000000009,0.0108638,0,sub_10
-0.0053218000000002,0.0082896000000011,-0.0048729999999998,0.0027626000000004,0.0116218000000009,0.0119334,0,sub_10
-0.0040652000000002,0.0074162000000011,-0.0048109999999998,0.0036200000000004,0.0109420000000009,0.0123608,0,sub_10
-0.0011056000000002,0.0060458000000011,-0.0037937999999998,0.0036318000000004,0.0109086000000009,0.0117132,0,sub_10
0.0017583999999997,0.0038572000000011,-0.0024357999999999,0.0036386000000004,0.0102780000000009,0.0095776,0,sub_10
0.0039901999999997,0.0013874000000011,-0.0017399999999999,0.0049198000000004,0.0073036000000009,0.0063856,0,sub_10
0.0059831999999997,-0.0006205999999987,-0.0019933999999999,0.0053446000000004,0.0022076000000009,0.001695,0,sub_10
0.0068525999999997,-0.0017917999999987,-0.0018603999999999,0.0047206000000004,-0.003800799999999,-0.0034267999999999,0,sub_10
0.0057303999999997,-0.0018045999999987,-0.0018755999999999,0.0032544000000004,-0.007461799999999,-0.0087709999999999,0,sub_10
0.0040277999999997,8.580000000119915e-05,-0.0028221999999999,0.0017834000000004,-0.011339199999999,-0.0132603999999999,0,sub_10
0.0015001999999997,0.0029886000000011,-0.0035527999999999,9.920000000042196e-05,-0.014154999999999,-0.0166845999999999,0,sub_10
-0.0010058000000002,0.0057792000000012,-0.0043013999999999,-0.0013783999999995,-0.016128599999999,-0.0177583999999999,0,sub_10
-0.0025422000000002,0.0078736000000011,-0.0050009999999999,-0.0016033999999995,-0.018472199999999,-0.0175431999999999,0,sub_10
-0.0040784000000002,0.0088070000000011,-0.0062681999999999,0.0002960000000004,-0.022529399999999,-0.0168837999999999,0,sub_10
-0.0072916000000002,0.0080118000000011,-0.0081629999999999,0.0022020000000004,-0.024034399999999,-0.0151593999999999,0,sub_10
-0.0095196000000002,0.0061620000000011,-0.0101581999999999,0.0034766000000004,-0.024733399999999,-0.0110667999999999,0,sub_10
-0.0117438000000002,0.0042332000000011,-0.0118625999999999,0.0045332000000004,-0.025860399999999,-0.0063341999999999,0,sub_10
-0.0123998000000002,0.0022900000000011,-0.0135447999999999,0.0041116000000004,-0.022512399999999,-0.0005495999999999,0,sub_10
-0.0112774000000002,0.0006070000000011,-0.0138029999999999,0.0015686000000004,-0.016174999999999,0.00543,0,sub_10
-0.0093406000000002,0.0006162000000011,-0.0124871999999999,-0.0013827999999995,-0.007697799999999,0.0094812,0,sub_10
-0.0066866000000002,0.0015764000000011,-0.0110257999999999,-0.0039019999999995,0.0023212000000009,0.0103054,0,sub_10
-0.0038738000000002,0.0027156000000011,-0.0098377999999999,-0.0057753999999995,0.0117064000000009,0.009212,0,sub_10
-0.0023596000000002,0.0047750000000011,-0.0070329999999999,-0.0057217999999995,0.0185574000000009,0.0066482,0,sub_10
-0.0025922000000002,0.0075048000000011,-0.0053293999999999,-0.0033287999999995,0.0234836000000009,0.0038896,0,sub_10
-0.0019144000000002,0.0095546000000012,-0.0045065999999999,-0.0001063999999995,0.0237170000000009,0.0017838,0,sub_10
-0.0014558000000002,0.0104226000000012,-0.0038687999999998,0.0033074000000004,0.0196860000000009,0.0003256,0,sub_10
-0.0017964000000002,0.0104886000000012,-0.0025229999999998,0.0058676000000004,0.0156582000000009,-0.0011383999999999,0,sub_10
-0.0029378000000002,0.0084632000000012,-0.0032701999999998,0.0071354000000004,0.0120352000000009,-0.0019793999999999,0,sub_10
-0.0028296000000002,0.0060970000000011,-0.0037685999999998,0.0068980000000004,0.0069218000000009,-0.0017607999999999,0,sub_10
-0.0016218000000002,0.0037304000000011,-0.0039351999999998,0.0051662000000004,0.0022372000000009,-0.0009123999999999,0,sub_10
-0.0007472000000002,0.0015228000000011,-0.0035377999999998,0.0027990000000004,-0.000955399999999,0.000357,0,sub_10
-5.9200000000226086e-05,0.0001850000000011,-0.0039353999999998,0.0004312000000004,-0.003496199999999,0.0020302,0,sub_10
0.0006117999999997,0.0004064000000011,-0.0042609999999998,-0.0019413999999995,-0.007526599999999,0.003278,0,sub_10
0.0009867999999997,0.0009366000000011,-0.0044037999999999,-0.0036633999999995,-0.010276799999999,0.0034606,0,sub_10
0.0009281999999997,0.0022854000000011,-0.0045765999999999,-0.0047355999999995,-0.010898599999999,0.0036449999999999,0,sub_10
-0.0007756000000002,0.0028570000000011,-0.0052333999999999,-0.0038865999999995,-0.012374999999999,0.0027757999999999,0,sub_10
-0.0027428000000002,0.0027866000000011,-0.0067393999999999,-0.0024023999999995,-0.015783999999999,0.0015087999999999,0,sub_10
-0.0055664000000002,0.0023208000000011,-0.0087653999999998,-0.0011299999999995,-0.017917199999999,0.0010931999999999,0,sub_10
-0.0076702000000002,0.0019612000000011,-0.0109773999999998,-0.0017697999999995,-0.014937199999999,0.0019126,0,sub_10
-0.0095846000000002,0.0014340000000011,-0.0126925999999998,-0.0038859999999995,-0.008965999999999,0.0018634,0,sub_10
-0.0097474000000002,0.0031312000000011,-0.0134379999999998,-0.0064153999999995,-0.000647199999999,0.0011672,0,sub_10
-0.0095958000000002,0.0054870000000011,-0.0129865999999998,-0.0078607999999995,0.0112908000000009,0.0002602,0,sub_10
-0.0084094000000002,0.0082780000000012,-0.0111789999999999,-0.0078105999999995,0.0228008000000009,-0.0014901999999999,0,sub_10
-0.0064120000000002,0.0103974000000012,-0.0093711999999999,-0.0047819999999995,0.0287686000000009,-0.0046813999999999,0,sub_10
-0.0051788000000002,0.0114696000000011,-0.0078235999999999,-0.0002839999999995,0.0298294000000009,-0.0074287999999999,0,sub_10
-0.0053900000000002,0.0105520000000011,-0.0066275999999999,0.0037788000000004,0.0308840000000009,-0.0082563999999999,0,sub_10
-0.0039014000000002,0.0093184000000011,-0.0060367999999999,0.0063308000000004,0.0313362000000009,-0.0080173999999999,0,sub_10
-0.0006744000000002,0.0067468000000011,-0.0046929999999999,0.0063100000000004,0.0294520000000009,-0.0073661999999999,0,sub_10
0.0013947999999997,0.0046562000000011,-0.0023529999999999,0.0043696000000004,0.0279998000000009,-0.0065151999999999,0,sub_10
0.0024331999999997,0.0042496000000012,-0.0012363999999999,0.0037038000000004,0.0259014000000009,-0.0050135999999999,0,sub_10
0.0023871999999997,0.0038354000000011,-0.0017319999999999,0.0021644000000004,0.0197562000000009,-0.0030855999999999,0,sub_10
0.0007933999999997,0.0024982000000011,-0.0023245999999999,-0.0004525999999995,0.0099536000000009,-0.0003137999999999,0,sub_10
-0.0012922000000002,0.0022140000000011,-0.0040113999999999,-0.0026323999999995,0.0024932000000009,0.002458,0,sub_10
-0.0026510000000002,0.0018638000000011,-0.0059711999999999,-0.0037441999999995,-0.003909199999999,0.0060904,0,sub_10
-0.0033752000000002,0.0007596000000011,-0.0078857999999999,-0.0054837999999995,-0.008600599999999,0.008648,0,sub_10
-0.0032354000000002,0.0001150000000011,-0.0092325999999999,-0.0065691999999995,-0.011134599999999,0.0094964,0,sub_10
-0.0033456000000002,0.0001256000000011,-0.0100351999999999,-0.0063541999999995,-0.010684399999999,0.0088544,0,sub_10
-0.0042592000000002,0.0008238000000011,-0.0109793999999998,-0.0059123999999995,-0.007888799999999,0.0075702,0,sub_10
-0.0054104000000002,0.0020908000000011,-0.0114293999999998,-0.0065241999999995,-0.003591999999999,0.0047812,0,sub_10
-0.0062190000000002,0.0034830000000011,-0.0116459999999998,-0.0071271999999995,0.0019856000000009,0.0013496,0,sub_10
-0.0063760000000002,0.0062704000000011,-0.0113755999999998,-0.0066553999999995,0.0090268000000009,-0.0016471999999999,0,sub_10
-0.0062288000000002,0.0093870000000011,-0.0107711999999998,-0.0057577999999995,0.0160656000000009,-0.0044273999999999,0,sub_10
-0.0067178000000002,0.0114876000000011,-0.0098935999999998,-0.0031771999999995,0.0205374000000009,-0.0063389999999999,0,sub_10
-0.0070768000000002,0.0127634000000011,-0.0099961999999998,0.0002434000000004,0.0224480000000009,-0.0078141999999999,0,sub_10
-0.0071102000000002,0.0129274000000011,-0.0088897999999998,0.0040792000000004,0.0230736000000009,-0.0080027999999999,0,sub_10
-0.0065674000000002,0.0114906000000011,-0.0073741999999998,0.0068414000000004,0.0228482000000009,-0.0075569999999999,0,sub_10
-0.0048520000000002,0.0090260000000011,-0.0061485999999998,0.0095912000000004,0.0209142000000009,-0.0060407999999999,0,sub_10
-0.0028452000000002,0.0063116000000011,-0.0056773999999998,0.0117028000000004,0.0172798000000009,-0.0047395999999999,0,sub_10
-0.0010560000000002,0.0033426000000011,-0.0055357999999998,0.0123152000000004,0.0127966000000009,-0.0030203999999999,0,sub_10
-0.0003494000000002,0.0003784000000012,-0.0063235999999998,0.0107900000000004,0.0078932000000009,-0.0008883999999999,0,sub_10
-0.0016028000000002,-0.0023811999999987,-0.0069327999999999,0.0073396000000004,0.0030106000000009,0.0025078,0,sub_10
-0.0020004000000002,-0.0042611999999987,-0.0081869999999999,0.0019708000000004,-0.000802599999999,0.00653,0,sub_10
-0.0012698000000002,-0.0051285999999987,-0.0093963999999999,-0.0042447999999995,-0.004182399999999,0.0094776,0,sub_10
-0.0010336000000002,-0.0044971999999987,-0.0088787999999999,-0.0095867999999995,-0.004788799999999,0.0107184,0,sub_10
-0.0017076000000002,-0.0017899999999987,-0.0081411999999999,-0.0134073999999995,-0.000495199999999,0.0106818,0,sub_10
-0.0018762000000002,0.0031680000000011,-0.0084739999999999,-0.0142483999999995,0.0010044000000009,0.009392,0,sub_10
-0.0045560000000002,0.0085640000000011,-0.0079873999999999,-0.0125319999999995,0.0012192000000009,0.007481,0,sub_10
-0.0070728000000002,0.0143544000000012,-0.0076077999999999,-0.0099619999999995,0.0024920000000009,0.0066426,0,sub_10
-0.0092062000000002,0.0184594000000011,-0.0084217999999999,-0.0054887999999995,0.0009842000000009,0.0068896,0,sub_10
-0.0097122000000002,0.0199110000000012,-0.0088333999999999,2.980000000044405e-05,-0.004615999999999,0.0084368,0,sub_10
-0.0085562000000002,0.0178410000000011,-0.0083367999999998,0.0044958000000004,-0.007441199999999,0.0095458,0,sub_10
-0.0058248000000002,0.0141636000000011,-0.0082653999999998,0.0085486000000004,-0.009191999999999,0.0087276,0,sub_10
-0.0038586000000002,0.0078232000000011,-0.0077415999999998,0.0121910000000004,-0.009229199999999,0.0059818,0,sub_10
-0.0018582000000002,0.0019784000000011,-0.0065881999999998,0.0134986000000004,-0.006912999999999,0.0027892,0,sub_10
0.0003253999999997,-0.0025615999999988,-0.0055721999999998,0.0126700000000004,-0.006038999999999,-0.0019177999999999,0,sub_10
0.0029065999999997,-0.0049267999999987,-0.0049141999999998,0.0116186000000004,-0.007294999999999,-0.0066235999999999,0,sub_10
0.0032775999999997,-0.0054151999999987,-0.0052995999999998,0.0090706000000004,-0.009226799999999,-0.0102705999999999,0,sub_10
0.0032951999999997,-0.0041649999999987,-0.0055935999999998,0.0047936000000004,-0.013082199999999,-0.0109363999999999,0,sub_10
-0.0002606000000002,-0.0013765999999987,-0.0075053999999998,-0.0001387999999995,-0.017585399999999,-0.0088285999999999,0,sub_10
-0.0045166000000002,0.0026662000000012,-0.0094403999999998,-0.0042177999999995,-0.021030799999999,-0.0056479999999999,0,sub_10
-0.0089586000000002,0.0066244000000011,-0.0111141999999998,-0.0065831999999995,-0.022353999999999,-0.0018171999999999,0,sub_10
-0.0112212000000002,0.0101874000000011,-0.0120401999999999,-0.0078777999999995,-0.021089199999999,0.0026586,0,sub_10
-0.0135994000000002,0.0121480000000012,-0.0135243999999999,-0.0072395999999995,-0.017910199999999,0.006291,0,sub_10
-0.0130092000000002,0.0120182000000011,-0.0136245999999998,-0.0046715999999995,-0.014092799999999,0.0084406,0,sub_10
-0.0116494000000002,0.0106680000000011,-0.0132515999999998,-0.0018813999999995,-0.008782999999999,0.0101624,0,sub_10
-0.0079774000000002,0.0081116000000011,-0.0130303999999998,7.840000000042327e-05,-0.002017799999999,0.0110232,0,sub_10
-0.0050996000000002,0.0051760000000011,-0.0119389999999998,0.0018250000000004,0.0024140000000009,0.0095354,0,sub_10
-0.0028014000000002,0.0039834000000011,-0.0101321999999998,0.0022902000000004,0.0055762000000009,0.006972,0,sub_10
0.0001559999999997,0.0039156000000011,-0.0089135999999999,0.0021164000000004,0.0078926000000009,0.003337,0,sub_10
0.0023335999999997,0.0036580000000011,-0.0071423999999999,0.0017310000000004,0.0102114000000009,-0.0007265999999999,0,sub_10
0.0012359999999997,0.0047462000000011,-0.0061631999999999,0.0011140000000004,0.0112950000000009,-0.0047913999999999,0,sub_10
-0.0016040000000002,0.0057612000000012,-0.0065959999999999,0.0004834000000004,0.0115180000000009,-0.0067187999999999,0,sub_10
-0.0041518000000001,0.0062486000000011,-0.0074301999999999,0.0002624000000004,0.0100266000000009,-0.0065047999999999,0,sub_10
-0.0072892000000001,0.0061168000000011,-0.0080091999999999,-0.0001889999999995,0.0071964000000009,-0.0045777999999999,0,sub_10
-0.0090980000000001,0.0056616000000011,-0.0103669999999999,-0.0012917999999995,0.0041460000000009,-0.0003049999999999,0,sub_10
-0.0104038000000002,0.0045408000000012,-0.0120653999999998,-0.0038873999999995,0.0023750000000009,0.005024,0,sub_10
-0.0078246000000002,0.0041830000000011,-0.0105119999999998,-0.0069029999999995,0.0018844000000009,0.0101348,0,sub_10
-0.0049068000000002,0.0041192000000011,-0.0086455999999998,-0.0084145999999995,0.0011858000000009,0.0126926,0,sub_10
-0.0023198000000002,0.0041548000000011,-0.0078373999999998,-0.0079973999999995,-9.739999999907636e-05,0.0135518,0,sub_10
0.0001739999999997,0.0042880000000011,-0.0062125999999998,-0.0060837999999995,-0.003292999999999,0.0118602,0,sub_10
0.0025657999999997,0.0041260000000011,-0.0046135999999998,-0.0020267999999995,-0.008652199999999,0.008248,0,sub_10
0.0022795999999997,0.0033146000000011,-0.0060635999999998,0.0026740000000004,-0.014222399999999,0.0035724,0,sub_10
0.0006865999999997,0.0023576000000011,-0.0090895999999998,0.0065262000000004,-0.018299999999999,-0.0006837999999999,0,sub_10
-0.0022714000000002,0.0010058000000011,-0.0111363999999999,0.0076152000000004,-0.018963199999999,-0.0038953999999999,0,sub_10
-0.0057910000000002,0.0013434000000011,-0.0131751999999999,0.0063618000000004,-0.017279799999999,-0.0058445999999999,0,sub_10
-0.0080446000000002,0.0035620000000011,-0.0149819999999999,0.0033984000000004,-0.012791799999999,-0.0067255999999999,0,sub_10
-0.0106372000000001,0.0055072000000011,-0.0157025999999999,2.000000000044362e-05,-0.005321199999999,-0.0071861999999999,0,sub_10
-0.0123826000000001,0.0076284000000011,-0.0141763999999999,-0.0037899999999995,0.0029954000000009,-0.0057277999999999,0,sub_10
-0.0116812000000002,0.0102216000000011,-0.0131475999999999,-0.0052735999999995,0.0093844000000009,-0.0038315999999999,0,sub_10
-0.0100884000000002,0.0110664000000011,-0.0121891999999999,-0.0042109999999995,0.0121442000000009,-0.0023401999999999,0,sub_10
-0.0093158000000002,0.0100644000000011,-0.0111833999999999,-0.0020909999999995,0.0129820000000008,-0.0006253999999999,0,sub_10
-0.0073536000000002,0.0090238000000011,-0.0098235999999999,0.0002326000000004,0.0129616000000009,0.0023738,0,sub_10
-0.0054372000000002,0.0073742000000012,-0.0080783999999999,0.0021268000000004,0.0112426000000009,0.0043038,0,sub_10
-0.0022966000000002,0.0052976000000011,-0.0064479999999999,0.0042386000000004,0.0073960000000009,0.0053916,0,sub_10
0.0014071999999997,0.0024272000000011,-0.0054817999999998,0.0046576000000004,0.0054780000000009,0.0051832,0,sub_10
0.0030061999999997,-0.0003841999999987,-0.0045269999999998,0.0040050000000004,0.0018616000000009,0.0043286,0,sub_10
