userAcceleration.x,userAcceleration.y,userAcceleration.z,rotationRate.x,rotationRate.y,rotationRate.z,label,subject
0.0094555999999997,-0.0140907999999987,0.007516,0.0060108000000004,0.0043712000000009,-0.0037659999999999,0,sub_13
0.0089699999999997,-0.0127503999999987,0.0084116,0.0061948000000004,0.0041340000000009,-0.0037977999999999,0,sub_13
0.0090187999999997,-0.0121275999999987,0.0080224,0.0050994000000004,0.0032654000000009,-0.0046923999999999,0,sub_13
0.0091827999999997,-0.0124153999999987,0.008033,0.0033602000000004,0.0015470000000009,-0.0055903999999999,0,sub_13
0.0096557999999997,-0.0128349999999987,0.0086094,0.0009780000000004,-0.000808399999999,-0.0064921999999999,0,sub_13
0.0099245999999997,-0.0141143999999987,0.0092234,-0.0013785999999995,-0.003567399999999,-0.0071459999999999,0,sub_13
0.0101107999999997,-0.0151227999999987,0.009805,-0.0026655999999995,-0.004629799999999,-0.0067263999999999,0,sub_13
0.0102145999999997,-0.0154555999999987,0.0104172,-0.0026673999999996,-0.003782599999999,-0.0054455999999998,0,sub_13
0.0096219999999997,-0.0151925999999987,0.0114638,-0.0018369999999996,-0.002316399999999,-0.0039553999999998,0,sub_13
0.0092181999999997,-0.0150325999999987,0.0109444,-0.0001493999999996,-0.000425399999999,-0.0028871999999998,0,sub_13
0.0099197999999997,-0.0141497999999987,0.0105816,0.0013248000000003,0.0012542000000009,-0.0020339999999998,0,sub_13
0.0103547999999997,-0.0138593999999987,0.0101792,0.0023684000000003,0.0014464000000009,-0.0018227999999999,0,sub_13
0.0100125999999997,-0.0140607999999987,0.0102592,0.0034092000000004,0.0009994000000009,-0.0016107999999999,0,sub_13
0.0103753999999997,-0.0138053999999988,0.0095294,0.0044740000000004,0.0009940000000009,-0.0011761999999999,0,sub_13
0.0101503999999997,-0.0134477999999988,0.00949,0.0046874000000004,0.0016298000000009,-0.0005345999999999,0,sub_13
0.0099379999999997,-0.0134857999999988,0.0095858,0.0044524000000003,0.0020492000000009,-0.0003293999999999,0,sub_13
0.0096885999999997,-0.0129333999999987,0.0096278,0.0040030000000003,0.0020442000000009,-0.0003387999999999,0,sub_13
0.0099789999999997,-0.0124677999999987,0.0092348,0.0024828000000003,0.0014028000000009,-0.0001413999999999,0,sub_13
0.0102095999999997,-0.0124085999999987,0.0094266,0.0009646000000003,0.0001264000000009,-0.0010113999999999,0,sub_13
0.0107181999999997,-0.0126477999999987,0.009752,-0.0005527999999996,-0.001361199999999,-0.0023083999999999,0,sub_13
0.0108245999999997,-0.0134943999999987,0.0099988,-0.0009775999999995,-0.002206799999999,-0.0035921999999999,0,sub_13
0.0104641999999997,-0.0146027999999988,0.0096802,-0.0007659999999995,-0.003058199999999,-0.0040169999999999,0,sub_13
0.0098391999999997,-0.0140013999999988,0.0101686,-0.0001247999999995,-0.002634999999999,-0.0037993999999999,0,sub_13
0.0092929999999997,-0.0135673999999988,0.0105472,0.0011574000000004,-0.001788799999999,-0.0033641999999999,0,sub_13
0.0082907999999997,-0.0139655999999988,0.0097786,0.0026340000000004,-0.000717199999999,-0.0024977999999999,0,sub_13
0.0082883999999997,-0.0138005999999988,0.0102092,0.0041056000000004,0.0005624000000009,-0.0003499999999999,0,sub_13
0.0096829999999997,-0.0134903999999988,0.0107628,0.0049400000000004,0.0014224000000009,0.0007256,0,sub_13
0.0113333999999997,-0.0144871999999988,0.0106358,0.0055618000000004,0.0010106000000009,0.000306,0,sub_13
0.0118191999999997,-0.0144667999999988,0.0112602,0.0049016000000004,0.0006016000000009,0.0003046,0,sub_13
0.0125457999999997,-0.0132955999999988,0.0125924,0.0046920000000004,0.0008180000000009,-0.0003381999999999,0,sub_13
0.0123697999999997,-0.0130051999999988,0.0117546,0.0038490000000004,0.0012548000000009,-0.0022673999999999,0,sub_13
0.0113013999999997,-0.0128425999999988,0.0110062,0.0032032000000004,0.0023290000000009,-0.0035443999999999,0,sub_13
0.0104141999999997,-0.0130573999999988,0.0105216,0.0023412000000004,0.0031892000000009,-0.0043953999999999,0,sub_13
0.0105933999999997,-0.0138995999999987,0.0094204,0.0012602000000004,0.0031962000000009,-0.0048193999999999,0,sub_13
0.0100699999999997,-0.0143217999999987,0.008797,-4.199999999956131e-05,0.0023484000000009,-0.0043893999999999,0,sub_13
0.0092355999999997,-0.0144483999999987,0.0092252,-0.0007059999999995,0.0017088000000009,-0.0033143999999999,0,sub_13
0.0089045999999997,-0.0141773999999987,0.0096318,-0.0004983999999995,0.0010664000000009,-0.0026711999999999,0,sub_13
0.0085863999999997,-0.0137749999999987,0.0102412,0.0003514000000004,0.0006356000000009,-0.0022373999999999,0,sub_13
0.0087267999999997,-0.0136189999999987,0.0101558,0.0012020000000004,0.0002056000000009,-0.0020171999999999,0,sub_13
0.0086827999999997,-0.0138177999999987,0.0105018,0.0022550000000004,-0.000221599999999,-0.0019905999999999,0,sub_13
0.0096353999999997,-0.0133901999999987,0.0104542,0.0030946000000004,-0.000647999999999,-0.0019653999999999,0,sub_13
0.0100185999999997,-0.0133669999999987,0.0104286,0.0032940000000003,-0.001072199999999,-0.0019447999999999,0,sub_13
0.0107291999999997,-0.0136305999999988,0.0105832,0.0030638000000003,-0.001497399999999,-0.0012861999999999,0,sub_13
0.0105871999999997,-0.0135493999999988,0.0115912,0.0032632000000003,-0.001072599999999,-0.0004121999999999,0,sub_13
0.0111399999999997,-0.0138513999999987,0.01182,0.0034766000000003,-1.2199999999068164e-05,0.0006562,0,sub_13
0.0111199999999997,-0.0140771999999987,0.0121028,0.0034766000000003,0.0008366000000009,0.0015096,0,sub_13
0.0111915999999997,-0.0138455999999987,0.0122488,0.0032642000000004,0.0018992000000009,0.0023614,0,sub_13
0.0113747999999997,-0.0133307999999987,0.0120452,0.0030538000000004,0.0027514000000009,0.0025724,0,sub_13
0.0115651999999997,-0.0135649999999987,0.0114018,0.0028300000000004,0.0031792000000009,0.0023724,0,sub_13
0.0114857999999997,-0.0130461999999988,0.0111974,0.0023908000000004,0.0027570000000009,0.0017446,0,sub_13
0.0115847999999997,-0.0127227999999987,0.0108278,0.0021660000000004,0.0021230000000009,0.0006914,0,sub_13
0.0116355999999997,-0.0132973999999988,0.0105142,0.0019392000000004,0.0008506000000009,-0.0005747999999999,0,sub_13
0.0105183999999997,-0.0138865999999988,0.0100226,0.0012828000000004,-0.000210799999999,-0.0009895999999999,0,sub_13
0.0092603999999997,-0.0128657999999988,0.0104222,0.0010684000000004,-0.000847599999999,-0.0014175999999999,0,sub_13
0.0090813999999997,-0.0130241999999988,0.0099974,0.0019286000000004,4.200000000952054e-06,-0.0020535999999999,0,sub_13
0.0085411999999997,-0.0132815999999988,0.0095534,0.0021448000000003,0.0006426000000009,-0.0020529999999999,0,sub_13
0.0089261999999997,-0.0135835999999988,0.0102502,0.0025612000000003,0.0014926000000009,-0.0013947999999999,0,sub_13
0.0102481999999997,-0.0139347999999987,0.0108144,0.0034042000000003,0.0014924000000009,-0.0015871999999999,0,sub_13
0.0120157999999997,-0.0152115999999987,0.0104462,0.0044606000000003,0.0014914000000009,-0.0017781999999999,0,sub_13
0.0128603999999997,-0.0151793999999987,0.0114204,0.0042290000000003,0.0004270000000009,-0.0013357999999999,0,sub_13
0.0129431999999997,-0.0148779999999987,0.0124396,0.0042138000000004,-0.000211199999999,-0.0011059999999999,0,sub_13
0.0122589999999997,-0.0140867999999987,0.012036,0.0042186000000004,0.0006418000000009,-0.0013207999999999,0,sub_13
0.0117169999999997,-0.0136521999999988,0.01174,0.0044414000000004,0.0025594000000009,-0.0015353999999999,0,sub_13
0.0116431999999997,-0.0135579999999988,0.0110682,0.0033622000000004,0.0034134000000009,-0.0013167999999999,0,sub_13
0.0109901999999997,-0.0141109999999988,0.010306,0.0022802000000004,0.0034162000000009,-0.0013107999999999,0,sub_13
0.0108965999999997,-0.0145041999999988,0.0104122,0.0009838000000004,0.0032066000000009,-0.0013059999999999,0,sub_13
0.0107857999999997,-0.0151365999999988,0.0099872,-0.0003183999999995,0.0021432000000009,-0.0008727999999999,0,sub_13
0.0105481999999997,-0.0150771999999988,0.0096668,-0.0009831999999995,0.0010748000000009,0.0002058,0,sub_13
0.0097597999999997,-0.0149081999999988,0.0101132,-0.0003457999999995,0.0008578000000009,0.0006378,0,sub_13
0.0100995999999997,-0.0145473999999988,0.0100718,0.0007220000000004,0.0010670000000009,0.000645,0,sub_13
0.0105071999999997,-0.0143697999999987,0.0094436,0.0017870000000004,0.0008492000000009,0.0008662,0,sub_13
0.0107089999999997,-0.0140457999999987,0.0098628,0.0026396000000003,0.0002088000000009,0.0004456,0,sub_13
0.0111403999999997,-0.0140707999999987,0.0105222,0.0026260000000003,-0.000643599999999,-0.0001795999999999,0,sub_13
0.0111369999999997,-0.0137379999999987,0.0111764,0.0026132000000003,-0.001070799999999,-0.0005915999999999,0,sub_13
0.0106745999999997,-0.0134189999999987,0.0114524,0.0021748000000003,-0.001071199999999,-0.0007935999999999,0,sub_13
0.0107143999999997,-0.0139623999999987,0.0119172,0.0019508000000003,-0.001071399999999,-0.0012075999999999,0,sub_13
0.0110605999999997,-0.0146205999999987,0.0119732,0.0015152000000004,-0.000432799999999,-0.0014101999999999,0,sub_13
0.0104247999999997,-0.0145031999999987,0.0117278,0.0017344000000004,0.0006326000000009,-0.0016237999999999,0,sub_13
0.0105565999999997,-0.0150837999999987,0.0115526,0.0013096000000004,0.0014846000000009,-0.0012005999999999,0,sub_13
0.0107097999999997,-0.0155027999999988,0.0115602,0.0015250000000003,0.0021222000000008,-0.0009861999999999,0,sub_13
0.0106189999999997,-0.0151335999999988,0.0112872,0.0019388000000003,0.0029674000000008,-0.0005491999999999,0,sub_13
0.0106125999999997,-0.0143373999999988,0.011113,0.0027746000000003,0.0029582000000009,0.0001054,0,sub_13
0.0112713999999997,-0.0144557999999988,0.011179,0.0029712000000003,0.0025276000000009,0.0001154,0,sub_13
0.0117503999999997,-0.0143401999999988,0.0104612,0.0029556000000003,0.0012498000000009,-0.0009433999999999,0,sub_13
0.0116191999999997,-0.0142997999999988,0.0100778,0.0025102000000004,-2.919999999904804e-05,-0.0013641999999999,0,sub_13
0.0107145999999997,-0.0135171999999988,0.0107336,0.0018654000000004,-0.000879999999999,-0.0011539999999999,0,sub_13
0.0096819999999997,-0.0125655999999988,0.0119028,0.0020826000000004,-0.000665199999999,-0.0017935999999999,0,sub_13
0.0088891999999997,-0.0129899999999988,0.011729,0.0027150000000004,0.0010316000000009,-0.0015707999999999,0,sub_13
0.0090771999999997,-0.0134625999999988,0.011873,0.0033434000000004,0.0027252000000009,-0.0004933999999999,0,sub_13
0.0100847999999997,-0.0137135999999988,0.0123444,0.0037556000000004,0.0029316000000009,-0.0002701999999999,0,sub_13
0.0115805999999997,-0.0147731999999987,0.0119304,0.0039552000000004,0.0025028000000009,-0.0009021999999999,0,sub_13
0.0126877999999997,-0.0155329999999987,0.0113526,0.0028690000000004,0.0016490000000009,-0.0006881999999999,0,sub_13
0.0127499999999997,-0.0148969999999987,0.0119576,0.0020116000000004,0.0003754000000009,-0.0011197999999999,0,sub_13
0.0116021999999997,-0.0139851999999987,0.0120596,0.0018010000000003,0.0001664000000009,-0.0019755999999999,0,sub_13
0.0108461999999997,-0.0141435999999987,0.0116974,0.0018068000000003,0.0012326000000009,-0.0021905999999999,0,sub_13
0.0105141999999997,-0.0143019999999988,0.010772,0.0018098000000003,0.0020840000000009,-0.0019779999999999,0,sub_13
0.0103631999999997,-0.0151691999999988,0.0103,0.0020078000000003,0.0025020000000009,-0.0017561999999999,0,sub_13
0.0108125999999997,-0.0156827999999987,0.0098312,0.0017722000000003,0.0020668000000009,-0.0008955999999999,0,sub_13
0.0107913999999997,-0.0157705999999987,0.009721,0.0011080000000003,0.0016314000000009,0.0003896,0,sub_13
0.0106445999999997,-0.0152415999999987,0.0096278,0.0008714000000004,0.0011952000000009,0.0014639999999999,0,sub_13
0.0102107999999997,-0.0147345999999987,0.0102304,0.0010636000000004,0.0007594000000009,0.0021139999999999,0,sub_13
0.0104279999999997,-0.0142093999999987,0.0103154,0.0019152000000004,0.0007548000000009,0.0025471999999999,0,sub_13
0.0105193999999997,-0.0139237999999987,0.0101872,0.0025582000000004,0.0009674000000009,0.0021242,0,sub_13
0.0111401999999997,-0.0137725999999988,0.01063,0.0031848000000004,0.0003224000000009,0.001493,0,sub_13
0.0113835999999997,-0.0139607999999988,0.0107708,0.0029590000000004,-0.000318799999999,0.0006424,0,sub_13
0.0112777999999997,-0.0143515999999988,0.0110376,0.0027358000000004,-0.000745199999999,-0.0006355999999999,0,sub_13
0.0111257999999997,-0.0142889999999988,0.0113802,0.0018716000000004,-0.000957999999999,-0.0014911999999999,0,sub_13
0.0111169999999997,-0.0142869999999987,0.0117522,0.0012170000000004,-0.001174999999999,-0.0014907999999999,0,sub_13
0.0107355999999997,-0.0146221999999987,0.0115092,0.0010066000000003,-0.000747399999999,-0.0017063999999999,0,sub_13
0.0108679999999997,-0.0146371999999987,0.011832,0.0012208000000003,-0.000322799999999,-0.0014917999999999,0,sub_13
0.0108963999999997,-0.0140905999999987,0.0117378,0.0014342000000003,0.0003130000000009,-0.0008501999999999,0,sub_13
0.0101825999999997,-0.0143679999999987,0.0112388,0.0016352000000003,0.0011566000000009,-0.0002043999999999,0,sub_13
0.0097353999999997,-0.0140663999999988,0.0112248,0.0018372000000003,0.0015766000000009,-0.0001989999999999,0,sub_13
0.0101065999999997,-0.0141151999999988,0.0115438,0.0020362000000003,0.0015698000000009,2.040000000004357e-05,0,sub_13
0.0098181999999997,-0.0138431999999988,0.0111866,0.0022372000000003,0.0017768000000009,2.5800000000043568e-05,0,sub_13
0.0102631999999997,-0.0137313999999988,0.011074,0.0024364000000003,0.0017700000000009,0.0002452,0,sub_13
0.0106549999999997,-0.0131721999999988,0.011154,0.0026470000000003,0.0011302000000009,0.0002474,0,sub_13
0.0109919999999997,-0.0132973999999988,0.011198,0.0028584000000003,0.0007034000000009,0.0002494,0,sub_13
0.0109995999999997,-0.0131041999999988,0.010643,0.0026432000000003,6.600000000095198e-05,3.520000000004353e-05,0,sub_13
0.0111051999999997,-0.0129763999999988,0.010964,0.0017878000000003,-0.000356999999999,2.9800000000043523e-05,0,sub_13
0.0102323999999997,-0.0124031999999988,0.011319,0.0007076000000003,-0.000358799999999,-0.0001859999999999,0,sub_13
0.0096155999999997,-0.0122861999999988,0.0112302,0.0009124000000004,0.0007002000000009,-0.0003941999999999,0,sub_13
0.0093761999999997,-0.0129741999999988,0.010982,0.0011164000000004,0.0019706000000009,-0.0001753999999999,0,sub_13
0.0101395999999997,-0.0138105999999988,0.0112216,0.0017432000000004,0.0028116000000009,0.0004742,0,sub_13
0.0108353999999997,-0.0146511999999988,0.0112236,0.0027920000000003,0.0027982000000009,0.0013416,0,sub_13
0.0118983999999997,-0.0155447999999988,0.0112192,0.0040684000000003,0.0025782000000009,0.0019916,0,sub_13
0.0126693999999997,-0.0157595999999988,0.0118776,0.0038482000000003,0.0019364000000009,0.0028454,0,sub_13
0.0128007999999997,-0.0146601999999988,0.0123462,0.0042758000000003,0.0021480000000009,0.002848,0,sub_13
0.0118847999999997,-0.0137953999999987,0.0122946,0.0044818000000003,0.0036312000000009,0.0028536,0,sub_13
0.0114889999999997,-0.0134379999999987,0.0120702,0.0044764000000004,0.0051168000000009,0.0024304,0,sub_13
0.0112203999999997,-0.0136553999999987,0.011756,0.0038232000000004,0.0055368000000009,0.002645,0,sub_13
0.0111843999999997,-0.0136753999999987,0.011373,0.0031672000000004,0.0051056000000009,0.002647,0,sub_13
0.0107643999999997,-0.0144115999999987,0.0108196,0.0018654000000004,0.0040348000000009,0.0032864,0,sub_13
0.0103771999999997,-0.0148645999999988,0.0107892,0.0007890000000004,0.0027568000000009,0.004135,0,sub_13
0.0098147999999997,-0.0146121999999987,0.0106744,0.0005708000000004,0.0025410000000009,0.0049882,0,sub_13
0.0102677999999997,-0.0142601999999987,0.0110484,0.0007716000000004,0.0027470000000009,0.0049916,0,sub_13
0.0103943999999997,-0.0143603999999987,0.0111082,0.0011848000000004,0.0027392000000009,0.0049968,0,sub_13
0.0108337999999997,-0.0138381999999987,0.0110614,0.0015960000000004,0.0020932000000009,0.004789,0,sub_13
0.0110347999999997,-0.0138593999999987,0.011316,0.0020112000000003,0.0016628000000009,0.00394,0,sub_13
0.0115187999999997,-0.0139415999999988,0.0117242,0.0022082000000003,0.0008044000000009,0.003731,0,sub_13
0.0108603999999997,-0.0141433999999988,0.011061,0.0028474000000003,0.0008014000000009,0.0039492,0,sub_13
0.0111369999999997,-0.0141595999999988,0.0109096,0.0034904000000003,0.0018626000000009,0.0043796,0,sub_13
0.0115659999999997,-0.0144773999999988,0.0110816,0.0039210000000003,0.0031376000000009,0.0048082,0,sub_13
0.0118087999999997,-0.0139629999999988,0.0109062,0.0037076000000003,0.0037748000000009,0.005447,0,sub_13
0.0115559999999997,-0.0137837999999988,0.0106132,0.0034846000000003,0.0041978000000009,0.0052344,0,sub_13
0.0113487999999997,-0.0134477999999987,0.0109422,0.0028338000000003,0.0046214000000009,0.0052322,0,sub_13
0.0107675999999997,-0.0137267999999988,0.0110252,0.0019668000000003,0.0044068000000009,0.0052294,0,sub_13
0.0106947999999997,-0.0139295999999988,0.0111744,0.0015276000000003,0.0046158000000009,0.0054426,0,sub_13
0.0108211999999997,-0.0139209999999988,0.0110674,0.0017294000000003,0.0048236000000009,0.0054466,0,sub_13
0.0108949999999997,-0.0139201999999988,0.010925,0.0015160000000003,0.0048244000000009,0.005445,0,sub_13
0.0111995999999997,-0.0144115999999988,0.0106484,0.0017256000000003,0.0041836000000009,0.005661,0,sub_13
0.0113199999999997,-0.0142235999999988,0.0105866,0.0021524000000003,0.0037576000000009,0.0052372,0,sub_13
0.0113787999999997,-0.0141615999999988,0.0103154,0.0023532000000003,0.0026910000000009,0.0041736,0,sub_13
0.0108539999999997,-0.0145655999999988,0.0108264,0.0023368000000003,0.0014094000000009,0.0037496,0,sub_13
0.0104885999999997,-0.0144019999999988,0.0111918,0.0021090000000003,0.0014036000000009,0.0041772,0,sub_13
0.0098105999999997,-0.0129547999999987,0.0118592,0.0016736000000003,0.0022524000000009,0.0041748,0,sub_13
0.0096917999999997,-0.0132517999999987,0.0115346,0.0020926000000003,0.0033112000000009,0.0041782,0,sub_13
0.0094765999999997,-0.0138567999999987,0.0111974,0.0025194000000004,0.0041586000000009,0.0050348,0,sub_13
0.0105267999999997,-0.0139843999999987,0.0113512,0.0031586000000003,0.0045800000000009,0.0056798,0,sub_13
0.0118009999999997,-0.0149307999999987,0.0111062,0.0035674000000003,0.0037180000000009,0.0054676,0,sub_13
0.0132983999999997,-0.0160867999999987,0.0106116,0.0044030000000003,0.0030668000000009,0.0054718,0,sub_13
0.0139639999999997,-0.0150807999999987,0.011527,0.0043880000000003,0.0030578000000009,0.0054692,0,sub_13
0.0135695999999997,-0.0139057999999987,0.0124784,0.0043806000000003,0.0041166000000009,0.0048244,0,sub_13
0.0128519999999997,-0.0137903999999987,0.011674,0.0041646000000003,0.0056048000000009,0.0035366,0,sub_13
0.0120947999999997,-0.0136683999999987,0.0114724,0.0039580000000004,0.0064604000000009,0.0028932,0,sub_13
0.0117381999999997,-0.0140941999999987,0.011459,0.0028930000000003,0.0062538000000009,0.0022452,0,sub_13
0.0110703999999997,-0.0149709999999987,0.0105662,0.0018204000000004,0.0051914000000009,0.0024528,0,sub_13
0.0111085999999997,-0.0155103999999987,0.0101256,0.0007440000000004,0.0039134000000009,0.0033014,0,sub_13
0.0107445999999997,-0.0149327999999987,0.0101848,-0.0001331999999995,0.0030464000000009,0.004568,0,sub_13
0.0102599999999997,-0.0143113999999988,0.0105394,5.7400000000418745e-05,0.0021766000000009,0.0056282,0,sub_13
0.0099235999999997,-0.0140397999999988,0.0108332,0.0006786000000004,0.0019452000000009,0.006477,0,sub_13
0.0109325999999997,-0.0139521999999988,0.0115362,0.0013018000000004,0.0017158000000009,0.0068986,0,sub_13
0.0113021999999997,-0.0141199999999988,0.0119752,0.0021392000000004,0.0012742000000009,0.0068948,0,sub_13
0.0118899999999997,-0.0145861999999988,0.012263,0.0025622000000004,0.0004206000000009,0.0068988,0,sub_13
0.0124909999999997,-0.0149311999999988,0.0123466,0.0027804000000004,0.0010608000000009,0.0064724,0,sub_13
0.0125785999999997,-0.0152047999999988,0.0124898,0.0029976000000004,0.0014880000000009,0.0060462,0,sub_13
0.0121127999999997,-0.0155367999999988,0.0124372,0.0034148000000004,0.0023260000000009,0.0056038,0,sub_13
0.0120697999999997,-0.0155285999999988,0.0119672,0.0036168000000004,0.0029508000000009,0.0053738,0,sub_13
0.0121517999999997,-0.0156333999999988,0.011988,0.0036072000000004,0.0040026000000009,0.0051418,0,sub_13
0.0115485999999997,-0.0152227999999987,0.0119656,0.0029528000000004,0.0044156000000009,0.0053332,0,sub_13
0.0115063999999997,-0.0147173999999988,0.0117098,0.0025118000000003,0.0048280000000009,0.0055262,0,sub_13
0.0112529999999997,-0.0144571999999987,0.0113416,0.0020860000000003,0.0048304000000009,0.0053096,0,sub_13
0.0112115999999997,-0.0144819999999987,0.0111226,0.0012306000000003,0.0044072000000009,0.005304,0,sub_13
0.0110547999999997,-0.0147315999999987,0.0113354,0.0016400000000003,0.0037486000000009,0.0052852,0,sub_13
0.0115095999999997,-0.0146649999999987,0.0112,0.0020504000000003,0.0028788000000009,0.0048396,0,sub_13
0.0120117999999997,-0.0149931999999987,0.0112094,0.0024646000000004,0.0018002000000009,0.003326,0,sub_13
0.0120239999999997,-0.0150789999999987,0.0112806,0.0026596000000004,0.0002928000000009,0.0026658,0,sub_13
0.0115133999999997,-0.0135493999999987,0.0120736,0.0026442000000004,-0.000362399999999,0.002217,0,sub_13
0.0112141999999997,-0.0123039999999987,0.0119802,0.0015822000000004,-0.000354399999999,0.0011414,0,sub_13
0.0111403999999997,-0.0129095999999987,0.0115966,0.0011622000000004,-0.000346799999999,-0.0003569999999999,0,sub_13
0.0105833999999997,-0.0131061999999987,0.0115296,0.0007364000000004,-0.000556799999999,-0.0007869999999999,0,sub_13
0.0114113999999997,-0.0131081999999987,0.0116742,0.0003126000000004,-0.001189399999999,-0.0020709999999999,0,sub_13
0.0125605999999997,-0.0145669999999987,0.0115294,0.0005130000000004,-0.002267799999999,-0.0038029999999999,0,sub_13
0.0130467999999997,-0.0149999999999987,0.0121452,0.0007134000000004,-0.003133799999999,-0.0053215999999999,0,sub_13
0.0130167999999997,-0.0137285999999988,0.0129316,0.0002766000000004,-0.002934199999999,-0.0064187999999999,0,sub_13
0.0125983999999997,-0.0125969999999988,0.0124584,-0.0001571999999995,-0.002307399999999,-0.0077299999999999,0,sub_13
0.0117851999999997,-0.0126995999999988,0.0122302,-0.0003785999999995,-0.001470199999999,-0.0086125999999999,0,sub_13
0.0113333999999997,-0.0132393999999988,0.0117328,-0.0005861999999995,-0.000827599999999,-0.0092557999999999,0,sub_13
0.0113431999999997,-0.0139461999999988,0.011198,-0.0010175999999995,-0.001254799999999,-0.0086171999999999,0,sub_13
0.0111643999999997,-0.0151843999999987,0.0107938,-0.0005985999999995,-0.001899799999999,-0.0075451999999999,0,sub_13
