userAcceleration.x,userAcceleration.y,userAcceleration.z,rotationRate.x,rotationRate.y,rotationRate.z,label,subject
0.0170121999999997,0.0210300000000012,-0.0032049999999999,-0.0156937999999995,0.0009812000000008,-0.0097379999999999,0,sub_21
0.0198627999999997,0.0230484000000012,-0.0023975999999999,-0.0154695999999995,-0.0007401999999991,-0.0108213999999999,0,sub_21
0.0217589999999997,0.0254728000000012,-0.0020899999999999,-0.0122743999999995,-0.0058817999999991,-0.0116659999999999,0,sub_21
0.0222665999999997,0.0251650000000012,-0.0018155999999999,-0.0090619999999995,-0.0050663999999991,-0.0103815999999999,0,sub_21
0.0198729999999997,0.0226338000000012,-0.0022525999999999,-0.0047923999999995,-0.0046875999999991,-0.0073801999999999,0,sub_21
0.0154781999999997,0.0179114000000012,-0.0029521999999999,-0.0015895999999995,-0.0036683999999991,-0.0037461999999999,0,sub_21
0.0109277999999997,0.0123634000000012,-0.0033177999999999,0.0005336000000004,-0.0017753999999991,0.0005392,0,sub_21
0.0073919999999997,0.0078992000000012,-0.0030219999999999,0.0011776000000004,0.0028942000000008,0.0043832,0,sub_21
0.0052771999999997,0.0079508000000012,-0.0036821999999998,0.0020260000000004,0.0026646000000008,0.0067142,0,sub_21
0.0056561999999997,0.0112480000000012,-0.0038481999999998,0.0026698000000004,0.0028678000000008,0.0075478,0,sub_21
0.0075171999999997,0.0149234000000012,-0.0036885999999998,0.0041758000000003,0.0032876000000008,0.006678,0,sub_21
0.0095551999999997,0.0188970000000012,-0.0033371999999998,0.0035566000000003,0.0037226000000008,0.0038706,0,sub_21
0.0122683999999997,0.0220422000000012,-0.0047811999999998,0.0001732000000003,0.0052370000000008,-2.5599999999953785e-05,0,sub_21
0.0158749999999997,0.0236178000000012,-0.0047939999999998,-0.0027909999999996,0.0067532000000008,-0.0036801999999999,0,sub_21
0.0195845999999997,0.0226366000000012,-0.0040729999999999,-0.0044787999999996,0.0080494000000008,-0.0066845999999999,0,sub_21
0.0221465999999997,0.0202364000000012,-0.0050683999999999,-0.0070277999999995,0.0080686000000008,-0.0092659999999999,0,sub_21
0.0244821999999997,0.0193616000000012,-0.0064795999999999,-0.0093737999999995,0.0068032000000008,-0.0101611999999999,0,sub_21
0.0252271999999997,0.0205178000000012,-0.0050193999999999,-0.0076839999999995,0.0040220000000008,-0.0084625999999998,0,sub_21
0.0234839999999997,0.0212288000000012,-0.0046907999999999,-0.0051529999999995,-4.659999999912893e-05,-0.0052607999999998,0,sub_21
0.0206697999999997,0.0218828000000012,-0.0054651999999999,-0.0038975999999995,-0.0036821999999991,-0.0027093999999999,0,sub_21
0.0169629999999997,0.0235408000000012,-0.0046693999999999,-0.0015705999999995,-0.0064681999999991,-0.0003653999999999,0,sub_21
0.0138381999999997,0.0228922000000012,-0.0026895999999999,0.0020510000000004,-0.0071225999999991,0.0003016,0,sub_21
0.0098931999999997,0.0193884000000012,-0.0040109999999998,0.0037600000000004,-0.0069147999999991,9.960000000006632e-05,0,sub_21
0.0080015999999997,0.0157284000000012,-0.0053597999999998,0.0031352000000004,-0.0052011999999991,-0.0016161999999999,0,sub_21
0.0066681999999997,0.0133540000000012,-0.0066899999999998,0.0033544000000004,-0.0034991999999991,-0.0011895999999999,0,sub_21
0.0089223999999997,0.0113670000000012,-0.0059199999999998,0.0016592000000004,-0.0002973999999991,0.0002778,0,sub_21
0.0108919999999997,0.0107692000000012,-0.0064321999999998,-0.0011115999999995,0.0031126000000008,0.0038738,0,sub_21
0.0138751999999997,0.0112684000000012,-0.0059347999999998,-0.0034567999999995,0.0065204000000008,0.0076864,0,sub_21
0.0156507999999997,0.0131348000000012,-0.0049143999999998,-0.0036641999999995,0.0103484000000008,0.0110862,0,sub_21
0.0171533999999997,0.0147230000000012,-0.0029315999999998,-0.0059939999999995,0.0139820000000008,0.011694,0,sub_21
0.0168319999999997,0.0166892000000012,-0.0039437999999998,-0.0076885999999995,0.0150600000000008,0.0099716,0,sub_21
0.0177093999999997,0.0192446000000012,-0.0046839999999998,-0.0076761999999995,0.0137978000000008,0.005914,0,sub_21
0.0174855999999997,0.0212140000000012,-0.0040185999999998,-0.0061523999999995,0.0108316000000008,0.0014458,0,sub_21
0.0182509999999997,0.0215684000000012,-0.0033331999999998,-0.0050651999999995,0.0065854000000008,-0.0021691999999999,0,sub_21
0.0180923999999997,0.0220884000000012,-0.0036533999999998,-0.0027043999999995,0.0025408000000008,-0.0040663999999999,0,sub_21
0.0177255999999997,0.0216574000000012,-0.0032981999999998,0.0002946000000004,0.0001900000000008,-0.0038249999999999,0,sub_21
0.0155417999999997,0.0198600000000011,-0.0029637999999998,0.0030746000000004,-0.0013163999999991,-0.0014495999999999,0,sub_21
0.0136615999999997,0.0183012000000011,-0.0046045999999999,0.0028506000000004,-0.0006883999999991,0.0015392,0,sub_21
0.0111695999999997,0.0180100000000011,-0.0065861999999999,0.0009226000000004,0.0001602000000008,0.0040884,0,sub_21
0.0109371999999997,0.0174328000000011,-0.0065123999999999,-0.0007881999999995,0.0003750000000008,0.0051444,0,sub_21
0.0111135999999997,0.0166720000000012,-0.0062389999999999,-0.0028991999999995,0.0008100000000008,0.0051348,0,sub_21
0.0120649999999997,0.0170568000000012,-0.0061741999999998,-0.0056407999999995,0.0016804000000008,0.003411,0,sub_21
0.0136969999999997,0.0184232000000012,-0.0045243999999998,-0.0053951999999995,0.0014794000000008,0.000641,0,sub_21
0.0160457999999997,0.0181084000000012,-0.0016497999999998,-0.0017413999999995,0.0006246000000008,-0.0014633999999999,0,sub_21
0.0177831999999997,0.0173320000000012,-0.0011313999999998,0.0016886000000004,-0.0010875999999991,-0.0020727999999999,0,sub_21
0.0181901999999997,0.0177352000000012,-0.0032789999999998,0.0029640000000004,-0.0025815999999991,-0.0024893999999999,0,sub_21
0.0181737999999997,0.0173652000000012,-0.0036687999999999,0.0029554000000003,-0.0023771999999991,-0.0003533999999999,0,sub_21
0.0186531999999997,0.0164638000000012,-0.0036223999999999,0.0029410000000004,-0.0015411999999991,0.0037048,0,sub_21
0.0187875999999997,0.0152318000000012,-0.0043717999999999,0.0018788000000004,-0.0013495999999991,0.007554,0,sub_21
0.0177231999999997,0.0140722000000012,-0.0058187999999999,-2.6399999999590183e-05,-0.0009333999999991,0.0092606,0,sub_21
0.0166015999999997,0.0145826000000012,-0.0054823999999999,-0.0010693999999995,-0.0003003999999991,0.0092638,0,sub_21
0.0159273999999997,0.0167142000000012,-0.0043431999999999,-0.0012483999999995,-0.0011461999999991,0.0054294,0,sub_21
0.0148007999999997,0.0191400000000012,-0.0033717999999999,-0.0012091999999995,-0.0032617999999991,-0.0007519999999999,0,sub_21
0.0147671999999997,0.0215454000000012,-0.0045249999999999,-0.0007641999999995,-0.0060055999999991,-0.0075819999999999,0,sub_21
0.0140845999999997,0.0232252000000012,-0.0054101999999998,-0.0001019999999995,-0.0068369999999991,-0.0133445999999999,0,sub_21
0.0139563999999997,0.0228146000000012,-0.0042481999999998,0.0007630000000004,-0.0078907999999991,-0.0169689999999999,0,sub_21
0.0131863999999997,0.0213860000000012,-0.0042317999999998,0.0024642000000003,-0.0089629999999991,-0.0167421999999999,0,sub_21
0.0144355999999997,0.0184252000000012,-0.0045737999999998,0.0041732000000003,-0.0089817999999991,-0.0139437999999999,0,sub_21
0.0148439999999997,0.0158562000000012,-0.0051393999999998,0.0046058000000003,-0.0072949999999991,-0.0103017999999999,0,sub_21
0.0166899999999997,0.0144354000000012,-0.0055643999999999,0.0048174000000003,-0.0056141999999991,-0.0049521999999999,0,sub_21
0.0179585999999997,0.0148972000000012,-0.0055617999999999,0.0043878000000003,-0.0030831999999991,0.0014598,0,sub_21
0.0198627999999997,0.0152282000000012,-0.0058083999999999,0.0026742000000004,-0.0016119999999991,0.0076508,0,sub_21
0.0205167999999997,0.0164556000000012,-0.0066571999999999,-0.0007473999999995,0.0003030000000008,0.0112564,0,sub_21
0.0207817999999997,0.0186728000000012,-0.0056715999999999,-0.0043651999999995,0.0039316000000008,0.012722,0,sub_21
0.0194809999999997,0.0215212000000012,-0.0042499999999999,-0.0071091999999995,0.0060544000000008,0.0122676,0,sub_21
0.0175513999999997,0.0226636000000012,-0.0039079999999999,-0.0070877999999995,0.0056134000000008,0.0111952,0,sub_21
0.0144719999999997,0.0226126000000012,-0.0047999999999999,-0.0051403999999995,0.0049586000000008,0.0086408,0,sub_21
0.0116223999999997,0.0220586000000012,-0.0042621999999999,-0.0029863999999995,0.0023874000000008,0.005663,0,sub_21
0.0094267999999997,0.0209662000000012,-0.0041723999999999,1.000000000410048e-06,-0.0029633999999991,0.0044038,0,sub_21
0.0087793999999997,0.0186832000000012,-0.0043937999999999,0.0031738000000004,-0.0087287999999991,0.0048608,0,sub_21
0.0100801999999997,0.0171642000000012,-0.0046181999999999,0.0065666000000004,-0.0130033999999991,0.0053172,0,sub_21
0.0134847999999997,0.0140936000000012,-0.0047743999999999,0.0074202000000004,-0.0136429999999991,0.0046832,0,sub_21
0.0156665999999997,0.0140878000000012,-0.0059637999999999,0.0040110000000004,-0.0132023999999991,0.0040178,0,sub_21
0.0180797999999997,0.0153714000000012,-0.0052441999999999,0.0029726000000003,-0.0115035999999991,0.0025048,0,sub_21
0.0204847999999997,0.0167198000000012,-0.0043223999999999,0.0021716000000003,-0.0063889999999991,-0.0009337999999999,0,sub_21
0.0219207999999997,0.0164106000000012,-0.0046769999999998,-0.0009879999999996,-0.0055205999999991,-0.0060923999999999,0,sub_21
0.0192741999999997,0.0214728000000012,-0.0048057999999998,-0.0035163999999996,-0.0055109999999991,-0.0101773999999999,0,sub_21
0.0147593999999997,0.0224614000000012,-0.0040527999999998,-0.0022047999999995,-0.0042423999999991,-0.0127413999999999,0,sub_21
0.0106463999999997,0.0200414000000012,-0.0042941999999998,-0.0041021999999995,-0.0001833999999991,-0.0138279999999999,0,sub_21
0.0081153999999997,0.0181170000000011,-0.0041153999999998,-0.0062331999999995,0.0013120000000008,-0.0129901999999999,0,sub_21
0.0055143999999997,0.0173474000000011,-0.0037891999999999,-0.0075087999999995,0.0055648000000008,-0.0097999999999999,0,sub_21
0.0048199999999997,0.0141894000000011,-0.0037673999999998,-0.0092135999999995,0.0087422000000008,-0.0055553999999999,0,sub_21
0.0075109999999997,0.0126820000000012,-0.0025569999999999,-0.0098573999999995,0.0123352000000008,0.0004052,0,sub_21
0.0102403999999997,0.0140274000000012,-0.0018311999999999,-0.0096581999999995,0.0152792000000008,0.0080816,0,sub_21
0.0137601999999997,0.0152080000000012,-0.0028107999999999,-0.0107323999999995,0.0184458000000008,0.0144672,0,sub_21
0.0194823999999997,0.0158644000000012,-0.0035207999999999,-0.0109521999999995,0.0207614000000008,0.0197916,0,sub_21
0.0264953999999997,0.0160536000000012,-0.0024743999999999,-0.0079879999999995,0.0203062000000008,0.024513,0,sub_21
0.0316923999999997,0.0158446000000012,-0.0031001999999999,-0.0045989999999995,0.0175134000000008,0.0273176,0,sub_21
0.0364877999999997,0.0161944000000012,-0.0035765999999999,-0.0005685999999995,0.0115426000000008,0.0271452,0,sub_21
0.0389935999999997,0.0177890000000012,-0.0035993999999998,0.0045274000000004,0.0023842000000008,0.0239932,0,sub_21
0.0354123999999997,0.0214634000000012,-0.0042921999999998,0.0094122000000004,-0.0091057999999991,0.0180654,0,sub_21
0.0273775999999997,0.0248214000000012,-0.0048423999999998,0.0132416000000004,-0.0195209999999991,0.0106334,0,sub_21
0.0189743999999998,0.0280046000000012,-0.0049109999999998,0.0166654000000004,-0.0265205999999991,0.0019122,0,sub_21
0.0106991999999998,0.0252742000000012,-0.0061047999999998,0.0168970000000004,-0.0328711999999991,-0.0085465999999999,0,sub_21
0.0049391999999998,0.0205764000000012,-0.0068809999999999,0.0158426000000004,-0.0409199999999991,-0.0194395999999998,0,sub_21
0.0036119999999998,0.0156398000000012,-0.0059913999999999,0.0147938000000004,-0.0466295999999991,-0.0292673999999999,0,sub_21
0.0049331999999998,0.0106612000000012,-0.0040343999999999,0.0146032000000004,-0.0483021999999991,-0.0354691999999999,0,sub_21
0.0084485999999997,0.0066994000000012,-0.0054031999999998,0.0116292000000004,-0.0480639999999991,-0.0376335999999999,0,sub_21
0.0134383999999997,0.0106672000000012,-0.0063627999999998,0.0071578000000004,-0.0444285999999991,-0.0355399999999999,0,sub_21
0.0159981999999997,0.0165010000000012,-0.0056647999999998,0.0046078000000004,-0.0340087999999991,-0.0268185999999999,0,sub_21
0.0158815999999997,0.0214474000000012,-0.0043257999999998,0.0028940000000004,-0.021697399999999,-0.0123253999999999,0,sub_21
0.0171703999999997,0.0266602000000012,-0.0054003999999998,-0.0001151999999995,-0.010884399999999,0.0034494,0,sub_21
0.0167995999999997,0.0288256000000012,-0.0051869999999998,-0.0003563999999995,-0.0026325999999991,0.017965,0,sub_21
0.0137881999999997,0.0268294000000012,-0.0028875999999999,0.0038794000000004,0.0007196000000008,0.028459,0,sub_21
0.0101891999999997,0.0223524000000012,-0.0013637999999999,0.0081162000000004,-0.000576599999999,0.0336054,0,sub_21
0.0105397999999997,0.0192120000000012,-0.0029503999999999,0.0104470000000003,-0.0056729999999991,0.0316932,0,sub_21
0.0109721999999997,0.0160930000000012,-0.0045385999999999,0.0111024000000003,-0.0096743999999991,0.0237858,0,sub_21
0.0114053999999997,0.0160720000000012,-0.0044827999999999,0.0113522000000003,-0.0115333999999991,0.013309,0,sub_21
0.0124643999999997,0.0176410000000012,-0.0046495999999998,0.0109598000000003,-0.0106333999999991,0.0060288000000001,0,sub_21
0.0157573999999997,0.0202054000000012,-0.0070101999999998,0.0099054000000003,-0.0110429999999991,0.0028172,0,sub_21
0.0167981999999997,0.0195766000000012,-0.0075353999999998,0.0088548000000003,-0.0074173999999991,0.0028052,0,sub_21
0.0183509999999997,0.0192348000000012,-0.0061525999999998,0.0103628000000003,-0.0023169999999991,0.004732,0,sub_21
0.0182313999999997,0.0174134000000012,-0.0044429999999998,0.0103694000000003,0.0010862000000008,0.0083656,0,sub_21
0.0190991999999997,0.0156790000000012,-0.0047461999999998,0.0090996000000003,0.0032240000000008,0.0098554,0,sub_21
0.0178289999999997,0.0144584000000012,-0.0034365999999999,0.0089224000000003,0.0081396000000008,0.0083584,0,sub_21
0.0172647999999997,0.0145032000000012,-0.0028339999999999,0.0089530000000003,0.0105030000000008,0.005584,0,sub_21
0.0155763999999997,0.0156270000000012,-0.0035889999999999,0.0072526000000003,0.0073340000000008,0.002591,0,sub_21
0.0153759999999997,0.0180482000000012,-0.0039997999999999,0.0074640000000004,0.0032996000000008,-0.0010343999999999,0,sub_21
0.0142899999999997,0.0197094000000012,-0.0037283999999999,0.0083222000000004,0.0013910000000008,-0.0040169999999999,0,sub_21
0.0143937999999997,0.0209224000000012,-0.0039509999999999,0.0061990000000004,0.0011956000000008,-0.0065953999999999,0,sub_21
0.0148381999999997,0.0201146000000012,-0.0040157999999999,0.0043054000000004,0.0028958000000008,-0.0079251999999999,0,sub_21
0.0156875999999997,0.0184154000000012,-0.0047777999999999,0.0028366000000004,0.0052292000000008,-0.0081845999999999,0,sub_21
0.0174283999999997,0.0172040000000012,-0.0053425999999998,0.0004942000000004,0.0037282000000008,-0.0078041999999999,0,sub_21
0.0199739999999997,0.0168632000000012,-0.0050245999999998,-0.0010117999999995,-0.0011863999999991,-0.0069863999999999,0,sub_21
0.0218091999999997,0.0166188000000012,-0.0043779999999998,0.0002636000000004,-0.0048305999999991,-0.0065779999999999,0,sub_21
0.0237275999999997,0.0180776000000012,-0.0039293999999998,0.0025992000000004,-0.0073953999999991,-0.0065583999999999,0,sub_21
0.0238587999999997,0.0197692000000012,-0.0045295999999998,0.0042956000000004,-0.0097449999999991,-0.0065435999999999,0,sub_21
0.0221025999999997,0.0207308000000012,-0.0055583999999999,0.0051510000000003,-0.0088973999999991,-0.0061113999999999,0,sub_21
0.0192223999999997,0.0206078000000012,-0.0069377999999999,0.0045262000000003,-0.0052739999999991,-0.0059067999999999,0,sub_21
0.0170087999999997,0.0199536000000012,-0.0056545999999999,0.0038664000000003,-0.0045775999999991,-0.0046237999999999,0,sub_21
0.0151021999999997,0.0194634000000012,-0.0066385999999999,0.0031978000000003,-0.0066477999999991,-0.0041917999999999,0,sub_21
0.0139575999999997,0.0183662000000012,-0.0062549999999999,0.0025360000000003,-0.0080751999999991,-0.0046149999999999,0,sub_21
0.0128589999999997,0.0175722000000012,-0.0058191999999999,0.0025212000000004,-0.0084379999999991,-0.0054625999999999,0,sub_21
0.0116135999999997,0.0182558000000012,-0.0043065999999999,0.0031358000000004,-0.0111465999999991,-0.0063025999999999,0,sub_21
0.0104987999999997,0.0193230000000012,-0.0040197999999999,0.0037644000000004,-0.0145543999999991,-0.0071483999999999,0,sub_21
0.0096791999999997,0.0196480000000012,-0.0036813999999999,0.0031310000000003,-0.0147583999999991,-0.0088615999999999,0,sub_21
0.0095693999999997,0.0194168000000012,-0.0045715999999999,0.0011946000000003,-0.0127617999999991,-0.0086707999999999,0,sub_21
0.0102839999999997,0.0194810000000012,-0.0057831999999999,-0.0005361999999996,-0.0101359999999991,-0.0061289999999999,0,sub_21
0.0127467999999997,0.0183744000000012,-0.0055469999999999,-0.0003531999999996,-0.0070985999999991,-0.0016515999999999,0,sub_21
0.0144877999999997,0.0184340000000012,-0.0065907999999999,-0.0016533999999996,-0.0023489999999991,0.0021722,0,sub_21
0.0155339999999997,0.0198350000000012,-0.0055987999999999,-0.0040203999999995,0.0028288000000008,0.0064152,0,sub_21
0.0170109999999997,0.0212316000000012,-0.0043117999999999,-0.0035877999999995,0.0070766000000008,0.0094038,0,sub_21
0.0190647999999997,0.0213930000000012,-0.0031129999999999,-0.0035791999999995,0.0094184000000008,0.009828,0,sub_21
0.0191623999999997,0.0215556000000012,-0.0043927999999999,-0.0063195999999995,0.0145508000000008,0.0074522,0,sub_21
0.0194411999999997,0.0203966000000012,-0.0044245999999998,-0.0071385999999995,0.0192530000000008,0.0044496,0,sub_21
0.0208617999999997,0.0167266000000012,-0.0038065999999998,-0.0054493999999995,0.0208076000000008,0.001658,0,sub_21
0.0215147999999997,0.0137474000000012,-0.0038361999999998,-0.0056881999999995,0.0200278000000008,-0.0017849999999999,0,sub_21
0.0183969999999997,0.0132538000000012,-0.0035603999999998,-0.0054963999999995,0.0207354000000008,-0.0045859999999999,0,sub_21
0.0149973999999997,0.0126034000000012,-0.0018783999999999,-0.0046663999999995,0.0218634000000008,-0.0065285999999999,0,sub_21
0.0110415999999997,0.0123306000000012,-0.0010777999999999,-0.0063911999999995,0.0232176000000008,-0.0095575999999998,0,sub_21
0.0112577999999997,0.0180490000000012,-0.0039133999999999,-0.0091639999999995,0.0185596000000008,-0.0144847999999998,0,sub_21
0.0111761999999997,0.0214072000000012,-0.0030993999999999,-0.0089641999999995,0.0119686000000008,-0.0181069999999998,0,sub_21
0.0148069999999997,0.0228736000000012,-0.0027729999999999,-0.0074657999999995,0.0094212000000008,-0.0217251999999998,0,sub_21
0.0176769999999997,0.0230980000000011,-0.0038973999999999,-0.0077177999999995,0.0062724000000008,-0.0249401999999998,0,sub_21
0.0191945999999997,0.0240912000000011,-0.0062155999999999,-0.0082203999999995,0.0001204000000008,-0.0228119999999999,0,sub_21
0.0151877999999997,0.0209684000000011,-0.0048299999999998,-0.0065875999999995,0.0005410000000008,-0.0144815999999999,0,sub_21
0.0131563999999997,0.0203228000000011,-0.0040285999999998,-0.0045191999999995,0.0041506000000008,-0.0048701999999999,0,sub_21
0.0118511999999997,0.0196458000000012,-0.0026931999999998,-0.0050353999999995,0.0024428000000008,0.0047298,0,sub_21
0.0112899999999997,0.0212386000000012,-0.0036651999999998,-0.0042403999999995,-0.0012195999999991,0.0141404,0,sub_21
0.0141199999999997,0.0205668000000012,-0.0044477999999998,-6.599999999570838e-06,-0.0038107999999991,0.0190872,0,sub_21
0.0163817999999997,0.0197358000000012,-0.0037879999999999,0.0033634000000004,-0.0071975999999991,0.0182672,0,sub_21
0.0176755999999997,0.0168496000000012,-0.0036561999999999,0.0048110000000004,-0.0139743999999991,0.014447,0,sub_21
0.0185129999999997,0.0141578000000012,-0.0044157999999999,0.0081942000000004,-0.0196833999999991,0.008289,0,sub_21
0.0189969999999997,0.0111684000000012,-0.0044685999999998,0.0118120000000003,-0.0217669999999991,0.0010598,0,sub_21
0.0155453999999997,0.0118830000000012,-0.0041661999999998,0.0122320000000003,-0.0198049999999991,-0.0027785999999999,0,sub_21
0.0115383999999997,0.0140144000000012,-0.0045889999999998,0.0116090000000003,-0.0157555999999991,-0.0025743999999999,0,sub_21
0.0070069999999997,0.0185366000000012,-0.0056787999999998,0.0107688000000003,-0.0106479999999991,-0.0004503999999999,0,sub_21
0.0025619999999997,0.0233854000000012,-0.0061285999999998,0.0088428000000003,-0.0080999999999991,0.0033784,0,sub_21
0.0024163999999997,0.0278322000000012,-0.0048495999999999,0.0081892000000003,-0.0081095999999991,0.0063648,0,sub_21
0.0068705999999997,0.0287634000000012,-0.0028847999999999,0.0096576000000003,-0.0091345999999991,0.0051118,0,sub_21
0.0128591999999997,0.0274318000000012,-0.0022335999999999,0.0104984000000003,-0.0097217999999991,0.0015038,0,sub_21
0.0192173999999997,0.0243504000000012,-0.0035983999999999,0.0090064000000003,-0.0077415999999991,-0.0027645999999999,0,sub_21
0.0248109999999997,0.0206150000000012,-0.0040273999999999,0.0079478000000003,-0.0038471999999991,-0.0066051999999999,0,sub_21
0.0268899999999997,0.0172054000000012,-0.0042071999999999,0.0058032000000003,-0.0006027999999991,-0.0068205999999999,0,sub_21
0.0250155999999997,0.0147070000000012,-0.0046337999999999,0.0025884000000004,0.0006688000000008,-0.0023581999999999,0,sub_21
0.0224265999999997,0.0137432000000012,-0.0054027999999999,0.0008556000000004,0.0017128000000008,0.0044648,0,sub_21
0.0196219999999997,0.0143746000000012,-0.0046179999999999,0.0016900000000004,0.0033904000000008,0.0104504,0,sub_21
0.0165127999999997,0.0154274000000012,-0.0038461999999999,0.0027354000000003,0.0046544000000008,0.014735,0,sub_21
0.0145627999999997,0.0160688000000012,-0.0044821999999999,0.0042210000000003,0.0050800000000008,0.0151782,0,sub_21
0.0142293999999997,0.0176664000000012,-0.0053149999999999,0.0055084000000003,0.0042468000000008,0.0109214,0,sub_21
0.0151915999999997,0.0182474000000012,-0.0045439999999999,0.0061576000000003,0.0010832000000008,0.0038858,0,sub_21
0.0179791999999997,0.0183588000000012,-0.0037987999999998,0.0065916000000003,-0.0020811999999991,-0.0027239999999999,0,sub_21
0.0200693999999997,0.0183182000000012,-0.0049649999999998,0.0063812000000004,-0.0063217999999991,-0.0076337999999999,0,sub_21
0.0195789999999997,0.0188702000000011,-0.0055513999999998,0.0055258000000004,-0.0080179999999991,-0.0089195999999999,0,sub_21
0.0188295999999997,0.0195028000000011,-0.0051611999999998,0.0061700000000004,-0.0074213999999991,-0.0065349999999999,0,sub_21
0.0177667999999997,0.0202284000000011,-0.0043991999999998,0.0070334000000004,-0.0055471999999991,-0.0041503999999999,0,sub_21
0.0149007999999997,0.0206198000000011,-0.0045005999999998,0.0064052000000004,-0.0055759999999991,-0.0041239999999999,0,sub_21
0.0130697999999997,0.0214986000000011,-0.0046655999999998,0.0060016000000003,-0.0055953999999991,-0.0066597999999999,0,sub_21
0.0128981999999997,0.0216424000000012,-0.0048367999999998,0.0058134000000003,-0.0070991999999991,-0.0111147999999999,0,sub_21
0.0109571999999997,0.0206736000000012,-0.0043547999999998,0.0043380000000003,-0.0081387999999991,-0.0162511999999999,0,sub_21
0.0083651999999997,0.0188700000000012,-0.0045783999999998,0.0015786000000003,-0.0062065999999991,-0.0175547999999999,0,sub_21
0.0061955999999997,0.0170866000000012,-0.0044241999999998,8.20000000003887e-05,-0.0030209999999991,-0.0137237999999999,0,sub_21
0.0041377999999997,0.0150564000000012,-0.0043961999999998,-0.0007963999999995,-0.0002813999999991,-0.0054013999999999,0,sub_21
0.0055041999999997,0.0150072000000012,-0.0030089999999998,-0.0008145999999995,0.0024374000000008,0.0040084,0,sub_21
0.0089827999999997,0.0159588000000012,-0.0027317999999999,-0.0008201999999995,0.0064404000000008,0.0119212,0,sub_21
0.0131853999999997,0.0175570000000012,-0.0022497999999999,-0.0003827999999995,0.0098198000000008,0.015565,0,sub_21
0.0163029999999997,0.0195142000000012,-0.0038519999999999,7.180000000042881e-05,0.0123658000000008,0.01451,0,sub_21
0.0196045999999997,0.0211204000000012,-0.0045573999999999,0.0005438000000004,0.0142904000000008,0.0089692,0,sub_21
0.0205343999999997,0.0212032000000012,-0.0054635999999998,-0.0007045999999995,0.0143230000000008,0.0019102,0,sub_21
0.0202433999999997,0.0204548000000012,-0.0051087999999998,-0.0013331999999995,0.0109402000000008,-0.0040719999999999,0,sub_21
