userAcceleration.x,userAcceleration.y,userAcceleration.z,rotationRate.x,rotationRate.y,rotationRate.z,label,subject
-0.0216290000000001,-0.0099799999999987,-0.0087851999999999,-0.0105395999999996,0.0841698000000008,-0.0043307999999998,0,sub_14
-0.0214104000000001,-0.0105149999999987,-0.0074811999999998,-0.0090555999999996,0.0903198000000008,0.0020668000000001,0,sub_14
-0.0211678000000001,-0.0111733999999986,-0.0072929999999998,-0.0069525999999996,0.0926292000000008,0.0093282000000001,0,sub_14
-0.0222816000000001,-0.0127747999999986,-0.0083457999999998,-0.0200813999999996,0.0713640000000008,0.0111724000000001,0,sub_14
-0.0237176000000001,-0.0105577999999986,-0.0086243999999998,-0.0239987999999996,0.0615580000000009,0.0164846000000001,0,sub_14
-0.0260054000000001,-0.0109415999999986,-0.0092275999999998,-0.0244705999999996,0.0577098000000009,0.0207448000000001,0,sub_14
-0.0283866000000001,-0.0106165999999986,-0.0110361999999998,-0.0234257999999996,0.0547158000000008,0.0226788000000001,0,sub_14
-0.0324302000000001,-0.0100937999999987,-0.0109141999999998,-0.0215207999999996,0.0498148000000008,0.0212028,0,sub_14
-0.0357524000000001,-0.0099283999999987,-0.0108129999999999,-0.0172561999999996,0.0464022000000008,0.0184596,0,sub_14
-0.0388852000000001,-0.0105931999999987,-0.0115401999999999,-0.0136211999999996,0.0427890000000008,0.0131484,0,sub_14
-0.0408680000000001,-0.0096753999999987,-0.0130001999999998,-0.0106439999999996,0.0374760000000008,0.0052658000000001,0,sub_14
-0.0421976000000001,-0.0082407999999987,-0.0135497999999998,-0.0085201999999995,0.0300440000000008,-0.0047565999999998,0,sub_14
-0.0418236000000001,-0.0066169999999987,-0.0149883999999998,-0.0050989999999996,0.0260182000000008,-0.0152015999999998,0,sub_14
-0.0414622000000001,-0.0052817999999987,-0.0159611999999998,-0.0020977999999996,0.0234852000000008,-0.0256515999999998,0,sub_14
-0.0401798000000001,-0.0040505999999987,-0.0174231999999999,-0.0003807999999996,0.0218020000000008,-0.0344023999999998,0,sub_14
-0.0403962000000001,-0.0041805999999987,-0.0171647999999999,0.0015510000000003,0.0190470000000008,-0.0397265999999998,0,sub_14
-0.0403742000000001,-0.0053847999999987,-0.0160947999999999,0.0026208000000003,0.0179848000000008,-0.0414269999999998,0,sub_14
-0.0391996000000001,-0.0064599999999987,-0.0153667999999999,0.0021826000000003,0.0173396000000008,-0.0395063999999998,0,sub_14
-0.0375048000000001,-0.0079265999999987,-0.0154385999999999,-0.0008315999999996,0.0154164000000008,-0.0354655999999998,0,sub_14
-0.0362118000000001,-0.0097159999999987,-0.0130411999999999,-0.0043647999999996,0.0102438000000008,-0.0294649999999998,0,sub_14
-0.0344552000000001,-0.0108117999999987,-0.0113309999999999,-0.0085321999999996,0.0072004000000008,-0.0226169999999998,0,sub_14
-0.0328346000000001,-0.0113605999999987,-0.0108863999999999,-0.0118471999999996,0.0039412000000008,-0.0157627999999998,0,sub_14
-0.0328466000000001,-0.0120507999999987,-0.0107669999999999,-0.0130399999999996,-0.001457799999999,-0.0084637999999998,0,sub_14
-0.0317856000000001,-0.0117491999999987,-0.0098909999999999,-0.0116751999999996,-0.007292799999999,-0.0009327999999998,0,sub_14
-0.0305294000000001,-0.0104871999999987,-0.0097795999999999,-0.0100151999999996,-0.010099199999999,0.0067736000000001,0,sub_14
-0.0298432000000001,-0.0094599999999987,-0.0107593999999999,-0.0107243999999996,-0.015250999999999,0.0170302000000001,0,sub_14
-0.0311528000000001,-0.0077043999999987,-0.0122695999999998,-0.0121289999999996,-0.019212799999999,0.0262550000000001,0,sub_14
-0.0325624000000001,-0.0057223999999987,-0.0130273999999999,-0.0163015999999996,-0.023371999999999,0.0339652000000001,0,sub_14
-0.0332884000000001,-0.0054195999999987,-0.0138497999999998,-0.0206815999999996,-0.028586199999999,0.0393252000000001,0,sub_14
-0.0366258000000001,-0.0066967999999987,-0.0148435999999998,-0.0248367999999996,-0.033154399999999,0.0427632000000001,0,sub_14
-0.0393206000000001,-0.0082963999999987,-0.0146797999999999,-0.0255531999999996,-0.035590399999999,0.0428040000000001,0,sub_14
-0.0408548000000001,-0.0100411999999987,-0.0139103999999999,-0.0262075999999996,-0.039632799999999,0.0419500000000001,0,sub_14
-0.0383518000000001,-0.0113579999999987,-0.0131825999999999,-0.0262113999999996,-0.042182599999999,0.0402440000000001,0,sub_14
-0.0368168000000001,-0.0116319999999987,-0.0127619999999999,-0.0262067999999996,-0.0419659999999991,0.0393892000000001,0,sub_14
-0.0327490000000001,-0.0111347999999987,-0.0124183999999999,-0.0251613999999996,-0.0443011999999991,0.0385764000000001,0,sub_14
-0.0279434000000001,-0.0111377999999987,-0.0110019999999999,-0.0245369999999996,-0.0472663999999991,0.0358388000000001,0,sub_14
-0.0220470000000001,-0.0115911999999987,-0.0101191999999999,-0.0219789999999996,-0.0478921999999991,0.0324708000000001,0,sub_14
-0.0193700000000001,-0.0119361999999987,-0.0090615999999999,-0.0153505999999996,-0.045122599999999,0.0289132000000001,0,sub_14
-0.0178804000000001,-0.0137149999999987,-0.0073599999999999,-0.0078819999999996,-0.044702199999999,0.0260054000000001,0,sub_14
-0.0178832000000001,-0.0135107999999986,-0.0059157999999999,-0.0044633999999996,-0.045346399999999,0.0243210000000001,0,sub_14
-0.0203614000000001,-0.0108391999999986,-0.0058789999999999,-0.0080983999999996,-0.044703999999999,0.0266450000000001,0,sub_14
-0.0245122000000001,-0.0076745999999987,-0.0068481999999999,-0.0166695999999996,-0.045343199999999,0.0340634000000001,0,sub_14
-0.0275700000000001,-0.0064285999999987,-0.0082427999999999,-0.0243949999999996,-0.048326199999999,0.0408500000000001,0,sub_14
-0.0285692000000001,-0.0058709999999987,-0.0095251999999999,-0.0271465999999996,-0.048142599999999,0.0421076000000001,0,sub_14
-0.0294362000000001,-0.0079569999999987,-0.0113773999999998,-0.0252019999999996,-0.049883599999999,0.0410502000000001,0,sub_14
-0.0320976000000001,-0.0120833999999987,-0.0132639999999998,-0.0194149999999996,-0.053758199999999,0.0374586000000001,0,sub_14
-0.0342830000000001,-0.0157409999999986,-0.0131699999999998,-0.0112605999999996,-0.056774399999999,0.0302506000000001,0,sub_14
-0.0389332000000001,-0.0162695999999987,-0.0126639999999999,-0.0065355999999996,-0.060641199999999,0.0255834000000001,0,sub_14
-0.0449906000000001,-0.0131873999999987,-0.0134899999999999,-0.0091189999999996,-0.065745599999999,0.0255718000000001,0,sub_14
-0.0441232000000001,-0.0043943999999987,-0.0134143999999999,-0.0156965999999996,-0.063161599999999,0.0255794000000001,0,sub_14
-0.0400172000000001,0.0008294000000012,-0.0132643999999999,-0.0166937999999996,-0.057597199999999,0.0213492000000001,0,sub_14
-0.0345398000000001,0.0078262000000012,-0.0142225999999999,-0.0189561999999996,-0.052014599999999,0.0136920000000001,0,sub_14
-0.0284578000000001,0.0103998000000012,-0.0146999999999998,-0.0192701999999996,-0.044291999999999,0.0019864000000001,0,sub_14
-0.0242922000000001,0.0091816000000012,-0.0140987999999999,-0.0187509999999996,-0.038075599999999,-0.0067205999999998,0,sub_14
-0.0291300000000001,0.0038594000000012,-0.0132989999999999,-0.0176467999999996,-0.0329531999999991,-0.0099239999999998,0,sub_14
-0.0328300000000001,0.0011320000000012,-0.0125739999999999,-0.0217017999999996,-0.029332599999999,-0.0061111999999998,0,sub_14
-0.0364600000000001,-0.0048481999999987,-0.0113343999999999,-0.0217151999999996,-0.025524999999999,0.0007204000000001,0,sub_14
-0.0363224000000001,-0.0092839999999987,-0.0088069999999998,-0.0206693999999996,-0.022576599999999,0.0084150000000001,0,sub_14
-0.0351338000000001,-0.0114839999999987,-0.0063735999999998,-0.0187119999999996,-0.018889399999999,0.0133700000000001,0,sub_14
-0.0315700000000001,-0.0143469999999987,-0.0058021999999998,-0.0161077999999996,-0.016683799999999,0.0153402000000001,0,sub_14
-0.0295362000000001,-0.0155945999999987,-0.0063599999999998,-0.0120005999999996,-0.013838199999999,0.0158246000000001,0,sub_14
-0.0301136000000001,-0.0144581999999987,-0.0076589999999998,-0.0102641999999996,-0.014188799999999,0.0184330000000001,0,sub_14
-0.0339896000000001,-0.0119895999999987,-0.0110953999999999,-0.0123965999999996,-0.016884999999999,0.0248632000000001,0,sub_14
-0.0372470000000001,-0.0096577999999987,-0.0148613999999999,-0.0158507999999996,-0.0190307999999991,0.0316784000000001,0,sub_14
-0.0389638000000001,-0.0069117999999987,-0.0178951999999999,-0.0169387999999996,-0.0201067999999991,0.0353042000000001,0,sub_14
-0.0404890000000001,-0.0043453999999987,-0.0190051999999999,-0.0163081999999996,-0.0230883999999991,0.0344578000000001,0,sub_14
-0.0411228000000001,-0.0032495999999987,-0.0186017999999999,-0.0130055999999996,-0.0237111999999991,0.0286526000000001,0,sub_14
-0.0426974000000001,-0.0022205999999987,-0.0177195999999999,-0.0079651999999996,-0.0211297999999991,0.0192234000000001,0,sub_14
-0.0421194000000001,-0.0016065999999987,-0.0167605999999999,-0.0016303999999996,-0.0170547999999991,0.0080922000000001,0,sub_14
-0.0410104000000001,-0.0015393999999987,-0.0144497999999999,0.0038338000000003,-0.0151141999999991,-0.0013331999999998,0,sub_14
-0.0394592000000001,-0.0015203999999987,-0.0131817999999999,0.0067308000000003,-0.0110483999999991,-0.0071471999999998,0,sub_14
-0.0356246000000001,-0.0025397999999987,-0.0118495999999999,0.0056936000000003,-0.0063499999999991,-0.0090831999999998,0,sub_14
-0.0311802000000001,-0.0036941999999987,-0.0106901999999999,0.0010060000000003,-0.0033567999999991,-0.0076243999999998,0,sub_14
-0.0297498000000001,-0.0034091999999987,-0.0086711999999999,-0.0053173999999996,-0.0017497999999991,-0.0041509999999998,0,sub_14
-0.0295850000000001,-0.0030663999999987,-0.0082105999999999,-0.0131363999999996,7.300000000089382e-05,-4.7399999999840975e-05,0,sub_14
-0.0297378000000001,-0.0031183999999987,-0.0076531999999998,-0.0198885999999996,0.0010432000000009,0.0032102000000001,0,sub_14
-0.0305936000000001,-0.0034057999999987,-0.0080389999999998,-0.0249327999999996,0.0003108000000009,0.0045590000000001,0,sub_14
-0.0312632000000001,-0.0043241999999986,-0.0087499999999999,-0.0256997999999996,-0.000640399999999,0.0035880000000001,0,sub_14
-0.0316820000000001,-0.0062177999999987,-0.0101673999999999,-0.0235573999999996,-0.001064599999999,0.0012534000000001,0,sub_14
-0.0318516000000001,-0.0079385999999987,-0.0111983999999999,-0.0186363999999995,-0.001069799999999,-0.0017031999999998,0,sub_14
-0.0322258000000001,-0.0097917999999987,-0.0118933999999999,-0.0132875999999995,-0.0008635999999991,-0.0046571999999998,0,sub_14
-0.0333236000000001,-0.0104423999999987,-0.0124149999999999,-0.0079359999999996,-1.819999999910617e-05,-0.0076117999999998,0,sub_14
-0.0345310000000001,-0.0099199999999987,-0.0125309999999999,-0.0044101999999996,0.0014580000000008,-0.0107141999999998,0,sub_14
-0.0358092000000001,-0.0095511999999987,-0.0134553999999999,-0.0019511999999996,0.0031502000000008,-0.0136105999999998,0,sub_14
-0.0364298000000001,-0.0091391999999987,-0.0134087999999999,0.0005098000000003,0.0050562000000008,-0.0167209999999998,0,sub_14
-0.0359564000000001,-0.0081735999999987,-0.0136127999999999,0.0033946000000003,0.0069582000000008,-0.0191875999999998,0,sub_14
-0.0344158000000001,-0.0081003999999987,-0.0139165999999998,0.0058354000000003,0.0073610000000008,-0.0193053999999998,0,sub_14
-0.0331178000000001,-0.0087653999999987,-0.0140779999999998,0.0070928000000003,0.0056384000000008,-0.0158761999999998,0,sub_14
-0.0324228000000001,-0.0071321999999987,-0.0134357999999998,0.0079060000000003,0.0022044000000008,-0.0103113999999998,0,sub_14
-0.0327652000000001,-0.0054347999999987,-0.0135249999999998,0.0067940000000003,-0.0022881999999991,-0.0047587999999998,0,sub_14
-0.0340470000000001,-0.0052337999999987,-0.0141565999999998,0.0042972000000003,-0.0055059999999991,4.200000000009864e-05,0,sub_14
-0.0362574000000001,-0.0045405999999987,-0.0145825999999999,0.0033084000000003,-0.0076551999999991,0.0027156,0,sub_14
-0.0380898000000001,-0.0039773999999987,-0.0149085999999999,0.0057546000000003,-0.0085241999999991,0.0019932,0,sub_14
-0.0382164000000001,-0.0054435999999987,-0.0137691999999998,0.0107766000000003,-0.0083275999999991,-0.0010627999999998,0,sub_14
-0.0373240000000001,-0.0068663999999987,-0.0119545999999999,0.0153758000000003,-0.0064285999999991,-0.0032691999999998,0,sub_14
-0.0344030000000001,-0.0075881999999987,-0.0096759999999999,0.0173076000000003,-0.0049395999999991,-0.0043257999999998,0,sub_14
-0.0308910000000001,-0.0082147999999987,-0.0075833999999999,0.0147472000000003,-0.0038695999999991,-0.0032767999999998,0,sub_14
-0.0279764000000001,-0.0081631999999987,-0.0065861999999998,0.0095064000000003,-0.0017663999999991,-0.0012961999999998,0,sub_14
-0.0264914000000001,-0.0082347999999987,-0.0078613999999999,0.0031998000000003,0.0005536000000008,0.0006766000000001,0,sub_14
-0.0274030000000001,-0.0082179999999987,-0.0099267999999999,-0.0005501999999996,0.0015882000000008,0.0022416,0,sub_14
-0.0316638000000001,-0.0079181999999986,-0.0118501999999999,-0.0013139999999996,0.0017626000000008,0.0031878,0,sub_14
-0.0374428000000001,-0.0072327999999986,-0.0143031999999999,0.0002826000000003,0.0030018000000008,0.0022262,0,sub_14
-0.0433004000000001,-0.0062519999999987,-0.0155831999999999,0.0026364000000003,0.0027874000000008,0.0005338000000001,0,sub_14
-0.0475520000000001,-0.0050377999999987,-0.0158763999999999,0.0054160000000003,0.0021462000000008,-0.0013685999999998,0,sub_14
-0.0485790000000001,-0.0039551999999987,-0.0154873999999998,0.0073458000000003,0.0021480000000008,-0.0034913999999998,0,sub_14
-0.0462068000000001,-0.0034223999999987,-0.0155563999999998,0.0088480000000003,0.0019382000000008,-0.0056171999999998,0,sub_14
-0.0422052000000001,-0.0035533999999987,-0.0145387999999998,0.0108350000000003,-6.299999999910613e-05,-0.0065335999999998,0,sub_14
-0.0376976000000001,-0.0044561999999987,-0.0132415999999998,0.0115386000000003,-0.0016377999999991,-0.0063911999999998,0,sub_14
-0.0338540000000001,-0.0053441999999987,-0.0119265999999998,0.0098856000000003,-0.0032127999999991,-0.0041287999999998,0,sub_14
-0.0317044000000001,-0.0068639999999987,-0.0112433999999999,0.0067352000000003,-0.0047859999999991,-0.0010223999999998,0,sub_14
-0.0309842000000001,-0.0075749999999987,-0.0101861999999999,0.0038002000000003,-0.0057215999999991,0.0022986000000001,0,sub_14
-0.0314148000000001,-0.0076905999999987,-0.0096633999999999,0.0018720000000003,-0.005509399999999,0.0042078000000001,0,sub_14
-0.0324640000000001,-0.0075909999999987,-0.0096279999999999,0.0018730000000003,-0.004235399999999,0.0052744000000001,0,sub_14
-0.0342344000000001,-0.0073817999999987,-0.0100177999999999,0.0018854000000003,-0.002314599999999,0.0044174000000001,0,sub_14
-0.0354284000000001,-0.0068415999999987,-0.0104879999999998,0.0017652000000003,-0.000306199999999,0.0026638000000001,0,sub_14
-0.0367760000000001,-0.0065851999999987,-0.0103577999999999,0.0012192000000003,0.0010680000000009,5.3400000000138754e-05,0,sub_14
-0.0378260000000001,-0.0064445999999987,-0.0103363999999998,-0.0006049999999996,0.0024482000000008,-0.0029931999999998,0,sub_14
-0.0380744000000001,-0.0065491999999987,-0.0104393999999999,-0.0037103999999996,0.0029834000000008,-0.0066885999999998,0,sub_14
-0.0372666000000001,-0.0076997999999986,-0.0103033999999999,-0.0059565999999996,0.0045818000000008,-0.0105929999999998,0,sub_14
-0.0369124000000001,-0.0089581999999986,-0.0100587999999999,-0.0048637999999996,0.0067230000000008,-0.0142199999999998,0,sub_14
-0.0353904000000001,-0.0099183999999987,-0.0103865999999999,-0.0007847999999996,0.0099140000000008,-0.0165455999999998,0,sub_14
-0.0336984000000001,-0.0107163999999986,-0.0112013999999999,0.0052474000000003,0.0129288000000008,-0.0173649999999998,0,sub_14
-0.0327340000000001,-0.0106523999999986,-0.0126915999999999,0.0121196000000003,0.0146556000000008,-0.0164675999999998,0,sub_14
-0.0325726000000001,-0.0092629999999987,-0.0147147999999999,0.0183316000000003,0.0140324000000008,-0.0134353999999998,0,sub_14
-0.0333142000000001,-0.0075811999999987,-0.0154507999999999,0.0221850000000003,0.0119218000000008,-0.0093495999999998,0,sub_14
-0.0355520000000001,-0.0057585999999987,-0.0161629999999999,0.0232578000000003,0.0085416000000008,-0.0050679999999998,0,sub_14
-0.0391694000000001,-0.0039559999999987,-0.0166775999999999,0.0219460000000003,0.0049106000000008,-0.0016541999999998,0,sub_14
-0.0421858000000001,-0.0026267999999987,-0.0164835999999999,0.0189376000000003,0.0025680000000008,0.0006778000000001,0,sub_14
-0.0436278000000001,-0.0021543999999987,-0.0146657999999999,0.0167904000000003,0.0008658000000008,0.0019468000000001,0,sub_14
-0.0434472000000001,-0.0020309999999987,-0.0133313999999999,0.0137946000000003,-0.001041199999999,0.0019284000000001,0,sub_14
-0.0427958000000001,-0.0026329999999987,-0.0125591999999999,0.0097438000000003,-0.002687999999999,0.0006228000000001,0,sub_14
-0.0394262000000001,-0.0052177999999987,-0.0111169999999999,0.0063350000000003,-0.003698799999999,-0.0004653999999998,0,sub_14
-0.0359418000000001,-0.0080547999999987,-0.0092481999999999,0.0052686000000003,-0.004721999999999,-0.0004689999999998,0,sub_14
-0.0321882000000001,-0.0101607999999987,-0.0085697999999999,0.0041936000000003,-0.005752799999999,0.0014502000000001,0,sub_14
-0.0284484000000001,-0.0118349999999987,-0.0087205999999999,0.0031136000000003,-0.007212399999999,0.0040106000000001,0,sub_14
-0.0252058000000001,-0.0129489999999987,-0.0073193999999999,0.0028752000000003,-0.009992399999999,0.0067898000000001,0,sub_14
-0.0243194000000001,-0.0127757999999987,-0.0064239999999999,0.0028570000000003,-0.012979399999999,0.0078618000000001,0,sub_14
-0.0230486000000001,-0.0128651999999987,-0.0065471999999999,0.0028408000000003,-0.016176999999999,0.008293,0,sub_14
-0.0235704000000001,-0.0135149999999987,-0.0065043999999999,0.0017572000000003,-0.0187047999999991,0.0072274,0,sub_14
-0.0247906000000001,-0.0137465999999987,-0.0052931999999999,4.0200000000352455e-05,-0.0193143999999991,0.0065822,0,sub_14
-0.0254546000000001,-0.0143823999999987,-0.0049637999999999,-0.0020871999999996,-0.0163007999999991,0.0059296000000001,0,sub_14
-0.0242448000000001,-0.0147459999999987,-0.0039357999999999,-0.0046423999999996,-0.0101033999999991,0.0086880000000001,0,sub_14
-0.0224130000000001,-0.0150155999999987,-0.0018831999999999,-0.0093303999999996,-0.0015633999999991,0.0135652000000001,0,sub_14
-0.0205258000000001,-0.0149155999999987,-0.0018539999999999,-0.0125175999999996,0.0071600000000008,0.0193000000000001,0,sub_14
-0.0206192000000001,-0.0146449999999987,-0.0062033999999999,-0.0084393999999996,0.0143818000000008,0.0212420000000001,0,sub_14
-0.0238242000000001,-0.0139559999999986,-0.0110777999999999,0.0037314000000003,0.0181992000000008,0.0196168000000001,0,sub_14
-0.0324666000000001,-0.0107995999999987,-0.0168223999999999,0.0188990000000003,0.0194682000000008,0.0133156000000001,0,sub_14
-0.0462104000000001,-0.0064193999999987,-0.0221725999999998,0.0328056000000003,0.0194856000000008,0.0014524000000001,0,sub_14
-0.0615984000000001,-0.0014271999999987,-0.0251853999999999,0.0426638000000003,0.0190978000000008,-0.0121475999999998,0,sub_14
-0.0734372000000001,0.0035886000000012,-0.0254111999999999,0.0454692000000003,0.0197856000000008,-0.0221661999999998,0,sub_14
-0.0797218000000001,0.0082530000000012,-0.0268613999999999,0.0412392000000003,0.0213192000000008,-0.0290343999999998,0,sub_14
-0.0782612000000001,0.0105506000000012,-0.0265111999999998,0.0331424000000003,0.0202968000000008,-0.0327215999999998,0,sub_14
-0.0716144000000001,0.0141434000000012,-0.0258655999999999,0.0233004000000003,0.0162754000000008,-0.0308623999999998,0,sub_14
-0.0592714000000001,0.0121048000000012,-0.0240969999999999,0.0123638000000003,0.0086256000000008,-0.0264423999999998,0,sub_14
-0.0465202000000001,0.0086942000000012,-0.0205507999999999,0.0003178000000003,-0.003078599999999,-0.0207175999999998,0,sub_14
-0.0347710000000001,0.0041768000000012,-0.0140511999999999,-0.0121673999999996,-0.016065399999999,-0.0134987999999998,0,sub_14
-0.0249166000000001,-0.0016693999999987,-0.0087093999999999,-0.0220871999999996,-0.027783799999999,-0.0060499999999998,0,sub_14
-0.0156562000000001,-0.0108121999999987,-0.0040171999999999,-0.0270851999999996,-0.038021199999999,-0.0002777999999998,0,sub_14
-0.0105318000000001,-0.0159425999999987,0.0016122,-0.0286327999999996,-0.042932999999999,0.0027342000000001,0,sub_14
-0.0073702000000001,-0.0207417999999987,0.006678,-0.0277783999999996,-0.040813199999999,0.0046602000000001,0,sub_14
-0.0053920000000001,-0.0248759999999987,0.009514,-0.0245615999999996,-0.035504999999999,0.0063852000000001,0,sub_14
-0.0048258000000001,-0.0274433999999986,0.009189,-0.0190311999999996,-0.028295399999999,0.0072924000000001,0,sub_14
-0.0050204000000001,-0.0291317999999986,0.0083152,-0.0113573999999996,-0.019174999999999,0.0079984000000001,0,sub_14
-0.0060858000000001,-0.0280365999999986,0.006539,-0.0032635999999996,-0.009849799999999,0.0104164,0,sub_14
-0.0077696000000001,-0.0259027999999986,0.0041774,0.0016220000000003,-0.001581199999999,0.0134542000000001,0,sub_14
-0.0109082000000001,-0.0227881999999986,0.0018894,0.0028708000000003,0.0064794000000008,0.0183896000000001,0,sub_14
-0.0143452000000001,-0.0183797999999987,0.0007058,0.0007410000000003,0.0145540000000008,0.0256284000000001,0,sub_14
-0.0189358000000001,-0.0138677999999987,-0.0020385999999999,-0.0052371999999996,0.0209376000000008,0.0328424000000001,0,sub_14
-0.0253422000000001,-0.0107451999999987,-0.0090243999999999,-0.0099323999999996,0.0251972000000008,0.0372906000000001,0,sub_14
-0.0344334000000001,-0.0070415999999987,-0.0175669999999999,-0.0059107999999996,0.0252032000000008,0.0360418000000001,0,sub_14
-0.0463782000000001,-0.0026889999999987,-0.0253513999999998,0.0043244000000003,0.0230886000000008,0.0269342000000001,0,sub_14
-0.0617648000000001,0.0020246000000012,-0.0309923999999999,0.0145884000000003,0.0199384000000008,0.0103506000000001,0,sub_14
-0.0773372000000001,0.0091694000000012,-0.0346803999999999,0.0208126000000003,0.0155420000000008,-0.0107461999999998,0,sub_14
-0.0885672000000001,0.0147332000000012,-0.0351359999999998,0.0223332000000003,0.0094560000000008,-0.0314463999999998,0,sub_14
-0.0920128000000001,0.0167726000000012,-0.0330857999999999,0.0164106000000003,0.0057034000000008,-0.0468653999999998,0,sub_14
-0.0861768000000001,0.0154800000000012,-0.0290973999999999,0.0053344000000003,0.0025762000000008,-0.0544163999999998,0,sub_14
-0.0717596000000001,0.0107862000000012,-0.0238147999999998,-0.0051437999999996,-0.0014393999999991,-0.0534161999999998,0,sub_14
-0.0510750000000001,0.0020468000000012,-0.0183753999999998,-0.0105211999999996,-0.0040053999999991,-0.0464001999999998,0,sub_14
-0.0295606000000001,-0.0072891999999987,-0.0108563999999999,-0.0101799999999996,-0.005962599999999,-0.0368011999999998,0,sub_14
-0.0118500000000001,-0.0144161999999987,-0.0032567999999999,-0.0085691999999996,-0.010055599999999,-0.0269769999999998,0,sub_14
1.2199999999842198e-05,-0.0197459999999987,0.0033036,-0.0071601999999996,-0.013713199999999,-0.0192909999999998,0,sub_14
0.0055303999999998,-0.0233241999999987,0.007374,-0.0059463999999996,-0.015656399999999,-0.0139587999999998,0,sub_14
0.0046937999999998,-0.0253825999999987,0.0105564,-0.0053535999999996,-0.014397199999999,-0.0097031999999998,0,sub_14
-0.0021538000000001,-0.0260765999999987,0.0098898,-0.0068413999999996,-0.008657399999999,-0.0052343999999998,0,sub_14
-0.0116352000000001,-0.0251189999999987,0.0063592,-0.0068155999999996,0.0015512000000009,-0.0007607999999998,0,sub_14
-0.0223696000000001,-0.0216953999999987,0.0001918,-0.0042215999999996,0.0130308000000008,0.0033018000000001,0,sub_14
-0.0317888000000001,-0.0169645999999987,-0.0059239999999999,-0.0014757999999996,0.0236440000000008,0.0056842000000001,0,sub_14
-0.0389318000000001,-0.0114565999999987,-0.0114017999999999,0.0023312000000003,0.0306408000000008,0.0057286000000001,0,sub_14
-0.0420820000000001,-0.0054955999999987,-0.0155687999999999,0.0061314000000003,0.0333876000000008,0.0030010000000001,0,sub_14
-0.0426078000000001,-0.0011333999999987,-0.0181255999999999,0.0086418000000003,0.0318864000000008,-0.0018665999999998,0,sub_14
-0.0419030000000001,0.0008786000000012,-0.0196109999999999,0.0081536000000003,0.0269902000000008,-0.0076053999999998,0,sub_14
-0.0406950000000001,0.0010332000000012,-0.0206161999999999,0.0057980000000003,0.0195638000000008,-0.0131671999999998,0,sub_14
-0.0403046000000001,-0.0005373999999987,-0.0204443999999999,0.0019352000000003,0.0104330000000008,-0.0174553999999998,0,sub_14
-0.0408874000000001,-0.0035387999999987,-0.0194973999999998,-0.0023679999999996,0.0004916000000008,-0.0210915999999998,0,sub_14
-0.0414800000000001,-0.0074711999999987,-0.0182109999999999,-0.0047517999999996,-0.0083961999999991,-0.0234337999999998,0,sub_14
-0.0415206000000001,-0.0106577999999987,-0.0155759999999998,-0.0039311999999996,-0.0147453999999991,-0.0240477999999998,0,sub_14
-0.0412054000000001,-0.0135557999999987,-0.0121817999999998,-0.0005463999999996,-0.0172807999999991,-0.0216575999999998,0,sub_14
-0.0397126000000001,-0.0158487999999987,-0.0099631999999998,0.0036978000000003,-0.0159941999999991,-0.0167027999999998,0,sub_14
-0.0365848000000001,-0.0158549999999986,-0.0080195999999999,0.0079538000000003,-0.0115629999999991,-0.0096283999999998,0,sub_14
-0.0325404000000001,-0.0144275999999987,-0.0058977999999998,0.0094388000000003,-0.0062709999999991,-0.0023609999999998,0,sub_14
