userAcceleration.x,userAcceleration.y,userAcceleration.z,rotationRate.x,rotationRate.y,rotationRate.z,label,subject
-0.0052828000000002,0.0452090000000012,0.0244178,0.0031932000000004,-0.001895599999999,-0.0033735999999998,0,sub_7
-0.0038702000000002,0.0458106000000012,0.0251776000000001,0.0016862000000004,-0.003599799999999,-0.0020999999999998,0,sub_7
-0.0013892000000002,0.0467436000000012,0.025499,0.0003878000000004,-0.005733599999999,-0.0001833999999999,0,sub_7
0.0004279999999997,0.0461406000000012,0.0258672000000001,-0.0017989999999995,-0.007200799999999,0.0018068,0,sub_7
0.0024339999999997,0.0441648000000012,0.0254876000000001,-0.0035531999999995,-0.008027799999999,0.0031582,0,sub_7
0.0032907999999997,0.0422516000000012,0.0259400000000001,-0.0042403999999995,-0.010343999999999,0.0030236,0,sub_7
0.0031745999999997,0.0417662000000012,0.0263726,-0.0044951999999995,-0.012444399999999,0.0018234,0,sub_7
0.0019313999999997,0.0422644000000012,0.0255022,-0.0053815999999995,-0.013261399999999,-2.379999999990775e-05,0,sub_7
0.0012035999999997,0.0434412000000012,0.0241896,-0.0047471999999995,-0.015602799999999,-0.0010845999999999,0,sub_7
-0.0003906000000002,0.0450014000000012,0.0232824,-0.0036783999999995,-0.016029199999999,-0.0019309999999999,0,sub_7
-0.0010418000000001,0.0463968000000012,0.022733,-0.0034583999999995,-0.014538599999999,-0.0019313999999999,0,sub_7
-0.0020832000000001,0.0470712000000012,0.0221526000000001,-0.0036631999999995,-0.012620399999999,-0.0019351999999999,0,sub_7
-0.0021310000000001,0.0469588000000012,0.0228788000000001,-0.0028485999999995,-0.011135799999999,-0.0016049999999999,0,sub_7
-0.0026748000000001,0.0461242000000012,0.0230814000000001,-0.0024541999999995,-0.007946199999999,-0.0010661999999999,0,sub_7
-0.0025198000000001,0.0453710000000012,0.023161,-0.0022807999999995,-0.006035599999999,-9.999999999992766e-05,0,sub_7
-0.0015814000000001,0.0442472000000012,0.0232498,-0.0016795999999995,-0.004762399999999,1.54000000000723e-05,0,sub_7
-0.0003948000000001,0.0435422000000012,0.0232970000000001,-0.0012897999999995,-0.003274399999999,-8.459999999992771e-05,0,sub_7
3.459999999978979e-05,0.0427794000000012,0.0234038,-0.0004229999999995,-0.001567799999999,-0.0013625999999999,0,sub_7
0.0002457999999997,0.0417050000000011,0.0239394,0.0002248000000004,-0.000714399999999,-0.0022135999999999,0,sub_7
0.0007855999999997,0.0414994000000012,0.0240734,-0.0004313999999995,-0.000712999999999,-0.0039951999999999,0,sub_7
7.239999999980977e-05,0.0418570000000012,0.0239962,-0.0015257999999995,-0.002629999999999,-0.0051363999999999,0,sub_7
-0.0001912000000002,0.0423326000000011,0.0241442,-0.0026203999999995,-0.004547199999999,-0.0062775999999998,0,sub_7
-0.0011948000000001,0.0426722000000011,0.0241402,-0.0037157999999995,-0.004979799999999,-0.0057115999999998,0,sub_7
-0.0013116000000001,0.0437384000000012,0.0241774,-0.0043823999999995,-0.005412199999999,-0.0055699999999998,0,sub_7
-0.0015590000000001,0.0443374000000012,0.0248472,-0.0041727999999995,-0.004991999999999,-0.0042871999999998,0,sub_7
-0.0011176000000002,0.0449134000000012,0.0249608,-0.0033155999999995,-0.002869599999999,-0.0030021999999998,0,sub_7
-0.0009248000000001,0.0444200000000011,0.0253292,-0.0022495999999995,-0.001388799999999,-0.0012875999999998,0,sub_7
-0.0004096000000002,0.0444802000000011,0.0259386,-0.0020671999999995,-0.002454599999999,-0.0004703999999998,0,sub_7
-0.0004782000000002,0.0445614000000011,0.0256692,-0.0016695999999995,-0.003519199999999,-7.899999999988771e-05,0,sub_7
-0.0004658000000001,0.0445944000000011,0.0251010000000001,-0.0008431999999995,-0.004159399999999,0.0003148000000001,0,sub_7
-0.0004824000000001,0.0445494000000011,0.0252424000000001,-0.0006559999999995,-0.004371999999999,0.0009172,0,sub_7
-0.0011366000000001,0.0438938000000011,0.0246848000000001,-0.0006811999999995,-0.004582999999999,0.0013044,0,sub_7
-0.0012516000000001,0.0428716000000011,0.0242164000000001,-0.0004657999999995,-0.004369799999999,0.001092,0,sub_7
-0.0008244000000001,0.0420206000000012,0.0241152000000001,-0.0006723999999995,-0.003726599999999,0.000235,0,sub_7
-0.0001490000000001,0.0418358000000011,0.0239562000000001,-0.0010933999999995,-0.003719999999999,-0.0010497999999999,0,sub_7
0.0003467999999997,0.0418398000000012,0.0236870000000001,-0.0008947999999995,-0.003916799999999,-0.0023469999999999,0,sub_7
0.0008161999999997,0.0422434000000011,0.0239998000000001,-0.0009105999999995,-0.003689399999999,-0.0030053999999999,0,sub_7
0.0016343999999997,0.0423268000000011,0.0236508000000001,-0.0007159999999995,-0.003677399999999,-0.0032347999999999,0,sub_7
0.0014541999999997,0.0422454000000011,0.0240690000000001,-0.0013757999999995,-0.003450999999999,-0.0030429999999999,0,sub_7
0.0005457999999998,0.0427036000000011,0.0240958000000001,-0.0018229999999995,-0.003226199999999,-0.0026361999999999,0,sub_7
6.559999999982988e-05,0.0431966000000011,0.0233874000000001,-0.0020353999999995,-0.002587999999999,-0.0022111999999999,0,sub_7
-0.0004054000000001,0.0436924000000012,0.0233204000000001,-0.0018171999999995,-0.001523399999999,-0.0022109999999999,0,sub_7
-0.0008186000000001,0.0437352000000011,0.0234134000000001,-0.0015951999999995,0.0001812000000009,-0.0024253999999999,0,sub_7
-0.0002452000000001,0.0429420000000012,0.0237336,-0.0011749999999995,0.0006384000000009,-0.0017897999999999,0,sub_7
0.0011497999999997,0.0407112000000012,0.0237404,-0.0011759999999995,0.0017388000000009,-0.0017987999999999,0,sub_7
0.0008283999999998,0.0391426000000012,0.0230722,-0.0024503999999995,0.0032740000000009,-0.0028853999999999,0,sub_7
0.0014165999999998,0.0386872000000012,0.0216792,-0.0035075999999995,0.0050240000000009,-0.0046115999999999,0,sub_7
0.0020039999999997,0.0394692000000012,0.0224032,-0.0037111999999995,0.0065588000000009,-0.0065451999999999,0,sub_7
0.0019251999999997,0.0410926000000012,0.0238726,-0.0036997999999995,0.0076300000000009,-0.0080419999999999,0,sub_7
0.0005911999999997,0.0433884000000012,0.025091,-0.0047657999999995,0.0078468000000009,-0.0080497999999999,0,sub_7
0.0004199999999997,0.0460020000000012,0.0269330000000001,-0.0062727999999995,0.0055058000000009,-0.0074163999999999,0,sub_7
-2.4000000002100844e-06,0.0486622000000012,0.0288402000000001,-0.0069383999999995,0.0012776000000009,-0.0061331999999999,0,sub_7
-0.0015282000000001,0.0496554000000012,0.0286992000000001,-0.0076193999999995,-0.004449599999999,-0.0029253999999999,0,sub_7
-0.0027054000000001,0.0502022000000012,0.0269982000000001,-0.0068019999999995,-0.007843599999999,0.001572,0,sub_7
-0.0031880000000001,0.0489676000000012,0.0259896000000001,-0.0057739999999995,-0.011453199999999,0.0064984,0,sub_7
-0.0029370000000002,0.0467148000000012,0.0242776000000001,-0.0040993999999995,-0.012936999999999,0.0120674,0,sub_7
-0.0035714000000001,0.0433350000000012,0.0223786000000001,-0.0028383999999995,-0.012321799999999,0.0169892,0,sub_7
-0.0030002000000001,0.0416740000000012,0.0209072000000001,-0.0013437999999995,-0.009567599999999,0.0195598,0,sub_7
-0.0018794000000001,0.0404114000000012,0.0207414,-4.99999999995563e-05,-0.007225999999999,0.0189248,0,sub_7
-0.0008066000000001,0.0406872000000012,0.0203102000000001,0.0027526000000004,-0.003178199999999,0.016589,0,sub_7
4.31999999998098e-05,0.0400540000000011,0.0220178,0.0059944000000004,0.0006950000000009,0.0125556,0,sub_7
0.0011899999999997,0.0404796000000011,0.0233534000000001,0.0088056000000004,0.0032928000000009,0.0080936,0,sub_7
0.0025711999999997,0.0404614000000011,0.024401,0.0107584000000004,0.0046162000000009,0.0034138,0,sub_7
0.0030717999999997,0.0407238000000011,0.0242900000000001,0.0114290000000004,0.0057302000000009,-0.0010611999999999,0,sub_7
0.0039443999999997,0.0411032000000011,0.0246130000000001,0.0116682000000004,0.0055682000000009,-0.0057511999999999,0,sub_7
0.0035057999999997,0.0415170000000012,0.0242886,0.0116806000000004,0.0051548000000009,-0.0089551999999998,0,sub_7
0.0031917999999997,0.0415766000000012,0.0241266000000001,0.0106176000000004,0.0041010000000009,-0.0108839999999998,0,sub_7
0.0018841999999997,0.0417940000000011,0.0240820000000001,0.0084860000000004,0.0030734000000009,-0.0111025999999998,0,sub_7
0.0018353999999997,0.0416552000000012,0.0239838000000001,0.0059154000000004,0.0016118000000009,-0.0089733999999998,0,sub_7
0.0009739999999997,0.0410150000000011,0.0238330000000001,0.0026958000000004,-0.000279799999999,-0.0053527999999999,0,sub_7
0.0003681999999997,0.0409664000000011,0.0241546000000001,-0.0011637999999995,-0.001956799999999,-0.0015231999999999,0,sub_7
0.0001743999999997,0.0406050000000011,0.0240738000000001,-0.0045929999999995,-0.002995199999999,0.0020948,0,sub_7
0.0003091999999997,0.0407950000000011,0.0237098000000001,-0.0069591999999995,-0.004064999999999,0.0052844,0,sub_7
-0.0005498000000002,0.0408674000000011,0.0238126000000001,-0.0080357999999995,-0.004918599999999,0.0065598,0,sub_7
-0.0002398000000002,0.0410942000000012,0.0239574,-0.0078233999999995,-0.004707999999999,0.0069884,0,sub_7
0.0006235999999997,0.0414706000000012,0.0237536000000001,-0.0065333999999995,-0.004262199999999,0.0067936,0,sub_7
0.0012441999999997,0.0421648000000011,0.0235290000000001,-0.0043859999999995,-0.003815999999999,0.0057504,0,sub_7
0.0016147999999997,0.0417744000000012,0.0236352000000001,-0.0018051999999995,-0.002516399999999,0.004068,0,sub_7
0.0020505999999997,0.0409982000000012,0.0232594000000001,0.0001384000000004,-0.000999799999999,0.0019536000000001,0,sub_7
0.0019655999999997,0.0403870000000012,0.0223634000000001,0.0010200000000004,0.0005248000000009,-0.0012365999999998,0,sub_7
0.0019363999999997,0.0406158000000012,0.0210978000000001,0.0016852000000004,0.0026668000000009,-0.0046529999999998,0,sub_7
0.0019751999999997,0.0403092000000012,0.0208822000000001,0.0014930000000004,0.0045962000000009,-0.0074341999999998,0,sub_7
0.0016865999999997,0.0395056000000012,0.0214696000000001,0.0002290000000004,0.0063128000000009,-0.0093679999999998,0,sub_7
0.0008625999999997,0.0391654000000012,0.0218218000000001,-0.0025257999999995,0.0076092000000009,-0.0091587999999999,0,sub_7
0.0008113999999997,0.0397420000000012,0.0227816000000001,-0.0046519999999995,0.0076200000000009,-0.0076615999999999,0,sub_7
0.0008829999999997,0.0397772000000012,0.0237444000000001,-0.0067867999999995,0.0065620000000009,-0.0053085999999999,0,sub_7
0.0007355999999997,0.0407788000000012,0.0245952000000001,-0.0078507999999995,0.0063524000000009,-0.0029491999999999,0,sub_7
0.0012043999999997,0.0423310000000012,0.0253524000000001,-0.0072097999999995,0.0054986000000009,-0.0007907999999999,0,sub_7
0.0018485999999997,0.0430860000000012,0.0264602000000001,-0.0044435999999995,0.0042088000000009,-0.0003423999999999,0,sub_7
0.0026257999999997,0.0431670000000012,0.0264882000000001,-0.0014571999999995,0.0033486000000009,-0.0009613999999999,0,sub_7
0.0027561999999997,0.0431518000000012,0.0262044000000001,0.0026056000000004,0.0027056000000009,-0.0034959999999999,0,sub_7
0.0014447999999997,0.0417080000000012,0.0253614000000001,0.0068904000000004,0.0008070000000009,-0.0066829999999999,0,sub_7
-0.0004190000000002,0.0401780000000012,0.0238984000000001,0.0096788000000004,-0.001513199999999,-0.0096661999999999,0,sub_7
-0.0013396000000001,0.0390718000000012,0.0217288000000001,0.0109746000000004,-0.003190799999999,-0.0122333999999999,0,sub_7
-0.0019746000000001,0.0385802000000012,0.0210280000000001,0.0112016000000003,-0.004229799999999,-0.0137405999999999,0,sub_7
-0.0022252000000002,0.0378748000000012,0.0213696000000001,0.0105702000000003,-0.004845799999999,-0.0137587999999999,0,sub_7
-0.0003934000000002,0.0379338000000012,0.0216286000000001,0.0080002000000003,-0.005269599999999,-0.0120669999999998,0,sub_7
0.0022795999999997,0.0375672000000012,0.0227912,0.0045816000000003,-0.004625399999999,-0.0103823999999998,0,sub_7
0.0036889999999997,0.0379760000000012,0.0244066,0.0009562000000004,-0.003337799999999,-0.0095547999999998,0,sub_7
0.0042551999999997,0.0380532000000012,0.0252194,-0.0022593999999995,-0.003534799999999,-0.0089391999999998,0,sub_7
0.0050195999999997,0.0379856000000012,0.0251024,-0.0059083999999995,-0.005009599999999,-0.0081113999999998,0,sub_7
0.0048971999999997,0.0380476000000012,0.025178,-0.0089133999999995,-0.006058799999999,-0.0077069999999998,0,sub_7
0.0038517999999997,0.0393308000000012,0.0242358,-0.0104257999999995,-0.006901799999999,-0.0068651999999998,0,sub_7
0.0030075999999997,0.0407472000000011,0.023869,-0.0108807999999995,-0.009242399999999,-0.0053731999999998,0,sub_7
0.0015617999999997,0.0419372000000011,0.0240174000000001,-0.0102531999999995,-0.010528999999999,-0.0038715999999999,0,sub_7
0.0001729999999997,0.0434686000000011,0.0241716000000001,-0.0089805999999995,-0.011176799999999,-0.0027935999999999,0,sub_7
-0.0013830000000001,0.0445500000000011,0.0241236,-0.0070621999999995,-0.011397399999999,-0.0025661999999999,0,sub_7
-0.0017146000000001,0.0449342000000011,0.0234382,-0.0045065999999995,-0.011823999999999,-0.0021283999999999,0,sub_7
-0.0013804000000001,0.0436000000000011,0.0226426,-0.0013043999999995,-0.010336999999999,-0.0012611999999999,0,sub_7
-0.0005196000000001,0.0414584000000011,0.0219402,0.0001910000000004,-0.009480599999999,-0.0010461999999999,0,sub_7
0.0002801999999997,0.0390716000000011,0.0213026,0.0012626000000004,-0.008407999999999,-0.0012615999999999,0,sub_7
0.0013567999999997,0.0375828000000011,0.0214240000000001,0.0031856000000004,-0.007340199999999,-0.0010437999999999,0,sub_7
0.0020883999999997,0.0360552000000011,0.0218474000000001,0.0031942000000003,-0.005847199999999,-0.0014727999999999,0,sub_7
0.0025807999999997,0.0354498000000011,0.0218386000000001,0.0016998000000004,-0.006691799999999,-0.0021229999999998,0,sub_7
0.0030357999999997,0.0360342000000011,0.0214376,0.0004234000000004,-0.006471599999999,-0.0027729999999998,0,sub_7
0.0033371999999997,0.0375078000000011,0.0215780000000001,-0.0008539999999995,-0.006041799999999,-0.0023533999999998,0,sub_7
0.0040447999999997,0.0376480000000011,0.0217538,-0.0036257999999995,-0.005395399999999,-0.0015171999999998,0,sub_7
0.0042697999999997,0.0385322000000012,0.0228116,-0.0057623999999995,-0.006240999999999,-0.0011019999999999,0,sub_7
0.0043543999999997,0.0396162000000012,0.0236944,-0.0072511999999995,-0.006020999999999,-0.0013245999999999,0,sub_7
0.0046073999999997,0.0398930000000012,0.0248196,-0.0078883999999995,-0.005805799999999,-0.0011139999999999,0,sub_7
0.0048265999999997,0.0397324000000012,0.024912,-0.0078855999999995,-0.005590999999999,-0.0015415999999999,0,sub_7
0.0044783999999997,0.0398652000000012,0.0247732,-0.0072501999999995,-0.006658599999999,-0.0015357999999999,0,sub_7
0.0037051999999997,0.0396234000000012,0.0242924,-0.0057545999999995,-0.005813199999999,-0.0010991999999999,0,sub_7
0.0022243999999997,0.0388884000000011,0.0228314000000001,-0.0038333999999995,-0.004765599999999,0.0002056,0,sub_7
0.0010337999999998,0.0382528000000011,0.0207982000000001,-0.0023387999999995,-0.004140999999999,0.0010808,0,sub_7
0.0011391999999998,0.0373314000000011,0.0196738,-0.0016937999999995,-0.002661399999999,0.0019488,0,sub_7
0.0014629999999998,0.0364504000000011,0.0191320000000001,-0.0003905999999995,0.0011666000000009,0.0011092,0,sub_7
0.0021181999999998,0.0349788000000012,0.0189102000000001,-0.0005771999999995,0.0047910000000009,-0.0008085999999999,0,sub_7
0.0029889999999998,0.0343580000000012,0.0195014000000001,-0.0024649999999995,0.0073730000000009,-0.0055251999999999,0,sub_7
0.0032049999999997,0.0357262000000012,0.0204744,-0.0043469999999995,0.0112334000000009,-0.0102435999999999,0,sub_7
0.0023573999999997,0.0379656000000012,0.0211790000000001,-0.0058013999999995,0.0150932000000009,-0.0151723999999999,0,sub_7
0.0014411999999997,0.0399778000000012,0.0215236,-0.0089871999999995,0.0168260000000009,-0.0183705999999999,0,sub_7
0.0008971999999997,0.0427928000000012,0.0219370000000001,-0.0121931999999995,0.0162066000000009,-0.0194297999999999,0,sub_7
-6.380000000022948e-05,0.0442952000000012,0.0231984,-0.0147769999999995,0.0151446000000009,-0.0168519999999999,0,sub_7
-0.0010390000000001,0.0443158000000012,0.0233010000000001,-0.0171677999999995,0.0119418000000009,-0.0119199999999999,0,sub_7
-0.0010668000000001,0.0432220000000012,0.0234752000000001,-0.0182897999999995,0.0080878000000009,-0.0050555999999999,0,sub_7
-2.400000000189577e-06,0.0411044000000012,0.0234446,-0.0181175999999995,0.0042308000000009,0.0002916,0,sub_7
0.0010889999999998,0.0383210000000012,0.02315,-0.0172869999999995,0.0022976000000009,0.0035046,0,sub_7
0.0028301999999998,0.0374324000000012,0.0221294,-0.0158039999999995,0.0014342000000009,0.0050116,0,sub_7
0.0045099999999997,0.0377698000000012,0.0225532,-0.0136597999999995,0.0016630000000009,0.0050562,0,sub_7
0.0048865999999997,0.0385708000000012,0.0231574,-0.0125775999999995,0.0014752000000009,0.0035984,0,sub_7
0.0038169999999997,0.0402552000000012,0.0238596000000001,-0.0112907999999995,0.0008546000000009,0.003638,0,sub_7
0.0018343999999997,0.0424314000000012,0.0240728,-0.0098049999999995,-0.000840399999999,0.005817,0,sub_7
-9.360000000020985e-05,0.0435264000000012,0.0245698,-0.0078981999999995,-0.002329999999999,0.009494,0,sub_7
-0.0012480000000002,0.0440280000000012,0.0251418,-0.0064285999999995,-0.002993199999999,0.0142054,0,sub_7
-0.0008682000000001,0.0436924000000012,0.024506,-0.0051781999999995,-0.004297199999999,0.019557,0,sub_7
-0.0002508000000001,0.0431394000000012,0.023784,-0.0045639999999995,-0.005807799999999,0.0238362,0,sub_7
0.0008431999999998,0.0414960000000012,0.0236624,-0.0037169999999995,-0.004941799999999,0.0274968,0,sub_7
0.0024297999999997,0.0385222000000012,0.0225704,-0.0028651999999995,-0.003859199999999,0.0303026,0,sub_7
0.0042155999999997,0.0344912000000012,0.0206886,-0.0030725999999995,-0.004039199999999,0.0301114,0,sub_7
0.0044567999999997,0.0324492000000012,0.0193734000000001,-0.0053935999999995,-0.002071999999999,0.0275526,0,sub_7
0.0036577999999997,0.0315624000000012,0.0182268000000001,-0.0062103999999995,0.0022336000000009,0.0250014,0,sub_7
0.0030053999999997,0.0310446000000012,0.016852,-0.0053291999999995,0.0050140000000009,0.0215856,0,sub_7
0.0029749999999997,0.0320050000000011,0.0172774,-0.0055071999999995,0.0082294000000009,0.0168802,0,sub_7
0.0027985999999997,0.0336774000000012,0.0187386,-0.0065355999999995,0.0122990000000009,0.0123814,0,sub_7
0.0036411999999997,0.0352266000000011,0.0205536,-0.0041387999999995,0.0149006000000009,0.0074982,0,sub_7
0.0046353999999997,0.0374402000000011,0.0225698,-0.0015391999999995,0.0157946000000009,0.0032594,0,sub_7
0.0058447999999997,0.0397188000000012,0.0238364,-0.0025667999999995,0.0156402000000009,-0.0020715999999999,0,sub_7
0.0060475999999997,0.0419212000000012,0.0238622,-0.0044603999999995,0.0129312000000009,-0.0071917999999998,0,sub_7
0.0049645999999997,0.0425228000000012,0.0236594,-0.0038061999999995,0.0097778000000009,-0.0099435999999998,0,sub_7
0.0036503999999997,0.0407016000000012,0.0234626,-0.0029689999999995,0.0070018000000009,-0.0090795999999998,0,sub_7
0.0032851999999997,0.0377810000000012,0.022064,-0.0031967999999995,0.0046554000000009,-0.0082235999999998,0,sub_7
0.0035765999999997,0.0353022000000012,0.0215976,-0.0023625999999995,0.0029376000000009,-0.0056517999999998,0,sub_7
0.0035827999999997,0.0337116000000011,0.0215332,-1.199999999555799e-06,0.0042006000000009,-0.0024045999999999,0,sub_7
0.0042067999999997,0.0338974000000012,0.021246,0.0017202000000004,0.0048292000000009,0.0001982,0,sub_7
0.0034239999999998,0.0359576000000012,0.020716,0.0019508000000004,0.0052534000000009,0.0019362,0,sub_7
0.0027821999999998,0.0377484000000011,0.0212566,0.0008964000000004,0.0054656000000009,0.00452,0,sub_7
0.0022357999999998,0.0393344000000011,0.0216464000000001,0.0009088000000004,0.0054620000000009,0.0068978,0,sub_7
0.0014159999999998,0.0402152000000012,0.0230988000000001,0.0015288000000004,0.0037442000000009,0.0096818,0,sub_7
0.0008875999999998,0.0407262000000012,0.0236608000000001,0.0032234000000004,0.0030906000000009,0.0118308,0,sub_7
0.0008803999999997,0.0411920000000012,0.0244504000000001,0.0059906000000004,0.0026506000000009,0.0129188,0,sub_7
0.0002199999999997,0.0412392000000012,0.0251804000000001,0.0100878000000004,0.0021966000000009,0.013827,0,sub_7
0.0002287999999997,0.0413010000000012,0.0247312,0.0139718000000004,0.0019554000000009,0.0149472,0,sub_7
0.0009177999999997,0.0414042000000012,0.0229368,0.0182872000000004,0.0019292000000009,0.0152154,0,sub_7
0.0006925999999997,0.0409438000000011,0.0229574,0.0236704000000004,0.0019002000000009,0.0152776,0,sub_7
0.0006127999999997,0.0396902000000011,0.0224474,0.0286250000000004,0.0022952000000009,0.0161908,0,sub_7
0.0018637999999997,0.0377844000000011,0.0209994,0.0311864000000004,0.0020748000000009,0.0157818,0,sub_7
0.0014641999999997,0.0354560000000011,0.018838,0.0320436000000004,0.0010142000000009,0.0138662,0,sub_7
0.0009373999999997,0.0324964000000011,0.0179052000000001,0.0320522000000004,0.0010220000000009,0.0119434,0,sub_7
0.0009819999999997,0.0303704000000011,0.0159886,0.0282682000000004,0.0006178000000009,0.0095458,0,sub_7
0.0017753999999997,0.0299492000000011,0.015297,0.0234154000000004,-0.000633199999999,0.0067144,0,sub_7
0.0014957999999997,0.0320256000000012,0.0170318,0.0202726000000004,-0.000614199999999,0.0045344,0,sub_7
0.0017045999999997,0.0345790000000012,0.019917,0.0173278000000004,-0.000609799999999,0.0057742,0,sub_7
0.0024603999999997,0.0367486000000012,0.02186,0.0115900000000004,-0.001249399999999,0.0106272,0,sub_7
0.0032523999999997,0.0398418000000012,0.0253594,0.0072842000000004,-0.002117399999999,0.0182894,0,sub_7
0.0027213999999997,0.0425226000000012,0.0282078000000001,0.0059522000000004,-0.003431999999999,0.0285368,0,sub_7
0.0034569999999997,0.0446326000000012,0.0279662,0.0058832000000004,-0.005615399999999,0.041785,0,sub_7
0.0029169999999997,0.0450752000000011,0.027174,0.0067138000000004,-0.006540599999999,0.0554124000000001,0,sub_7
0.0026205999999997,0.0455834000000012,0.0263186,0.0101162000000004,-0.006403599999999,0.0675610000000001,0,sub_7
0.0037715999999997,0.0419510000000011,0.0234608,0.0137540000000004,-0.005611199999999,0.0754374000000001,0,sub_7
0.0071153999999997,0.0372494000000011,0.0212896,0.0156964000000004,-0.006075799999999,0.0794580000000001,0,sub_7
0.0088135999999997,0.0321064000000011,0.0208306000000001,0.0183152000000003,-0.006085799999999,0.0757916,0,sub_7
0.0120665999999997,0.0281500000000011,0.0216584000000001,0.0211350000000003,-0.005842399999999,0.0657698,0,sub_7
0.0131513999999997,0.0293974000000011,0.0217986000000001,0.0218116000000004,-0.010904999999999,0.052535,0,sub_7
0.0129485999999997,0.0323222000000011,0.0213958,0.0254984000000004,-0.012562399999999,0.0376078,0,sub_7
0.0076693999999997,0.0300480000000011,0.0216740000000001,0.0305428000000004,-0.008907799999999,0.0181694,0,sub_7
0.0055353999999997,0.0262188000000011,0.0217158,0.0300214000000004,-0.010130599999999,-0.0021561999999999,0,sub_7
0.0058911999999997,0.0356306000000012,0.020067,0.0251912000000004,-0.008616399999999,-0.0105513999999999,0,sub_7
0.0061979999999997,0.0294266000000012,0.0208078,0.0325702000000004,-0.000949199999999,-0.0231419999999999,0,sub_7
0.0029957999999998,0.0215412000000012,0.0230826,0.0324342000000004,-0.001785599999999,-0.0338513999999999,0,sub_7
