userAcceleration.x,userAcceleration.y,userAcceleration.z,rotationRate.x,rotationRate.y,rotationRate.z,label,subject
0.0018521999999998,0.0013212000000012,-0.0116211999999999,-0.0028421999999995,-0.0012121999999991,-0.0009843999999998,0,sub_22
0.0041523999999998,0.0022844000000012,-0.0153567999999999,0.0069864000000004,0.0036460000000008,0.0010008,0,sub_22
0.0030855999999998,0.0028024000000012,-0.0108235999999999,0.0140596000000004,0.0104210000000008,0.0018788,0,sub_22
0.0002181999999998,0.0044610000000012,-0.0054663999999999,0.0190038000000004,0.0163588000000008,0.0008202,0,sub_22
-0.0015862000000001,0.0057266000000012,-9.979999999990066e-05,0.0230830000000004,0.0201674000000008,0.0001856,0,sub_22
-0.0025924000000001,0.0030760000000012,0.0050004,0.0205236000000004,0.0169752000000008,-0.0021955999999999,0,sub_22
-0.0018666000000002,0.0006610000000012,0.007245,0.0098264000000004,0.0069946000000008,-0.0048383999999998,0,sub_22
-0.0006662000000002,0.0007302000000012,0.0057332,-0.0006777999999995,-0.0040467999999991,-0.0051111999999998,0,sub_22
0.0005021999999997,0.0012552000000012,0.0028252,-0.0086233999999995,-0.0134011999999991,-0.0032317999999998,0,sub_22
0.0005621999999997,0.0014586000000012,0.0014622,-0.0154893999999995,-0.0197625999999991,-0.0019951999999998,0,sub_22
0.0005407999999998,0.0022832000000012,0.0034026,-0.0251187999999995,-0.0246193999999991,-0.0016341999999998,0,sub_22
0.0054841999999998,0.0082848000000012,-0.0072965999999999,-0.0338917999999995,-0.0292645999999991,-0.0016949999999998,0,sub_22
0.0107027999999998,0.0157726000000012,-0.0203571999999999,-0.0232229999999995,-0.0252549999999991,0.0015736000000001,0,sub_22
0.0101841999999998,0.0175322000000011,-0.0281411999999999,-0.0129329999999995,-0.0144109999999991,0.0009852000000001,0,sub_22
0.0077207999999998,0.0144226000000012,-0.0253617999999999,-0.0054621999999995,-0.0152831999999991,-0.0004569999999998,0,sub_22
0.0061209999999998,0.0132880000000012,-0.0228975999999999,0.0019858000000004,-0.0202077999999991,-0.0008259999999998,0,sub_22
0.0012015999999998,0.0081044000000012,-0.0085781999999999,0.0107628000000004,-0.0140587999999991,-0.0009861999999999,0,sub_22
-0.0005990000000001,-0.0003859999999987,-7.599999999990115e-05,0.0078220000000004,-0.0069919999999991,-0.0050843999999999,0,sub_22
0.0013435999999998,-0.0036689999999987,0.0055742000000001,0.0039558000000004,-0.0114449999999991,-0.0046877999999999,0,sub_22
0.0036737999999998,-0.0015409999999987,0.0024080000000001,-0.0007389999999995,-0.0095069999999991,-0.0034505999999999,0,sub_22
0.0042007999999998,-0.0002907999999987,-0.0017587999999998,-0.0002821999999995,-0.0016177999999991,-0.0030395999999999,0,sub_22
0.0041267999999998,-3.659999999878032e-05,-0.0064711999999998,0.0031360000000004,0.0005084000000008,-0.0026005999999999,0,sub_22
0.0023609999999998,0.0008116000000012,-0.0042397999999998,-0.0003039999999995,-0.0043833999999991,-0.0017637999999999,0,sub_22
0.0021755999999998,0.0018450000000012,-0.0015527999999999,-0.0030797999999995,-0.0050119999999991,-0.0019959999999999,0,sub_22
0.0029345999999998,0.0020422000000012,-0.0019949999999999,-0.0015727999999995,-0.0013977999999991,-0.0013489999999999,0,sub_22
0.0036679999999998,0.0019086000000012,-0.0033195999999999,-0.0015715999999995,0.0013544000000008,0.00035,0,sub_22
0.0023289999999998,0.0015638000000012,-0.0024957999999998,-0.0039357999999995,-0.0001453999999991,0.0018244,0,sub_22
0.0008653999999998,0.0012434000000011,-0.0008841999999999,-0.0048081999999995,-0.0029251999999991,0.0024562,0,sub_22
0.0006679999999998,0.0007856000000011,-0.0019483999999999,-0.0037469999999995,-0.0031533999999991,0.002671,0,sub_22
0.0003053999999998,0.0009386000000011,-0.0027579999999999,-0.0031075999999995,-0.0029513999999991,0.0022412,0,sub_22
-0.0002244000000001,0.0009166000000011,-0.0017775999999999,-0.0026761999999995,-0.0035851999999991,0.0005358,0,sub_22
0.0001877999999998,0.0009820000000011,-0.0015727999999999,-0.0018101999999995,-0.0027281999999991,-0.0013819999999999,0,sub_22
-0.0006066000000001,0.0008478000000012,-0.0008901999999999,-0.0009441999999995,-0.0016589999999991,-0.0030863999999999,0,sub_22
-0.0020680000000001,0.0005450000000012,-0.0002951999999999,-0.0013631999999995,-0.0018627999999991,-0.0050119999999998,0,sub_22
-0.0024556000000001,-0.0020733999999987,-0.0001301999999999,-0.0032875999999995,-0.0018841999999991,-0.0073829999999998,0,sub_22
0.0002775999999998,-0.0021619999999987,-0.0030541999999999,-0.0049889999999995,0.0014974000000008,-0.0084749999999998,0,sub_22
0.0038543999999998,-0.0016571999999987,-0.0063617999999999,-0.0043327999999995,0.0091242000000008,-0.0076331999999998,0,sub_22
0.0066675999999998,2.920000000121957e-05,-0.0089943999999999,-0.0004731999999995,0.0188642000000008,-0.0052761999999998,0,sub_22
0.0064053999999998,0.0011226000000012,-0.0070209999999999,0.0046570000000004,0.0283790000000008,-0.0009871999999999,0,sub_22
0.0041829999999998,0.0033396000000012,-0.0018605999999999,0.0072166000000004,0.0317644000000008,0.0026582,0,sub_22
0.0003473999999998,0.0033106000000012,0.0034946,0.0078356000000004,0.0285604000000008,0.0041622,0,sub_22
-0.0023150000000001,0.0024712000000012,0.006395,0.0056540000000004,0.0191768000000008,0.0039446,0,sub_22
-0.0035436000000001,0.0011406000000012,0.0079038,-0.0005843999999995,0.0078950000000008,0.0024192,0,sub_22
-0.0027510000000001,0.0007232000000012,0.0057604,-0.0102443999999995,-0.0065645999999991,-0.0006213999999999,0,sub_22
-0.0012464000000001,0.0011326000000012,0.0020272,-0.0169105999999995,-0.0189067999999991,-0.0030027999999999,0,sub_22
0.0010751999999998,0.0002124000000012,-0.0036205999999999,-0.0182307999999995,-0.0263767999999991,-0.0030031999999999,0,sub_22
0.0006919999999998,0.0026920000000012,-0.0084437999999999,-0.0098995999999995,-0.0238509999999991,-0.0025209999999999,0,sub_22
-0.0026080000000001,0.0015172000000012,-0.0045755999999999,-0.0041087999999995,-0.0196005999999991,-0.0048359999999999,0,sub_22
-0.0043890000000001,-0.0003423999999987,-0.0013121999999999,0.0035918000000004,-0.0181249999999991,-0.0075613999999999,0,sub_22
-0.0031622000000001,-0.0002271999999987,-0.0016931999999999,0.0098054000000004,-0.0142891999999991,-0.0083747999999998,0,sub_22
-0.0019454000000001,0.0008392000000012,-0.0008575999999999,0.0134766000000004,-0.0066085999999991,-0.0094243999999998,0,sub_22
0.0003231999999998,-0.0014925999999987,0.0015238,0.0090004000000004,-0.0067859999999991,-0.0096663999999998,0,sub_22
0.0030369999999998,-0.0011629999999987,-0.0005811999999999,0.0055566000000004,-0.0110295999999991,-0.0062639999999998,0,sub_22
0.0051209999999998,0.0005384000000012,-0.0024773999999999,0.0017158000000004,-0.0082427999999991,-0.0024461999999998,0,sub_22
0.0047423999999998,0.0004048000000012,-0.0022021999999999,0.0019434000000004,-0.0025013999999991,0.0001118,0,sub_22
0.0033377999999998,0.0004108000000012,-0.0013931999999999,0.0013004000000004,-0.0010161999999991,0.0022418,0,sub_22
0.0019091999999998,0.0006470000000012,0.0014382,-0.0012657999999995,-0.0012245999999991,0.0032924,0,sub_22
0.0028593999999998,0.0011976000000012,0.0008228,-0.0018919999999995,0.0009284000000008,0.0037162,0,sub_22
0.0034187999999998,0.0012120000000012,-0.0008447999999999,-0.0014607999999995,0.0020082000000008,0.005217,0,sub_22
0.0034101999999998,0.0012074000000012,-0.0028961999999999,-0.0025375999999995,0.0003220000000008,0.007138,0,sub_22
0.0020681999999998,0.0009556000000011,-0.0016761999999999,-0.0031913999999995,-0.0030669999999991,0.0082096,0,sub_22
0.0018547999999998,0.0009870000000012,-0.0014203999999999,-0.0029773999999995,-0.0041117999999991,0.0084298,0,sub_22
0.0017181999999998,0.0012594000000012,-0.0022509999999999,-0.0021199999999995,-0.0036869999999991,0.008008,0,sub_22
0.0015137999999998,0.0014038000000012,-0.0031503999999999,-0.0010425999999995,-0.0032567999999991,0.0060922,0,sub_22
0.0017617999999998,0.0011628000000012,-0.0024809999999999,3.300000000044791e-05,-0.0032529999999991,0.004177,0,sub_22
0.0017949999999998,0.0009716000000012,-0.0021077999999998,0.0009084000000004,-0.0028041999999991,0.0022672,0,sub_22
0.0007061999999998,0.0008486000000012,-0.0024083999999998,0.0019932000000004,-0.0025719999999991,0.001,0,sub_22
-0.0011060000000001,0.0003590000000012,-0.0019795999999998,0.0015798000000004,-0.0025509999999991,0.0005772,0,sub_22
-0.0025806000000001,-0.0030679999999987,-0.0002293999999998,0.0003196000000004,-0.0012477999999991,-6.679999999991735e-05,0,sub_22
-0.0029562000000001,-0.0063859999999987,-0.0008817999999999,-0.0028465999999995,0.0015604000000008,-0.0024351999999999,0,sub_22
0.0011863999999998,-0.0054121999999987,-0.0053967999999999,-0.0049439999999995,0.0081784000000008,-0.0039537999999999,0,sub_22
0.0049543999999998,-0.0035863999999987,-0.0094155999999999,-0.0027727999999995,0.0183898000000008,-0.0020287999999999,0,sub_22
0.0073171999999998,-0.0020637999999987,-0.0103039999999999,0.0040914000000004,0.0300694000000008,0.0016362,0,sub_22
0.0058001999999998,0.0008970000000012,-0.0069097999999999,0.0096660000000004,0.0387486000000008,0.005944,0,sub_22
0.0036703999999998,0.0038908000000012,-0.0017887999999999,0.0132924000000004,0.0406194000000007,0.0096058,0,sub_22
-0.0002890000000001,0.0031912000000012,0.002948,0.0147650000000004,0.0361138000000007,0.011338,0,sub_22
-0.0027156000000001,0.0015174000000012,0.0054948,0.0126046000000004,0.0267352000000007,0.009419,0,sub_22
-0.0031440000000001,0.0001012000000012,0.0060742,0.0051012000000004,0.0133358000000007,0.0053314,0,sub_22
6.51999999998004e-05,0.0003420000000012,0.0025598,-0.0028357999999995,0.0001696000000007,0.0014472,0,sub_22
0.0014197999999998,0.0010832000000012,0.000366,-0.0077673999999995,-0.0074735999999991,-0.0009275999999999,0,sub_22
0.0011199999999998,0.0014908000000012,0.0004162,-0.0111947999999995,-0.0123541999999991,-0.0028681999999999,0,sub_22
0.0002815999999998,0.0007882000000012,0.0021642,-0.0171845999999995,-0.0180763999999991,-0.0052527999999999,0,sub_22
0.0046425999999998,0.0061872000000012,-0.0072151999999999,-0.0146263999999995,-0.0216855999999991,-0.0062827999999999,0,sub_22
0.0025955999999998,0.0064438000000012,-0.0099165999999998,-0.0043553999999995,-0.0176543999999991,-0.0066279999999999,0,sub_22
0.0013833999999998,0.0041648000000012,-0.0076241999999998,0.0027132000000004,-0.0148867999999991,-0.0078483999999999,0,sub_22
0.0008945999999998,0.0029396000000012,-0.0060315999999998,0.0078356000000004,-0.0159549999999991,-0.0071545999999999,0,sub_22
0.0021459999999998,0.0039364000000012,-0.0065911999999999,0.0112566000000004,-0.0142535999999991,-0.0049807999999999,0,sub_22
0.0001409999999998,-0.0009333999999987,-0.0004039999999999,0.0100050000000004,-0.0063721999999991,-0.0035041999999999,0,sub_22
0.0028371999999998,-0.0010385999999987,1.9000000000078328e-05,0.0042392000000004,-0.0050829999999991,-0.0011959999999999,0,sub_22
0.0042513999999998,0.0013594000000012,-0.0030015999999999,-4.179999999953249e-05,-0.0044267999999991,0.002842,0,sub_22
0.0043783999999998,0.0024876000000012,-0.0042485999999999,-0.0030253999999995,-0.0007887999999991,0.0060306,0,sub_22
0.0022371999999998,0.0025598000000012,-0.0043101999999999,-0.0002459999999995,0.0024064000000008,0.0084054,0,sub_22
-0.0005382000000001,0.0024344000000012,-0.0019581999999999,-5.019999999955243e-05,-0.0003513999999991,0.0099152,0,sub_22
-0.0013222000000001,0.0025928000000012,-0.0015491999999999,-0.0017689999999995,-0.0026731999999991,0.0105566,0,sub_22
0.0002425999999998,0.0021450000000012,-0.0022529999999999,-0.0009069999999995,-0.0011829999999991,0.0101334,0,sub_22
0.0014421999999998,0.0015298000000012,-0.0024573999999999,-0.0002495999999995,0.0024374000000008,0.0099196,0,sub_22
0.0017333999999998,0.0010198000000012,-0.0025881999999999,-0.0019469999999995,0.0043618000000008,0.0096916,0,sub_22
0.0007099999999998,0.0007626000000012,-0.0022881999999999,-0.0028023999999995,0.0037264000000008,0.0094728,0,sub_22
0.0003239999999998,0.0005410000000012,-0.0014481999999999,-0.0019433999999995,0.0037458000000008,0.0086188,0,sub_22
0.0001423999999998,0.0006878000000012,-0.0020379999999999,-0.0012957999999995,0.0039798000000008,0.0075494,0,sub_22
0.0004991999999998,0.0006060000000012,-0.0022717999999999,-0.0004347999999995,0.0035766000000008,0.0058414,0,sub_22
0.0017639999999998,0.0001050000000012,-0.0014349999999999,0.0010730000000004,0.0040258000000008,0.003496,0,sub_22
0.0029203999999998,-0.0003157999999987,-0.0006517999999999,0.0019464000000004,0.0057556000000007,0.0011444,0,sub_22
0.0036937999999998,-0.0006551999999987,-0.0006623999999999,0.0023828000000004,0.0057626000000007,-0.0009889999999999,0,sub_22
0.0043969999999998,-0.0011163999999987,-0.0008991999999999,0.0025952000000004,0.0047000000000007,-0.0018407999999999,0,sub_22
0.0049149999999998,-0.0009593999999987,-0.0009509999999999,0.0023818000000004,0.0040642000000008,-0.0024823999999999,0,sub_22
0.0051485999999998,-0.0002501999999987,-0.0006005999999999,0.0015232000000004,0.0038288000000008,-0.0027101999999999,0,sub_22
0.0057605999999998,0.0005032000000011,-0.0010737999999999,0.0015172000000004,0.0038018000000008,-0.0025049999999998,0,sub_22
0.0059549999999997,0.0009482000000011,-0.0014781999999999,0.0010844000000004,0.0039884000000008,-0.0020893999999998,0,sub_22
0.0055429999999998,0.0016622000000011,-0.0015677999999999,0.0008622000000004,0.0033228000000008,-0.0018847999999998,0,sub_22
0.0051467999999998,0.0022690000000011,-0.0017479999999999,0.0004216000000004,0.0020170000000008,-0.0012535999999998,0,sub_22
0.0041649999999997,0.0022200000000011,-0.0023525999999999,-0.0002319999999995,0.0003096000000008,2.580000000010256e-05,0,sub_22
0.0019081999999997,0.0008888000000011,-0.0016467999999999,-0.0021579999999995,-0.0007497999999991,0.0002274,0,sub_22
0.0001903999999997,-0.0031137999999988,-0.0012413999999999,-0.0051369999999995,-0.0007527999999991,-0.0015093999999999,0,sub_22
0.0017499999999997,-0.0037841999999988,-0.0051179999999999,-0.0085303999999995,0.0009546000000008,-0.0043195999999999,0,sub_22
0.0051249999999997,-0.0002001999999988,-0.0135515999999999,-0.0057205999999995,0.0083834000000008,-0.0047435999999999,0,sub_22
0.0069529999999998,0.0053454000000011,-0.0169115999999999,0.0064844000000004,0.0210902000000008,-0.0012631999999999,0,sub_22
0.0051809999999998,0.0065516000000011,-0.0105523999999999,0.0176032000000004,0.0316616000000008,0.0043488,0,sub_22
0.0025657999999998,0.0084132000000011,-0.0017957999999999,0.0205884000000004,0.0356814000000008,0.008851,0,sub_22
-0.0010982000000001,0.0097420000000011,0.0045698,0.0220580000000004,0.0339572000000008,0.0124954,0,sub_22
-0.0054056000000001,0.0064190000000011,0.0120832,0.0190238000000004,0.0237402000000008,0.0127008000000001,0,sub_22
-0.0077216000000001,1.9600000001199387e-05,0.0157524,0.0046664000000004,0.0054864000000008,0.0079238000000001,0,sub_22
-0.0060430000000001,0.0003950000000012,0.0116514,-0.0126967999999995,-0.0170083999999991,0.0020620000000001,0,sub_22
-0.0034218000000001,0.0029784000000012,0.006359,-0.0242941999999995,-0.0354873999999991,-0.0007737999999998,0,sub_22
0.0022223999999998,0.0011796000000012,-0.0047729999999999,-0.0350207999999995,-0.0492855999999991,-0.0027547999999998,0,sub_22
0.0049887999999998,0.0073580000000012,-0.0175101999999999,-0.0239287999999995,-0.0467717999999991,-0.0003313999999998,0,sub_22
0.0003429999999998,0.0084762000000012,-0.0228313999999999,-0.0131887999999995,-0.0320945999999991,-0.0024125999999998,0,sub_22
-0.0013812000000001,0.0044114000000012,-0.0188111999999999,-0.0022607999999995,-0.0250891999999991,-0.0055499999999998,0,sub_22
-0.0001188000000001,0.0028958000000012,-0.0178555999999999,0.0080156000000004,-0.0189403999999991,-0.0069815999999999,0,sub_22
-0.0009052000000001,0.0039246000000012,-0.0119923999999999,0.0181132000000004,-0.0036351999999991,-0.0069509999999999,0,sub_22
0.0002019999999998,-0.0038833999999987,-0.0045445999999999,0.0117496000000004,0.0025746000000008,-0.0091603999999999,0,sub_22
0.0050079999999998,-0.0049075999999987,0.0014438,0.0044252000000004,-0.0087083999999991,-0.0049445999999999,0,sub_22
0.0069837999999998,-0.0013829999999987,-0.0011847999999999,-0.0017739999999995,-0.0069987999999991,-0.0007375999999999,0,sub_22
0.0065583999999998,6.840000000121922e-05,-0.0049977999999999,-0.0006753999999995,0.0015140000000008,0.0007342,0,sub_22
0.0049701999999998,-7.479999999880078e-05,-0.0037493999999999,0.0031702000000004,0.0029902000000008,0.0011864000000001,0,sub_22
0.0030407999999998,0.0008854000000011,0.0010472,-0.0011135999999995,-0.0010411999999991,0.0007344000000001,0,sub_22
0.0045363999999998,0.0013372000000011,0.0005042,-0.0023803999999995,0.0006728000000008,-0.0005585999999998,0,sub_22
0.0052747999999998,0.0013422000000011,-0.0038567999999999,0.0004056000000004,0.0040616000000008,-0.0003455999999998,0,sub_22
0.0049239999999998,0.0008614000000011,-0.0047025999999999,-0.0006661999999995,0.0055388000000008,0.0017658000000001,0,sub_22
0.0019987999999998,0.0008356000000012,-0.0039793999999999,-0.0034653999999995,0.0025478000000008,0.0038708,0,sub_22
0.0006277999999997,0.0012468000000012,-0.0019151999999999,-0.0034905999999995,-0.0019381999999991,0.0045016,0,sub_22
-0.0002480000000002,0.0018144000000012,-0.0016475999999999,-0.0026365999999995,-0.0019481999999991,0.003851,0,sub_22
-0.0004324000000002,0.0017758000000012,-0.0004747999999999,-0.0026183999999995,-0.0002343999999991,0.0014988,0,sub_22
0.0001365999999997,-0.0021047999999987,-0.0015081999999999,-0.0036651999999995,-0.0008493999999991,-0.0036351999999999,0,sub_22
0.0031213999999997,-0.0026373999999987,-0.0043981999999998,-0.0038449999999995,0.0019398000000008,-0.0083401999999999,0,sub_22
0.0064063999999998,-0.0017573999999987,-0.0106519999999998,0.0002464000000004,0.0102346000000008,-0.0083221999999999,0,sub_22
0.0056945999999998,-0.0016059999999987,-0.0089157999999998,0.0083830000000004,0.0206136000000008,-0.0037989999999999,0,sub_22
0.0032743999999998,-0.0031077999999987,-0.0040167999999998,0.0122378000000004,0.0284482000000008,0.0013386,0,sub_22
-8.440000000016074e-05,-0.0001795999999987,0.0032230000000001,0.0132938000000004,0.0305410000000008,0.0062504,0,sub_22
-0.0034798000000001,0.0010368000000012,0.0084996,0.0132656000000004,0.0277416000000008,0.0100926,0,sub_22
-0.0069928000000001,-0.0011369999999987,0.0133838,0.0068286000000004,0.0192284000000008,0.0098382,0,sub_22
-0.0059988000000001,-0.0022705999999987,0.0118316,-0.0064445999999995,0.0048058000000008,0.0050638,0,sub_22
-0.0036648000000001,-0.0006489999999987,0.0075296,-0.0173841999999995,-0.0123955999999991,0.000523,0,sub_22
-0.0007466000000001,-0.0020287999999987,0.0016366,-0.0251087999999995,-0.0247147999999991,-0.0022923999999999,0,sub_22
0.0050181999999998,0.0026072000000012,-0.0099123999999999,-0.0219421999999995,-0.0300859999999991,-0.0020649999999999,0,sub_22
0.0035613999999998,0.0048838000000012,-0.0147635999999999,-0.0120957999999995,-0.0218415999999991,-0.0026629999999999,0,sub_22
-0.0006498000000001,0.0044690000000012,-0.0096871999999999,-0.0052347999999995,-0.0154947999999991,-0.0056293999999999,0,sub_22
-0.0002238000000001,0.0042074000000012,-0.0087467999999999,0.0045952000000004,-0.0125697999999991,-0.0079299999999999,0,sub_22
0.0019585999999998,0.0070094000000012,-0.0109191999999999,0.0125136000000004,-0.0064473999999991,-0.0089661999999999,0,sub_22
0.0003475999999998,0.0017760000000012,-0.0045717999999999,0.0131998000000004,0.0018670000000008,-0.0108949999999999,0,sub_22
0.0028655999999998,-0.0002287999999987,0.0012206,0.0074052000000004,-0.0047209999999991,-0.0100725999999998,0,sub_22
0.0065743999999998,0.0006972000000012,-0.0010207999999999,0.0035244000000004,-0.0096239999999991,-0.0060341999999999,0,sub_22
0.0070861999999998,0.0010896000000012,-0.0019205999999999,-0.0005261999999995,-0.0061903999999991,-0.0028641999999999,0,sub_22
0.0066635999999998,0.0010528000000012,-0.0016235999999999,0.0011984000000004,-0.0012787999999991,-0.0013649999999999,0,sub_22
0.0053591999999997,0.0011474000000012,0.0009138,-0.0005119999999995,-0.0018909999999991,-0.0007371999999998,0,sub_22
0.0045087999999998,0.0015916000000012,0.0013318,-0.0026385999999995,-0.0014313999999991,-0.0013955999999998,0,sub_22
0.0051195999999997,0.0013330000000012,-0.0017469999999999,-0.0011359999999995,7.82000000008512e-05,-0.0013891999999998,0,sub_22
0.0045959999999998,0.0010560000000012,-0.0042057999999999,-0.0004959999999995,0.0009248000000008,-0.0005311999999998,0,sub_22
0.0021395999999997,0.0007322000000011,-0.0035403999999998,-0.0030765999999995,-0.0014181999999991,0.0015902,0,sub_22
3.11999999997991e-05,0.0006848000000011,-0.0026887999999998,-0.0048063999999995,-0.0052523999999991,0.002865,0,sub_22
-8.680000000020091e-05,0.0010136000000011,-0.0028463999999998,-0.0050213999999995,-0.0050241999999991,0.0035026,0,sub_22
-0.0002770000000001,0.0015574000000011,-0.0032597999999998,-0.0050019999999995,-0.0013827999999991,0.0028556,0,sub_22
2.3799999999819063e-05,0.0019470000000011,-0.0029975999999999,-0.0045653999999995,-8.559999999916794e-05,0.0020008,0,sub_22
0.0001653999999998,0.0016290000000012,-0.0016781999999999,-0.0034905999999995,-0.0002777999999991,8.440000000008189e-05,0,sub_22
-0.0011468000000001,-0.0013297999999987,-0.0001195999999999,-0.0034721999999995,0.0006042000000008,-0.0031227999999998,0,sub_22
-0.0014462000000001,-0.0061291999999987,-0.0010139999999999,-0.0045177999999995,0.0008390000000008,-0.0076167999999998,0,sub_22
0.0019803999999998,-0.0057469999999987,-0.0065093999999999,-0.0040689999999995,0.0036158000000008,-0.0097535999999999,0,sub_22
0.0068641999999997,-0.0021837999999987,-0.0119399999999999,0.0012962000000004,0.0125362000000008,-0.0082313999999999,0,sub_22
0.0091611999999998,-0.0009807999999987,-0.0111971999999999,0.0098658000000004,0.0252684000000008,-0.0037009999999999,0,sub_22
0.0078897999999997,-0.0001179999999987,-0.0046033999999999,0.0128732000000004,0.0350364000000008,0.001008,0,sub_22
0.0050693999999997,0.0041576000000012,0.0017226,0.0135008000000004,0.0369322000000008,0.0050696,0,sub_22
-0.0008176000000002,0.0040124000000012,0.0097806,0.0117518000000004,0.0307462000000008,0.0076296,0,sub_22
-0.0055456000000001,-0.0006001999999987,0.016018,0.0031660000000004,0.0177866000000008,0.005877,0,sub_22
-0.0068820000000001,-0.0019295999999987,0.0162602,-0.0116209999999995,-0.0008925999999991,0.0013112,0,sub_22
-0.0039394000000001,0.0001414000000012,0.0102704,-0.0221509999999995,-0.0200203999999991,-0.0013013999999999,0,sub_22
0.0034785999999998,0.0069798000000012,-0.0071841999999999,-0.0296743999999995,-0.0334245999999991,-0.0011261999999999,0,sub_22
0.0099763999999998,0.0130412000000012,-0.0214297999999999,-0.0194323999999995,-0.0330481999999991,0.000651,0,sub_22
0.0053161999999998,0.0135472000000012,-0.0202713999999999,-0.0097681999999995,-0.0232773999999991,-0.0020743999999999,0,sub_22
0.0036623999999998,0.0117296000000012,-0.0169717999999999,-0.0003413999999995,-0.0198931999999991,-0.0058615999999998,0,sub_22
0.0044605999999998,0.0109946000000012,-0.0146549999999999,0.0090788000000004,-0.0165149999999991,-0.0081533999999998,0,sub_22
0.0030205999999998,0.0047450000000012,-0.0050771999999999,0.0174616000000004,-0.0041819999999991,-0.0093923999999998,0,sub_22
-5.500000000020072e-05,-0.0023569999999987,0.0032514,0.0123694000000004,0.0003176000000008,-0.0113565999999998,0,sub_22
0.0045309999999997,-0.0023183999999987,0.0018494,0.0067566000000004,-0.0094821999999991,-0.0066829999999998,0,sub_22
0.0057587999999997,-0.0002989999999987,0.0008534,0.0020378000000004,-0.0098973999999991,-0.0015747999999999,0,sub_22
0.0061933999999997,0.0005172000000012,-0.0042027999999999,0.0014200000000004,-0.0022213999999991,0.0012016,0,sub_22
0.0043645999999997,0.0003854000000012,-0.0041213999999998,0.0027064000000004,0.0005530000000008,0.0027156,0,sub_22
0.0040903999999998,0.0009422000000012,-0.0020087999999999,-0.0011463999999995,-0.0013393999999991,0.0035588,0,sub_22
0.0049101999999998,0.0010922000000011,-0.0010009999999999,-0.0024157999999995,0.0003872000000008,0.0029198,0,sub_22
0.0064697999999998,0.0012890000000011,-0.0032829999999999,-0.0002771999999995,0.0020816000000008,0.0035734,0,sub_22
0.0051487999999998,0.0012010000000011,-0.0032825999999999,-0.0005057999999995,0.0003712000000008,0.0052832,0,sub_22
