userAcceleration.x,userAcceleration.y,userAcceleration.z,rotationRate.x,rotationRate.y,rotationRate.z,label,subject
0.0263551999999997,0.0137506000000012,-0.0003725999999999,-0.0104693999999995,0.0219810000000008,0.0055438,0,sub_2
0.0254323999999997,0.0145874000000012,-5.019999999991065e-05,-0.0051853999999995,0.0137542000000008,0.0054082,0,sub_2
0.0243509999999997,0.0139232000000012,-0.0006681999999999,-0.0018177999999995,0.0065986000000008,0.0054714,0,sub_2
0.0227021999999997,0.0142130000000012,-0.0012837999999999,-0.0016267999999995,0.0035072000000008,0.0042252,0,sub_2
0.0215201999999997,0.0144404000000012,-0.0015701999999999,0.0002748000000004,0.0002010000000008,0.001923,0,sub_2
0.0195937999999998,0.0124378000000012,-0.0012899999999999,0.0032516000000004,-0.0040627999999991,2.6400000000091803e-05,0,sub_2
0.0187709999999998,0.0106328000000012,-0.0023405999999999,0.0038888000000004,-0.0078873999999991,-0.0031689999999998,0,sub_2
0.0177455999999998,0.0108836000000012,-0.0026603999999999,0.0026172000000004,-0.0087241999999991,-0.0059541999999998,0,sub_2
0.0182427999999998,0.0109546000000012,-0.0024829999999999,0.0017562000000004,-0.0076047999999991,-0.0072301999999998,0,sub_2
0.0187061999999998,0.0104362000000012,-0.0016459999999999,0.0015296000000004,-0.0062805999999991,-0.0070065999999998,0,sub_2
0.0203689999999998,0.0108314000000012,-0.0016015999999999,0.0002370000000004,-0.0041029999999991,-0.0061505999999998,0,sub_2
0.0219665999999998,0.0119010000000012,-0.0008167999999999,-0.0006315999999995,-0.0021415999999991,-0.0048641999999998,0,sub_2
0.0232985999999997,0.0121686000000012,-0.0006249999999999,-1.5399999999535143e-05,-0.0018905999999991,-0.0033515999999999,0,sub_2
0.0225997999999997,0.0122752000000012,-0.0004531999999999,0.0012494000000004,-0.0038185999999991,-0.0018447999999999,0,sub_2
0.0213939999999997,0.0125594000000012,-0.0006341999999998,0.0014522000000004,-0.0055263999999991,-0.0012001999999999,0,sub_2
0.0199919999999997,0.0126472000000012,-0.0002115999999998,0.0020894000000004,-0.0059555999999991,-0.0009815999999998,0,sub_2
0.0187683999999997,0.0134326000000012,-0.0009213999999998,0.0027122000000004,-0.0061393999999991,-0.0009705999999998,0,sub_2
0.0177491999999997,0.0143812000000012,-0.0012893999999998,0.0029130000000004,-0.0048321999999991,-0.0005373999999998,0,sub_2
0.0180647999999998,0.0144508000000012,-0.0014439999999998,0.0033368000000004,-0.0024561999999991,-0.0011721999999998,0,sub_2
0.0184663999999998,0.0142934000000012,-0.0014793999999998,0.0037606000000004,-0.0002921999999991,-0.0020203999999998,0,sub_2
0.0197459999999998,0.0144078000000012,-0.0016675999999998,0.0033270000000004,0.0005980000000008,-0.0033001999999998,0,sub_2
0.0208377999999998,0.0130748000000012,-0.0017579999999998,0.0029060000000004,0.0008168000000008,-0.0043717999999998,0,sub_2
0.0222719999999998,0.0119618000000012,-0.0018923999999998,0.0024802000000004,0.0003948000000008,-0.0050151999999998,0,sub_2
0.0227701999999998,0.0116362000000012,-0.0015175999999998,0.0016200000000004,-0.0002447999999991,-0.0041657999999998,0,sub_2
0.0234321999999998,0.0120024000000012,-0.0014679999999998,0.0007580000000004,-0.0006739999999991,-0.0026757999999999,0,sub_2
0.0229223999999998,0.0120070000000012,-0.0018821999999998,0.0005342000000004,-0.000894799999999,-0.0005405999999999,0,sub_2
0.0221361999999997,0.0123292000000012,-0.0016467999999998,9.880000000048489e-05,-0.000900999999999,0.0013792,0,sub_2
0.0211729999999997,0.0128316000000012,-0.0013873999999998,-0.0003315999999995,-0.001115199999999,0.0020174,0,sub_2
0.0201395999999997,0.0132254000000012,-0.0020067999999998,-0.0001181999999995,-0.001115799999999,0.0020188,0,sub_2
0.0183393999999997,0.0131754000000012,-0.0018433999999998,0.0007362000000004,-0.000905599999999,0.0020246,0,sub_2
0.0175601999999997,0.0133472000000012,-0.0016725999999998,0.0009534000000004,-0.0004785999999991,0.0015982,0,sub_2
0.0173609999999997,0.0135806000000012,-0.0015629999999999,0.0009562000000004,-5.159999999910349e-05,0.001384,0,sub_2
0.0182481999999997,0.0129950000000012,-0.0012875999999998,0.0009610000000004,0.0008016000000008,0.0011694,0,sub_2
0.0196765999999997,0.0120876000000012,-0.0006475999999998,0.0011812000000004,0.0018678000000008,0.0007424000000001,0,sub_2
0.0212339999999997,0.0110872000000012,-0.0003337999999998,0.0005488000000004,0.0029378000000008,9.56000000001316e-05,0,sub_2
0.0225427999999998,0.0103660000000012,-0.0001537999999998,-0.0007237999999995,0.0037980000000008,-0.0007689999999998,0,sub_2
0.0232993999999998,0.0100922000000012,-0.0001001999999998,-0.0015723999999995,0.0042296000000008,-0.0014163999999998,0,sub_2
0.0234295999999998,0.0103234000000012,-0.0004093999999999,-0.0015771999999995,0.0035886000000008,-0.0009883999999998,0,sub_2
0.0228929999999998,0.0112764000000012,-0.0005279999999999,-0.0017983999999995,0.0027336000000008,-0.0001343999999999,0,sub_2
0.0217873999999998,0.0115398000000012,-0.0006979999999999,-0.0009583999999995,0.0010210000000008,0.0011556,0,sub_2
0.0204119999999998,0.0111646000000012,-0.0012687999999999,0.0007484000000004,-0.0015591999999991,0.0022378,0,sub_2
0.0192637999999998,0.0117662000000012,-0.0025849999999998,0.0009692000000004,-0.0024295999999991,0.0033074,0,sub_2
0.0180053999999998,0.0131982000000012,-0.0027951999999998,0.0009880000000004,-0.0011669999999991,0.0039456,0,sub_2
0.0169131999999998,0.0135646000000012,-0.0023947999999998,0.0018586000000004,-0.0007577999999991,0.0041636,0,sub_2
0.0166327999999998,0.0139366000000012,-0.0015557999999998,0.0027320000000004,-0.0005583999999991,0.0035272,0,sub_2
0.0163997999999997,0.0145460000000012,-0.0013495999999998,0.0027406000000004,0.0005104000000008,0.0026714,0,sub_2
0.0167399999999997,0.0135340000000012,-0.0006363999999998,0.0042418000000004,0.0005120000000008,0.0009728,0,sub_2
0.0178953999999997,0.0112144000000012,-0.0002167999999998,0.0055268000000004,-0.0003369999999991,-0.0009397999999999,0,sub_2
0.0190035999999997,0.0100070000000012,-0.0005037999999998,0.0055326000000004,-0.0003319999999991,-0.0022215999999999,0,sub_2
0.0205923999999997,0.0096820000000012,-0.0013143999999998,0.0048924000000004,-0.0005419999999991,-0.0024393999999999,0,sub_2
0.0223613999999997,0.0102044000000012,-0.0011773999999998,0.0055248000000004,-0.0013999999999991,-0.0015793999999999,0,sub_2
0.0232881999999998,0.0105980000000012,-0.0011213999999998,0.0061524000000004,-0.0022621999999991,0.0003488,0,sub_2
0.0226941999999998,0.0114006000000012,-0.0016029999999998,0.0063534000000004,-0.0031227999999991,0.002274,0,sub_2
0.0226061999999997,0.0113578000000012,-0.0017051999999998,0.0059390000000004,-0.0038029999999991,0.0033356,0,sub_2
0.0218345999999997,0.0111092000000012,-0.0019185999999998,0.0048942000000004,-0.0036235999999991,0.0031098,0,sub_2
0.0208073999999997,0.0105970000000012,-0.0020505999999999,0.0032130000000004,-0.0030141999999991,0.002452,0,sub_2
0.0204029999999997,0.0110562000000012,-0.0015879999999999,0.0021692000000004,-0.0034705999999991,0.0013726,0,sub_2
0.0204687999999997,0.0113140000000012,-0.0010503999999999,0.0015538000000004,-0.0035023999999991,0.0002956,0,sub_2
0.0197157999999998,0.0117676000000012,-0.0013105999999999,0.0011308000000004,-0.0028607999999991,7.820000000009156e-05,0,sub_2
0.0190101999999997,0.0119674000000012,-0.0012703999999999,0.0007040000000004,-0.0026469999999991,0.0002886,0,sub_2
0.0190053999999997,0.0121298000000012,-0.0010693999999999,0.0011400000000004,-0.0015875999999991,0.0002898,0,sub_2
0.0189845999999997,0.0117270000000012,-0.0013709999999999,0.0009376000000004,0.0001124000000008,0.0004996,0,sub_2
0.0185283999999997,0.0114626000000012,-0.0010629999999999,0.0005192000000004,0.0011738000000008,0.0007086,0,sub_2
0.0188335999999997,0.0117420000000012,-0.0009031999999999,0.0005256000000004,0.0009588000000008,6.780000000009157e-05,0,sub_2
0.0200805999999998,0.0122144000000012,-0.0013469999999999,0.0007472000000004,0.0011692000000008,-0.0005721999999999,0,sub_2
0.0203935999999998,0.0120930000000012,-0.0013543999999999,0.0005348000000004,0.0009586000000008,-0.0010005999999999,0,sub_2
0.0202665999999998,0.0121960000000012,-0.0008149999999999,0.0009616000000004,0.0005326000000008,-0.0014243999999999,0,sub_2
0.0206063999999998,0.0117830000000012,-0.0011313999999998,0.0011720000000004,-0.0003193999999991,-0.0016353999999999,0,sub_2
0.0202013999999998,0.0117874000000012,-0.0014503999999998,0.0007486000000004,-0.0007775999999991,-0.0009997999999999,0,sub_2
0.0197143999999998,0.0117522000000012,-0.0013361999999999,0.0007510000000004,-0.0012381999999991,-0.0001473999999999,0,sub_2
0.0191779999999998,0.0122996000000012,-0.0014293999999999,0.0005408000000004,-0.0012727999999991,0.0009164,0,sub_2
0.0190399999999998,0.0122104000000012,-0.0014323999999999,-9.119999999953522e-05,-0.0008771999999991,0.0013358,0,sub_2
0.0185363999999998,0.0130898000000012,-0.0012717999999999,-0.0002945999999995,-0.000481599999999,0.001331,0,sub_2
0.0189115999999998,0.0128056000000012,-0.0014139999999999,-0.0002907999999995,-0.000265999999999,0.0006898000000001,0,sub_2
0.0186257999999998,0.0122632000000012,-0.0012085999999999,-0.0002851999999995,0.0001634000000009,-0.0001653999999998,0,sub_2
0.0186429999999997,0.0119902000000012,-0.0015009999999999,-6.539999999953519e-05,-6.799999999908358e-05,-0.0010237999999998,0,sub_2
0.0188715999999997,0.0117848000000012,-0.0013189999999999,0.0001496000000004,-0.000515799999999,-0.0010273999999999,0,sub_2
0.0196509999999997,0.0115852000000012,-0.0023599999999999,0.0003648000000004,-0.0003269999999991,-0.0003909999999999,0,sub_2
0.0200387999999997,0.0118010000000012,-0.0024979999999999,0.0001530000000004,-0.0003489999999991,2.900000000007168e-05,0,sub_2
0.0205529999999997,0.0124656000000012,-0.0020713999999999,0.0003680000000004,5.200000000087643e-05,0.0008788,0,sub_2
0.0205599999999998,0.0120166000000012,-0.0019203999999999,0.0012168000000004,-0.0003795999999991,0.0015262,0,sub_2
0.0203535999999998,0.0126718000000012,-0.0027491999999999,0.0005776000000004,-0.0003765999999991,0.0013082000000001,0,sub_2
0.0203307999999998,0.0134266000000012,-0.0022427999999999,-0.0009103999999995,0.0002704000000008,0.0006560000000001,0,sub_2
0.0196691999999997,0.0128870000000012,-0.0013023999999999,-6.619999999953504e-05,4.340000000089641e-05,0.0006584000000001,0,sub_2
0.0191949999999997,0.0121960000000012,-0.0015463999999999,0.0001360000000004,-0.0008195999999991,0.0004436000000001,0,sub_2
0.0194089999999997,0.0125180000000012,-0.0019633999999998,-0.0009325999999995,0.0002400000000008,3.6000000001116845e-06,0,sub_2
0.0188619999999997,0.0125012000000012,-0.0011655999999998,-0.0007257999999995,0.0008666000000008,0.000214,0,sub_2
0.0182827999999997,0.0118722000000012,-0.0009681999999998,0.0007556000000004,0.0004226000000008,0.0006484,0,sub_2
0.0188917999999998,0.0127718000000012,-0.0012273999999998,0.0007584000000004,0.0012740000000008,0.000861,0,sub_2
0.0191961999999998,0.0130722000000012,-0.0012567999999998,0.0005478000000004,0.0019138000000008,0.0008586,0,sub_2
0.0191417999999998,0.0127836000000012,-0.0009277999999999,0.0011832000000004,0.0008464000000008,0.0008644,0,sub_2
0.0199509999999998,0.0125904000000012,-0.0016319999999999,0.0022348000000004,-9.99999999910352e-06,0.0006546,0,sub_2
0.0204251999999998,0.0122084000000012,-0.0018673999999999,0.0024336000000004,-0.0006503999999991,0.0004386,0,sub_2
0.0206557999999998,0.0117584000000012,-0.0020811999999998,0.0022076000000004,-0.0010753999999991,5.600000000111679e-06,0,sub_2
0.0210013999999998,0.0117708000000012,-0.0023619999999998,0.0021932000000004,-0.0012905999999991,0.0002148000000001,0,sub_2
0.0213923999999998,0.0116854000000012,-0.0017625999999998,0.0013300000000004,-0.0004375999999991,0.0004168,0,sub_2
0.0216217999999998,0.0115502000000012,-0.0014951999999998,0.0004784000000004,-0.0004329999999991,-1.6599999999908355e-05,0,sub_2
0.0213937999999998,0.0120770000000012,-0.0015175999999998,-0.0005863999999995,-3.1999999991235003e-06,-2.4599999999928343e-05,0,sub_2
0.0206467999999998,0.0124200000000012,-0.0014819999999998,-0.0012253999999995,0.0002120000000008,-2.919999999992835e-05,0,sub_2
0.0201141999999997,0.0126188000000012,-0.0009373999999998,-0.0012335999999995,0.0002140000000008,-0.0006729999999999,0,sub_2
0.0194769999999997,0.0126656000000012,-0.0008927999999998,-0.0006035999999995,0.0002120000000008,-0.0008851999999999,0,sub_2
0.0193485999999997,0.0122560000000012,-0.0008579999999998,-0.0008269999999995,0.0008496000000008,-0.0004629999999999,0,sub_2
0.0192565999999997,0.0116842000000012,-0.0017303999999998,-0.0012647999999995,0.0006382000000008,-0.0006823999999999,0,sub_2
0.0193997999999997,0.0118884000000012,-0.0022457999999999,-0.0014921999999995,0.0002114000000008,-0.0004727999999999,0,sub_2
0.0196677999999997,0.0119474000000012,-0.0031809999999999,-0.0012815999999995,0.0002080000000008,0.0001696,0,sub_2
0.0197513999999997,0.0123418000000012,-0.0031561999999999,-0.0019225999999995,0.0004216000000008,0.0005922,0,sub_2
0.0192601999999997,0.0128514000000012,-0.0027881999999999,-0.0027771999999995,-5.999999991235238e-07,0.000373,0,sub_2
0.0198367999999998,0.0127076000000012,-0.0013305999999999,-0.0025725999999995,-0.0002147999999991,0.0005866,0,sub_2
0.0202471999999998,0.0117016000000012,-0.0007037999999999,-0.0027869999999995,0.0002158000000008,-0.0002719999999999,0,sub_2
0.0202935999999998,0.0110908000000012,-0.0008495999999999,-0.0040675999999995,0.0006510000000009,-0.0013515999999999,0,sub_2
0.0211451999999998,0.0108792000000012,-0.0009737999999999,-0.0053451999999995,0.0017252000000008,-0.0024319999999999,0,sub_2
0.0224263999999998,0.0107032000000012,-0.0022693999999999,-0.0081019999999995,0.0072736000000008,-0.0022465999999999,0,sub_2
0.0210941999999997,0.0114766000000012,-0.0029799999999999,-0.0123465999999995,0.0143116000000008,-0.0003625999999999,0,sub_2
0.0207209999999997,0.0132980000000012,-0.0029273999999999,-0.0125609999999995,0.0170700000000008,0.0026234,0,sub_2
0.0203703999999997,0.0146984000000012,-0.0011565999999999,-0.0123523999999995,0.0183382000000008,0.0049732,0,sub_2
0.0198581999999997,0.0149296000000012,-0.0005371999999999,-0.0129973999999995,0.0193972000000008,0.0071038,0,sub_2
0.0184059999999997,0.0135708000000012,0.000399,-0.0119477999999995,0.0164070000000008,0.0081828,0,sub_2
0.0188693999999998,0.0120010000000012,0.0001358,-0.0094015999999995,0.0104430000000008,0.005644,0,sub_2
0.0182035999999998,0.0107682000000012,5.080000000008949e-05,-0.0100311999999995,0.0091810000000008,0.0022226,0,sub_2
0.0171393999999997,0.0119044000000012,-0.0013427999999999,-0.0091689999999995,0.0087608000000008,9.240000000009154e-05,0,sub_2
0.0159671999999997,0.0142790000000012,-0.0023171999999999,-0.0057645999999995,0.0051326000000008,-0.0011615999999999,0,sub_2
0.0163843999999997,0.0162724000000012,-0.0019023999999999,-0.0019333999999995,0.0025642000000009,-0.0015587999999999,0,sub_2
0.0179275999999997,0.0174676000000012,-0.0014821999999999,0.0001964000000004,0.0027656000000009,-0.0004757999999999,0,sub_2
0.0200593999999997,0.0178112000000012,-0.0016951999999999,0.0018958000000004,0.0016918000000009,0.0001784,0,sub_2
0.0226305999999997,0.0155652000000012,-0.0006687999999999,0.0027370000000004,-1.3599999999085005e-05,-2.879999999990824e-05,0,sub_2
0.0239049999999997,0.0115860000000012,-0.0004045999999999,0.0018818000000004,-0.000218199999999,-0.0011043999999999,0,sub_2
0.0242519999999997,0.0102950000000012,-0.0015109999999999,0.0006026000000004,-0.000418799999999,-0.0028239999999999,0,sub_2
0.0233721999999997,0.0104628000000012,-0.0024239999999999,-4.119999999955548e-05,-0.000837999999999,-0.0036841999999998,0,sub_2
0.0217153999999997,0.0102834000000012,-0.0023047999999998,-0.0006879999999995,0.0006500000000009,-0.0019831999999998,0,sub_2
0.0199081999999997,0.0105226000000012,-0.0031465999999998,-0.0026007999999995,0.0042710000000009,-7.839999999990841e-05,0,sub_2
0.0191663999999997,0.0121430000000012,-0.0031529999999998,-0.0042933999999995,0.0089582000000009,0.0013994,0,sub_2
0.0177585999999997,0.0130364000000012,-0.0018881999999998,-0.0042933999999995,0.0110802000000008,0.0035332,0,sub_2
0.0158055999999997,0.0129274000000012,-0.0001823999999998,-0.0019601999999995,0.0095786000000008,0.0044056,0,sub_2
0.0151619999999997,0.0120504000000012,-0.0001645999999999,0.0001568000000004,0.0057412000000008,0.0035704,0,sub_2
0.0152391999999997,0.0115948000000012,-0.0003359999999999,0.0018470000000004,0.0014808000000008,0.0023054,0,sub_2
0.0155877999999997,0.0110074000000012,-0.0003197999999999,0.0041744000000004,-0.0027845999999991,0.0016858,0,sub_2
0.0173009999999998,0.0106724000000012,-0.0012677999999999,0.0048064000000004,-0.0049115999999991,0.0006244,0,sub_2
0.0202467999999998,0.0112096000000012,-0.0020959999999998,0.0033196000000004,-0.004051599999999,-2.7999999999908395e-05,0,sub_2
0.0221127999999998,0.0115870000000012,-0.0016269999999998,0.0024796000000004,-0.002339199999999,-0.0013177999999999,0,sub_2
0.0231759999999997,0.0118158000000012,-0.0009289999999998,0.0022730000000004,-0.001695999999999,-0.0021745999999999,0,sub_2
0.0239519999999997,0.0111820000000012,-0.0008403999999998,0.0007942000000004,-0.000409199999999,-0.0032553999999999,0,sub_2
0.0239311999999997,0.0107166000000012,4.640000000010929e-05,-0.0004769999999995,-0.000401599999999,-0.0043329999999999,0,sub_2
0.0234067999999997,0.0092792000000012,0.0011832,0.0010056000000004,-0.0048777999999991,-0.0053855999999999,0,sub_2
0.0235267999999997,0.0086752000000012,0.0002642,0.0014136000000004,-0.0110545999999991,-0.0064435999999999,0,sub_2
0.0246717999999998,0.0095266000000012,-0.0017015999999999,0.0005472000000004,-0.0159485999999991,-0.0075121999999999,0,sub_2
0.0245665999999998,0.0113472000000012,-0.0021487999999998,0.0009548000000004,-0.0199989999999991,-0.0072903999999999,0,sub_2
0.0218013999999998,0.0124744000000012,-0.0009221999999998,0.0051840000000004,-0.0268383999999991,-0.0055429999999999,0,sub_2
0.0188633999999998,0.0135334000000012,-0.0015261999999998,0.0085662000000004,-0.0317589999999991,-0.0033765999999999,0,sub_2
0.0162735999999998,0.0147602000000012,-0.0017613999999998,0.0094120000000004,-0.0315565999999991,-0.0014481999999999,0,sub_2
0.0142311999999998,0.0144672000000012,-0.0007207999999998,0.0113620000000004,-0.0303149999999991,-0.0008023999999999,0,sub_2
0.0142903999999998,0.0132014000000012,0.000144,0.0137484000000004,-0.029066399999999,-0.0022899999999999,0,sub_2
0.0168493999999998,0.0121280000000012,-0.0008047999999999,0.0121094000000004,-0.023746199999999,-0.0061609999999999,0,sub_2
0.0212059999999998,0.0110002000000012,-0.0002933999999999,0.0085568000000004,-0.018837599999999,-0.0119677999999999,0,sub_2
0.0241145999999998,0.0089082000000012,0.001303,0.0134556000000004,-0.032706799999999,-0.0179049999999999,0,sub_2
0.0261299999999998,0.0070016000000012,0.004836,0.0257410000000004,-0.059779599999999,-0.0248347999999999,0,sub_2
0.0222409999999998,0.0043936000000012,0.003553,0.0412922000000004,-0.073649199999999,-0.0330405999999999,0,sub_2
0.0244719999999998,0.0032208000000012,0.0054776,0.0526910000000004,-0.114799399999999,-0.0416725999999998,0,sub_2
0.0233801999999998,0.0142512000000012,-0.0016523999999999,0.0535152000000004,-0.1256965999999991,-0.0410167999999998,0,sub_2
0.0198475999999998,0.0202228000000012,-0.0130503999999998,0.0344616000000004,-0.080130999999999,-0.0239081999999998,0,sub_2
0.0125139999999998,0.0221152000000012,-0.0149731999999998,0.0084022000000004,-0.0175331999999991,0.0023166000000001,0,sub_2
0.0148517999999998,0.0303554000000012,-0.0075431999999998,-0.0092765999999995,0.0086114000000008,0.0265102000000001,0,sub_2
0.0098675999999998,0.0363216000000012,-0.0048251999999998,-0.0138853999999995,0.0468996000000008,0.0458704,0,sub_2
0.0105149999999998,0.0267618000000012,0.0004770000000001,-0.0098505999999995,0.0523856000000008,0.0557192,0,sub_2
0.0146135999999998,0.0229152000000012,0.009504,0.0066804000000004,0.0167902000000008,0.0451982,0,sub_2
0.0206341999999997,0.0197970000000012,0.0059816,0.0239320000000004,-0.0136429999999991,0.0218568,0,sub_2
0.0236231999999997,0.0109726000000012,-0.0001935999999999,0.0248770000000004,-0.0189115999999991,7.340000000007201e-05,0,sub_2
0.0272863999999997,0.0050652000000012,-0.0045977999999999,0.0128330000000004,-0.0126519999999991,-0.0162605999999999,0,sub_2
0.0286511999999997,0.0048176000000012,-0.0025203999999999,0.0052480000000004,-0.0047299999999991,-0.0259427999999999,0,sub_2
0.0304471999999997,0.0043540000000012,-0.0005875999999999,0.0033692000000004,0.0016378000000008,-0.0249007999999999,0,sub_2
0.0332225999999997,0.0068160000000012,0.0006564000000001,0.0005574000000004,-0.0007623999999991,-0.0148809999999999,0,sub_2
0.0326495999999997,0.0098344000000012,-0.0003479999999998,4.72000000004658e-05,-0.0055035999999991,-0.0009915999999999,0,sub_2
0.0323065999999997,0.0113676000000012,-0.0012657999999998,0.0038152000000004,-0.0077037999999991,0.013138,0,sub_2
0.0298125999999997,0.0109010000000012,-0.0019863999999998,0.0050684000000004,-0.0079633999999991,0.0206246,0,sub_2
0.0259279999999998,0.0110716000000012,-0.0027675999999998,0.0020954000000004,-0.0071103999999991,0.0199616,0,sub_2
0.0217389999999998,0.0128558000000012,-0.0013845999999998,-0.0012861999999995,-0.0070885999999991,0.014383,0,sub_2
0.0189617999999998,0.0157484000000012,-0.0007607999999998,-0.0029521999999995,-0.0066405999999991,0.0073204,0,sub_2
0.0158275999999998,0.0170528000000012,-0.0007535999999998,-0.0037609999999995,-0.0038579999999991,0.0017564,0,sub_2
0.0125305999999997,0.0172730000000012,-0.0011835999999998,-0.0037293999999995,0.0010508000000008,-0.0003859999999999,0,sub_2
0.0098195999999997,0.0170384000000012,-0.0008761999999998,-0.0030709999999995,0.0065820000000008,0.0011072,0,sub_2
0.0077641999999997,0.0151296000000012,-0.0016869999999998,-0.0017877999999995,0.0116730000000008,0.0055962,0,sub_2
0.0071201999999997,0.0131192000000012,-0.0024587999999998,-0.0007265999999995,0.0150594000000008,0.0102996,0,sub_2
0.0093003999999997,0.0118104000000012,-0.0018799999999998,-0.0009555999999995,0.0155154000000008,0.0126586,0,sub_2
0.0128725999999998,0.0113110000000012,-0.0014681999999998,-0.0016027999999995,0.0134340000000008,0.0105314,0,sub_2
0.0193349999999998,0.0116712000000012,-0.0015631999999999,-0.0011793999999995,0.0083814000000008,0.0045698000000001,0,sub_2
0.0271541999999998,0.0120710000000012,0.0001564,0.0005290000000004,0.0014188000000008,-0.0043711999999998,0,sub_2
0.0327987999999998,0.0118938000000012,0.0011068,0.0022374000000004,-0.005331599999999,-0.0130989999999998,0,sub_2
0.0346755999999997,0.0120354000000012,-0.0007075999999999,0.0045806000000004,-0.011921599999999,-0.0188425999999998,0,sub_2
0.0349023999999997,0.0128518000000012,-0.0020981999999999,0.0056264000000004,-0.017036999999999,-0.0192559999999998,0,sub_2
0.0323715999999997,0.0127006000000012,-0.0016387999999999,0.0059622000000004,-0.019258799999999,-0.0142871999999999,0,sub_2
0.0279229999999997,0.0121628000000012,-0.0022739999999999,0.0052236000000004,-0.019786199999999,-0.0059097999999999,0,sub_2
0.0237603999999997,0.0120832000000012,-0.0025875999999999,0.0038448000000004,-0.020311199999999,0.0024632,0,sub_2
0.0206011999999997,0.0118516000000012,-0.0015209999999999,0.0020642000000004,-0.018053999999999,0.0080524,0,sub_2
0.0169583999999997,0.0124874000000012,-0.0005651999999999,0.0020144000000004,-0.014083799999999,0.0100194,0,sub_2
0.0122607999999997,0.0129960000000012,-0.0010607999999999,0.0016164000000004,-0.008963799999999,0.0087282,0,sub_2
0.0080227999999997,0.0146612000000012,-0.0018163999999999,0.0007994000000004,-0.004259999999999,0.0052982,0,sub_2
0.0059773999999997,0.0156316000000012,-0.0022599999999999,0.0010530000000004,0.0008678000000008,0.0014478000000001,0,sub_2
0.0055725999999997,0.0166280000000012,-0.0021241999999999,0.0016674000000004,0.0050330000000008,-0.0019713999999998,0,sub_2
0.0078943999999997,0.0158022000000012,-0.0019049999999999,0.0018456000000004,0.0083424000000008,-0.0041107999999998,0,sub_2
0.0128837999999997,0.0143584000000012,-0.0018523999999999,0.0026514000000004,0.0093042000000008,-0.0058155999999998,0,sub_2
0.0189833999999997,0.0114292000000012,-0.0013485999999999,0.0036608000000004,0.0085592000000008,-0.0070895999999998,0,sub_2
