userAcceleration.x,userAcceleration.y,userAcceleration.z,rotationRate.x,rotationRate.y,rotationRate.z,label,subject
-0.0073088000000001,0.0015580000000012,-0.0119135999999998,-0.0273919999999994,0.0138530000000009,0.0181780000000001,0,sub_1
-0.0092528000000001,-0.0007143999999987,-0.0086773999999998,-0.0303777999999994,0.0159850000000009,0.0200768000000001,0,sub_1
-0.0092336000000001,-0.0015071999999987,-0.0097177999999998,-0.0309991999999994,0.0193970000000009,0.0194268000000001,0,sub_1
-0.0079424000000001,-0.0006197999999987,-0.0109231999999998,-0.0326623999999994,0.0255938000000009,0.0159886000000001,0,sub_1
-0.0066702000000001,-0.0010135999999987,-0.0106473999999998,-0.0321783999999994,0.0313704000000009,0.0091476000000001,0,sub_1
-0.0047472000000001,-0.0028149999999987,-0.0108197999999998,-0.0274495999999994,0.0309582000000009,0.0012760000000001,0,sub_1
0.0018001999999998,8.800000000122807e-05,-0.0118091999999998,-0.0204123999999994,0.0243508000000009,-0.0042209999999998,0,sub_1
0.0070243999999998,0.0022140000000012,-0.0103799999999998,-0.0118913999999994,0.0168816000000009,-0.0084245999999998,0,sub_1
0.0102465999999998,0.0042476000000012,-0.0065101999999999,-0.0059159999999994,0.0117698000000009,-0.0137171999999998,0,sub_1
0.0150517999999998,0.0070140000000012,-0.0025365999999999,-0.0033391999999994,0.0119908000000009,-0.0173309999999998,0,sub_1
0.0175967999999998,0.0107330000000012,-0.0004359999999999,-0.0026611999999994,0.0177556000000009,-0.0203241999999998,0,sub_1
0.0135031999999998,0.0103338000000012,0.0011678,-0.0043239999999994,0.0233220000000009,-0.0250429999999998,0,sub_1
0.0092193999999998,0.0100094000000012,0.001656,-0.0068573999999994,0.0248438000000009,-0.0299763999999998,0,sub_1
0.0062099999999998,0.0092356000000012,-0.0020475999999999,-0.0060025999999994,0.0233594000000009,-0.0321049999999998,0,sub_1
0.0037591999999998,0.0090020000000012,-0.0087345999999999,-0.0023963999999994,0.0199340000000009,-0.0310073999999998,0,sub_1
0.0017147999999998,0.0074842000000012,-0.0126713999999999,0.0005604000000005,0.0160774000000009,-0.0282045999999998,0,sub_1
0.0014143999999998,0.0063344000000012,-0.0137323999999999,0.0032986000000005,0.0128528000000009,-0.0234813999999998,0,sub_1
0.0010963999999998,0.0049290000000012,-0.0141571999999999,0.0047452000000004,0.0094104000000009,-0.0164167999999998,0,sub_1
0.0005659999999998,0.0038018000000012,-0.0130807999999999,0.0049030000000004,0.0036304000000009,-0.0097853999999998,0,sub_1
-0.0001832000000001,0.0029690000000012,-0.0095023999999999,0.0020652000000004,-0.004693199999999,-0.0038125999999998,0,sub_1
-0.0010554000000001,0.0026930000000012,-0.0080267999999999,-0.0016185999999995,-0.010884799999999,0.0025788000000001,0,sub_1
-0.0028968000000001,0.0016998000000012,-0.0083977999999999,-0.0042113999999994,-0.013451599999999,0.0072640000000001,0,sub_1
-0.0041638000000001,0.0006988000000012,-0.0094563999999999,-0.0057151999999994,-0.014941799999999,0.0081098000000001,0,sub_1
-0.0034554000000001,-0.0003379999999987,-0.0103569999999999,-0.0061373999999994,-0.015361999999999,0.0068254,0,sub_1
-0.0020024000000001,-0.0011009999999987,-0.0123497999999998,-0.0037713999999994,-0.013656999999999,0.0044896000000001,0,sub_1
0.0001343999999998,-0.0007341999999987,-0.0134067999999998,0.0011658000000005,-0.011314799999999,0.0004618000000001,0,sub_1
0.0018475999999998,0.0009092000000012,-0.0113421999999998,0.0063160000000004,-0.010246199999999,-0.0048445999999998,0,sub_1
0.0037989999999998,0.0013520000000012,-0.0086767999999998,0.0116854000000004,-0.007907599999999,-0.0090773999999998,0,sub_1
0.0031993999999998,0.0031048000000012,-0.0063043999999998,0.0168526000000004,-0.003011399999999,-0.0133149999999998,0,sub_1
0.0029433999999998,0.0029360000000012,-0.0046721999999998,0.0211760000000004,0.0027452000000009,-0.0188413999999998,0,sub_1
0.0014943999999998,0.0026766000000012,-0.0023485999999998,0.0240124000000004,0.0074518000000009,-0.0269405999999998,0,sub_1
0.0020311999999998,0.0021338000000012,-0.0015013999999998,0.0223652000000004,0.0130204000000009,-0.0335765999999998,0,sub_1
0.0026537999999998,0.0037116000000012,-0.0010971999999998,0.0189988000000004,0.0183806000000009,-0.0389479999999998,0,sub_1
0.0039745999999998,0.0039640000000012,-0.0015721999999998,0.0145340000000004,0.0175626000000009,-0.0434645999999998,0,sub_1
0.0048443999999998,0.0051842000000012,-0.0016683999999998,0.0087512000000004,0.0109864000000009,-0.0454191999999998,0,sub_1
0.0080617999999998,0.0059224000000012,-0.0036647999999998,0.0020830000000005,0.0050226000000009,-0.0403217999999998,0,sub_1
0.0081097999999998,0.0061192000000012,-0.0069665999999998,-0.0011729999999994,0.0001060000000009,-0.0337063999999998,0,sub_1
0.0073481999999998,0.0046946000000012,-0.0092931999999998,-0.0080615999999994,-0.005864199999999,-0.0269013999999998,0,sub_1
0.0065333999999998,0.0033882000000012,-0.0099741999999998,-0.0157845999999994,-0.0073581999999989,-0.0198941999999998,0,sub_1
0.0053979999999998,0.0027880000000011,-0.0096759999999998,-0.0215621999999994,-0.003956399999999,-0.0135207999999998,0,sub_1
0.0027515999999998,0.0022142000000011,-0.0089779999999999,-0.0251979999999994,-0.001616999999999,-0.0092761999999998,0,sub_1
0.0008301999999998,0.0019618000000011,-0.0065111999999998,-0.0299055999999994,-0.002673399999999,-0.0073849999999998,0,sub_1
-0.0023374000000001,0.0036720000000012,-0.0037913999999998,-0.0307707999999994,-0.006288399999999,-0.0084547999999998,0,sub_1
-0.0059816000000001,0.0067880000000012,-0.0013387999999998,-0.0346389999999994,-0.014573599999999,-0.0120917999999998,0,sub_1
-0.0084954000000001,0.0066760000000012,-0.0042515999999998,-0.0385137999999994,-0.026896799999999,-0.0182873999999998,0,sub_1
-0.0040402000000001,0.0057776000000012,-0.0080529999999998,-0.0389475999999994,-0.025839199999999,-0.0169983999999998,0,sub_1
0.0003731999999998,0.0080270000000012,-0.0142003999999999,-0.0327331999999994,-0.014164399999999,-0.0124715999999998,0,sub_1
-0.0012362000000001,0.0075846000000012,-0.0138567999999999,-0.0271521999999994,-0.006725599999999,-0.0137123999999998,0,sub_1
-0.0041948000000001,0.0034966000000012,-0.0079919999999999,-0.0222273999999995,-0.011184399999999,-0.0220045999999998,0,sub_1
-0.0030624000000001,0.0015076000000012,-0.0016133999999999,-0.0226685999999995,-0.024564599999999,-0.0322457999999998,0,sub_1
-0.0004848000000001,-0.0007795999999987,0.0013202,-0.0246017999999995,-0.037513799999999,-0.0424979999999998,0,sub_1
-0.0007972000000001,-0.0014633999999987,0.0007644,-0.0329555999999994,-0.056184599999999,-0.0559809999999998,0,sub_1
0.0068309999999998,-0.0036593999999987,-0.0059837999999999,-0.0364169999999994,-0.065336799999999,-0.0564093999999998,0,sub_1
0.0168301999999998,0.0016534000000012,-0.0193213999999999,-0.0249007999999994,-0.046068799999999,-0.0373275999999998,0,sub_1
0.0167199999999998,0.0072724000000012,-0.0245097999999998,-0.0067337999999994,-0.014271799999999,-0.0137287999999998,0,sub_1
0.0047117999999998,0.0102092000000012,-0.0170947999999998,0.0007444000000005,-0.003038799999999,-0.0064153999999998,0,sub_1
-0.0008410000000001,0.0053234000000012,-0.0041283999999998,0.0067398000000005,0.0056594000000009,-0.0023253999999998,0,sub_1
-0.0033826000000001,0.0049752000000012,0.0009498000000001,0.0100170000000005,0.0184488000000009,-0.0065917999999998,0,sub_1
-0.0066938000000001,0.0002032000000012,0.0043260000000001,0.0056310000000005,0.0213076000000009,-0.0249995999999998,0,sub_1
-0.0063308000000001,-0.0017909999999987,0.0037212000000001,-0.0023611999999994,0.0225002000000009,-0.0498397999999998,0,sub_1
-0.0028612000000001,-0.0005277999999987,-0.0050295999999998,-0.0060935999999994,0.0253686000000009,-0.0712339999999998,0,sub_1
0.0036097999999998,0.0016932000000012,-0.0158925999999998,-0.0054237999999994,0.0249684000000009,-0.0782791999999998,0,sub_1
0.0079603999999998,0.0041872000000012,-0.0196835999999999,0.0011188000000005,0.0151204000000009,-0.0720249999999998,0,sub_1
0.0128975999999998,0.0056722000000012,-0.0196793999999999,0.0084458000000005,0.0030862000000009,-0.0525165999999998,0,sub_1
0.0138503999999998,0.0037210000000012,-0.0148729999999999,0.0136364000000005,-0.003638199999999,-0.0270477999999998,0,sub_1
0.0136141999999998,0.0004108000000012,-0.0100851999999999,0.0165106000000005,-0.003748999999999,-0.0018173999999998,0,sub_1
0.0097191999999998,6.420000000126794e-05,-0.0067951999999999,0.0168858000000005,-0.001674199999999,0.0118560000000001,0,sub_1
0.0061867999999998,-0.0003099999999987,-0.0041173999999999,0.0100688000000005,0.0040886000000009,0.0152194000000001,0,sub_1
0.0022787999999998,-0.0017557999999987,-0.0019761999999999,-0.0016211999999994,0.0075650000000009,0.0085104000000001,0,sub_1
0.0052415999999998,-0.0017377999999987,-0.0051167999999999,-0.0077883999999994,0.0071808000000009,0.0035542000000001,0,sub_1
0.0089083999999998,0.0026534000000012,-0.0099181999999998,-0.0026795999999994,0.0069408000000009,0.0061544000000001,0,sub_1
0.0068033999999998,0.0060576000000012,-0.0097883999999998,-0.0005519999999994,0.0031092000000009,0.0036106000000001,0,sub_1
0.0040419999999998,0.0063724000000012,-0.0078511999999998,-0.0007813999999994,-0.004754799999999,-0.0008675999999998,0,sub_1
0.0043299999999998,0.0088864000000012,-0.0079763999999998,0.0024116000000005,-0.006893599999999,-0.0014835999999998,0,sub_1
0.0023455999999998,0.0113402000000012,-0.0083935999999998,0.0028340000000005,-0.007958399999999,-0.0019069999999998,0,sub_1
0.0012985999999998,0.0100654000000012,-0.0054671999999998,-0.0033609999999994,-0.011549399999999,-0.0042963999999998,0,sub_1
0.0037745999999998,0.0077100000000012,-0.0049673999999999,-0.0040049999999994,-0.007092799999999,0.0008206000000001,0,sub_1
0.0028371999999998,0.0046234000000012,-0.0067105999999999,-0.0020689999999995,0.0022524000000009,0.0065904000000001,0,sub_1
-6.40000000015975e-06,0.0020172000000012,-0.0086339999999999,-0.0035663999999995,0.0054372000000009,0.0106350000000001,0,sub_1
-0.0019902000000001,-0.0007807999999987,-0.0089521999999999,-0.0071919999999995,0.0073598000000009,0.0123164000000001,0,sub_1
-0.0031646000000001,-0.0037839999999987,-0.0106955999999999,-0.0073839999999995,0.0097118000000009,0.0101756000000001,0,sub_1
-0.0026166000000001,-0.0019087999999987,-0.0115787999999999,-0.0071681999999995,0.0061034000000009,0.0063362000000001,0,sub_1
4.859999999988016e-05,0.0014806000000012,-0.0106523999999999,-0.0067469999999994,0.0010022000000009,0.0027138000000001,0,sub_1
0.0054873999999998,0.0014342000000012,-0.0087233999999998,-0.0026817999999994,-0.001336599999999,-0.0019547999999998,0,sub_1
0.0105317999999998,0.0020238000000012,-0.0083735999999998,0.0060804000000005,-0.003051599999999,-0.0065909999999998,0,sub_1
0.0119233999999998,0.0041976000000012,-0.0061989999999998,0.0105672000000005,-0.003696999999999,-0.0084809999999998,0,sub_1
0.0109271999999998,0.0037992000000012,-0.0031459999999998,0.0107956000000005,-7.479999999905513e-05,-0.0082697999999998,0,sub_1
0.0093449999999998,0.0042736000000012,-0.0020935999999998,0.0080394000000005,0.0063190000000009,-0.0059467999999998,0,sub_1
0.0042997999999998,0.0067216000000012,-0.0028933999999999,0.0022746000000005,0.0095206000000009,-0.0021455999999998,0,sub_1
-0.0003404000000001,0.0088066000000012,-0.0031389999999999,-0.0031091999999994,0.0086508000000009,0.0046840000000001,0,sub_1
-0.0014732000000001,0.0096826000000012,-0.0048979999999999,-0.0042247999999995,0.0077666000000009,0.0113298000000001,0,sub_1
-0.0013868000000001,0.0094406000000012,-0.0080855999999999,-0.0032015999999995,0.0051812000000009,0.0152152000000001,0,sub_1
0.0006735999999998,0.0090438000000012,-0.0119077999999998,0.0005910000000004,-0.000176599999999,0.0174144000000001,0,sub_1
0.0007133999999998,0.0054678000000012,-0.0124865999999998,0.0041996000000004,-0.001900599999999,0.0168306000000001,0,sub_1
-0.0003602000000001,0.0012758000000012,-0.0108271999999998,0.0063612000000004,-0.001671599999999,0.0108632000000001,0,sub_1
-5.280000000012029e-05,-0.0025433999999987,-0.0088821999999998,0.0074652000000004,-0.001855599999999,0.0025390000000001,0,sub_1
0.0016907999999998,-0.0056335999999987,-0.0082179999999998,0.0106986000000004,-0.001626399999999,-0.0042749999999998,0,sub_1
0.0029905999999998,-0.0068261999999987,-0.0073635999999999,0.0111620000000004,0.0009502000000009,-0.0096155999999998,0,sub_1
0.0046227999999998,-0.0036663999999987,-0.0078305999999999,0.0073442000000004,0.0035300000000009,-0.0119951999999998,0,sub_1
0.0083191999999998,-0.0010867999999987,-0.0091419999999999,0.0005190000000004,0.0050418000000009,-0.0109759999999998,0,sub_1
0.0111691999999998,0.0025892000000012,-0.0116385999999999,-0.0080271999999994,0.0059112000000009,-0.0076179999999998,0,sub_1
0.0106855999999998,0.0063668000000012,-0.0099073999999999,-0.0201869999999994,0.0076554000000009,-0.0066365999999998,0,sub_1
0.0076581999999998,0.0072368000000012,-0.0055621999999999,-0.0327515999999994,0.0111180000000009,-0.0088649999999998,0,sub_1
0.0066331999999998,0.0069582000000011,-0.0012669999999999,-0.0382859999999994,0.0151854000000009,-0.0105901999999998,0,sub_1
0.0019625999999998,0.0041930000000012,-0.0003315999999999,-0.0384793999999994,0.0209374000000009,-0.0120665999999998,0,sub_1
-0.0035016000000001,3.3000000001227184e-05,0.0003716,-0.0354841999999994,0.0260302000000009,-0.0113835999999998,0,sub_1
-0.0075002000000001,-0.0040981999999987,-0.0015755999999999,-0.0316473999999994,0.0304712000000009,-0.0085575999999998,0,sub_1
-0.0015752000000001,-0.0102757999999987,-0.0069439999999999,-0.0291315999999994,0.0261792000000009,-0.0053023999999998,0,sub_1
0.0072793999999998,-0.0180803999999987,-0.0159011999999999,-0.0182965999999995,0.0265214000000009,0.0060964000000001,0,sub_1
0.0188505999999998,-0.0202087999999987,-0.0296611999999999,0.0134458000000004,0.0410056000000009,0.0325780000000001,0,sub_1
0.0197543999999998,-0.0069807999999987,-0.0386019999999998,0.0411282000000004,0.0414938000000009,0.0462306000000001,0,sub_1
0.0122597999999998,-0.0085133999999987,-0.0194683999999998,0.0314808000000004,0.0219644000000009,0.0357392000000001,0,sub_1
0.0031913999999998,-0.0111939999999987,0.0001526000000001,0.0205308000000004,0.0056036000000009,0.0333534000000001,0,sub_1
0.0034391999999998,0.0067126000000012,-0.0019089999999998,0.0145268000000004,0.0081458000000009,0.0412322000000001,0,sub_1
-0.0035840000000001,0.0192964000000012,0.0046106000000001,-0.0196037999999995,0.0044546000000009,0.0339676000000001,0,sub_1
-0.0036564000000001,0.0168176000000012,0.0156052,-0.0535231999999994,0.0088244000000009,0.0352398000000001,0,sub_1
0.0050195999999998,0.0275602000000012,0.00349,-0.0471957999999994,0.0170124000000009,0.0600564000000001,0,sub_1
0.0088597999999998,0.0395586000000012,-0.0079699999999999,-0.0285149999999994,0.0179226000000009,0.0826182000000001,0,sub_1
0.0010747999999998,0.0247316000000012,-0.0058143999999999,-0.0115707999999994,-0.009410199999999,0.0834126000000001,0,sub_1
-0.0037650000000001,0.0151716000000012,-0.0005951999999999,0.0099014000000005,-0.035231599999999,0.0744298000000001,0,sub_1
-0.0071638000000001,0.0062112000000012,-0.0024433999999999,0.0318906000000005,-0.048666599999999,0.0577436000000001,0,sub_1
-0.0147766000000001,0.0014778000000012,-0.0128239999999998,0.0528924000000005,-0.058631999999999,0.0267318000000001,0,sub_1
-0.0165372000000001,-0.0048301999999987,-0.0207397999999998,0.0713742000000005,-0.067279399999999,-0.0119903999999998,0,sub_1
-0.0090516000000001,0.0038390000000012,-0.0181821999999998,0.0840708000000005,-0.062347199999999,-0.0317561999999998,0,sub_1
0.0002283999999998,0.0114066000000012,-0.0156737999999998,0.0896626000000005,-0.052141599999999,-0.0313029999999998,0,sub_1
0.0035229999999998,0.0122058000000012,-0.0083245999999998,0.0855950000000005,-0.047258599999999,-0.0234327999999998,0,sub_1
0.0106839999999998,0.0067176000000012,0.003883,0.0755378000000005,-0.036851199999999,-0.0066383999999998,0,sub_1
0.0140709999999998,0.0061026000000012,0.0115434,0.0561400000000005,-0.015969999999999,0.0090300000000001,0,sub_1
0.0088105999999998,0.0008846000000012,0.0153762000000001,0.0212390000000005,0.0003622000000009,0.0036588000000001,0,sub_1
0.0057535999999998,-0.0076043999999986,0.0133344000000001,-0.0136571999999995,0.0043910000000009,-0.0151559999999998,0,sub_1
0.0108523999999998,-0.0133435999999987,0.0036052000000001,-0.0323689999999995,0.0051514000000009,-0.0297941999999998,0,sub_1
0.0184239999999998,-0.0139057999999987,-0.0079751999999998,-0.0383273999999995,0.0058236000000009,-0.0334473999999998,0,sub_1
0.0217571999999998,-0.0144789999999987,-0.0155011999999998,-0.0381327999999995,0.0058060000000009,-0.0289585999999998,0,sub_1
0.0215231999999998,-0.0160985999999987,-0.0177437999999998,-0.0307191999999995,0.0048826000000009,-0.0173679999999998,0,sub_1
0.0180373999999998,-0.0131239999999987,-0.0184627999999998,-0.0205489999999995,0.0052072000000009,-0.0006323999999998,0,sub_1
0.0121585999999998,-0.0059577999999987,-0.0152925999999998,-0.0191241999999995,0.0051386000000009,0.0143536000000001,0,sub_1
0.0048361999999998,-0.0008271999999987,-0.0108107999999998,-0.0259819999999994,0.0091656000000009,0.0245762000000001,0,sub_1
-0.0020102000000001,0.0056412000000012,-0.0061945999999998,-0.0330401999999994,0.0127810000000009,0.0311650000000001,0,sub_1
-0.0110444000000001,0.0107132000000012,-0.0004999999999999,-0.0426487999999994,0.0104730000000009,0.0294112000000001,0,sub_1
-0.0170100000000001,0.0132268000000012,0.004461,-0.0479823999999994,0.0030642000000009,0.0208572000000001,0,sub_1
-0.0173026000000001,0.0178006000000012,0.0036814,-0.0447629999999994,0.0017976000000009,0.0148982000000001,0,sub_1
-0.0164396000000001,0.0233378000000012,0.0001944,-0.0379003999999994,0.0060494000000009,0.0110940000000001,0,sub_1
-0.0170292000000001,0.0244386000000012,-0.0035517999999999,-0.0301887999999994,0.0085962000000009,0.0066572000000001,0,sub_1
-0.0138190000000001,0.0238282000000012,-0.0083291999999999,-0.0167227999999994,0.0117476000000009,0.0044136000000001,0,sub_1
-0.0086260000000001,0.0194784000000012,-0.0111621999999999,-0.0011247999999994,0.0167992000000009,0.0045324000000001,0,sub_1
-0.0043658000000001,0.0111256000000012,-0.0125471999999999,0.0112688000000004,0.0176144000000009,0.0014300000000001,0,sub_1
0.0005429999999998,0.0017618000000012,-0.0129483999999999,0.0195970000000004,0.0144018000000009,-0.0031909999999998,0,sub_1
0.0073375999999998,-0.0040851999999987,-0.0124091999999999,0.0234518000000004,0.0137580000000009,-0.0067777999999998,0,sub_1
0.0134533999999998,-0.0070671999999987,-0.0104151999999999,0.0226082000000004,0.0144056000000009,-0.0080659999999998,0,sub_1
0.0177721999999998,-0.0062203999999987,-0.0096807999999998,0.0157738000000004,0.0135746000000009,-0.0072575999999998,0,sub_1
0.0183253999999998,-0.0040303999999987,-0.0057495999999999,0.0021100000000005,0.0131916000000009,-0.0058563999999998,0,sub_1
0.0164567999999998,-0.0008479999999987,-0.0015559999999999,-0.0128331999999995,0.0138666000000009,-0.0033849999999998,0,sub_1
0.0139021999999998,0.0025952000000012,-1.0399999999914731e-05,-0.0243785999999994,0.0140918000000009,0.0021016000000001,0,sub_1
0.0119255999999998,0.0039510000000012,0.0006956,-0.0340077999999994,0.0160048000000009,0.0101630000000001,0,sub_1
0.0094235999999998,0.0044326000000012,0.0011,-0.0406277999999994,0.0215344000000009,0.0169590000000001,0,sub_1
0.0072319999999998,0.0056024000000012,-0.0018315999999998,-0.0425365999999994,0.0281234000000009,0.0210088000000001,0,sub_1
0.0051325999999998,0.0048052000000012,-0.0053293999999998,-0.0423059999999994,0.0330206000000009,0.0218588000000001,0,sub_1
0.0027455999999998,0.0030414000000012,-0.0079951999999998,-0.0420785999999994,0.0343064000000009,0.0199358000000001,0,sub_1
0.0006039999999998,0.0017986000000012,-0.0118325999999998,-0.0412183999999994,0.0319752000000009,0.0160992000000001,0,sub_1
-0.0014170000000001,0.0021838000000012,-0.0153501999999998,-0.0376013999999994,0.0264358000000009,0.0129268000000001,0,sub_1
-0.0024446000000001,0.0032304000000012,-0.0155005999999999,-0.0320745999999994,0.0217286000000009,0.0129714000000001,0,sub_1
-0.0036534000000001,0.0042538000000012,-0.0147543999999999,-0.0256963999999994,0.0178654000000009,0.0143024000000001,0,sub_1
-0.0038806000000001,0.0043852000000012,-0.0132191999999999,-0.0186637999999994,0.0163468000000009,0.0147804000000001,0,sub_1
-0.0033994000000001,0.0050238000000012,-0.0124473999999999,-0.0103317999999994,0.0175996000000009,0.0137684000000001,0,sub_1
-0.0023744000000001,0.0053638000000012,-0.0111609999999999,-0.0056251999999994,0.0190756000000009,0.0116748000000001,0,sub_1
-0.0011576000000001,0.0047156000000012,-0.0116481999999999,-0.0028481999999994,0.0163060000000009,0.0074366000000001,0,sub_1
0.0008675999999998,0.0053558000000012,-0.0123797999999999,0.0001382000000005,0.0120470000000009,0.0025610000000001,0,sub_1
0.0024785999999998,0.0075208000000012,-0.0119105999999999,0.0041788000000004,0.0043782000000009,-0.0029435999999998,0,sub_1
0.0032273999999998,0.0089444000000012,-0.0093575999999999,0.0077692000000004,-0.007341399999999,-0.0073781999999998,0,sub_1
0.0048299999999998,0.0102842000000012,-0.0074717999999999,0.0141350000000005,-0.017367799999999,-0.0096713999999998,0,sub_1
0.0066367999999998,0.0107480000000012,-0.0059909999999998,0.0207226000000005,-0.022506199999999,-0.0089779999999998,0,sub_1
0.0079677999999998,0.0106440000000012,-0.0041183999999998,0.0266778000000005,-0.024664599999999,-0.0070107999999998,0,sub_1
0.0093153999999998,0.0089102000000012,-0.0027043999999999,0.0305100000000005,-0.023413199999999,-0.0042035999999998,0,sub_1
0.0098109999999998,0.0068876000000012,-0.0020149999999999,0.0322272000000005,-0.019379399999999,-0.0026961999999998,0,sub_1
0.0093721999999998,0.0037942000000012,-0.0020425999999998,0.0305334000000005,-0.016816399999999,-0.0033471999999998,0,sub_1
0.0087667999999998,0.0010376000000012,-0.0019451999999999,0.0262852000000005,-0.015088399999999,-0.0061513999999998,0,sub_1
0.0086179999999998,-0.0017511999999987,-0.0044403999999999,0.0209676000000004,-0.013359199999999,-0.0083221999999998,0,sub_1
0.0083537999999998,-0.0028539999999987,-0.0087927999999998,0.0167054000000005,-0.011217199999999,-0.0072859999999998,0,sub_1
0.0080221999999998,-0.0034937999999987,-0.0123361999999998,0.0132778000000005,-0.010580999999999,-0.0034647999999998,0,sub_1
0.0066773999999998,-0.0031391999999987,-0.0131869999999998,0.0121918000000004,-0.010382599999999,0.0012280000000001,0,sub_1
0.0057863999999998,-0.0007967999999987,-0.0123375999999998,0.0128012000000004,-0.011901999999999,0.0067916000000001,0,sub_1
0.0046431999999998,0.0021938000000012,-0.0089555999999998,0.0117062000000005,-0.014473999999999,0.0106354000000001,0,sub_1
0.0020991999999998,0.0033648000000012,-0.0045489999999998,0.0059264000000005,-0.017657799999999,0.0116696000000001,0,sub_1
0.0002705999999998,0.0055222000000012,-0.0012683999999999,-0.0017589999999995,-0.018274799999999,0.0118326000000001,0,sub_1
-0.0011500000000001,0.0068914000000012,-0.0012915999999999,-0.0094407999999995,-0.017402999999999,0.0126344000000001,0,sub_1
-0.0030934000000001,0.0057366000000012,-0.0041043999999999,-0.0141317999999995,-0.015473599999999,0.0136670000000001,0,sub_1
-0.0042802000000001,0.0044622000000012,-0.0078773999999999,-0.0149759999999995,-0.011642999999999,0.0153650000000001,0,sub_1
-0.0040578000000001,0.0043090000000012,-0.0111005999999999,-0.0130269999999995,-0.005682999999999,0.0149434000000001,0,sub_1
-0.0041952000000001,0.0025250000000012,-0.0133827999999999,-0.0095675999999995,-0.000782999999999,0.0104746000000001,0,sub_1
-0.0035642000000001,0.0020568000000012,-0.0136433999999999,-0.0069519999999995,0.0037038000000009,0.0034368000000001,0,sub_1
-0.0018836000000001,0.0021626000000012,-0.0121961999999998,-0.0068785999999995,0.0094892000000009,-0.0063977999999998,0,sub_1
0.0001635999999998,0.0006954000000012,-0.0098155999999998,-0.0076567999999995,0.0157040000000009,-0.0162387999999998,0,sub_1
0.0007561999999998,6.220000000122842e-05,-0.0088395999999998,-0.0056783999999995,0.0218938000000009,-0.0222147999999998,0,sub_1
-6.200000000016124e-05,0.0019132000000012,-0.0080579999999998,-0.0022249999999995,0.0293436000000009,-0.0234821999999998,0,sub_1
-0.0026098000000001,0.0032672000000012,-0.0054551999999998,-0.0013541999999994,0.0352974000000009,-0.0213475999999998,0,sub_1
-0.0042964000000001,0.0020556000000012,-0.0052575999999999,-0.0017989999999994,0.0367676000000009,-0.0157979999999998,0,sub_1
-0.0054712000000001,0.0018448000000012,-0.0074289999999998,-0.0039681999999994,0.0333478000000009,-0.0113225999999998,0,sub_1
-0.0021126000000001,0.0020614000000012,-0.0091385999999998,-0.0061331999999994,0.0269458000000009,-0.0091959999999998,0,sub_1
0.0047875999999998,0.0027484000000012,-0.0106481999999998,-0.0044659999999994,0.0181892000000009,-0.0074665999999998,0,sub_1
0.0121547999999998,0.0035932000000012,-0.0145531999999998,0.0038110000000004,0.0068590000000009,-0.0071829999999998,0,sub_1
