userAcceleration.x,userAcceleration.y,userAcceleration.z,rotationRate.x,rotationRate.y,rotationRate.z,label,subject
0.0035897999999997,0.0180418000000012,0.0074748000000001,-0.0092623999999995,0.0022060000000009,0.0017876,0,sub_8
0.0032759999999997,0.0167146000000012,0.0073052000000001,-0.0077305999999995,-0.000831399999999,0.0007472,0,sub_8
0.0038283999999997,0.0142462000000011,0.0044070000000001,-0.0047023999999995,-0.004083599999999,-0.0011369999999999,0,sub_8
0.0032189999999997,0.0134472000000011,0.0027440000000001,-0.0042793999999995,-0.004937199999999,-0.0011329999999999,0,sub_8
0.0014051999999997,0.0140706000000011,0.0035542000000001,-0.0061987999999995,-0.001958799999999,0.0016272,0,sub_8
0.0010053999999997,0.0152880000000011,0.0033778000000001,-0.0070541999999995,-0.002169599999999,0.001835,0,sub_8
0.0023965999999997,0.0178888000000011,0.0041952000000001,-0.0063959999999995,-0.004541799999999,0.0014258,0,sub_8
0.0020881999999997,0.0202960000000011,0.0073828000000001,-0.0042441999999995,-0.004372799999999,0.0035874,0,sub_8
0.0024911999999997,0.0211758000000011,0.0091478000000001,-0.0006035999999995,-0.005911199999999,0.0051208,0,sub_8
0.0043725999999997,0.0200402000000011,0.0091064000000001,0.0034676000000004,-0.009357399999999,0.0038822,0,sub_8
0.0056993999999997,0.0185532000000011,0.0096710000000001,0.0083886000000004,-0.011324599999999,0.0049978,0,sub_8
0.0050867999999997,0.0167302000000011,0.0079400000000001,0.0132884000000004,-0.010287599999999,0.007808,0,sub_8
0.0045055999999997,0.0155418000000011,0.0061678000000001,0.0164842000000004,-0.010303199999999,0.0088986,0,sub_8
0.0035471999999997,0.0139836000000011,0.0047466000000001,0.0190438000000004,-0.010312999999999,0.00913,0,sub_8
0.0025229999999997,0.0150140000000011,0.0031052000000001,0.0209856000000004,-0.009919199999999,0.0097906,0,sub_8
0.0016415999999997,0.0157094000000011,0.0017144000000001,0.0207976000000004,-0.008453599999999,0.0106486,0,sub_8
0.0009315999999997,0.0159900000000011,0.0018912000000001,0.0195486000000003,-0.006979199999999,0.0102174,0,sub_8
0.0013951999999997,0.0154446000000012,0.0022370000000001,0.0180812000000004,-0.007205799999999,0.0091458,0,sub_8
0.0033939999999997,0.0159310000000012,0.0028590000000001,0.0163976000000004,-0.007858599999999,0.008287,0,sub_8
0.0041877999999997,0.0153906000000011,0.0036372000000001,0.0146944000000004,-0.0065759999999989,0.0087008,0,sub_8
0.0049367999999997,0.0150544000000011,0.0048298000000001,0.0129922000000004,-0.0052925999999989,0.0089008,0,sub_8
0.0055505999999997,0.0143274000000011,0.0056758000000001,0.0106490000000004,-0.005280999999999,0.0080298,0,sub_8
0.0057399999999997,0.0140894000000011,0.0057006000000001,0.0078858000000004,-0.004200999999999,0.0067272,0,sub_8
0.0053823999999997,0.0134676000000011,0.004484,0.0036854000000004,-0.001242399999999,0.0056194,0,sub_8
0.0043759999999997,0.0131432000000011,0.0040034,-9.019999999955036e-05,1.520000000096583e-05,0.003235,0,sub_8
0.0036747999999997,0.0130042000000011,0.0032388,-0.0028067999999995,-0.000435199999999,0.0008602000000001,0,sub_8
0.0033191999999997,0.0140758000000011,0.0032576,-0.0050947999999995,0.0001756000000009,-0.0008719999999998,0,sub_8
0.0033291999999997,0.0153740000000011,0.0034128,-0.0056833999999995,-0.000287199999999,-0.0019499999999998,0,sub_8
0.0021619999999997,0.0166316000000011,0.0054722000000001,-0.0035573999999995,-0.003272399999999,-0.0032131999999998,0,sub_8
0.0023595999999997,0.0178038000000011,0.0059702000000001,-0.0007931999999995,-0.006049199999999,-0.0038313999999998,0,sub_8
0.0029735999999997,0.0192028000000011,0.0065302000000001,0.0013386000000004,-0.007119199999999,-0.0044559999999999,0,sub_8
0.0034779999999997,0.0197380000000011,0.0068960000000001,0.0044072000000004,-0.008900799999999,-0.0042441999999999,0,sub_8
0.0029501999999997,0.0191252000000011,0.0070346000000001,0.0068338000000004,-0.010469799999999,-0.0033961999999999,0,sub_8
0.0039657999999997,0.0179242000000012,0.0052750000000001,0.0079866000000004,-0.010754999999999,-0.0027721999999999,0,sub_8
0.0043827999999997,0.0171122000000012,0.0036596000000001,0.0057314000000004,-0.0089011999999989,-0.0013201999999999,0,sub_8
0.0046043999999997,0.0159124000000011,0.0035246000000001,0.0028370000000004,-0.0057713999999989,0.0011938,0,sub_8
0.0041849999999997,0.0145056000000011,0.0029284000000001,6.800000000044965e-05,-0.0025745999999989,0.0033068,0,sub_8
0.0049499999999997,0.0145012000000011,0.0014316000000001,-0.0024791999999995,0.000841400000001,0.003712,0,sub_8
0.0044071999999997,0.0161124000000011,0.0020782000000001,-0.0060183999999995,0.0050728000000009,0.0045146,0,sub_8
0.0033895999999997,0.0168130000000011,0.0035326000000001,-0.0061493999999995,0.0078018000000009,0.0051294,0,sub_8
0.0027751999999997,0.0172086000000012,0.0038398000000001,-0.0054259999999995,0.0088312000000009,0.0038296,0,sub_8
0.0034269999999997,0.0181306000000012,0.0043136000000001,-0.0053427999999995,0.0092262000000009,0.0018852,0,sub_8
0.0033459999999997,0.0177810000000012,0.0076504,-0.0044153999999995,0.0098218000000009,0.0022964,0,sub_8
0.0033965999999997,0.0165918000000012,0.0074648,-0.0025045999999995,0.0089578000000009,0.0035928,0,sub_8
0.0064503999999997,0.0181380000000011,0.0078868,-0.0014473999999995,0.0070358000000009,0.0038162,0,sub_8
0.0085089999999997,0.0195232000000011,0.0095516000000001,0.0006662000000004,0.0038274000000009,0.005117,0,sub_8
0.0074933999999997,0.0173090000000011,0.0128036000000001,0.0028042000000004,0.0023122000000009,0.0078808,0,sub_8
0.0079229999999997,0.0176540000000011,0.0084644000000001,4.040000000044945e-05,0.0018802000000009,0.0103954,0,sub_8
0.0096111999999997,0.0194276000000011,0.0071120000000001,-0.0044225999999995,0.0018854000000009,0.0116156,0,sub_8
0.0072331999999997,0.0177548000000011,0.0065148000000001,-0.0063231999999995,0.0012466000000009,0.0117864,0,sub_8
0.0038167999999998,0.0147776000000011,0.0043032000000001,-0.0075703999999995,0.0038006000000009,0.0121712,0,sub_8
0.0035397999999998,0.0151996000000012,0.0001658000000001,-0.0088485999999995,0.0046556000000009,0.0125884,0,sub_8
0.0018257999999998,0.0140714000000012,0.0013410000000001,-0.0052213999999995,0.0027332000000009,0.0106934,0,sub_8
-0.0015958000000001,0.0131752000000012,0.0021108000000001,-0.0009529999999995,-3.939999999903396e-05,0.0077358,0,sub_8
-0.0027624000000001,0.0130202000000012,0.0019546000000001,0.0015862000000004,-0.002593199999999,0.0072924,0,sub_8
-0.0024912000000001,0.0144778000000012,0.0014038,0.0043236000000004,-0.007919799999999,0.007495,0,sub_8
-0.0018680000000001,0.0163660000000012,0.0008962000000001,0.0055710000000004,-0.013025799999999,0.007046,0,sub_8
0.0005867999999998,0.0170442000000012,0.0022042000000001,0.0014958000000004,-0.014495399999999,0.0076232,0,sub_8
0.0040025999999998,0.0160306000000012,0.0049994000000001,-0.0038491999999995,-0.012980399999999,0.0088288,0,sub_8
0.0061293999999998,0.0142568000000012,0.0060012000000001,-0.0064067999999995,-0.011483399999999,0.0096636,0,sub_8
0.0077447999999997,0.0131776000000011,0.0065088000000001,-0.0102349999999995,-0.008063799999999,0.0102734,0,sub_8
0.0080917999999997,0.0124274000000011,0.0068964000000001,-0.0157595999999995,-0.002718999999999,0.0104416,0,sub_8
0.0063093999999997,0.0127968000000011,0.0068962000000001,-0.0172427999999995,0.0007146000000009,0.0095502,0,sub_8
0.0048285999999997,0.0124846000000011,0.0049402000000001,-0.0140471999999995,0.0005108000000009,0.0084824,0,sub_8
0.0034119999999997,0.0133460000000011,0.0039766000000001,-0.0146825999999995,0.0013900000000009,0.0063184,0,sub_8
0.0032501999999997,0.0162144000000012,0.0054176000000001,-0.0172335999999995,0.0027046000000009,0.0034994,0,sub_8
0.0038589999999997,0.0178970000000011,0.0082744000000001,-0.0150875999999995,0.0046420000000009,0.0007126,0,sub_8
0.0044327999999997,0.0191406000000011,0.0118826000000001,-0.0093083999999995,0.0069724000000009,-0.0009589999999998,0,sub_8
0.0044229999999998,0.0207638000000011,0.0145460000000001,-0.0018325999999995,0.0073776000000009,-0.0021891999999998,0,sub_8
0.0045725999999997,0.0230880000000011,0.0174390000000001,0.0041370000000004,0.0065038000000009,-0.0019327999999999,0,sub_8
0.0045479999999997,0.0218236000000011,0.0163338000000001,0.0105118000000004,0.0047830000000009,0.0006618,0,sub_8
0.0032535999999997,0.0203266000000012,0.0114944000000001,0.0138938000000004,0.0024310000000009,0.0038772,0,sub_8
0.0028119999999997,0.0190662000000012,0.0065294000000001,0.0117340000000004,0.0001034000000009,0.005772,0,sub_8
0.0030623999999997,0.0175350000000012,0.0028578,0.0091540000000004,-0.001580199999999,0.0068086,0,sub_8
0.0048743999999997,0.0133810000000012,-0.0008471999999999,0.0110510000000004,-0.004555999999999,0.0074508,0,sub_8
0.0058697999999997,0.0105426000000012,-0.0009943999999999,0.0114730000000004,-0.007532399999999,0.0055348,0,sub_8
0.0071745999999997,0.0083760000000011,0.0008344,0.0129656000000004,-0.010721399999999,0.0025584,0,sub_8
0.0080095999999997,0.0074694000000011,-0.0001099999999999,0.0123264000000004,-0.012203599999999,0.0008466000000001,0,sub_8
0.0084819999999997,0.0085038000000011,7.360000000010934e-05,0.0063660000000004,-0.009839199999999,0.0003538000000001,0,sub_8
0.0071351999999997,0.0111884000000011,0.0008078000000001,-0.0010727999999995,-0.005333999999999,-0.0014337999999998,0,sub_8
0.0047731999999997,0.0131446000000011,0.0009636,-0.0050985999999995,-0.001902599999999,-0.0040507999999998,0,sub_8
0.0023397999999997,0.0155772000000011,0.002536,-0.0112597999999995,0.0025956000000009,-0.0051887999999999,0,sub_8
0.0009861999999997,0.0166638000000011,0.0049116,-0.0133785999999995,0.0047352000000009,-0.0060815999999999,0,sub_8
0.0005165999999997,0.0172130000000011,0.0060882,-0.0116649999999995,0.0043108000000009,-0.0079917999999999,0,sub_8
0.0003693999999997,0.0183118000000011,0.007176,-0.0091033999999995,0.0036662000000009,-0.0088275999999999,0,sub_8
0.0014689999999997,0.0188376000000012,0.0093668,-0.0074001999999995,0.0036568000000009,-0.0079611999999999,0,sub_8
0.0042697999999997,0.0188250000000012,0.0104952,-0.0037789999999995,0.0010872000000009,-0.0077515999999999,0,sub_8
0.0063405999999997,0.0190348000000012,0.0115414,0.0004804000000004,-0.002547399999999,-0.0081773999999999,0,sub_8
0.0077011999999997,0.0178526000000012,0.0110620000000001,0.0028214000000004,-0.004263799999999,-0.0071233999999999,0,sub_8
0.0087921999999997,0.0158092000000012,0.0093462000000001,0.0023952000000004,-0.004691399999999,-0.0063041999999998,0,sub_8
0.0093447999999997,0.0148864000000012,0.0067260000000001,0.0013348000000004,-0.004899399999999,-0.0065577999999998,0,sub_8
0.0075837999999997,0.0138324000000012,0.0052886000000001,0.0011234000000004,-0.005321399999999,-0.0074133999999998,0,sub_8
0.0057483999999997,0.0131048000000012,0.0024478000000001,0.0006986000000004,-0.004681599999999,-0.0072033999999998,0,sub_8
0.0032053999999997,0.0132204000000012,0.0009864000000001,-0.0003643999999995,-0.0040377999999989,-0.0074253999999998,0,sub_8
0.0012671999999997,0.0143968000000012,0.0008568000000001,-0.0020483999999995,-0.003380599999999,-0.0070497999999998,0,sub_8
0.0008607999999997,0.0151578000000012,0.0006806000000001,-0.0030923999999995,-0.003149999999999,-0.0070965999999998,0,sub_8
0.0012873999999997,0.0159108000000012,0.0003116000000001,-0.0043469999999995,-0.003340599999999,-0.0082125999999998,0,sub_8
0.0020185999999997,0.0164500000000012,0.0026032000000001,-0.0066663999999995,-0.002889199999999,-0.0091231999999998,0,sub_8
0.0034581999999997,0.0162982000000012,0.0048350000000001,-0.0083447999999995,-0.002014599999999,-0.0098161999999999,0,sub_8
0.0059107999999997,0.0157562000000012,0.0050114000000001,-0.0079123999999995,-0.002647599999999,-0.0117351999999999,0,sub_8
0.0076123999999997,0.0152620000000012,0.0051618000000001,-0.0085495999999995,-0.003067199999999,-0.0128071999999999,0,sub_8
0.0081763999999997,0.0153706000000012,0.0050918000000001,-0.0113147999999995,0.0009820000000009,-0.0106951999999999,0,sub_8
0.0084675999999997,0.0151354000000012,0.0048646000000001,-0.0127795999999995,0.0033270000000009,-0.0094585999999998,0,sub_8
0.0083757999999997,0.0151004000000012,0.0045606000000001,-0.0131861999999995,0.0024776000000009,-0.0094923999999998,0,sub_8
0.0076047999999997,0.0156844000000012,0.0065028000000001,-0.0135955999999995,0.0026868000000009,-0.0078183999999998,0,sub_8
0.0058101999999997,0.0162816000000012,0.0076488000000001,-0.0131495999999995,0.0050166000000009,-0.0044321999999998,0,sub_8
0.0053359999999997,0.0175844000000011,0.0089418000000001,-0.0103669999999995,0.0026604000000009,-0.0033735999999998,0,sub_8
0.0049359999999997,0.0193346000000011,0.0099314000000001,-0.0061197999999995,-0.000343199999999,-0.0018445999999998,0,sub_8
0.0042185999999997,0.0215576000000011,0.0103062,-0.0001673999999995,-0.002293599999999,0.0011906,0,sub_8
0.0030099999999997,0.0213388000000011,0.0097322,0.0051486000000004,-0.003601799999999,0.0040068,0,sub_8
0.0028397999999997,0.0207474000000011,0.0088432,0.0085416000000004,-0.007012999999999,0.0046498,0,sub_8
0.0035773999999997,0.0193034000000012,0.0068978,0.0119376000000004,-0.011058199999999,0.0040116,0,sub_8
0.0033403999999997,0.0168754000000012,0.0048102,0.0151232000000004,-0.014675599999999,0.0031578,0,sub_8
0.0039547999999997,0.0133344000000012,0.0026328,0.0153292000000004,-0.015517199999999,0.0033478,0,sub_8
0.0061995999999997,0.0110514000000011,0.0008512000000001,0.0131968000000004,-0.015494199999999,0.0024522,0,sub_8
0.0076691999999997,0.0103442000000011,0.0008726000000001,0.0117146000000004,-0.015266599999999,9.14000000000548e-05,0,sub_8
0.0068117999999997,0.0106506000000011,0.0020110000000001,0.0108754000000004,-0.013553199999999,-0.0014121999999999,0,sub_8
0.0069771999999997,0.0116992000000011,0.0028116000000001,0.0072692000000004,-0.0092777999999989,-0.0018701999999999,0,sub_8
0.0067275999999997,0.0130666000000011,0.0040664000000001,0.0030384000000004,-0.0062623999999989,-0.0046841999999999,0,sub_8
0.0051793999999997,0.0148078000000011,0.0057170000000001,0.0011450000000004,-0.0062345999999989,-0.0083325999999998,0,sub_8
0.0041911999999997,0.0167250000000011,0.0066108000000001,0.0005224000000004,-0.0066441999999989,-0.0102623999999998,0,sub_8
0.0043425999999997,0.0177482000000011,0.0071470000000001,-0.0011719999999995,-0.006205599999999,-0.0102779999999998,0,sub_8
0.0048305999999997,0.0170186000000012,0.0084122000000001,-0.0018043999999995,-0.007260399999999,-0.0107115999999999,0,sub_8
0.0055719999999997,0.0169914000000012,0.0085336000000001,-0.0011701999999995,-0.008540999999999,-0.0107053999999999,0,sub_8
0.0063619999999997,0.0170176000000012,0.0081160000000001,-0.0011779999999995,-0.008759999999999,-0.0092097999999999,0,sub_8
0.0068783999999997,0.0168702000000012,0.0069362000000001,-0.0016123999999995,-0.008552999999999,-0.0072901999999999,0,sub_8
0.0066453999999997,0.0153222000000012,0.0059892000000001,-0.0033159999999995,-0.007688399999999,-0.0055795999999999,0,sub_8
0.0060265999999997,0.0147106000000012,0.0044736000000001,-0.0056461999999995,-0.004050999999999,-0.0040905999999999,0,sub_8
0.0051097999999997,0.0152224000000012,0.0046702000000001,-0.0084031999999995,-0.000412199999999,-0.0026047999999999,0,sub_8
0.0045531999999997,0.0160832000000012,0.0046234000000001,-0.0100893999999995,0.0034386000000009,-0.0017523999999999,0,sub_8
0.0041525999999997,0.0160458000000012,0.0047780000000001,-0.0102839999999995,0.0064336000000009,-0.0013159999999999,0,sub_8
0.0050931999999997,0.0156314000000012,0.0050294000000001,-0.0111219999999995,0.0100576000000009,-0.0011127999999999,0,sub_8
0.0060087999999997,0.0160090000000012,0.0055696000000001,-0.0126079999999995,0.0119794000000009,-0.0009119999999999,0,sub_8
0.0070789999999997,0.0162756000000012,0.0059356000000001,-0.0132469999999995,0.0126192000000009,-0.0004897999999999,0,sub_8
0.0077399999999997,0.0165060000000012,0.007085,-0.0121667999999995,0.0113432000000009,0.000619,0,sub_8
0.0075093999999997,0.0164906000000012,0.0088712,-0.0115171999999995,0.0098530000000009,0.002366,0,sub_8
0.0067189999999997,0.0170152000000012,0.0104896,-0.0085261999999995,0.0064398000000009,0.003491,0,sub_8
0.0059725999999997,0.0176960000000012,0.0099368,-0.0036147999999995,0.0015346000000009,0.0031358,0,sub_8
0.0050121999999997,0.0175824000000012,0.0093262,0.0012964000000004,-0.002734199999999,0.0034206,0,sub_8
0.0043991999999997,0.0175546000000012,0.0077882000000001,0.0044854000000004,-0.005089799999999,0.0036594,0,sub_8
0.0038185999999997,0.0170382000000012,0.0061414000000001,0.0068316000000004,-0.005735399999999,0.0032494,0,sub_8
0.0035081999999997,0.0168628000000012,0.0049544000000001,0.0085376000000004,-0.006590999999999,0.0026214,0,sub_8
0.0031697999999997,0.0158492000000012,0.0049676000000001,0.0094132000000004,-0.006370599999999,0.0024392,0,sub_8
0.0037269999999997,0.0159168000000012,0.0050618,0.0088030000000004,-0.005077199999999,0.0016044,0,sub_8
0.0041749999999997,0.0146794000000012,0.0055574,0.0079794000000004,-0.004207399999999,0.0003414,0,sub_8
0.0052347999999997,0.0137886000000012,0.005659,0.0082158000000004,-0.004408199999999,-0.0004855999999998,0,sub_8
0.0064113999999997,0.0141326000000011,0.0056156,0.0086638000000004,-0.004611599999999,-0.0008837999999998,0,sub_8
0.0072857999999997,0.0157496000000011,0.0059072,0.0086610000000004,-0.005462999999999,-0.0010963999999998,0,sub_8
0.0070807999999997,0.0152678000000011,0.0059734000000001,0.0082324000000004,-0.005038799999999,-0.0002453999999998,0,sub_8
0.0066601999999997,0.0156784000000011,0.0068878000000001,0.0071676000000004,-0.003760199999999,0.0006002000000001,0,sub_8
0.0058765999999997,0.0163092000000011,0.0074526,0.0052502000000004,-0.002902199999999,0.0007994,0,sub_8
0.0052163999999997,0.0162940000000012,0.0060358,0.0029028000000004,-0.0013713999999989,0.0010138,0,sub_8
0.0051513999999997,0.0156090000000012,0.0056246,0.0009812000000004,0.000581400000001,0.0018718,0,sub_8
0.0044287999999997,0.0153362000000012,0.005588,0.0007628000000004,0.0004028000000009,0.0014624,0,sub_8
0.0043747999999997,0.0147854000000012,0.0047802,0.0013948000000004,-0.000630199999999,0.0008464,0,sub_8
0.0046509999999997,0.0146352000000011,0.0041814000000001,0.0013946000000004,-0.000168799999999,1.040000000007476e-05,0,sub_8
0.0051897999999997,0.0148634000000011,0.0051298,0.0016156000000004,0.0006860000000009,-0.0008435999999999,0,sub_8
0.0054371999999997,0.0150980000000011,0.0058488,0.0024738000000004,0.0004750000000009,-0.0021191999999999,0,sub_8
0.0065933999999997,0.0154384000000011,0.0065622,0.0026894000000004,0.0005122000000009,-0.0027299999999999,0,sub_8
0.0068273999999997,0.0161984000000011,0.0068956,0.0018364000000004,0.0011882000000009,-0.0022809999999999,0,sub_8
0.0071409999999997,0.0164094000000012,0.0081366,0.0020434000000004,0.0007934000000009,-0.0013957999999999,0,sub_8
0.0066669999999997,0.0166736000000012,0.0089952,0.0039498000000004,-0.002584999999999,-0.0017769999999999,0,sub_8
0.0068387999999997,0.0162144000000012,0.0083526,0.0052172000000004,-0.005535999999999,-0.0019495999999999,0,sub_8
0.0071067999999997,0.0158812000000012,0.0075706,0.0066984000000004,-0.008098599999999,-0.0017223999999999,0,sub_8
0.0067515999999997,0.0159262000000012,0.0073798000000001,0.0098846000000004,-0.012154399999999,-0.0025495999999999,0,sub_8
0.0066729999999997,0.0157304000000012,0.0061388000000001,0.0141376000000004,-0.017486999999999,-0.0046495999999999,0,sub_8
0.0067717999999997,0.0149992000000012,0.0058528000000001,0.0177750000000004,-0.021743799999999,-0.0065213999999999,0,sub_8
0.0063261999999997,0.0153116000000012,0.0060572000000001,0.0226946000000004,-0.025366599999999,-0.0081713999999998,0,sub_8
0.0055459999999997,0.0153752000000012,0.0058510000000001,0.0263368000000004,-0.028345999999999,-0.0098313999999998,0,sub_8
0.0059337999999997,0.0150280000000012,0.0056566000000001,0.0276416000000004,-0.028762199999999,-0.0110835999999998,0,sub_8
0.0060189999999997,0.0154858000000011,0.0061208000000001,0.0257544000000004,-0.025976599999999,-0.0110803999999998,0,sub_8
0.0058617999999997,0.0157554000000011,0.0060794000000001,0.0219310000000004,-0.020854999999999,-0.0098317999999998,0,sub_8
0.0053799999999997,0.0156076000000011,0.0061350000000001,0.0164014000000004,-0.015514399999999,-0.0085953999999998,0,sub_8
0.0050563999999997,0.0151190000000011,0.0060914000000001,0.0106596000000004,-0.010172199999999,-0.0075739999999998,0,sub_8
0.0052617999999997,0.0144276000000011,0.0043922000000001,0.0053518000000004,-0.005670599999999,-0.0071821999999998,0,sub_8
0.0055377999999997,0.0139912000000011,0.0033280000000001,0.0006812000000004,-0.002022399999999,-0.0069983999999998,0,sub_8
0.0057979999999997,0.0128384000000011,0.0023840000000001,-0.0035577999999995,0.0022652000000009,-0.0072397999999998,0,sub_8
0.0062211999999997,0.0126232000000011,0.0026748000000001,-0.0080071999999995,0.0069802000000009,-0.0076969999999998,0,sub_8
0.0068745999999997,0.0129604000000011,0.0031176000000001,-0.0109651999999995,0.0106274000000009,-0.0087831999999998,0,sub_8
0.0066837999999997,0.0136308000000011,0.0053008000000001,-0.0124405999999995,0.0136198000000009,-0.0098655999999998,0,sub_8
0.0057967999999997,0.0138454000000011,0.0066324000000001,-0.0137043999999995,0.0168218000000009,-0.0103057999999999,0,sub_8
0.0053389999999997,0.0155394000000011,0.0071950000000001,-0.0154027999999995,0.0181086000000009,-0.0109603999999999,0,sub_8
0.0048651999999997,0.0165954000000011,0.0063822000000001,-0.0160503999999995,0.0177026000000009,-0.0118151999999998,0,sub_8
0.0046077999999997,0.0170680000000011,0.0061718000000001,-0.0156365999999995,0.0166512000000009,-0.0120209999999998,0,sub_8
0.0046043999999997,0.0174626000000011,0.0053108000000001,-0.0154391999999995,0.0158100000000009,-0.0113737999999998,0,sub_8
0.0048495999999997,0.0173936000000012,0.0056846000000001,-0.0167325999999995,0.0154010000000009,-0.0109513999999998,0,sub_8
0.0049037999999997,0.0172852000000012,0.0054466000000001,-0.0178133999999995,0.0152026000000009,-0.0101003999999998,0,sub_8
0.0053817999999997,0.0171412000000012,0.0058928000000001,-0.0188791999999995,0.0162682000000009,-0.0092545999999999,0,sub_8
0.0062499999999997,0.0175612000000012,0.0071030000000001,-0.0173845999999995,0.0164760000000009,-0.0092443999999999,0,sub_8
0.0065067999999997,0.0177472000000012,0.0080230000000001,-0.0146135999999995,0.0158272000000009,-0.0092243999999999,0,sub_8
0.0066215999999997,0.0180544000000012,0.0079194000000001,-0.0116399999999995,0.0151852000000009,-0.0089875999999999,0,sub_8
0.0070221999999997,0.0186732000000012,0.0097254000000001,-0.0101609999999995,0.0149720000000009,-0.0081207999999999,0,sub_8
0.0076641999999997,0.0187454000000012,0.0107588000000001,-0.0063521999999995,0.0119766000000009,-0.0061659999999999,0,sub_8
0.0075685999999997,0.0186530000000012,0.0098174000000001,-0.0025491999999995,0.0066420000000009,-0.0052763999999999,0,sub_8
0.0072965999999997,0.0179332000000011,0.0085288000000001,0.0006148000000004,0.0008860000000009,-0.0050315999999999,0,sub_8
0.0073305999999997,0.0169052000000011,0.0079852000000001,0.0025122000000004,-0.002324199999999,-0.0030913999999999,0,sub_8
0.0070735999999997,0.0153818000000011,0.0061968,0.0069700000000004,-0.006392199999999,-0.0019867999999999,0,sub_8
0.0060569999999997,0.0151420000000011,0.0051296,0.0107936000000004,-0.010664999999999,-0.0023817999999998,0,sub_8
0.0050515999999997,0.0151842000000011,0.0050596,0.0133134000000004,-0.011714399999999,-0.0010725999999998,0,sub_8
0.0039767999999997,0.0160220000000012,0.0063542,0.0154090000000004,-0.011274399999999,0.0010864000000001,0,sub_8
