userAcceleration.x,userAcceleration.y,userAcceleration.z,rotationRate.x,rotationRate.y,rotationRate.z,label,subject
0.0288807999999997,-0.0996559999999987,0.0795266,5.380000000051975e-05,-0.005910799999999,0.0051664,0,sub_19
0.0283061999999997,-0.1007533999999987,0.0799446000000001,0.0036976000000004,-0.000397799999999,0.0088136,0,sub_19
0.0279397999999997,-0.1018633999999987,0.0816112,0.0064812000000005,0.0027782000000009,0.0116032,0,sub_19
0.0271785999999997,-0.1027773999999987,0.0826294000000001,0.0094734000000005,0.0042516000000009,0.0137554,0,sub_19
0.0273125999999997,-0.1027869999999987,0.0831004,0.0139640000000004,0.0069970000000009,0.0161302,0,sub_19
0.0279813999999998,-0.1025131999999987,0.0833868,0.0199548000000005,0.0131444000000009,0.0187278,0,sub_19
0.0291695999999998,-0.1007513999999987,0.0833484000000001,0.0244682000000005,0.0222824000000009,0.0206704,0,sub_19
0.0306141999999998,-0.0982793999999987,0.082092,0.0240710000000005,0.0303748000000009,0.0204402,0,sub_19
0.0328519999999998,-0.0956567999999987,0.0802072,0.0191834000000005,0.0342304000000009,0.0180478,0,sub_19
0.0337389999999998,-0.0931189999999987,0.078023,0.0119334000000004,0.0325634000000009,0.0135094,0,sub_19
0.0348387999999998,-0.0913411999999987,0.075927,0.0033858000000004,0.0257926000000009,0.0076866,0,sub_19
0.0354219999999998,-0.0913107999999987,0.0745084,-0.0015487999999995,0.0158134000000009,0.0018932,0,sub_19
0.0355781999999997,-0.0919541999999987,0.0742332,-0.0017899999999995,0.0053916000000009,-0.0023679999999999,0,sub_19
0.0346997999999997,-0.0929267999999987,0.0755976,0.0011724000000004,-0.001855799999999,-0.0040471999999998,0,sub_19
0.0339217999999997,-0.0940865999999987,0.077383,0.0032918000000004,-0.005695599999999,-0.0046683999999998,0,sub_19
0.0322051999999997,-0.0955543999999987,0.0788182,0.0045426000000004,-0.006345999999999,-0.0048821999999998,0,sub_19
0.0307015999999997,-0.0971759999999987,0.0798178,0.0043074000000004,-0.005711199999999,-0.0055353999999998,0,sub_19
0.0298319999999998,-0.0990055999999987,0.0804652,0.0036464000000004,-0.004437399999999,-0.0057651999999998,0,sub_19
0.0299837999999998,-0.1008515999999987,0.0798072,0.0017070000000004,-0.002945399999999,-0.0062177999999999,0,sub_19
0.0302177999999998,-0.1028463999999987,0.0793682,-0.0002419999999994,-0.003795999999999,-0.0068811999999999,0,sub_19
0.0305387999999997,-0.1038357999999987,0.0792364,-0.0034541999999994,-0.007402399999999,-0.0079673999999999,0,sub_19
0.0312227999999997,-0.1036603999999987,0.0778762,-0.0090229999999994,-0.012282399999999,-0.0082137999999999,0,sub_19
0.0321489999999997,-0.1016885999999987,0.0765194000000001,-0.0160653999999994,-0.020107799999999,-0.0080347999999999,0,sub_19
0.0324089999999997,-0.0993287999999987,0.0761112,-0.0231135999999994,-0.029848199999999,-0.0084945999999998,0,sub_19
0.0320351999999997,-0.0973691999999987,0.076073,-0.0305751999999994,-0.036816599999999,-0.0091741999999999,0,sub_19
0.0323783999999997,-0.0969459999999987,0.0760906,-0.0356713999999994,-0.039532999999999,-0.0096289999999998,0,sub_19
0.0326017999999997,-0.0964997999999987,0.0775262,-0.0367163999999995,-0.042690399999999,-0.0098413999999999,0,sub_19
0.0324331999999997,-0.0983297999999987,0.0798878,-0.0350151999999995,-0.043338199999999,-0.0091877999999998,0,sub_19
0.0309659999999997,-0.0996769999999987,0.0828034000000001,-0.0324317999999995,-0.037384999999999,-0.0083227999999999,0,sub_19
0.0304649999999997,-0.1016651999999987,0.0853998000000001,-0.0287785999999995,-0.030796399999999,-0.0074511999999998,0,sub_19
0.0290693999999997,-0.1020783999999987,0.0867222,-0.0227907999999995,-0.026561199999999,-0.0061329999999998,0,sub_19
0.0278231999999998,-0.1006877999999987,0.086798,-0.0135155999999994,-0.016105599999999,-0.0047899999999998,0,sub_19
0.0273349999999998,-0.0983203999999987,0.0844286,-0.0025179999999995,-0.002034799999999,-0.0032259999999998,0,sub_19
0.0283601999999998,-0.0968873999999987,0.0814948,0.0084644000000005,0.0088392000000009,-0.0014441999999998,0,sub_19
0.0298901999999998,-0.0947341999999987,0.078428,0.0185962000000005,0.0205676000000009,0.000544,0,sub_19
0.0317339999999998,-0.0928603999999987,0.0752372,0.0246672000000004,0.0303942000000009,0.002079,0,sub_19
0.0327625999999998,-0.0931837999999987,0.0730508,0.0244520000000005,0.0306054000000009,0.0027182,0,sub_19
0.0332151999999998,-0.0935353999999987,0.0727406,0.0195426000000005,0.0284988000000009,0.0009774,0,sub_19
0.0341325999999998,-0.0932039999999987,0.0736968,0.0118764000000004,0.0264150000000009,-0.0014469999999999,0,sub_19
0.0334295999999998,-0.0918391999999987,0.07556,0.0029138000000005,0.0188040000000009,-0.0057961999999999,0,sub_19
0.0349195999999998,-0.0898739999999987,0.0768308,-0.0049761999999995,0.0111944000000009,-0.0114197999999998,0,sub_19
0.0347475999999998,-0.0943211999999987,0.076892,0.0034704000000005,-0.005255599999999,-0.0049539999999998,0,sub_19
0.0289797999999998,-0.0928941999999987,0.0823994,0.0212890000000005,-0.027906799999999,-0.0009783999999999,0,sub_19
0.0200581999999998,-0.0880813999999987,0.0903466,0.0052670000000004,-0.035719399999999,-0.0047123999999998,0,sub_19
0.0193439999999998,-0.1013599999999987,0.0858174,-0.0267579999999994,-0.038807599999999,-0.0038637999999998,0,sub_19
0.0196171999999998,-0.1148677999999987,0.0839956,-0.0359531999999995,-0.035822599999999,0.0035458,0,sub_19
0.0230027999999998,-0.1177121999999987,0.0855324,-0.0363069999999995,-0.020053399999999,0.003096,0,sub_19
0.0280593999999998,-0.1165267999999987,0.0844778,-0.0415539999999995,0.0029606000000009,0.0066620000000001,0,sub_19
0.0346001999999998,-0.1189605999999987,0.0793434,-0.0215209999999995,0.0077498000000009,0.0170508,0,sub_19
0.0340285999999998,-0.1048679999999987,0.0838736,0.0070622000000004,0.0101886000000009,0.0217338,0,sub_19
0.0321195999999998,-0.0950725999999987,0.0811244,0.0183882000000004,0.0108010000000009,0.0186074,0,sub_19
0.0285615999999998,-0.0891419999999987,0.0774818,0.0158648000000004,0.0110454000000009,0.0108884000000001,0,sub_19
0.0286147999999998,-0.0908765999999987,0.0741356000000001,0.0116000000000004,0.0048990000000009,0.0044472000000001,0,sub_19
0.0302793999999998,-0.0915455999999987,0.0727400000000001,0.0092516000000004,0.0004404000000009,0.0005812000000001,0,sub_19
0.0328711999999998,-0.0929397999999987,0.0725816,0.0084064000000004,-0.000407799999999,-0.0017833999999998,0,sub_19
0.0331039999999998,-0.0915209999999987,0.0750874,0.0020030000000004,-0.003155599999999,-0.0037571999999998,0,sub_19
0.0332193999999998,-0.0902909999999987,0.0761762,-0.0093219999999995,-0.008647799999999,-0.0057521999999999,0,sub_19
0.0329253999999998,-0.0913921999999987,0.0745072,-0.0167765999999995,-0.009882999999999,-0.0100755999999999,0,sub_19
0.0326841999999998,-0.0943319999999987,0.0746042,-0.0146063999999995,-0.007523999999999,-0.0158319999999999,0,sub_19
0.0320093999999997,-0.0968617999999987,0.0760824,-0.0045499999999995,-0.006260999999999,-0.0206771999999999,0,sub_19
0.0318413999999997,-0.0983425999999987,0.0808394,0.0042116000000004,-0.005855399999999,-0.0231801999999999,0,sub_19
0.0323245999999997,-0.1012005999999987,0.0844634,0.0067836000000004,-0.003307599999999,-0.0231653999999999,0,sub_19
0.0333911999999997,-0.1032075999999987,0.0866222,0.0027380000000004,0.0003218000000009,-0.0214889999999999,0,sub_19
0.0340923999999997,-0.1038847999999987,0.0850246,-0.0019533999999995,0.0020384000000009,-0.0204555999999999,0,sub_19
0.0346767999999998,-0.1034431999999987,0.0812326,-0.0081411999999995,0.0018478000000009,-0.0207123999999999,0,sub_19
0.0356167999999998,-0.1035843999999987,0.077541,-0.0098605999999994,-0.001764599999999,-0.0215743999999999,0,sub_19
0.0351395999999998,-0.1034143999999986,0.07645,-0.0064687999999994,-0.009010999999999,-0.0238915999999999,0,sub_19
0.0337341999999997,-0.1038101999999987,0.0749988,-0.0024501999999995,-0.019666799999999,-0.0266273999999998,0,sub_19
0.0317639999999997,-0.1047559999999987,0.07266,-0.0010025999999995,-0.030959599999999,-0.0276711999999998,0,sub_19
0.0300437999999997,-0.1049191999999987,0.0723718,-0.0001941999999994,-0.039278399999999,-0.0259455999999998,0,sub_19
0.0289163999999997,-0.1035813999999987,0.0729922,-0.0049225999999994,-0.043329199999999,-0.0212701999999999,0,sub_19
0.0295507999999997,-0.0996535999999987,0.0731394,-0.0177485999999994,-0.043947199999999,-0.0155873999999998,0,sub_19
0.0311125999999998,-0.0954187999999987,0.074872,-0.0341885999999994,-0.041569599999999,-0.0099337999999999,0,sub_19
0.0327951999999998,-0.0914219999999987,0.0778812,-0.0495645999999994,-0.040471599999999,-0.0049119999999999,0,sub_19
0.0336839999999998,-0.0899669999999987,0.0792158,-0.0608931999999994,-0.042788999999999,-0.0017805999999999,0,sub_19
0.0343147999999998,-0.0901903999999987,0.0798948,-0.0628289999999995,-0.045766799999999,-0.0013629999999999,0,sub_19
0.0346949999999998,-0.0920769999999987,0.0801544000000001,-0.0538625999999995,-0.044944999999999,-0.0015151999999999,0,sub_19
0.0346489999999998,-0.0945281999999987,0.0800474,-0.0372003999999995,-0.041166599999999,-0.0018309999999999,0,sub_19
0.0342545999999998,-0.0962793999999987,0.0797030000000001,-0.0205303999999995,-0.036532399999999,-0.0030023999999999,0,sub_19
0.0343711999999998,-0.0967219999999987,0.080136,-0.0092025999999995,-0.033371799999999,-0.0039953999999999,0,sub_19
0.0347495999999998,-0.0971081999999987,0.0799324,-0.0057731999999995,-0.029762599999999,-0.0037623999999999,0,sub_19
0.0349819999999997,-0.0974375999999987,0.0791262,-0.0083067999999995,-0.023575999999999,-0.0035743999999999,0,sub_19
0.0358187999999997,-0.0980571999999987,0.07822,-0.0131835999999995,-0.015892399999999,-0.0027635999999999,0,sub_19
0.0371883999999997,-0.0998597999999987,0.0771074,-0.0142245999999995,-0.007801999999999,-0.0004311999999999,0,sub_19
0.0382463999999997,-0.1017045999999987,0.0760798,-0.0112161999999995,0.0004820000000009,0.003211,0,sub_19
0.0374745999999997,-0.1027529999999987,0.076218,-0.0095063999999995,0.0053592000000009,0.0074896,0,sub_19
0.0365267999999997,-0.1038473999999987,0.0770272000000001,-0.0114487999999994,0.0057708000000009,0.0128166,0,sub_19
0.0348027999999997,-0.1050833999999987,0.0783724,-0.0155393999999994,0.0025696000000009,0.0177058,0,sub_19
0.0326639999999997,-0.1068631999999987,0.0806604,-0.0215511999999994,-0.002959999999999,0.0204482,0,sub_19
0.0285439999999997,-0.1064039999999987,0.0813292,-0.0275477999999994,-0.007626999999999,0.020626,0,sub_19
0.0251165999999997,-0.1052897999999987,0.0826748,-0.0298621999999994,-0.001860399999999,0.0191068,0,sub_19
0.0224215999999998,-0.1027953999999987,0.084222,-0.0217205999999994,0.0068412000000009,0.0204344,0,sub_19
0.0210581999999998,-0.0983291999999987,0.0817724000000001,-0.0063337999999994,0.0184798000000009,0.0269364,0,sub_19
0.0197775999999998,-0.0938303999999987,0.0774246000000001,0.0140036000000005,0.0403252000000009,0.0341008,0,sub_19
0.0206281999999998,-0.0924507999999987,0.0753586,0.0367554000000005,0.0721954000000009,0.0363554,0,sub_19
0.0254115999999998,-0.0928695999999987,0.0745058000000001,0.0590640000000004,0.0951402000000009,0.0332772,0,sub_19
0.0298735999999998,-0.0945437999999987,0.0731336,0.0719528000000004,0.1038724000000009,0.0228876000000001,0,sub_19
0.0338979999999997,-0.0976713999999987,0.0748432,0.0739192000000004,0.0973284000000009,0.0060318000000001,0,sub_19
0.0348295999999997,-0.0993699999999987,0.076495,0.0623732000000004,0.0757030000000009,-0.0104717999999998,0,sub_19
0.0356957999999997,-0.1004949999999987,0.0771122,0.0400808000000004,0.0447090000000009,-0.0191335999999998,0,sub_19
0.0357753999999997,-0.0997633999999987,0.0752558,0.0152232000000004,0.0200856000000009,-0.0203439999999998,0,sub_19
0.0361469999999997,-0.0980139999999987,0.0741144000000001,-0.0044637999999995,0.0105550000000009,-0.0174783999999999,0,sub_19
0.0353999999999998,-0.0962897999999987,0.0734596,-0.0142847999999995,0.0108114000000009,-0.0139079999999998,0,sub_19
0.0368495999999998,-0.0955725999999987,0.0738916,-0.0138573999999995,0.0120988000000009,-0.0106945999999998,0,sub_19
0.0375469999999998,-0.0955087999999987,0.0742848,-0.0078965999999995,0.0091102000000009,-0.0085053999999998,0,sub_19
0.0359457999999998,-0.0968689999999987,0.0747794,-0.0023845999999995,-0.000474799999999,-0.0080199999999998,0,sub_19
0.0342251999999998,-0.0999407999999987,0.0754786,-0.0032841999999994,-0.011532199999999,-0.0067229999999998,0,sub_19
0.0340379999999998,-0.1024429999999987,0.0762604,-0.0127167999999994,-0.018965599999999,-0.0044293999999999,0,sub_19
0.0347479999999998,-0.1042003999999987,0.0766402,-0.0276767999999994,-0.021268999999999,-0.0015399999999999,0,sub_19
0.0359935999999998,-0.1036393999999987,0.07703,-0.0400667999999994,-0.022299599999999,0.0005112,0,sub_19
0.0366491999999998,-0.1021229999999987,0.0771204,-0.0481959999999994,-0.025472999999999,0.001954,0,sub_19
0.0363311999999998,-0.0997181999999987,0.0764196,-0.0516339999999995,-0.031211799999999,0.0015102,0,sub_19
0.0354259999999998,-0.0989781999999987,0.075647,-0.0516451999999995,-0.038645999999999,-0.0003973999999999,0,sub_19
0.0340715999999998,-0.0985461999999987,0.075621,-0.0488777999999995,-0.046509799999999,-0.0037805999999998,0,sub_19
0.0328473999999998,-0.0987909999999987,0.0758004,-0.0475885999999995,-0.051808599999999,-0.0080319999999998,0,sub_19
0.0313909999999998,-0.0991073999999987,0.076298,-0.0488513999999995,-0.054756399999999,-0.0118769999999998,0,sub_19
0.0305309999999998,-0.0994621999999987,0.076576,-0.0505417999999994,-0.057279399999999,-0.0150845999999998,0,sub_19
0.0298089999999998,-0.0990949999999987,0.0768518,-0.0494661999999994,-0.057275399999999,-0.0169999999999998,0,sub_19
0.0292619999999998,-0.0985225999999987,0.0774498,-0.0453957999999994,-0.053455599999999,-0.0167627999999999,0,sub_19
0.0275539999999998,-0.0990925999999987,0.0790454,-0.0366293999999994,-0.047103799999999,-0.0143595999999999,0,sub_19
0.0262667999999998,-0.1000291999999987,0.0808598,-0.0227255999999994,-0.036087199999999,-0.0108581999999999,0,sub_19
0.0250207999999998,-0.1008125999999987,0.0824824,-0.0032789999999994,-0.025094199999999,-0.0062499999999999,0,sub_19
0.0253507999999998,-0.1010285999999987,0.085049,0.0236414000000004,-0.013061199999999,-0.0018043999999999,0,sub_19
0.0293107999999998,-0.1037019999999987,0.0847322,0.0543814000000004,-0.000423599999999,0.008008,0,sub_19
0.0325173999999998,-0.1070381999999987,0.0852568,0.0930230000000004,0.0179216000000009,0.0221412,0,sub_19
0.0328505999999998,-0.1071791999999987,0.0873602,0.1298476000000004,0.0573734000000008,0.034312,0,sub_19
0.0303177999999997,-0.1066187999999987,0.08861,0.1530702000000004,0.1062576000000008,0.043812,0,sub_19
0.0275249999999997,-0.1067643999999987,0.0874892,0.1579206000000005,0.1500934000000008,0.0529764,0,sub_19
0.0248453999999997,-0.1033649999999987,0.087205,0.1540074000000005,0.1837604000000008,0.055256,0,sub_19
0.0272935999999997,-0.0964237999999987,0.0839518,0.1455750000000005,0.2010696000000009,0.0496202,0,sub_19
0.0338757999999997,-0.0917887999999987,0.0765950000000001,0.1399982000000005,0.1825946000000008,0.0402082,0,sub_19
0.0420535999999997,-0.0884635999999987,0.066577,0.1356028000000005,0.1394120000000009,0.0280586,0,sub_19
0.0464969999999997,-0.0879929999999987,0.0592754,0.1230484000000005,0.0826318000000009,0.0135194,0,sub_19
0.0459947999999997,-0.0882299999999987,0.0559386,0.0996054000000005,0.0250350000000008,-0.0004535999999999,0,sub_19
0.0414963999999997,-0.0892005999999987,0.0570674,0.0642394000000004,-0.022735999999999,-0.0104633999999999,0,sub_19
0.0363567999999998,-0.0906775999999987,0.0617708,0.0225206000000005,-0.0538827999999991,-0.0173379999999999,0,sub_19
0.0356317999999997,-0.0932863999999987,0.0730898,-0.0127221999999995,-0.069070599999999,-0.0248285999999999,0,sub_19
0.0370965999999997,-0.0946079999999987,0.0825254,-0.0287043999999994,-0.073522999999999,-0.0328385999999999,0,sub_19
0.0388695999999997,-0.0980425999999987,0.086922,-0.0284491999999994,-0.072495999999999,-0.0398875999999999,0,sub_19
0.0388009999999997,-0.1034291999999987,0.0877202,-0.0213669999999994,-0.067461799999999,-0.0426211999999999,0,sub_19
0.0353661999999997,-0.1073815999999987,0.0873774,-0.0138657999999994,-0.055433399999999,-0.0366013999999999,0,sub_19
0.0286205999999998,-0.1094679999999987,0.0836764,-0.0087097999999994,-0.034270399999999,-0.0218501999999999,0,sub_19
0.0228503999999998,-0.1086655999999987,0.0799944,-0.0058945999999994,-0.005596199999999,-0.0022119999999999,0,sub_19
0.0208747999999997,-0.1032287999999987,0.0787992,-0.0056371999999994,0.0222404000000009,0.0159138,0,sub_19
0.0223591999999997,-0.0971067999999987,0.0782672,-0.0092329999999994,0.0390450000000009,0.0256948,0,sub_19
0.0268329999999997,-0.0923997999999987,0.0772774,-0.0173613999999994,0.0345992000000009,0.0256438,0,sub_19
0.0307047999999997,-0.0873075999999987,0.0754164,-0.0245879999999994,0.0112544000000009,0.016872,0,sub_19
0.0330197999999997,-0.0827887999999987,0.0734194,-0.0354341999999994,-0.016951599999999,0.0014582,0,sub_19
0.0325039999999997,-0.0815353999999987,0.0711454000000001,-0.0509543999999995,-0.042152399999999,-0.0154877999999999,0,sub_19
0.0311597999999997,-0.0834729999999987,0.0685896,-0.0645435999999995,-0.062682199999999,-0.0300761999999999,0,sub_19
0.0295821999999997,-0.0860653999999987,0.0667692,-0.0730013999999995,-0.078127799999999,-0.0418577999999999,0,sub_19
0.0285895999999998,-0.0895315999999987,0.0663862,-0.0819743999999995,-0.087231399999999,-0.0485317999999999,0,sub_19
0.0278825999999998,-0.0968057999999987,0.0692628000000001,-0.0858467999999994,-0.094036599999999,-0.0483365999999999,0,sub_19
0.0263915999999998,-0.1031187999999987,0.0752158,-0.0815509999999994,-0.098703799999999,-0.0440131999999999,0,sub_19
0.0260877999999998,-0.1079833999999987,0.0799724,-0.0680553999999994,-0.092770799999999,-0.0345117999999999,0,sub_19
0.0257521999999997,-0.1138971999999987,0.084341,-0.0370487999999994,-0.074366399999999,-0.0155037999999999,0,sub_19
0.0231283999999997,-0.1158885999999987,0.091538,0.0033998000000005,-0.042790599999999,0.0048352,0,sub_19
0.0200167999999997,-0.1116317999999987,0.0975258,0.0338736000000005,-0.003068399999999,0.0212486,0,sub_19
0.0194587999999997,-0.1116395999999987,0.0979442,0.0572692000000004,0.0402620000000009,0.034175,0,sub_19
0.0198397999999997,-0.1113533999999987,0.09598,0.0817164000000004,0.0772090000000008,0.0441262,0,sub_19
0.0225315999999997,-0.1081169999999987,0.0932396,0.1021008000000004,0.1077964000000009,0.0495706,0,sub_19
0.0275743999999997,-0.1042795999999987,0.0881586,0.1211762000000004,0.1330578000000009,0.0560808,0,sub_19
0.0334675999999997,-0.1023753999999987,0.0829576,0.1444750000000004,0.1495648000000008,0.0637,0,sub_19
0.0389519999999997,-0.0960995999999987,0.0800566,0.1608932000000004,0.1535288000000008,0.0704326,0,sub_19
0.0436119999999997,-0.0903121999999987,0.0808638000000001,0.1602186000000005,0.1477708000000009,0.072358,0,sub_19
0.0467021999999997,-0.0870397999999987,0.0827462,0.1431134000000004,0.1337938000000008,0.0660606,0,sub_19
0.0495317999999997,-0.0898661999999987,0.0866982,0.1191610000000004,0.1094256000000008,0.0535332,0,sub_19
0.0504841999999997,-0.0932485999999987,0.0888078,0.0949944000000005,0.0844208000000008,0.0405776,0,sub_19
0.0486501999999997,-0.0969475999999987,0.0891528,0.0697780000000004,0.0672866000000008,0.031664,0,sub_19
0.0444887999999997,-0.0991967999999987,0.0866732,0.0447980000000005,0.0592966000000008,0.0267996,0,sub_19
0.0396329999999998,-0.1021461999999987,0.0827778000000001,0.0238770000000005,0.0551162000000009,0.0247362,0,sub_19
0.0334031999999998,-0.1032821999999987,0.0765198,0.0085104000000005,0.0530444000000009,0.0233496,0,sub_19
0.0296743999999998,-0.1031047999999987,0.072591,0.0027550000000004,0.0477646000000009,0.0166932,0,sub_19
0.0284433999999998,-0.1026363999999987,0.0727698,0.0066024000000004,0.0369348000000009,0.0043426,0,sub_19
0.0278741999999998,-0.1017129999999987,0.0756582,0.0113062000000004,0.0250438000000009,-0.0097097999999999,0,sub_19
0.0271843999999997,-0.0980601999999987,0.0802714,0.0141452000000005,0.0265776000000009,-0.0227243999999999,0,sub_19
0.0281611999999997,-0.0940943999999987,0.0810752000000001,0.0112280000000005,0.0319554000000009,-0.0330065999999999,0,sub_19
0.0277923999999997,-0.0926553999999987,0.0787734,0.0044414000000005,0.0358354000000009,-0.0383999999999999,0,sub_19
0.0260967999999997,-0.0926965999999987,0.0737312000000001,0.0019012000000004,0.0375598000000009,-0.0411971999999999,0,sub_19
0.0254443999999997,-0.0908275999999987,0.068752,0.0033920000000004,0.0339446000000009,-0.0441731999999999,0,sub_19
0.0253817999999998,-0.0887927999999987,0.0629256000000001,0.0018150000000004,0.0118068000000009,-0.0477877999999999,0,sub_19
0.0252323999999998,-0.0883631999999987,0.0613366,-0.0013073999999995,-0.020133199999999,-0.0496915999999999,0,sub_19
0.0246199999999998,-0.0898013999999987,0.062003,-0.0091565999999995,-0.053358799999999,-0.0456445999999999,0,sub_19
0.0237515999999998,-0.0921363999999987,0.0648326,-0.0208561999999995,-0.081910999999999,-0.0347939999999999,0,sub_19
0.0223347999999998,-0.0965415999999987,0.0689228,-0.0331813999999995,-0.102596999999999,-0.0192575999999999,0,sub_19
0.0219051999999998,-0.1023685999999987,0.0744478,-0.0478173999999994,-0.113268999999999,-0.0018271999999999,0,sub_19
0.0223261999999998,-0.1066467999999987,0.0803468000000001,-0.0694407999999994,-0.114743799999999,0.0127652,0,sub_19
0.0238407999999997,-0.1081985999999987,0.0846128,-0.0920707999999994,-0.107460999999999,0.022639,0,sub_19
0.0273131999999997,-0.1067799999999987,0.0859032000000001,-0.1106005999999994,-0.092724399999999,0.0297546,0,sub_19
0.0303603999999997,-0.1050159999999987,0.0857434000000001,-0.1207945999999994,-0.075669799999999,0.0360708,0,sub_19
0.0342731999999997,-0.1027487999999987,0.0856774000000001,-0.1215903999999994,-0.058215199999999,0.040743,0,sub_19
0.0382375999999997,-0.1015385999999987,0.0859816,-0.1151317999999994,-0.043120199999999,0.0431188,0,sub_19
0.0414019999999998,-0.0994407999999987,0.0864028,-0.1093179999999994,-0.033119999999999,0.0414376,0,sub_19
0.0445941999999998,-0.0983989999999987,0.0874686,-0.1075783999999994,-0.032884799999999,0.0343992,0,sub_19
0.0470177999999997,-0.0957613999999987,0.0882492,-0.1063141999999994,-0.036930399999999,0.024997,0,sub_19
0.0470743999999997,-0.0931283999999987,0.0873702,-0.1012141999999994,-0.041205799999999,0.0164764,0,sub_19
0.0454485999999997,-0.0900959999999987,0.0860472,-0.0907739999999994,-0.042736199999999,0.009485,0,sub_19
0.0447007999999997,-0.0887677999999987,0.0853328,-0.0756231999999994,-0.041085399999999,0.002095,0,sub_19
0.0432615999999997,-0.0881991999999987,0.0848464,-0.0600189999999994,-0.033895199999999,-0.0057259999999999,0,sub_19
0.0423195999999997,-0.0899549999999987,0.0845660000000001,-0.0458653999999994,-0.028364199999999,-0.0158891999999999,0,sub_19
