userAcceleration.x,userAcceleration.y,userAcceleration.z,rotationRate.x,rotationRate.y,rotationRate.z,label,subject
0.0025201999999997,0.0022164000000012,-0.0060441999999999,0.0004816000000003,0.0004716000000008,-0.0004451999999999,0,sub_3
0.0025799999999997,0.0019094000000012,-0.0061909999999999,-0.0001593999999996,0.0004698000000008,-0.0002373999999999,0,sub_3
0.0026683999999997,0.0016210000000012,-0.0063653999999999,-0.0005887999999996,4.120000000087391e-05,-2.779999999991007e-05,0,sub_3
0.0026357999999997,0.0011232000000012,-0.0070439999999999,-0.0003781999999996,-0.0001773999999991,0.0003998,0,sub_3
0.0031753999999997,0.0003294000000012,-0.0072889999999999,-0.0008009999999995,0.0002518000000008,-3.0999999999910046e-05,0,sub_3
0.0033787999999997,-0.0001935999999987,-0.0071997999999999,-0.0010065999999995,0.0013202000000008,-0.0006747999999999,0,sub_3
0.0031783999999997,-0.0004937999999987,-0.0072845999999999,-0.0014255999999995,0.0023896000000008,-0.0013199999999999,0,sub_3
0.0029995999999997,-0.0008817999999987,-0.0072937999999999,-0.0020571999999995,0.0038850000000008,-0.0017535999999999,0,sub_3
0.0033057999999997,0.0001934000000012,-0.0067117999999999,-0.0022571999999995,0.0060166000000008,-0.0028283999999999,0,sub_3
0.0026991999999997,0.0020826000000012,-0.0068387999999998,-0.0020401999999996,0.0070772000000008,-0.0028305999999999,0,sub_3
0.0028895999999997,0.0022088000000012,-0.0069923999999998,-0.0020461999999996,0.0066446000000008,-0.0021915999999999,0,sub_3
0.0029417999999997,0.0025816000000012,-0.0065089999999998,-0.0020481999999996,0.0064276000000008,-0.0021937999999999,0,sub_3
0.0034145999999997,0.0030522000000012,-0.0065967999999998,-0.0018395999999996,0.0057828000000008,-0.0019801999999999,0,sub_3
0.0023985999999997,0.0019858000000012,-0.0063571999999998,-0.0014213999999996,0.0049248000000008,-0.0009079999999999,0,sub_3
0.0026247999999997,0.0002498000000012,-0.0064371999999999,-0.0012099999999996,0.0049224000000008,-0.0004791999999999,0,sub_3
0.0027353999999997,0.0001310000000012,-0.0065947999999999,-0.0014183999999996,0.0053520000000008,-0.0011219999999999,0,sub_3
0.0029337999999997,0.0006364000000012,-0.0066575999999999,-0.0014147999999995,0.0057754000000008,-0.0015515999999999,0,sub_3
0.0020855999999997,0.0008150000000012,-0.0062991999999999,-0.0011949999999995,0.0070494000000008,-0.0017671999999999,0,sub_3
0.0025113999999997,0.0014636000000012,-0.0071023999999999,-0.0024727999999995,0.0072642000000008,-0.0022053999999999,0,sub_3
0.0023533999999997,0.0017932000000012,-0.0074929999999999,-0.0041771999999995,0.0070562000000008,-0.0030733999999998,0,sub_3
0.0022569999999997,0.0021622000000012,-0.0074069999999999,-0.0050281999999995,0.0074816000000008,-0.0032953999999998,0,sub_3
0.0022575999999997,0.0016564000000012,-0.0074991999999999,-0.0050271999999996,0.0076946000000008,-0.0032955999999998,0,sub_3
0.0027715999999997,0.0016118000000012,-0.0075361999999999,-0.0054521999999996,0.0076978000000008,-0.0037257999999998,0,sub_3
0.0032565999999997,0.0009426000000012,-0.0070057999999999,-0.0056587999999996,0.0081290000000008,-0.0047959999999998,0,sub_3
0.0034929999999997,0.0009746000000012,-0.0062593999999998,-0.0050115999999995,0.0089750000000008,-0.0052197999999999,0,sub_3
0.0030715999999997,0.0012230000000012,-0.0061423999999998,-0.0045807999999995,0.0093948000000008,-0.0054309999999998,0,sub_3
0.0030031999999997,0.0013946000000012,-0.0057287999999998,-0.0045787999999995,0.0093900000000008,-0.0056445999999998,0,sub_3
0.0029059999999997,0.0020964000000012,-0.0059255999999998,-0.0047889999999995,0.0093868000000008,-0.0060733999999998,0,sub_3
0.0027023999999997,0.0026546000000012,-0.0060867999999998,-0.0045771999999995,0.0091656000000008,-0.0056443999999998,0,sub_3
0.0023659999999997,0.0024982000000012,-0.0062781999999999,-0.0045829999999996,0.0083116000000008,-0.0052161999999998,0,sub_3
0.0022597999999997,0.0019282000000012,-0.0060121999999999,-0.0050135999999996,0.0076732000000008,-0.0050047999999999,0,sub_3
0.0021471999999997,0.0014480000000012,-0.0065399999999999,-0.0054441999999996,0.0072470000000008,-0.0045799999999999,0,sub_3
0.0019719999999997,0.0001776000000012,-0.0069709999999999,-0.0052327999999996,0.0068138000000008,-0.0041499999999999,0,sub_3
0.0020217999999997,-0.0002401999999987,-0.0069557999999999,-0.0052309999999996,0.0070212000000008,-0.0039359999999999,0,sub_3
0.0018993999999997,-0.0002421999999987,-0.0071207999999999,-0.0050129999999995,0.0076550000000008,-0.0039345999999999,0,sub_3
0.0021547999999997,-0.0002045999999987,-0.0074361999999999,-0.0047947999999995,0.0080764000000008,-0.0041465999999999,0,sub_3
0.0018037999999997,0.0001798000000012,-0.0074987999999999,-0.0045775999999995,0.0082848000000008,-0.0043583999999999,0,sub_3
0.0018293999999997,0.0006976000000012,-0.0069721999999998,-0.0047899999999995,0.0082864000000008,-0.0045735999999998,0,sub_3
0.0017313999999997,0.0009814000000012,-0.0070303999999998,-0.0047881999999995,0.0082882000000008,-0.0050009999999998,0,sub_3
0.0021899999999997,0.0010438000000012,-0.0069869999999998,-0.0052157999999996,0.0080766000000008,-0.0050037999999998,0,sub_3
0.0024359999999997,0.0008234000000012,-0.0071921999999998,-0.0052145999999996,0.0076404000000008,-0.0047857999999998,0,sub_3
0.0025985999999997,0.0005490000000012,-0.0072065999999998,-0.0054227999999996,0.0076328000000008,-0.0049971999999998,0,sub_3
0.0030129999999997,0.0002644000000012,-0.0069541999999998,-0.0054205999999996,0.0074096000000008,-0.0047793999999999,0,sub_3
0.0028259999999997,-0.0002263999999987,-0.0076213999999998,-0.0054201999999996,0.0071846000000008,-0.0041343999999999,0,sub_3
0.0027531999999997,-1.5199999998777869e-05,-0.0075495999999998,-0.0056303999999996,0.0069630000000008,-0.0041317999999999,0,sub_3
0.0027601999999997,0.0007060000000012,-0.0075725999999998,-0.0047711999999996,0.0078140000000008,-0.0045541999999999,0,sub_3
0.0033653999999997,0.0018148000000012,-0.0073913999999998,-0.0039157999999996,0.0080248000000008,-0.0047621999999999,0,sub_3
0.0033253999999997,0.0017168000000012,-0.0074123999999998,-0.0034885999999996,0.0071504000000008,-0.0041101999999999,0,sub_3
0.0037145999999997,0.0019674000000012,-0.0062493999999998,-0.0026355999999996,0.0058494000000008,-0.0036681999999998,0,sub_3
0.0041941999999997,0.0018154000000012,-0.0063047999999998,-0.0009339999999996,0.0041166000000008,-0.0025789999999998,0,sub_3
0.0039959999999997,0.0015782000000012,-0.0059059999999998,0.0003372000000003,0.0021696000000008,-0.0008515999999998,0,sub_3
0.0032501999999997,0.0012338000000012,-0.0058415999999998,0.0013948000000003,0.0002234000000008,0.0008746000000001,0,sub_3
0.0032991999999997,0.0014738000000012,-0.0063657999999999,0.0024540000000003,-0.0008481999999991,0.0015242000000001,0,sub_3
0.0029895999999997,0.0015630000000012,-0.0063105999999999,0.0030892000000003,-0.0019157999999991,0.00153,0,sub_3
0.0026875999999997,0.0022720000000012,-0.0054693999999999,0.0035112000000003,-0.0031947999999991,0.001321,0,sub_3
0.0024323999999997,0.0022544000000012,-0.0052649999999999,0.0028782000000003,-0.0047131999999991,0.0015454,0,sub_3
0.0028525999999997,0.0014122000000012,-0.0052215999999999,0.0020328000000003,-0.0058055999999991,0.0019812,0,sub_3
0.0029131999999997,0.0015438000000012,-0.0050657999999999,0.0018352000000003,-0.0051957999999991,0.0024194,0,sub_3
0.0024581999999997,0.0014796000000012,-0.0052927999999999,0.0018492000000003,-0.004800599999999,0.003073,0,sub_3
0.0018355999999997,4.80000000012421e-05,-0.0061713999999998,0.0016544000000003,-0.004188199999999,0.0028704,0,sub_3
0.0023409999999997,-0.0004643999999987,-0.0071005999999998,0.0010180000000003,-0.003757999999999,0.002438,0,sub_3
0.0023185999999997,-0.0005045999999987,-0.0079445999999998,0.0014468000000003,-0.003545399999999,0.002227,0,sub_3
0.0020975999999997,-0.0008863999999987,-0.0082903999999998,0.0023002000000003,-0.003760599999999,0.0020196,0,sub_3
0.0024615999999997,-0.0006419999999987,-0.0081999999999998,0.0029628000000003,-0.003586399999999,0.0018296,0,sub_3
0.0028271999999997,0.0001290000000012,-0.0077565999999998,0.0025606000000003,-0.002557799999999,0.0020582,0,sub_3
0.0026241999999997,0.0002838000000012,-0.0069555999999998,0.0025880000000003,-0.001528399999999,0.001649,0,sub_3
0.0023583999999997,0.0003224000000012,-0.0063799999999998,0.0019762000000003,-0.000920199999999,0.000595,0,sub_3
0.0019919999999997,3.1400000001242066e-05,-0.0062703999999998,0.0009320000000004,-0.001376399999999,-0.0002469999999999,0,sub_3
0.0020913999999997,-0.0007387999999987,-0.0065775999999998,-0.0003463999999995,-0.0015823999999991,-0.0008965999999999,0,sub_3
0.0022851999999997,-0.0011345999999987,-0.0076135999999998,-0.0009855999999995,-0.0017915999999991,-0.0013279999999999,0,sub_3
0.0023855999999997,-0.0008645999999987,-0.0079615999999998,-0.0009835999999995,-0.0015775999999991,-0.0015417999999999,0,sub_3
0.0026443999999997,-0.0004981999999987,-0.0078461999999998,-0.0009547999999995,-0.0009783999999991,-0.0019477999999999,0,sub_3
0.0030123999999997,0.0001206000000012,-0.0072457999999999,-0.0011383999999995,4.660000000087372e-05,-0.0021421999999998,0,sub_3
0.0029701999999997,0.0016438000000012,-0.0071221999999999,-0.0009017999999995,3.400000000873711e-06,-0.0019049999999998,0,sub_3
0.0031771999999997,0.0025132000000012,-0.0057475999999999,-0.0006651999999995,-0.0002519999999991,-0.0018811999999998,0,sub_3
0.0031843999999997,0.0025636000000012,-0.0056697999999999,-0.0008563999999995,-0.0007191999999991,-0.0018599999999998,0,sub_3
0.0031819999999997,0.0022358000000012,-0.0065643999999999,-0.0012879999999996,-0.0011463999999991,-0.0012213999999998,0,sub_3
0.0029559999999997,0.0020784000000012,-0.0065067999999999,-0.0019327999999995,-0.0019971999999991,-0.0010109999999999,0,sub_3
0.0033291999999997,0.0007766000000012,-0.0066537999999998,-0.0015011999999995,-0.0011457999999991,-0.0012227999999999,0,sub_3
0.0025949999999997,0.0007806000000012,-0.0075183999999998,-0.0008323999999996,-0.0001267999999991,-0.0007699999999999,0,sub_3
0.0020201999999997,0.0008282000000012,-0.0077403999999998,3.720000000038632e-05,-0.0014535999999991,0.0001144,0,sub_3
0.0022923999999997,0.0010430000000012,-0.0069099999999998,0.0013384000000003,-0.002141199999999,0.0005736,0,sub_3
0.0025997999999997,0.0012642000000012,-0.0075083999999998,0.0034912000000003,-0.003045599999999,0.0012528,0,sub_3
0.0023741999999997,0.0015540000000012,-0.0079227999999999,0.0043570000000003,-0.004587999999999,0.0027786,0,sub_3
0.0028609999999997,0.0008966000000012,-0.0081295999999999,0.0047740000000003,-0.005871199999999,0.0036378,0,sub_3
0.0030613999999997,0.0007236000000012,-0.0078967999999999,0.0047768000000003,-0.005232199999999,0.003637,0,sub_3
0.0030143999999997,0.0006568000000012,-0.0077963999999999,0.0045634000000003,-0.0052315999999991,0.0036356,0,sub_3
0.0030965999999997,0.0004570000000012,-0.0073407999999999,0.0035012000000003,-0.0045869999999991,0.0032,0,sub_3
0.0029381999999997,9.34000000012222e-05,-0.0067129999999999,0.0026644000000003,-0.0039687999999991,0.0032054,0,sub_3
0.0027673999999997,-0.0003323999999987,-0.0064781999999999,0.0018266000000003,-0.0039879999999991,0.0027844,0,sub_3
0.0030703999999997,-0.0008793999999987,-0.0064265999999999,0.0009908000000003,-0.0040053999999991,0.001936,0,sub_3
0.0031257999999997,-0.0009005999999987,-0.0068681999999999,0.0001560000000003,-0.003597599999999,0.0013008,0,sub_3
0.0027287999999997,-0.0012567999999987,-0.0068711999999999,-0.0004673999999996,-0.002980199999999,0.0013078,0,sub_3
0.0028867999999997,-0.0010111999999987,-0.0067911999999999,-0.0011007999999996,-0.002759799999999,2.1200000000090223e-05,0,sub_3
0.0029425999999997,-0.0005963999999987,-0.0066337999999998,-0.0010977999999996,-0.002544999999999,-0.0004063999999999,0,sub_3
0.0029041999999997,0.0005898000000012,-0.0069131999999998,0.0001858000000003,-0.002133599999999,0.0002472,0,sub_3
0.0023509999999997,0.0010742000000012,-0.0064313999999998,0.0016762000000003,-0.003214399999999,0.0009042,0,sub_3
0.0024135999999997,0.0023456000000012,-0.0059457999999998,0.0031666000000003,-0.004719599999999,0.0011344,0,sub_3
0.0027579999999997,0.0036894000000012,-0.0057469999999998,0.0046520000000003,-0.006441199999999,0.0022194,0,sub_3
0.0031047999999997,0.0046696000000012,-0.0056345999999999,0.0059242000000003,-0.007949999999999,0.0035164,0,sub_3
0.0032671999999997,0.0040860000000012,-0.0052253999999999,0.0059108000000003,-0.0096595999999991,0.0048004,0,sub_3
0.0033127999999997,0.0033136000000012,-0.0051549999999999,0.0059012000000003,-0.0103045999999991,0.0062966,0,sub_3
0.0031305999999997,0.0022328000000012,-0.0058845999999999,0.0061078000000003,-0.0105233999999991,0.0075802,0,sub_3
0.0029217999999997,9.440000000120205e-05,-0.0070177999999999,0.0058950000000003,-0.0103137999999991,0.0084372,0,sub_3
0.0026093999999997,-0.0020521999999987,-0.0074879999999999,0.0052600000000003,-0.009886199999999,0.0084364,0,sub_3
0.0025875999999997,-0.0032817999999987,-0.0077117999999999,0.0046348000000003,-0.008601199999999,0.0071528,0,sub_3
0.0028271999999997,-0.0034567999999987,-0.0080761999999998,0.0038008000000003,-0.006674799999999,0.0054396,0,sub_3
0.0030311999999997,-0.0037495999999987,-0.0080219999999998,0.0023258000000003,-0.005171399999999,0.0035088,0,sub_3
0.0029447999999997,-0.0020083999999987,-0.0065675999999998,0.0012762000000003,-0.003242599999999,0.0015762,0,sub_3
0.0021755999999997,-0.0001639999999987,-0.0062185999999998,0.0008610000000003,-0.0017453999999991,0.000503,0,sub_3
0.0019073999999997,0.0015254000000012,-0.0062671999999998,0.0002218000000003,-0.0015301999999991,0.0004982,0,sub_3
0.0016865999999997,0.0030318000000012,-0.0059541999999998,0.0004408000000003,-0.0015269999999991,0.0002902,0,sub_3
0.0018455999999997,0.0053714000000012,-0.0054473999999998,0.0019362000000003,-0.0017439999999991,0.0007324,0,sub_3
0.0012829999999997,0.0048324000000012,-0.0062481999999998,0.0034160000000003,-0.0040965999999991,0.0024592,0,sub_3
0.0020819999999997,0.0044836000000012,-0.0060731999999998,0.0042606000000003,-0.0058061999999991,0.0037534,0,sub_3
0.0027961999999997,0.0035214000000012,-0.0062733999999999,0.0057464000000003,-0.0073047999999991,0.0050518,0,sub_3
0.0027801999999997,0.0021132000000012,-0.0070173999999999,0.0065864000000003,-0.0081685999999991,0.0071954,0,sub_3
0.0025127999999997,-0.0004613999999987,-0.0074961999999999,0.0067920000000003,-0.0083881999999991,0.0086926,0,sub_3
0.0029401999999997,-0.0011277999999987,-0.0078443999999999,0.0065882000000003,-0.0068935999999991,0.0080484,0,sub_3
0.0027779999999997,-0.0015317999999987,-0.0079787999999999,0.0063874000000003,-0.0053963999999991,0.0067632,0,sub_3
0.0022367999999997,-0.0015413999999987,-0.0078875999999999,0.0055488000000003,-0.0030321999999991,0.005042,0,sub_3
0.0022101999999997,-0.0013075999999987,-0.0071365999999999,0.0042826000000003,-0.0013037999999991,0.0028912,0,sub_3
0.0021719999999997,-0.0013743999999987,-0.0070385999999999,0.0025868000000003,-9.999999991063165e-07,0.0009518,0,sub_3
0.0020873999999997,-0.0013195999999987,-0.0065405999999999,3.460000000038658e-05,0.0008780000000008,-0.0007795999999999,0,sub_3
0.0028109999999997,-0.0013133999999987,-0.0064077999999998,-0.0016669999999995,0.0017514000000008,-0.0018637999999999,0,sub_3
0.0028285999999997,-0.0007221999999987,-0.0059685999999998,-0.0027289999999995,0.0026082000000008,-0.0020859999999999,0,sub_3
0.0026851999999997,-0.0007065999999987,-0.0059225999999998,-0.0035795999999995,0.0028260000000008,-0.0025193999999999,0,sub_3
0.0028139999999997,0.0006082000000012,-0.0056419999999998,-0.0040075999999995,0.0030560000000008,-0.0027413999999999,0,sub_3
0.0027259999999997,0.0014796000000012,-0.0058235999999998,-0.0029477999999995,0.0024270000000008,-0.0025245999999999,0,sub_3
0.0017389999999997,0.0016594000000012,-0.0057843999999998,-0.0023177999999995,0.0015846000000008,-0.0018833999999999,0,sub_3
0.0016611999999997,0.0015214000000012,-0.0059253999999998,-0.0018961999999996,0.0009594000000008,-0.0020983999999999,0,sub_3
0.0024851999999997,0.0024398000000012,-0.0062503999999998,-0.0016869999999996,0.0005480000000008,-0.0023151999999998,0,sub_3
0.0027587999999997,0.0021976000000012,-0.0064263999999998,-0.0019043999999996,-0.0003033999999991,-0.0023155999999998,0,sub_3
0.0029535999999997,0.0019458000000012,-0.0060445999999998,-0.0025435999999996,0.0005484000000008,-0.0016801999999998,0,sub_3
0.0030159999999997,0.0017294000000012,-0.0060927999999999,-0.0025443999999996,0.0009720000000008,-0.0010397999999998,0,sub_3
0.0028961999999997,0.0013214000000012,-0.0064591999999998,-0.0027625999999996,0.0003320000000008,-0.0006131999999998,0,sub_3
0.0021649999999997,0.0003488000000012,-0.0066155999999998,-0.0025645999999996,-6.839999999910633e-05,-0.0004119999999998,0,sub_3
0.0019555999999997,-0.0002053999999987,-0.0068519999999998,-0.0023645999999996,-0.0002549999999991,-0.0004247999999998,0,sub_3
0.0022271999999997,-0.0009187999999987,-0.0074663999999998,-0.0021655999999996,-0.0010789999999991,-0.0008639999999998,0,sub_3
0.0025805999999997,-0.0014549999999987,-0.0081075999999998,-0.0028163999999996,-0.0012599999999991,-0.0015235999999998,0,sub_3
0.0031479999999997,-0.0006669999999987,-0.0075009999999998,-0.0028213999999995,-0.0003771999999991,-0.0023935999999998,0,sub_3
0.0031577999999997,0.0006742000000012,-0.0059089999999999,-0.0028127999999995,0.0006914000000008,-0.0032493999999999,0,sub_3
0.0030203999999997,0.0019910000000012,-0.0055795999999999,-0.0025965999999995,0.0017544000000008,-0.0028219999999999,0,sub_3
0.0030093999999997,0.0023794000000012,-0.0054155999999999,-0.0028223999999995,0.0024202000000008,-0.0024123999999999,0,sub_3
0.0034375999999997,0.0036436000000012,-0.0046915999999999,-0.0023983999999995,0.0037288000000008,-0.0034945999999999,0,sub_3
0.0033127999999997,0.0051914000000012,-0.0042787999999999,-0.0009179999999995,0.0035390000000008,-0.0037129999999999,0,sub_3
0.0032507999999997,0.0054406000000012,-0.0053903999999999,0.0007536000000004,0.0009946000000008,-0.0013633999999999,0,sub_3
0.0036287999999997,0.0048854000000012,-0.0053349999999999,0.0022166000000004,-0.0009083999999991,0.0005568,0,sub_3
0.0037889999999997,0.0050478000000011,-0.0056803999999999,0.0041246000000003,-0.0019871999999991,0.0022806,0,sub_3
0.0031095999999997,0.0045538000000011,-0.0054695999999999,0.0062362000000003,-0.0039239999999991,0.0052888,0,sub_3
0.0025663999999997,0.0029128000000011,-0.0061093999999998,0.0075010000000003,-0.0050031999999991,0.0076492,0,sub_3
0.0029563999999997,0.0013148000000011,-0.0063867999999998,0.0081226000000003,-0.0043371999999991,0.0078446,0,sub_3
0.0027629999999997,0.0004482000000011,-0.0070289999999998,0.0083214000000003,-0.0034539999999991,0.0073958,0,sub_3
0.0028927999999997,1.8000000012026624e-06,-0.0066239999999998,0.0080954000000003,-0.0023553999999991,0.0067302,0,sub_3
0.0024609999999997,-0.0002557999999987,-0.0069239999999998,0.0076560000000003,-0.0014683999999991,0.0058496,0,sub_3
0.0025555999999997,-0.0008285999999987,-0.0072511999999998,0.0057202000000003,-0.0014273999999991,0.0047458,0,sub_3
0.0026747999999997,-0.0009041999999987,-0.0076173999999998,0.0029550000000003,-0.0003489999999991,0.0038704,0,sub_3
0.0029209999999997,-0.0009551999999987,-0.0075805999999998,0.0010472000000003,0.0013664000000008,0.0027866,0,sub_3
0.0018537999999997,-0.0013697999999987,-0.0077081999999999,-0.0004349999999996,0.0028672000000008,0.001706,0,sub_3
0.0022211999999997,-0.0018573999999987,-0.0074825999999999,-0.0027685999999996,0.0039484000000008,-0.0002343999999999,0,sub_3
0.0026411999999997,-0.0014801999999987,-0.0076181999999999,-0.0042607999999995,0.0056802000000008,-0.0015413999999999,0,sub_3
0.0025753999999997,-0.0007123999999987,-0.0072219999999999,-0.0040497999999996,0.0063416000000008,-0.0030487999999999,0,sub_3
0.0024815999999997,0.0002820000000012,-0.0067499999999999,-0.0036331999999995,0.0061466000000008,-0.0036991999999999,0,sub_3
0.0033531999999997,0.0017346000000012,-0.0058543999999999,-0.0036431999999995,0.0059530000000008,-0.0043523999999999,0,sub_3
0.0036251999999997,0.0030492000000012,-0.0057449999999999,-0.0032293999999995,0.0063920000000008,-0.0037217999999999,0,sub_3
0.0031253999999997,0.0039952000000012,-0.0052331999999999,-0.0023749999999995,0.0070264000000008,-0.0032893999999998,0,sub_3
0.0031591999999997,0.0038988000000011,-0.0048797999999999,-0.0023749999999995,0.0072386000000008,-0.0030759999999998,0,sub_3
0.0033347999999997,0.0033478000000011,-0.0051021999999999,-0.0025911999999996,0.0066002000000008,-0.0030765999999998,0,sub_3
0.0027319999999997,0.0023280000000011,-0.0058271999999999,-0.0030273999999996,0.0057584000000008,-0.0026557999999998,0,sub_3
0.0023027999999997,0.0015168000000012,-0.0066663999999998,-0.0034617999999996,0.0051306000000008,-0.0024487999999998,0,sub_3
0.0022981999999997,-9.439999999879718e-05,-0.0066027999999998,-0.0043199999999996,0.0049312000000008,-0.0024589999999999,0,sub_3
0.0018261999999997,-0.0006451999999987,-0.0072789999999998,-0.0051723999999996,0.0060100000000008,-0.0024707999999999,0,sub_3
0.0012791999999997,-0.0009203999999987,-0.0077329999999998,-0.0058065999999996,0.0075168000000008,-0.0031225999999999,0,sub_3
0.0015981999999997,-0.0003321999999987,-0.0075399999999998,-0.0057941999999996,0.0088012000000008,-0.0046197999999999,0,sub_3
0.0019505999999997,-2.659999999877717e-05,-0.0064461999999998,-0.0055663999999996,0.0100864000000008,-0.0065425999999999,0,sub_3
0.0017789999999997,0.0010934000000012,-0.0068123999999998,-0.0061967999999996,0.0113704000000008,-0.0074031999999999,0,sub_3
0.0024229999999997,0.0013710000000012,-0.0065907999999998,-0.0070441999999996,0.0113814000000008,-0.0080467999999999,0,sub_3
0.0026563999999997,0.0018568000000012,-0.0060377999999998,-0.0076733999999996,0.0122448000000008,-0.0089035999999999,0,sub_3
0.0028727999999997,0.0024068000000012,-0.0056531999999998,-0.0080901999999995,0.0135308000000008,-0.0091183999999999,0,sub_3
0.0028135999999997,0.0022622000000012,-0.0059601999999998,-0.0087385999999995,0.0126794000000008,-0.0074093999999999,0,sub_3
0.0035171999999997,0.0018044000000012,-0.0056559999999999,-0.0085343999999995,0.0111876000000008,-0.0061207999999999,0,sub_3
0.0035651999999997,0.0017302000000012,-0.0058097999999999,-0.0068397999999995,0.0098974000000008,-0.0046117999999999,0,sub_3
0.0031037999999997,0.0019754000000012,-0.0062685999999999,-0.0053595999999995,0.0086070000000008,-0.0028905999999999,0,sub_3
0.0028483999999997,0.0015382000000012,-0.0068719999999998,-0.0043099999999995,0.0068904000000008,-0.0007445999999999,0,sub_3
0.0027129999999997,0.0018100000000012,-0.0073887999999998,-0.0032473999999996,0.0071094000000008,-0.0011687999999999,0,sub_3
0.0024021999999997,0.0019932000000012,-0.0073103999999998,-0.0021849999999996,0.0069040000000008,-0.0020197999999999,0,sub_3
0.0023705999999997,0.0024672000000011,-0.0070005999999998,-0.0021863999999996,0.0071294000000008,-0.0030921999999999,0,sub_3
0.0031165999999997,0.0021182000000011,-0.0064141999999998,-0.0026203999999996,0.0065022000000008,-0.0037393999999999,0,sub_3
0.0031059999999997,0.0020158000000011,-0.0062333999999998,-0.0034809999999996,0.0056644000000008,-0.0046029999999999,0,sub_3
0.0034787999999997,0.0015780000000012,-0.0057959999999999,-0.0041267999999996,0.0046006000000008,-0.0043923999999999,0,sub_3
0.0039675999999997,0.0016392000000012,-0.0053291999999999,-0.0039171999999996,0.0045964000000008,-0.0035361999999998,0,sub_3
0.0035515999999997,0.0016516000000012,-0.0049697999999999,-0.0037067999999996,0.0045930000000008,-0.0028937999999998,0,sub_3
0.0034403999999997,0.0015650000000012,-0.0049935999999999,-0.0035069999999996,0.0039530000000008,-0.0022567999999998,0,sub_3
0.0036565999999997,0.0016702000000012,-0.0055201999999999,-0.0022413999999996,0.0030962000000008,-0.0016119999999999,0,sub_3
0.0035881999999997,0.0018826000000012,-0.0058033999999999,-0.0005479999999996,0.0024510000000008,-0.0009645999999999,0,sub_3
0.0027523999999997,0.0020580000000012,-0.0065715999999998,0.0002890000000003,0.0011696000000008,-0.0003223999999999,0,sub_3
0.0026611999999997,0.0017618000000012,-0.0071865999999998,0.0009136000000003,0.0001020000000008,0.000318,0,sub_3
0.0023749999999997,0.0016940000000012,-0.0076445999999998,0.0019756000000003,-0.0003303999999991,0.0009668,0,sub_3
0.0014915999999997,0.0013930000000012,-0.0075991999999998,0.0021862000000003,-0.0005459999999991,0.0013958,0,sub_3
0.0010889999999997,0.0013124000000012,-0.0077311999999998,0.0019718000000003,-0.0009851999999991,0.001611,0,sub_3
