userAcceleration.x,userAcceleration.y,userAcceleration.z,rotationRate.x,rotationRate.y,rotationRate.z,label,subject
-0.0195224000000002,-0.0148285999999987,-0.0234819999999999,0.0135326000000004,-0.027822599999999,0.0088646,0,sub_9
-0.0169092000000002,-0.0163029999999987,-0.0231433999999998,0.0113950000000004,-0.027818399999999,0.0097042,0,sub_9
-0.0148296000000002,-0.0162333999999987,-0.0235585999999998,0.0088534000000004,-0.022697399999999,0.010532,0,sub_9
-0.0132194000000001,-0.0166513999999987,-0.0229743999999998,0.0048346000000004,-0.014798199999999,0.0104914,0,sub_9
-0.0136406000000001,-0.0170011999999987,-0.0223433999999998,-0.0004529999999994,-0.004762199999999,0.0100118,0,sub_9
-0.0152856000000001,-0.0170661999999987,-0.0214299999999998,-0.0050957999999994,0.0048514000000009,0.0080418,0,sub_9
-0.0166278000000001,-0.0160787999999987,-0.0215353999999998,-0.0086743999999994,0.0123366000000009,0.0045864,0,sub_9
-0.0184286000000001,-0.0141969999999987,-0.0218919999999999,-0.0105621999999994,0.0161918000000009,0.00115,0,sub_9
-0.0208058000000002,-0.0109559999999987,-0.0227611999999999,-0.0099103999999994,0.0155632000000009,-0.0020493999999999,0,sub_9
-0.0220590000000001,-0.0077681999999987,-0.0232787999999999,-0.0071421999999994,0.0125776000000009,-0.0037353999999999,0,sub_9
-0.0231358000000001,-0.0048729999999987,-0.0240343999999999,-0.0035379999999994,0.0087424000000009,-0.0034945999999999,0,sub_9
-0.0245126000000001,-0.0035767999999987,-0.0241809999999999,0.0002670000000005,0.0038344000000009,-0.0015419999999999,0,sub_9
-0.0248488000000001,-0.0039767999999987,-0.0241693999999998,0.0036396000000004,-0.001501599999999,0.0012628,0,sub_9
-0.0240012000000001,-0.0060777999999987,-0.0240479999999998,0.0061624000000004,-0.005557999999999,0.0044874,0,sub_9
-0.0230128000000002,-0.0084527999999987,-0.0241889999999998,0.0071982000000004,-0.008966599999999,0.006846,0,sub_9
-0.0216578000000002,-0.0110191999999987,-0.0238985999999998,0.0071800000000004,-0.011529199999999,0.0083446,0,sub_9
-0.0200628000000002,-0.0127819999999987,-0.0242275999999998,0.0065370000000004,-0.011529599999999,0.008981,0,sub_9
-0.0184498000000002,-0.0136393999999987,-0.0240007999999999,0.0050520000000005,-0.010031399999999,0.0085414,0,sub_9
-0.0175928000000002,-0.0141815999999987,-0.0235819999999999,0.0029344000000005,-0.007250999999999,0.0076684,0,sub_9
-0.0168452000000002,-0.0138379999999987,-0.0237313999999999,0.0006046000000005,-0.003605999999999,0.0061506,0,sub_9
-0.0166668000000002,-0.0131525999999987,-0.0232389999999999,-0.0012957999999994,0.0002524000000009,0.0042082,0,sub_9
-0.0165796000000002,-0.0125515999999987,-0.0227089999999999,-0.0027759999999994,0.0024058000000009,0.0020574,0,sub_9
-0.0180694000000002,-0.0120083999999987,-0.0229465999999999,-0.0038305999999994,0.0045568000000009,0.000123,0,sub_9
-0.0189042000000002,-0.0107629999999987,-0.0226759999999999,-0.0046763999999994,0.0052174000000009,-0.0022351999999999,0,sub_9
-0.0196962000000002,-0.0098513999999987,-0.0222351999999999,-0.0042399999999994,0.0050122000000009,-0.0045819999999999,0,sub_9
-0.0207494000000002,-0.0090865999999987,-0.0226725999999999,-0.0029549999999994,0.0041632000000009,-0.0064947999999999,0,sub_9
-0.0215760000000002,-0.0085759999999987,-0.0228393999999999,-0.0010351999999994,0.0015810000000009,-0.0075333999999999,0,sub_9
-0.0213840000000002,-0.0080675999999987,-0.0228615999999999,0.0017240000000005,-0.003138799999999,-0.0074949999999999,0,sub_9
-0.0213074000000002,-0.0080561999999987,-0.0233971999999999,0.0046906000000005,-0.007652199999999,-0.0059599999999999,0,sub_9
-0.0213904000000002,-0.0083865999999987,-0.0237425999999999,0.0065836000000005,-0.012592399999999,-0.0033635999999999,0,sub_9
-0.0212640000000002,-0.0090483999999987,-0.0236565999999998,0.0069880000000005,-0.016462199999999,-0.0007789999999999,0,sub_9
-0.0218058000000002,-0.0103365999999987,-0.0243289999999998,0.0063412000000005,-0.015829199999999,0.0013522,0,sub_9
-0.0222936000000002,-0.0114819999999987,-0.0245651999999998,0.0044352000000005,-0.011777999999999,0.0021884,0,sub_9
-0.0223222000000002,-0.0122345999999987,-0.0250341999999998,0.0018950000000005,-0.007294999999999,0.002165,0,sub_9
-0.0217786000000002,-0.0130109999999987,-0.0252563999999998,-0.0002263999999994,-0.002371799999999,0.0014954,0,sub_9
-0.0213006000000002,-0.0138059999999987,-0.0253219999999999,-0.0019191999999994,0.0034004000000009,0.0012552,0,sub_9
-0.0200674000000002,-0.0134043999999987,-0.0247695999999999,-0.0027707999999994,0.0061874000000009,0.000811,0,sub_9
-0.0195594000000002,-0.0126851999999987,-0.0240867999999999,-0.0029967999999994,0.0064132000000009,0.0010152,0,sub_9
-0.0193458000000002,-0.0118289999999987,-0.0233881999999998,-0.0027941999999994,0.0077002000000009,0.001862,0,sub_9
-0.0199708000000002,-0.0106939999999987,-0.0231023999999998,-0.0032141999999994,0.0098296000000009,0.0024974,0,sub_9
-0.0203156000000002,-0.0097751999999987,-0.0234423999999998,-0.0032131999999994,0.0100426000000009,0.002497,0,sub_9
-0.0210744000000002,-0.0094359999999987,-0.0236307999999998,-0.0032161999999994,0.0094036000000009,0.0024978,0,sub_9
-0.0209682000000002,-0.0096571999999987,-0.0240117999999998,-0.0030017999999994,0.0096158000000009,0.0024992,0,sub_9
-0.0205294000000002,-0.0101675999999987,-0.0239727999999998,-0.0021499999999994,0.0083342000000009,0.0016426,0,sub_9
-0.0201042000000002,-0.0111921999999987,-0.0240687999999998,-0.0013029999999995,0.0061996000000009,0.0010006,0,sub_9
-0.0193222000000001,-0.0115659999999987,-0.0237461999999998,-0.0008827999999995,0.0044908000000009,0.0007826,0,sub_9
-0.0190406000000001,-0.0119221999999987,-0.0241697999999998,-0.0006749999999994,0.0032080000000009,0.000776,0,sub_9
-0.0187152000000001,-0.0118459999999987,-0.0243475999999999,-0.0006805999999994,0.0019260000000009,0.0007678,0,sub_9
-0.0191104000000001,-0.0120561999999987,-0.0245373999999999,-0.0015321999999994,0.0025672000000009,0.0009748,0,sub_9
-0.0192984000000001,-0.0113525999999987,-0.0248143999999999,-0.0019551999999994,0.0038452000000009,0.0013974,0,sub_9
-0.0196806000000001,-0.0109711999999987,-0.0252153999999999,-0.0019593999999994,0.0047074000000009,0.0015914,0,sub_9
-0.0196586000000002,-0.0107377999999987,-0.0240659999999999,-0.0021769999999994,0.0051460000000009,0.0013574,0,sub_9
-0.0201966000000002,-0.0107073999999987,-0.0241389999999999,-0.0023935999999994,0.0057978000000009,0.0011232,0,sub_9
-0.0207868000000002,-0.0106837999999987,-0.0242935999999999,-0.0023987999999994,0.0058104000000009,0.0006774,0,sub_9
-0.0209332000000002,-0.0107143999999987,-0.0236399999999999,-0.0026191999999994,0.0049732000000009,-0.0001959999999999,0,sub_9
-0.0207458000000002,-0.0108287999999987,-0.0232339999999999,-0.0030421999999994,0.0049782000000009,-0.0010533999999999,0,sub_9
-0.0208290000000002,-0.0107253999999987,-0.0238693999999999,-0.0028229999999994,0.0058314000000009,-0.0014803999999999,0,sub_9
-0.0203528000000002,-0.0103855999999987,-0.0237589999999999,-0.0023981999999994,0.0054038000000009,-0.0014769999999999,0,sub_9
-0.0197478000000002,-0.0103913999999987,-0.0234957999999999,-0.0021895999999994,0.0047622000000009,-0.0010473999999999,0,sub_9
-0.0194526000000001,-0.0108835999999987,-0.0231037999999999,-0.0019829999999994,0.0047646000000009,-0.0001975999999999,0,sub_9
-0.0194870000000001,-0.0113239999999987,-0.0226597999999999,-0.0013483999999994,0.0043420000000009,1.4600000000058404e-05,0,sub_9
-0.0190836000000001,-0.0113811999999987,-0.0223131999999999,-0.0013541999999994,0.0034972000000009,-0.0002041999999999,0,sub_9
-0.0188820000000001,-0.0114741999999987,-0.0217405999999999,-0.0013559999999994,0.0030802000000009,-0.0008509999999999,0,sub_9
-0.0188466000000001,-0.0110963999999987,-0.0213893999999999,-0.0007185999999994,0.0024480000000009,-0.0014929999999999,0,sub_9
-0.0190510000000002,-0.0108965999999987,-0.0219793999999999,-7.839999999945761e-05,0.0015970000000009,-0.0023419999999999,0,sub_9
-0.0192038000000002,-0.0102135999999987,-0.0226039999999999,-8.419999999947762e-05,0.0005308000000009,-0.0021269999999999,0,sub_9
-0.0196500000000002,-0.0102165999999987,-0.0230085999999999,0.0001236000000005,-0.000111799999999,-0.0014837999999999,0,sub_9
-0.0199606000000002,-0.0110477999999987,-0.0229839999999999,-9.87999999994776e-05,-0.000306599999999,-0.0012739999999999,0,sub_9
-0.0203196000000002,-0.0111853999999987,-0.0233129999999999,-0.0005345999999994,-0.000500599999999,-0.0010657999999999,0,sub_9
-0.0203304000000002,-0.0111417999999987,-0.0240913999999998,-0.0005435999999994,-0.001120399999999,-0.0012813999999999,0,sub_9
-0.0206310000000002,-0.0114887999999987,-0.0238165999999998,9.04000000005024e-05,-0.001527599999999,-0.0019199999999999,0,sub_9
-0.0205544000000002,-0.0119267999999987,-0.0233937999999998,0.0009396000000005,-0.001933799999999,-0.0029845999999999,0,sub_9
-0.0206160000000002,-0.0115865999999987,-0.0233161999999998,0.0015826000000004,-0.001933399999999,-0.0036209999999999,0,sub_9
-0.0203348000000002,-0.0116749999999987,-0.0232981999999998,0.0015884000000005,-0.001291599999999,-0.0042627999999999,0,sub_9
-0.0198618000000002,-0.0116987999999987,-0.0228365999999999,0.0011684000000005,-1.0999999999044587e-05,-0.0044809999999998,0,sub_9
-0.0192926000000002,-0.0113085999999987,-0.0226085999999999,0.0005330000000005,0.0010524000000009,-0.0042775999999998,0,sub_9
-0.0192654000000002,-0.0105417999999987,-0.0224803999999999,-0.0003223999999994,0.0008374000000009,-0.0038603999999998,0,sub_9
-0.0197504000000002,-0.0098761999999987,-0.0223553999999999,-0.0007539999999994,0.0004062000000009,-0.0030127999999998,0,sub_9
-0.0197946000000002,-0.0094865999999987,-0.0223873999999999,-0.0001187999999994,-0.000453199999999,-0.0025843999999998,0,sub_9
-0.0200084000000002,-0.0090173999999987,-0.0222379999999999,0.0007288000000005,-0.001526199999999,-0.0021541999999999,0,sub_9
-0.0204436000000002,-0.0092721999999987,-0.0225637999999999,0.0013660000000005,-0.002379799999999,-0.0023623999999999,0,sub_9
-0.0202258000000002,-0.0094399999999987,-0.0228323999999998,0.0015822000000005,-0.001529199999999,-0.0021481999999998,0,sub_9
-0.0195392000000002,-0.0100843999999987,-0.0231429999999998,0.0015890000000005,-0.000689799999999,-0.0017265999999999,0,sub_9
-0.0193000000000002,-0.0102749999999987,-0.0228585999999998,0.0009508000000005,-0.000701199999999,-0.0010947999999999,0,sub_9
-0.0194318000000002,-0.0106187999999987,-0.0225281999999998,0.0003128000000005,-0.000712599999999,-0.0004631999999999,0,sub_9
-0.0196674000000001,-0.0106299999999987,-0.0225457999999998,-0.0003281999999994,-0.000726599999999,0.0008096,0,sub_9
-0.0199348000000001,-0.0106845999999987,-0.0228069999999999,-0.0005423999999994,-0.001166399999999,0.0016584,0,sub_9
-0.0199684000000001,-0.0107289999999987,-0.0228071999999999,-0.0003337999999994,-0.002020199999999,0.0018746,0,sub_9
-0.0200800000000001,-0.0113019999999987,-0.0233149999999999,9.300000000050232e-05,-0.002021599999999,0.0018776,0,sub_9
-0.0201286000000001,-0.0115703999999987,-0.0238723999999999,0.0003044000000005,-0.002023999999999,0.0023064,0,sub_9
-0.0201638000000001,-0.0112567999999987,-0.0237049999999999,-0.0001141999999994,-0.002252999999999,0.0020884,0,sub_9
-0.0206450000000001,-0.0112701999999987,-0.0233551999999999,-0.0007441999999994,-0.001843199999999,0.0020818,0,sub_9
-0.0211344000000001,-0.0109901999999987,-0.0234305999999999,-0.0013685999999994,-0.000367199999999,0.0018602,0,sub_9
-0.0209782000000001,-0.0105671999999987,-0.0233439999999999,-0.0022041999999994,0.0015356000000009,0.0016366,0,sub_9
-0.0208032000000001,-0.0106555999999987,-0.0231807999999999,-0.0028245999999994,0.0032272000000009,0.0007738,0,sub_9
-0.0199888000000001,-0.0112309999999987,-0.0235245999999998,-0.0023881999999994,0.0047196000000009,0.000134,0,sub_9
-0.0186586000000001,-0.0113667999999987,-0.0234851999999998,-0.0015299999999994,0.0053576000000009,-0.0002879999999999,0,sub_9
-0.0180632000000001,-0.0112667999999987,-0.0232817999999998,-0.0011059999999994,0.0045048000000009,-0.0004975999999999,0,sub_9
-0.0178514000000001,-0.0108847999999987,-0.0227869999999998,-0.0006793999999994,0.0029952000000009,-0.0002763999999999,0,sub_9
-0.0179244000000001,-0.0102691999999987,-0.0223631999999998,-3.359999999947771e-05,0.0027630000000009,-5.5199999999921565e-05,0,sub_9
-0.0185224000000002,-0.0097735999999987,-0.0221731999999999,0.0001894000000005,0.0035968000000009,0.0003754,0,sub_9
-0.0194104000000001,-0.0093073999999987,-0.0221031999999999,0.0001980000000005,0.0040060000000009,0.0005912,0,sub_9
-0.0198162000000001,-0.0092749999999987,-0.0220669999999999,0.0004160000000005,0.0039868000000009,0.0012364,0,sub_9
-0.0204298000000001,-0.0098747999999987,-0.0226521999999999,0.0006274000000005,0.0037720000000009,0.0014518,0,sub_9
-0.0206214000000001,-0.0102809999999987,-0.0230223999999999,0.0010456000000005,0.0018530000000009,0.0014572,0,sub_9
-0.0202246000000001,-0.0104681999999987,-0.0230567999999999,0.0023124000000004,-0.001770799999999,0.0008296,0,sub_9
-0.0198220000000001,-0.0112593999999987,-0.0231453999999998,0.0035782000000004,-0.005395399999999,0.0004158,0,sub_9
-0.0196696000000001,-0.0121199999999987,-0.0235775999999998,0.0046478000000004,-0.006893599999999,-0.0008461999999999,0,sub_9
-0.0193014000000001,-0.0131893999999987,-0.0236629999999998,0.0050850000000004,-0.007533799999999,-0.0029681999999999,0,sub_9
-0.0184868000000001,-0.0136541999999987,-0.0229317999999998,0.0044638000000004,-0.007525999999999,-0.0063803999999999,0,sub_9
-0.0182994000000001,-0.0136195999999987,-0.0223967999999998,0.0032170000000005,-0.005169199999999,-0.0106543999999999,0,sub_9
-0.0177136000000001,-0.0127417999999987,-0.0230931999999998,0.0019808000000005,-0.001317399999999,-0.0157847999999999,0,sub_9
-0.0168682000000001,-0.0121981999999987,-0.0233141999999999,-0.0001145999999994,0.0021194000000009,-0.0209311999999999,0,sub_9
-0.0171712000000001,-0.0107563999999987,-0.0226487999999999,-0.0022127999999994,0.0059780000000009,-0.0250099999999999,0,sub_9
-0.0192368000000001,-0.0105633999999987,-0.0233511999999999,-0.0024031999999994,0.0104554000000009,-0.0256579999999999,0,sub_9
-0.0201444000000002,-0.0115219999999987,-0.0250579999999999,-0.0021817999999994,0.0134268000000009,-0.0241539999999999,0,sub_9
-0.0209030000000002,-0.0126261999999987,-0.0245705999999999,-0.0038961999999994,0.0138448000000009,-0.0218057999999999,0,sub_9
-0.0220560000000001,-0.0125917999999987,-0.0228559999999999,-0.0062437999999994,0.0168174000000009,-0.0183969999999999,0,sub_9
-0.0207674000000001,-0.0123183999999987,-0.0215815999999999,-0.0100783999999994,0.0219232000000009,-0.0143603999999999,0,sub_9
-0.0179744000000001,-0.0124631999999987,-0.0203223999999999,-0.0162427999999994,0.0289624000000009,-0.0122651999999999,0,sub_9
-0.0158030000000001,-0.0118811999999987,-0.0189489999999999,-0.0234553999999994,0.0379378000000009,-0.0127543999999999,0,sub_9
-0.0170082000000001,-0.0105695999999987,-0.0180911999999998,-0.0282927999999994,0.0515980000000009,-0.0147283999999999,0,sub_9
-0.0184434000000001,-0.0106549999999987,-0.0192173999999998,-0.0303715999999994,0.0614140000000009,-0.0168875999999999,0,sub_9
-0.0215676000000001,-0.0119251999999987,-0.0207265999999998,-0.0296917999999994,0.0669628000000009,-0.0198763999999999,0,sub_9
-0.0232228000000001,-0.0095699999999987,-0.0261887999999998,-0.0317637999999994,0.0786946000000009,-0.0216105999999999,0,sub_9
-0.0242834000000001,-0.0065789999999987,-0.0304419999999998,-0.0434193999999995,0.1008740000000009,-0.0170157999999999,0,sub_9
-0.0235506000000001,-0.0050979999999987,-0.0340449999999999,-0.0566327999999995,0.1130280000000009,-0.0081461999999999,0,sub_9
-0.0188516000000001,-0.0020537999999987,-0.0332681999999999,-0.0618187999999994,0.1083196000000009,0.0016514,0,sub_9
-0.0141164000000001,0.0013590000000012,-0.0321759999999999,-0.0652777999999995,0.1072304000000009,0.0106016,0,sub_9
-0.0115504000000001,0.0017808000000011,-0.0262947999999998,-0.0583169999999994,0.0954632000000009,0.016861,0,sub_9
-0.0135614000000001,-0.0029923999999988,-0.0230897999999998,-0.0407121999999994,0.0717436000000009,0.0174436,0,sub_9
-0.0150560000000002,-0.0074945999999988,-0.0216127999999998,-0.0222097999999994,0.0537898000000009,0.013966,0,sub_9
-0.0197672000000001,-0.0125971999999988,-0.0240915999999998,-0.0142935999999994,0.0527104000000009,0.0088972,0,sub_9
-0.0230282000000001,-0.0166075999999988,-0.0269935999999998,-0.0114973999999994,0.0531352000000009,0.0050726,0,sub_9
-0.0260674000000001,-0.0197369999999988,-0.0301749999999998,-0.0189123999999994,0.0618988000000009,0.0026616,0,sub_9
-0.0271176000000001,-0.0188767999999987,-0.0297857999999998,-0.0307949999999994,0.0743070000000009,0.0002126,0,sub_9
-0.0265794000000001,-0.0165841999999987,-0.0279949999999998,-0.0449923999999994,0.0941794000000009,-0.0020485999999999,0,sub_9
-0.0250310000000001,-0.0130915999999987,-0.0261507999999998,-0.0562235999999995,0.1108396000000009,-0.0027893999999999,0,sub_9
-0.0218980000000001,-0.0099141999999987,-0.0243605999999998,-0.0615589999999994,0.1127660000000009,-0.0011185999999999,0,sub_9
-0.0180684000000001,-0.0070049999999987,-0.0220071999999998,-0.0607677999999995,0.1023086000000009,0.0018926,0,sub_9
-0.0120750000000001,-0.0054497999999987,-0.0198385999999998,-0.0531879999999995,0.0875486000000009,0.0094434,0,sub_9
-0.0075298000000001,-0.0084017999999987,-0.0184159999999998,-0.0437135999999995,0.0695758000000009,0.0195752,0,sub_9
-0.0042116000000001,-0.0113693999999987,-0.0181379999999998,-0.0361269999999995,0.0590656000000009,0.029898,0,sub_9
-0.0032250000000002,-0.0159369999999987,-0.0177373999999998,-0.0357269999999995,0.0622232000000009,0.0390834,0,sub_9
-0.0020696000000002,-0.0188319999999987,-0.0186003999999999,-0.0410383999999995,0.0752066000000009,0.0469344,0,sub_9
-0.0027314000000002,-0.0181475999999987,-0.0199123999999999,-0.0503903999999995,0.0875794000000009,0.051126,0,sub_9
-0.0048450000000002,-0.0123675999999987,-0.0210867999999999,-0.0572053999999995,0.0916396000000009,0.0517506,0,sub_9
-0.0093830000000002,-0.0067389999999987,-0.0216157999999999,-0.0610561999999994,0.0865444000000009,0.0483482,0,sub_9
-0.0175756000000001,0.0003832000000012,-0.0230697999999999,-0.0578617999999994,0.0763352000000009,0.0390196,0,sub_9
-0.0247738000000001,0.0036698000000011,-0.0236545999999999,-0.0483063999999994,0.0573676000000009,0.0299604,0,sub_9
-0.0295990000000001,0.0044392000000011,-0.0256337999999999,-0.0342711999999994,0.0360492000000009,0.018799,0,sub_9
-0.0329172000000001,0.0017018000000011,-0.0282021999999999,-0.0191513999999994,0.0179328000000009,0.0073910000000001,0,sub_9
-0.0342240000000001,-0.0036407999999987,-0.0301091999999999,-0.0038077999999995,0.0038568000000009,-0.0023113999999999,0,sub_9
-0.0307418000000002,-0.0100067999999987,-0.0318971999999999,0.0098202000000004,-0.007462199999999,-0.0073291999999999,0,sub_9
-0.0279626000000002,-0.0150237999999987,-0.0329155999999999,0.0183580000000004,-0.011733399999999,-0.0121779999999998,0,sub_9
-0.0255612000000002,-0.0195759999999987,-0.0321237999999998,0.0198718000000004,-0.008961999999999,-0.0138799999999998,0,sub_9
-0.0225358000000002,-0.0211715999999987,-0.0290543999999998,0.0147824000000004,-0.000852399999999,-0.0128577999999998,0,sub_9
-0.0196652000000002,-0.0198925999999987,-0.0265543999999998,0.0060744000000004,0.0104606000000009,-0.0105829999999998,0,sub_9
-0.0180572000000002,-0.0175833999999987,-0.0233615999999998,-0.0039165999999995,0.0211390000000009,-0.0083163999999998,0,sub_9
-0.0170166000000002,-0.0155139999999987,-0.0219479999999998,-0.0119939999999995,0.0294704000000009,-0.0068879999999998,0,sub_9
-0.0186938000000002,-0.0126007999999987,-0.0205793999999999,-0.0166651999999995,0.0348122000000009,-0.0067137999999999,0,sub_9
-0.0201992000000002,-0.0110805999999987,-0.0212501999999999,-0.0166603999999994,0.0360898000000009,-0.0065017999999999,0,sub_9
-0.0203398000000002,-0.0103817999999987,-0.0226005999999999,-0.0151743999999994,0.0343802000000009,-0.0064891999999999,0,sub_9
-0.0210874000000002,-0.0097671999999987,-0.0231633999999999,-0.0136903999999994,0.0320322000000009,-0.0066893999999999,0,sub_9
-0.0189740000000002,-0.0098749999999987,-0.0228925999999999,-0.0117863999999994,0.0292524000000009,-0.0058177999999999,0,sub_9
-0.0163930000000002,-0.0096757999999987,-0.0225071999999999,-0.0094689999999994,0.0247616000000009,-0.0036595999999999,0,sub_9
-0.0136632000000001,-0.0096061999999987,-0.0224269999999999,-0.0075763999999994,0.0198494000000009,-0.0023581999999999,0,sub_9
-0.0113110000000001,-0.0106491999999987,-0.0209901999999998,-0.0069591999999994,0.0155826000000009,-0.0014939999999999,0,sub_9
-0.0101778000000001,-0.0120177999999987,-0.0202585999999998,-0.0071839999999994,0.0132388000000009,-0.0012789999999999,0,sub_9
-0.0117130000000001,-0.0116563999999987,-0.0194187999999998,-0.0080499999999994,0.0104720000000009,-0.0012815999999999,0,sub_9
-0.0113398000000001,-0.0113189999999987,-0.0200425999999998,-0.0086959999999994,0.0085592000000009,-0.0019243999999999,0,sub_9
-0.0118870000000002,-0.0102693999999987,-0.0202783999999998,-0.0093389999999995,0.0068614000000009,-0.0029947999999999,0,sub_9
-0.0136702000000002,-0.0088439999999987,-0.0209865999999999,-0.0080635999999995,0.0049430000000009,-0.0038379999999999,0,sub_9
-0.0145828000000002,-0.0076301999999987,-0.0216201999999999,-0.0044469999999995,0.0013136000000009,-0.0050897999999999,0,sub_9
-0.0160324000000002,-0.0070705999999987,-0.0226779999999999,-0.0001785999999995,-0.001246799999999,-0.0078339999999999,0,sub_9
-0.0192570000000002,-0.0088303999999987,-0.0235901999999999,0.0038832000000004,-0.003800399999999,-0.0120753999999999,0,sub_9
-0.0220896000000002,-0.0111973999999987,-0.0244391999999999,0.0077334000000004,-0.005715199999999,-0.0161053999999999,0,sub_9
-0.0239896000000001,-0.0138721999999987,-0.0255033999999999,0.0090270000000004,-0.007193199999999,-0.0205809999999999,0,sub_9
-0.0256630000000001,-0.0161779999999987,-0.0261267999999998,0.0075508000000004,-0.006960399999999,-0.0242235999999999,0,sub_9
-0.0268314000000001,-0.0172307999999987,-0.0271415999999998,0.0052114000000004,-0.006520999999999,-0.0255223999999999,0,sub_9
-0.0260484000000001,-0.0161973999999988,-0.0272735999999998,0.0013726000000004,-0.005020599999999,-0.0244827999999999,0,sub_9
-0.0253454000000001,-0.0150579999999987,-0.0275199999999998,-0.0041711999999995,-0.001178199999999,-0.0215353999999999,0,sub_9
-0.0237322000000001,-0.0121729999999988,-0.0272269999999998,-0.0078051999999994,0.0028604000000009,-0.0160111999999999,0,sub_9
-0.0222258000000001,-0.0087749999999987,-0.0274307999999998,-0.0103499999999995,0.0060408000000009,-0.0085531999999999,0,sub_9
-0.0218776000000001,-0.0065161999999987,-0.0257577999999998,-0.0133195999999995,0.0104976000000009,-0.0002451999999999,0,sub_9
-0.0213842000000001,-0.0054433999999987,-0.0248485999999999,-0.0152241999999994,0.0145246000000009,0.0080706,0,sub_9
-0.0202408000000002,-0.0051031999999987,-0.0243115999999999,-0.0150007999999994,0.0159926000000009,0.0151228,0,sub_9
-0.0188948000000002,-0.0062871999999987,-0.0234145999999999,-0.0149839999999994,0.0164062000000009,0.0196112,0,sub_9
-0.0167788000000002,-0.0072443999999987,-0.0223501999999999,-0.0154115999999994,0.0176800000000009,0.021102,0,sub_9
-0.0141322000000002,-0.0065057999999987,-0.0224011999999998,-0.0139083999999994,0.0183200000000009,0.019616,0,sub_9
-0.0116140000000002,-0.0058459999999987,-0.0218841999999998,-0.0109077999999994,0.0181094000000009,0.0164326,0,sub_9
-0.0119882000000002,-0.0036713999999987,-0.0216403999999998,-0.0081013999999994,0.0187654000000009,0.0098284,0,sub_9
-0.0121964000000002,-0.0019909999999987,-0.0203419999999998,-0.0040367999999994,0.0170630000000009,0.0057998,0,sub_9
-0.0122378000000001,-0.0022861999999987,-0.0198511999999998,0.0019318000000004,0.0127930000000009,0.002856,0,sub_9
-0.0121242000000001,-0.0047665999999987,-0.0198167999999999,0.0066116000000004,0.0068222000000009,0.000119,0,sub_9
-0.0128704000000001,-0.0064955999999987,-0.0197409999999999,0.0093702000000004,0.0004328000000009,-0.0028445999999999,0,sub_9
-0.0124706000000001,-0.0090235999999987,-0.0191689999999999,0.0110494000000004,-0.006388399999999,-0.0034649999999999,0,sub_9
-0.0140936000000001,-0.0119075999999987,-0.0207353999999999,0.0108254000000004,-0.011489799999999,-0.0062373999999999,0,sub_9
-0.0167052000000002,-0.0133865999999988,-0.0225531999999998,0.0093212000000004,-0.015525799999999,-0.0079519999999999,0,sub_9
-0.0194532000000002,-0.0135099999999987,-0.0250809999999998,0.0071798000000004,-0.017434999999999,-0.0081781999999999,0,sub_9
