userAcceleration.x,userAcceleration.y,userAcceleration.z,rotationRate.x,rotationRate.y,rotationRate.z,label,subject
0.0010957999999997,0.0020660000000012,-0.0063853999999998,-0.0015711999999996,0.0025418000000008,-0.0033603999999999,0,sub_3
0.0020837999999997,0.0015478000000012,-0.0062221999999998,-0.0005235999999996,-0.000661999999999,-0.0022807999999999,0,sub_3
0.0031745999999997,0.0007330000000012,-0.0063943999999998,0.0009480000000003,-0.003869799999999,-0.0005571999999999,0,sub_3
0.0036303999999997,0.0011316000000012,-0.0058809999999998,0.0026450000000003,-0.006458999999999,0.0013888,0,sub_3
0.0037665999999997,0.0016474000000012,-0.0055651999999998,0.0041304000000003,-0.008833399999999,0.0031194,0,sub_3
0.0038395999999997,0.0022372000000012,-0.0052113999999998,0.0051912000000003,-0.010780399999999,0.0048466,0,sub_3
0.0038961999999997,0.0031280000000012,-0.0051299999999998,0.0062578000000003,-0.012085599999999,0.005932,0,sub_3
0.0038085999999997,0.0037638000000012,-0.0044919999999998,0.0069024000000003,-0.012960599999999,0.0063728,0,sub_3
0.0040231999999997,0.0036016000000012,-0.0041385999999998,0.0073234000000003,-0.014028199999999,0.0065908,0,sub_3
0.0041339999999997,0.0032184000000012,-0.0050665999999998,0.0077474000000003,-0.014244399999999,0.0070214,0,sub_3
0.0038607999999997,0.0023054000000012,-0.0054279999999999,0.0081798000000003,-0.013179799999999,0.0068094,0,sub_3
0.0034937999999997,0.0014270000000012,-0.0056647999999999,0.0086344000000003,-0.011501599999999,0.0057552,0,sub_3
0.0022447999999997,0.0006760000000012,-0.0064067999999999,0.0088690000000003,-0.011101799999999,0.0049148,0,sub_3
0.0016909999999997,-0.0003051999999987,-0.0079359999999999,0.0086750000000003,-0.011126599999999,0.004072,0,sub_3
0.0010943999999997,-0.0007515999999987,-0.0077271999999999,0.0084848000000003,-0.0100869999999991,0.0034414,0,sub_3
0.0013073999999997,-0.0004325999999987,-0.0086669999999999,0.0085014000000003,-0.0096905999999991,0.0036676,0,sub_3
0.0008281999999997,-0.0006375999999987,-0.0091789999999999,0.0076452000000003,-0.0090533999999991,0.0049426,0,sub_3
0.0012461999999997,-0.0004227999999987,-0.0090831999999998,0.0061584000000003,-0.0071323999999991,0.0053572,0,sub_3
0.0009815999999997,0.0003328000000012,-0.0081153999999998,0.0040370000000004,-0.004567399999999,0.0051254,0,sub_3
0.0014509999999997,0.0011962000000012,-0.0075069999999998,0.0019128000000004,-0.003066199999999,0.0044678,0,sub_3
0.0013813999999997,0.0019122000000012,-0.0063375999999998,0.0006564000000004,-0.002242799999999,0.0038332,0,sub_3
0.0013649999999997,0.0024564000000012,-0.0056441999999998,-0.0001759999999995,-0.002696799999999,0.0025622,0,sub_3
0.0015119999999997,0.0022584000000012,-0.0052373999999999,-0.0001569999999995,-0.003367399999999,0.001511,0,sub_3
0.0024251999999997,0.0020760000000012,-0.0047083999999999,0.0005034000000003,-0.003614999999999,0.0006774,0,sub_3
0.0028711999999997,0.0011242000000012,-0.0046227999999999,0.0013742000000003,-0.003653599999999,0.0006996,0,sub_3
0.0035799999999997,4.7400000001222594e-05,-0.0049675999999998,0.0011638000000003,-0.003437999999999,0.0002706,0,sub_3
0.0043787999999997,-0.0007579999999987,-0.0055483999999998,0.0011686000000003,-0.002372599999999,0.0002692,0,sub_3
0.0044419999999997,-0.0005647999999987,-0.0065429999999998,0.0009554000000003,-0.001735399999999,0.0009078,0,sub_3
0.0036027999999997,-0.0001359999999987,-0.0067511999999998,0.0014034000000003,-0.001568599999999,0.0015726,0,sub_3
0.0025379999999997,0.0006376000000012,-0.0073225999999998,0.0014248000000003,-0.0018247999999991,0.0018076,0,sub_3
0.0014803999999997,0.0012300000000012,-0.0074159999999998,0.0014462000000003,-0.0016565999999991,0.0024694,0,sub_3
0.0005213999999998,0.0021850000000012,-0.0076133999999998,0.0010408000000004,-0.001698999999999,0.002915,0,sub_3
0.0003489999999998,0.0024234000000012,-0.0073437999999998,0.0012784000000004,-0.001740999999999,0.002724,0,sub_3
0.0003173999999998,0.0022702000000012,-0.0076527999999998,0.0010652000000004,-0.002164799999999,0.0022958,0,sub_3
0.0005119999999997,0.0021614000000011,-0.0077121999999999,0.0012804000000004,-0.001951599999999,0.0020834,0,sub_3
0.0010987999999997,0.0019608000000012,-0.0076291999999999,0.0017246000000004,-0.002402199999999,0.0014624,0,sub_3
0.0019819999999997,0.0011536000000012,-0.0072731999999998,0.0028090000000003,-0.0026429999999991,0.0010594,0,sub_3
0.0029271999999997,0.0007256000000012,-0.0062813999999998,0.0030388000000003,-0.0024571999999991,0.0012908,0,sub_3
0.0036481999999997,0.0004680000000012,-0.0058879999999998,0.0028428000000003,-0.0018445999999991,0.0017322,0,sub_3
0.0045121999999997,-9.399999998757363e-06,-0.0052175999999998,0.0024326000000003,-0.0018687999999991,0.0017458,0,sub_3
0.0051197999999997,0.0001482000000012,-0.0047333999999998,0.0020116000000003,-0.0005889999999991,0.0017412,0,sub_3
0.0044371999999997,0.0007546000000012,-0.0043633999999998,0.0009466000000003,-0.0001591999999991,0.0017332,0,sub_3
0.0034543999999997,0.0005856000000012,-0.0058419999999998,-0.0005439999999996,6.080000000089464e-05,0.0012952,0,sub_3
0.0031169999999997,0.0011898000000012,-0.0064131999999999,-0.0009709999999996,7.620000000089465e-05,0.0002232,0,sub_3
0.0026073999999997,0.0019484000000012,-0.0065903999999999,-0.0007539999999996,0.0013660000000008,-0.0004187999999999,0,sub_3
0.0016007999999997,0.0027604000000012,-0.0070871999999999,-0.0003399999999996,9.400000000089458e-05,1.2200000000070314e-05,0,sub_3
0.0017069999999997,0.0025064000000012,-0.0072351999999999,0.0005006000000003,-0.0013915999999991,0.0002328,0,sub_3
0.0021411999999997,0.0026884000000012,-0.0065513999999999,0.0019842000000003,-0.0022403999999991,0.000457,0,sub_3
0.0015925999999997,0.0020080000000012,-0.0065201999999998,0.0032558000000003,-0.0028891999999991,0.0017486,0,sub_3
0.0011785999999997,0.0017854000000012,-0.0069487999999998,0.0036710000000003,-0.0043863999999991,0.0028216,0,sub_3
0.0008469999999997,0.0006780000000012,-0.0067911999999998,0.0034596000000003,-0.0039595999999991,0.0028196,0,sub_3
0.0013017999999997,0.0009454000000012,-0.0070783999999998,0.0025980000000003,-0.0028679999999991,0.002376,0,sub_3
0.0011913999999997,0.0013184000000012,-0.0068405999999998,0.0023764000000003,-0.0015663999999991,0.0021504000000001,0,sub_3
0.0015475999999997,0.0019794000000012,-0.0070339999999999,0.0017270000000003,-0.0009009999999991,0.0014952000000001,0,sub_3
0.0022999999999997,0.0015874000000012,-0.0069369999999998,0.0008634000000003,-0.0006599999999991,0.0006256000000001,0,sub_3
0.0035197999999997,0.0016022000000011,-0.0070419999999998,-0.0006423999999996,-0.0010549999999991,-0.0004613999999998,0,sub_3
0.0038983999999997,0.0014234000000011,-0.0071429999999998,-0.0008499999999996,1.18000000008946e-05,-0.0006777999999999,0,sub_3
0.0041497999999997,0.0011078000000011,-0.0071095999999998,-0.0008479999999996,1.3400000000894598e-05,-0.0011049999999999,0,sub_3
0.0046571999999997,0.0006502000000012,-0.0066425999999998,-0.0010583999999996,0.0002290000000008,-0.0015339999999999,0,sub_3
0.0046459999999997,0.0010636000000012,-0.0069599999999998,-0.0012707999999996,0.0004428000000008,-0.0015357999999999,0,sub_3
0.0037643999999997,0.0012354000000012,-0.0073729999999998,-0.0002153999999996,0.0013084000000008,-0.0006843999999999,0,sub_3
0.0025429999999997,0.0010980000000012,-0.0072327999999999,0.0001940000000003,0.0006858000000008,-4.939999999990984e-05,0,sub_3
0.0018127999999997,0.0012500000000012,-0.0076479999999999,-0.0006737999999996,0.0004946000000008,0.0003626,0,sub_3
0.0009133999999997,0.0015238000000012,-0.0078619999999998,-0.0011129999999996,0.0003036000000008,0.0003504,0,sub_3
0.0004343999999997,0.0012718000000012,-0.0079927999999998,-0.0009131999999996,0.0001094000000008,0.0005562,0,sub_3
0.0008421999999997,0.0011200000000012,-0.0082087999999998,-0.0015531999999996,-0.0003127999999991,0.000125,0,sub_3
0.0014771999999997,0.0011396000000012,-0.0084993999999998,-0.0019749999999995,-9.499999999910544e-05,-0.0007327999999999,0,sub_3
0.0020421999999997,0.0013854000000012,-0.0080099999999998,-0.0015453999999995,0.0001182000000009,-0.0011573999999999,0,sub_3
0.0023823999999997,0.0017828000000012,-0.0083579999999999,-0.0011299999999995,-7.659999999906541e-05,-0.0013781999999998,0,sub_3
0.0025837999999997,0.0020304000000012,-0.0075235999999999,-0.0004991999999995,0.0001542000000009,-0.0015979999999998,0,sub_3
0.0029805999999997,0.0022050000000012,-0.0065843999999999,0.0001314000000004,0.0005970000000009,-0.0016045999999998,0,sub_3
0.0029333999999997,0.0024742000000012,-0.0059165999999999,0.0005428000000003,0.0003990000000009,-0.0009707999999998,0,sub_3
0.0036571999999997,0.0018428000000012,-0.0062149999999999,0.0001028000000003,-6.599999999085484e-06,-0.0009835999999998,0,sub_3
0.0041561999999997,0.0010498000000012,-0.0053071999999998,-0.0001095999999996,0.0004194000000008,-0.0007719999999999,0,sub_3
0.0040219999999997,0.0005516000000012,-0.0059969999999998,-0.0009659999999995,0.0004198000000008,-0.0001371999999999,0,sub_3
0.0039399999999997,0.0003812000000012,-0.0069563999999998,-0.0016089999999995,-4.799999999085484e-06,7.260000000009028e-05,0,sub_3
0.0037867999999997,0.0010604000000012,-0.0073079999999998,-0.0013989999999996,0.0008644000000009,-0.0005769999999999,0,sub_3
0.0024901999999997,0.0024204000000011,-0.0068549999999998,-0.0005547999999996,0.0010896000000009,-0.0005805999999999,0,sub_3
0.0016551999999997,0.0026298000000011,-0.0070369999999999,6.940000000038643e-05,3.6400000000914345e-05,-0.0003703999999998,0,sub_3
0.0015509999999997,0.0033538000000011,-0.0065801999999999,0.0004870000000003,-0.000373599999999,-0.0010167999999998,0,sub_3
0.0012995999999997,0.0037070000000011,-0.0059167999999999,0.0015398000000003,-0.0010021999999991,-0.0008039999999998,0,sub_3
0.0014579999999997,0.0031308000000011,-0.0060643999999999,0.0021704000000003,-0.0020739999999991,0.0002700000000001,0,sub_3
0.0015589999999997,0.0021802000000012,-0.0061447999999999,0.0023790000000003,-0.0022911999999991,0.0011264000000001,0,sub_3
0.0023487999999997,0.0018302000000012,-0.0066265999999998,0.0019414000000003,-0.0020635999999991,0.0013274,0,sub_3
0.0026571999999997,0.0017274000000012,-0.0065757999999998,0.0019306000000003,-0.0018373999999991,0.0015312,0,sub_3
0.0028289999999997,0.0017660000000012,-0.0064651999999998,0.0017074000000003,-0.0016097999999991,0.0015198,0,sub_3
0.0027575999999997,0.0011934000000012,-0.0060291999999998,0.0008430000000003,-0.0015929999999991,0.0015042,0,sub_3
0.0032437999999997,0.0010272000000012,-0.0067747999999998,-0.0006593999999996,-0.001784399999999,0.0008436,0,sub_3
0.0028495999999997,0.0017086000000012,-0.0063801999999998,-0.0010811999999996,-0.001141999999999,0.0004124,0,sub_3
0.0026757999999997,0.0015912000000012,-0.0068301999999998,-0.0008639999999996,-0.000714999999999,-1.3999999999889752e-05,0,sub_3
0.0026587999999997,0.0007014000000012,-0.0063437999999998,-0.0006427999999996,-7.239999999908542e-05,-0.0010813999999998,0,sub_3
0.0027547999999997,0.0011670000000012,-0.0065045999999998,-0.0010703999999995,-5.679999999908541e-05,-0.0023717999999998,0,sub_3
0.0024457999999997,0.0016510000000012,-0.0061973999999998,-0.0004331999999996,0.0005900000000008,-0.0025875999999998,0,sub_3
0.0025829999999997,0.0014616000000012,-0.0066461999999998,-1.219999999961367e-05,0.0010228000000008,-0.0023771999999998,0,sub_3
0.0024507999999997,0.0010362000000012,-0.0064035999999998,-0.0006561999999995,0.0016732000000008,-0.0023881999999998,0,sub_3
0.0017217999999997,0.0016534000000012,-0.0070133999999998,-0.0019393999999995,0.0031756000000008,-0.0017637999999998,0,sub_3
0.0014883999999997,0.0014362000000011,-0.0075029999999998,-0.0025737999999995,0.0048806000000008,-0.0013431999999998,0,sub_3
0.0016729999999997,0.0012702000000011,-0.0073795999999998,-0.0027833999999995,0.0059458000000008,-0.0011323999999998,0,sub_3
0.0014403999999997,0.0010796000000012,-0.0073151999999998,-0.0032073999999995,0.0065864000000008,-0.0011361999999999,0,sub_3
0.0010731999999997,0.0011462000000012,-0.0071989999999998,-0.0034239999999995,0.0063794000000008,-0.0011393999999999,0,sub_3
0.0014123999999997,0.0010242000000012,-0.0080349999999998,-0.0034261999999995,0.0057482000000008,-0.0017815999999999,0,sub_3
0.0013441999999997,0.0010154000000012,-0.0077527999999998,-0.0032151999999995,0.0053284000000008,-0.0022087999999999,0,sub_3
0.0015023999999997,0.0008552000000012,-0.0077371999999998,-0.0038507999999995,0.0059786000000008,-0.0030705999999999,0,sub_3
0.0018481999999997,0.0004728000000012,-0.0076171999999998,-0.0042739999999996,0.0066272000000008,-0.0037171999999999,0,sub_3
0.0023949999999997,0.0005738000000012,-0.0077659999999999,-0.0046939999999996,0.0074834000000008,-0.0043621999999999,0,sub_3
0.0027323999999997,0.0009182000000012,-0.0065949999999999,-0.0044787999999996,0.0079086000000008,-0.0043611999999999,0,sub_3
0.0025057999999997,0.0015122000000012,-0.0062899999999999,-0.0046901999999996,0.0085476000000008,-0.0041499999999999,0,sub_3
0.0020805999999997,0.0008736000000012,-0.0061119999999999,-0.0051227999999996,0.0081196000000008,-0.0032977999999998,0,sub_3
0.0022981999999997,0.0008374000000012,-0.0063049999999998,-0.0053357999999996,0.0079106000000008,-0.0035135999999998,0,sub_3
0.0023515999999997,0.0011942000000012,-0.0060273999999998,-0.0051171999999996,0.0087654000000008,-0.0037275999999998,0,sub_3
0.0020373999999997,0.0017636000000012,-0.0060177999999998,-0.0051185999999996,0.0085540000000008,-0.0035145999999998,0,sub_3
0.0024941999999997,0.0006168000000012,-0.0059599999999998,-0.0051239999999996,0.0072782000000008,-0.0035137999999998,0,sub_3
0.0031603999999997,0.0011592000000012,-0.0060335999999998,-0.0038461999999996,0.0064246000000008,-0.0037181999999999,0,sub_3
0.0028419999999997,0.0015444000000012,-0.0059605999999998,-0.0027859999999996,0.0057782000000008,-0.0028553999999999,0,sub_3
0.0024011999999997,0.0009454000000012,-0.0064439999999998,-0.0021535999999995,0.0051326000000008,-0.0017817999999999,0,sub_3
0.0027799999999997,-0.0002795999999987,-0.0070827999999998,-0.0017253999999995,0.0053486000000008,-0.0022073999999999,0,sub_3
0.0028283999999997,0.0001380000000012,-0.0073357999999998,-0.0012931999999995,0.0062044000000008,-0.0028473999999999,0,sub_3
0.0027921999999997,0.0008162000000012,-0.0073169999999999,-0.0015021999999995,0.0068496000000008,-0.0034917999999999,0,sub_3
0.0023135999999997,0.0010420000000012,-0.0064003999999999,-0.0021379999999995,0.0072840000000008,-0.0043523999999999,0,sub_3
0.0025375999999997,0.0011628000000012,-0.0061733999999999,-0.0034233999999995,0.0062266000000008,-0.0045747999999999,0,sub_3
0.0023617999999997,0.0013646000000012,-0.0055391999999999,-0.0047063999999995,0.0058040000000008,-0.0043695999999999,0,sub_3
0.0026391999999997,0.0011600000000012,-0.0055375999999999,-0.0053455999999995,0.0064438000000008,-0.0039475999999999,0,sub_3
0.0024933999999997,7.720000000122247e-05,-0.0057049999999999,-0.0061969999999995,0.0066606000000008,-0.0041673999999999,0,sub_3
0.0028347999999997,-0.0004357999999987,-0.0062489999999999,-0.0070523999999995,0.0064496000000008,-0.0039593999999999,0,sub_3
0.0029577999999997,-0.0004243999999987,-0.0061579999999999,-0.0061909999999995,0.0075190000000008,-0.0048107999999999,0,sub_3
0.0031419999999997,-6.239999999877749e-05,-0.0067137999999999,-0.0057621999999995,0.0079482000000008,-0.0050233999999998,0,sub_3
0.0029413999999997,0.0004122000000012,-0.0065531999999998,-0.0051245999999995,0.0077356000000008,-0.0048065999999998,0,sub_3
0.0027755999999997,0.0010402000000012,-0.0065803999999998,-0.0044871999999995,0.0077354000000008,-0.0043763999999998,0,sub_3
0.0028289999999997,0.0017002000000012,-0.0063407999999998,-0.0040609999999995,0.0077376000000008,-0.0043749999999998,0,sub_3
0.0027009999999997,0.0024960000000012,-0.0064253999999998,-0.0042799999999996,0.0066722000000008,-0.0041615999999998,0,sub_3
0.0022277999999997,0.0029112000000012,-0.0062537999999998,-0.0038579999999996,0.0062420000000008,-0.0035171999999999,0,sub_3
0.0018673999999997,0.0029534000000012,-0.0067635999999999,-0.0036471999999996,0.0047432000000008,-0.0032967999999999,0,sub_3
0.0015017999999997,0.0027884000000012,-0.0065015999999999,-0.0032239999999996,0.0032428000000008,-0.0028613999999999,0,sub_3
0.0016465999999997,0.0026466000000012,-0.0071329999999999,-0.0023731999999996,0.0019540000000008,-0.0024231999999999,0,sub_3
0.0018339999999997,0.0018382000000012,-0.0066823999999999,-0.0013089999999996,0.0013010000000008,-0.0013433999999999,0,sub_3
0.0018377999999997,0.0015190000000012,-0.0067857999999998,-0.0002447999999996,1.140000000085439e-05,-0.0009037999999999,0,sub_3
0.0027871999999997,0.0013416000000012,-0.0065969999999998,0.0003896000000003,-0.0008447999999991,-0.0004709999999999,0,sub_3
0.0030581999999997,0.0020302000000012,-0.0065285999999998,0.0010258000000003,-0.0012749999999991,-3.879999999990942e-05,0,sub_3
0.0025545999999997,0.0019674000000012,-0.0064735999999998,0.0018726000000003,-0.0019205999999991,0.0008224,0,sub_3
0.0024229999999997,0.0020866000000012,-0.0072635999999998,0.0016650000000003,-0.0032185999999991,0.001046,0,sub_3
0.0028629999999997,0.0018068000000012,-0.0072971999999999,0.0016756000000003,-0.0036643999999991,0.0010564,0,sub_3
0.0023645999999997,0.0024082000000012,-0.0071525999999999,0.0021166000000003,-0.0032593999999991,0.0010686,0,sub_3
0.0022965999999997,0.0021458000000012,-0.0074979999999999,0.0025444000000003,-0.0052003999999991,0.0017248,0,sub_3
0.0026043999999997,0.0015088000000012,-0.0075567999999998,0.0027634000000003,-0.0060755999999991,0.0023782,0,sub_3
0.0026595999999997,0.0017412000000012,-0.0072529999999998,0.0042512000000003,-0.0065103999999991,0.0032436,0,sub_3
0.0021793999999997,0.0018968000000012,-0.0074019999999998,0.0055218000000003,-0.0073721999999991,0.0045354,0,sub_3
0.0016141999999997,0.0010590000000012,-0.0075119999999998,0.0059400000000003,-0.0084423999999991,0.0053942,0,sub_3
0.0021665999999997,0.0007428000000012,-0.0071275999999998,0.0061758000000003,-0.0074041999999991,0.0049806,0,sub_3
0.0023873999999997,0.0013478000000012,-0.0066887999999998,0.0061974000000003,-0.0070025999999991,0.004139,0,sub_3
0.0024171999999997,0.0013392000000012,-0.0068753999999998,0.0055778000000003,-0.006811799999999,0.0032934,0,sub_3
0.0025269999999997,0.0010474000000012,-0.0064571999999998,0.0045306000000003,-0.006832599999999,0.002445,0,sub_3
0.0028689999999997,0.0009164000000012,-0.0063819999999998,0.0034784000000003,-0.007281999999999,0.002238,0,sub_3
0.0032037999999997,0.0006446000000012,-0.0069071999999998,0.0028382000000003,-0.007279599999999,0.0022336,0,sub_3
0.0030023999999997,0.0002846000000012,-0.0071149999999998,0.0019856000000003,-0.007275599999999,0.002014,0,sub_3
0.0032639999999997,-0.0002187999999987,-0.0067637999999999,0.0015628000000003,-0.006421799999999,0.0020098,0,sub_3
0.0035925999999997,-0.0005041999999987,-0.0066221999999999,0.0005016000000003,-0.005351799999999,0.0017872,0,sub_3
0.0038071999999997,0.0001194000000012,-0.0062971999999999,0.0005296000000003,-0.004316999999999,0.0011622,0,sub_3
0.0029949999999997,0.0003842000000012,-0.0058243999999999,0.0014062000000003,-0.003713999999999,0.0011844,0,sub_3
0.0026201999999997,0.0011450000000012,-0.0054983999999999,0.0020656000000003,-0.0035379999999991,0.001633,0,sub_3
0.0019837999999997,0.0018106000000011,-0.0056509999999999,0.0020838000000003,-0.0042093999999991,0.0014374,0,sub_3
0.0019841999999997,0.0024310000000011,-0.0063781999999999,0.0029536000000003,-0.004885599999999,0.001675,0,sub_3
0.0019945999999997,0.0018718000000011,-0.0070457999999999,0.0033774000000003,-0.005313999999999,0.0018922,0,sub_3
0.0022425999999997,0.0015836000000011,-0.0075931999999999,0.0027344000000003,-0.005950999999999,0.0018886,0,sub_3
0.0027153999999997,0.0008492000000011,-0.0080565999999999,0.0027554000000003,-0.006198399999999,0.0019078,0,sub_3
0.0028491999999997,0.0002246000000011,-0.0077425999999999,0.0027764000000003,-0.006021399999999,0.0023536,0,sub_3
0.0030897999999997,-0.0001801999999988,-0.0072799999999999,0.0030138000000003,-0.005418199999999,0.0025868,0,sub_3
0.0029275999999997,0.0003584000000011,-0.0067797999999998,0.0030358000000003,-0.005452599999999,0.0026056,0,sub_3
0.0023855999999997,0.0007622000000012,-0.0066157999999998,0.0030606000000003,-0.005059999999999,0.0024104,0,sub_3
0.0026543999999997,0.0011276000000012,-0.0067083999999998,0.0026386000000003,-0.004417799999999,0.0019794,0,sub_3
0.0026583999999997,0.0018280000000012,-0.0066101999999998,0.0024310000000003,-0.003563199999999,0.0015496,0,sub_3
0.0020419999999997,0.0026524000000012,-0.0065697999999998,0.0022194000000003,-0.003560799999999,0.0011208,0,sub_3
0.0020965999999997,0.0024502000000012,-0.0067893999999999,0.0011672000000003,-0.003148399999999,0.001126,0,sub_3
0.0026829999999997,0.0022712000000012,-0.0066213999999999,0.0007590000000003,-0.002310399999999,0.0007078,0,sub_3
0.0027713999999997,0.0026960000000012,-0.0062219999999999,0.0014148000000003,-0.0016907999999991,0.0007246,0,sub_3
0.0030099999999997,0.0022904000000012,-0.0061779999999999,0.0020580000000003,-0.0029921999999991,0.0015984,0,sub_3
0.0035007999999997,0.0014200000000012,-0.0063773999999999,0.0022804000000003,-0.0036503999999991,0.0018276,0,sub_3
0.0035325999999997,0.0010610000000012,-0.0061095999999999,0.0041940000000003,-0.0045119999999991,0.002483,0,sub_3
0.0031311999999997,0.0008006000000012,-0.0063633999999999,0.0050370000000003,-0.005585399999999,0.003772,0,sub_3
0.0024303999999997,0.0002262000000012,-0.0064859999999999,0.0050322000000003,-0.006226399999999,0.0042,0,sub_3
0.0023285999999997,-0.0003973999999987,-0.0071065999999999,0.0044008000000003,-0.005155599999999,0.0033396,0,sub_3
0.0022861999999997,0.0001240000000012,-0.0071009999999999,0.0039794000000003,-0.004295399999999,0.0026964,0,sub_3
0.0021897999999997,0.0010788000000012,-0.0073229999999998,0.0031304000000003,-0.003858999999999,0.001837,0,sub_3
0.0020133999999997,0.0015004000000012,-0.0068429999999998,0.0024946000000003,-0.003211199999999,0.0011926,0,sub_3
0.0016971999999997,0.0011366000000012,-0.0076649999999998,0.0014264000000003,-0.0032035999999991,0.001187,0,sub_3
0.0017399999999997,0.0014722000000012,-0.0071887999999998,0.0007858000000003,-0.003196599999999,0.0009706,0,sub_3
0.0017613999999997,0.0014242000000012,-0.0071113999999998,0.0007886000000003,-0.0025573999999991,0.0009698,0,sub_3
0.0016017999999997,0.0005506000000012,-0.0069147999999998,0.0005808000000003,-0.0014905999999991,0.0007534,0,sub_3
0.0019795999999997,-2.559999999877736e-05,-0.0073613999999998,0.0001502000000003,-0.0012567999999991,0.0003184,0,sub_3
0.0026559999999997,8.400000000122264e-05,-0.0069405999999998,0.0003616000000003,-0.0005989999999991,-0.0001127999999999,0,sub_3
0.0025621999999997,0.0005376000000012,-0.0071599999999998,0.0009950000000003,-0.0003713999999991,0.0001006,0,sub_3
0.0020983999999997,0.0003986000000012,-0.0069389999999999,0.0007702000000003,-0.0012061999999991,0.0003092,0,sub_3
0.0022327999999997,0.0009040000000012,-0.0071943999999999,0.0003368000000004,-0.001186999999999,0.0003018,0,sub_3
0.0023397999999997,0.0015770000000012,-0.0067545999999999,0.0003388000000003,-0.000760799999999,0.0003012,0,sub_3
0.0018903999999997,0.0019190000000012,-0.0062495999999999,0.0005522000000003,-0.000973799999999,8.940000000007078e-05,0,sub_3
0.0021599999999997,0.0017274000000012,-0.0061013999999999,0.0003398000000003,-0.000972199999999,-0.0001257999999999,0,sub_3
0.0023043999999997,0.0018268000000012,-0.0063129999999999,0.0003304000000003,-0.000733799999999,-0.0001337999999999,0,sub_3
0.0024071999999997,0.0012706000000012,-0.0064979999999999,0.0005306000000003,-0.0009239999999991,0.0002874,0,sub_3
0.0027133999999997,0.0006842000000012,-0.0070799999999999,0.0007288000000003,-0.0015403999999991,0.0007092,0,sub_3
0.0032627999999997,0.0005872000000012,-0.0072443999999999,0.0005042000000003,-0.0015151999999991,0.0009136,0,sub_3
0.0032339999999997,0.0004880000000012,-0.0073763999999999,0.0007072000000003,-0.0012785999999991,0.0011208,0,sub_3
