userAcceleration.x,userAcceleration.y,userAcceleration.z,rotationRate.x,rotationRate.y,rotationRate.z,label,subject
0.0079829999999997,-0.0036187999999987,-0.0015967999999999,-0.0017553999999995,-0.0117191999999991,-0.0035495999999999,0,sub_24
0.0066545999999997,-0.0032011999999987,-0.0027401999999999,-0.0004611999999995,-0.0078919999999991,-0.0029045999999999,0,sub_24
0.0033505999999997,-0.0030317999999987,-0.0025515999999999,0.0004194000000004,0.0008286000000008,-0.0009845999999999,0,sub_24
0.0018547999999997,-0.0015375999999988,-0.0028965999999999,0.0008752000000004,0.0099768000000008,0.0009318,0,sub_24
0.0004897999999997,0.0001882000000011,-0.0038533999999999,0.0002328000000004,0.0116738000000008,0.002423,0,sub_24
-0.0004350000000002,0.0016808000000011,-0.0048275999999999,-0.0008561999999995,0.0067766000000008,0.0017832,0,sub_24
-0.0004766000000002,0.0027590000000011,-0.0045889999999999,-0.0017411999999995,-0.002373999999999,-0.0009861999999999,0,sub_24
0.0007051999999997,0.0024202000000011,-0.0043519999999999,-0.0022135999999995,-0.015145399999999,-0.0035367999999998,0,sub_24
0.0013863999999997,0.0009182000000012,-0.0034617999999999,-0.0026679999999995,-0.022807799999999,-0.0050255999999998,0,sub_24
0.0025769999999997,-0.0004375999999987,-0.0020501999999999,-0.0022479999999995,-0.023239599999999,-0.0039539999999998,0,sub_24
0.0042527999999997,-0.0015263999999987,-0.0013795999999999,-0.0018303999999995,-0.022189599999999,-0.0013859999999999,0,sub_24
0.0066853999999997,-0.0018409999999987,-0.0014747999999999,-0.0020511999999995,-0.019862799999999,0.0020304,0,sub_24
0.0081487999999997,-0.0015227999999987,-0.0011383999999999,-0.0020411999999995,-0.015611599999999,0.0035232,0,sub_24
0.0078471999999997,-0.0007591999999988,-0.0003971999999999,-0.0007421999999995,-0.010720599999999,0.0037424,0,sub_24
0.0055243999999997,-0.0011537999999988,-0.0004527999999999,0.0014284000000004,-0.002633199999999,0.003109,0,sub_24
0.0030831999999997,-0.0015955999999988,-0.0002023999999999,0.0042520000000004,0.0084356000000009,0.0031144,0,sub_24
0.0005627999999997,-0.0018611999999988,-0.0010437999999999,0.0072822000000004,0.0184372000000008,0.00355,0,sub_24
-0.0005736000000002,-0.0020291999999988,-0.0026369999999998,0.0096530000000004,0.0254534000000008,0.0052666,0,sub_24
-1.7400000000222793e-05,-0.0017999999999987,-0.0047141999999998,0.0105150000000004,0.0297026000000008,0.0076172,0,sub_24
0.0014139999999997,-0.0001463999999987,-0.0058937999999998,0.0092306000000004,0.0299166000000008,0.0084652,0,sub_24
0.0023023999999997,0.0021916000000012,-0.0070481999999998,0.0070814000000004,0.0254550000000008,0.007177,0,sub_24
0.0019785999999997,0.0034598000000012,-0.0072935999999998,0.0042836000000004,0.0178050000000008,0.0046064,0,sub_24
0.0015645999999997,0.0032304000000012,-0.0070363999999998,0.0014896000000004,0.0110072000000009,0.0020348,0,sub_24
0.0003137999999997,0.0025492000000012,-0.0061321999999998,-0.0004539999999995,0.0044162000000009,0.0003234,0,sub_24
-0.0001282000000002,0.0012320000000012,-0.0058443999999998,-0.0006891999999995,-0.000907199999999,-9.859999999994127e-05,0,sub_24
0.0005733999999997,-0.0004773999999987,-0.0050045999999998,0.0005814000000004,-0.001556399999999,0.0014066,0,sub_24
0.0012921999999997,-0.0019693999999987,-0.0037993999999998,0.0020804000000004,0.0022642000000009,0.003978,0,sub_24
0.0015047999999997,-0.0023941999999987,-0.0031395999999999,0.0033754000000004,0.0084282000000009,0.0067586,0,sub_24
0.0020153999999997,-0.0023789999999987,-0.0031141999999999,0.0042456000000004,0.0133222000000009,0.0078286,0,sub_24
0.0024877999999997,-0.0017715999999987,-0.0033209999999999,0.0040384000000004,0.0150276000000009,0.0080406,0,sub_24
0.0023453999999997,-0.0012373999999987,-0.0040755999999999,0.0025444000000004,0.0137606000000009,0.006752,0,sub_24
0.0029755999999997,-0.0007829999999988,-0.0042481999999999,0.0016898000000004,0.0124896000000009,0.0056794,0,sub_24
0.0035721999999997,4.56000000011946e-05,-0.0041811999999999,0.0008354000000004,0.0107942000000009,0.00418,0,sub_24
0.0040021999999997,0.0010370000000011,-0.0037989999999999,0.0002002000000003,0.0108006000000008,0.0031074,0,sub_24
0.0038015999999997,0.0015258000000011,-0.0034233999999998,0.0006342000000003,0.0112310000000008,0.0020444,0,sub_24
0.0039203999999997,0.0022606000000011,-0.0029567999999998,0.0010606000000003,0.0101694000000008,0.0011968,0,sub_24
0.0036065999999997,0.0022208000000011,-0.0031759999999998,0.0014802000000003,0.0074042000000008,0.0001378,0,sub_24
0.0032529999999997,0.0021370000000011,-0.0033989999999998,0.0018970000000003,0.0050608000000008,0.0001464,0,sub_24
0.0030649999999997,0.0009038000000011,-0.0037983999999998,0.0023186000000003,0.0046316000000008,0.0010072,0,sub_24
0.0028683999999997,-0.0001335999999987,-0.0040295999999998,0.0023138000000003,0.0042030000000009,0.0016486,0,sub_24
0.0017363999999997,-0.0014179999999987,-0.0044769999999998,0.0020926000000003,0.0027118000000009,0.0018626,0,sub_24
0.0015379999999997,-0.0014665999999987,-0.0045397999999998,0.0012372000000003,0.0020768000000009,0.0016438,0,sub_24
0.0008967999999997,-0.0027123999999987,-0.0041487999999999,0.0014610000000003,0.0027242000000009,0.0001518,0,sub_24
0.0005399999999997,-0.0029739999999987,-0.0035463999999999,0.0025266000000003,0.0010242000000009,-0.0011177999999999,0,sub_24
0.0006909999999997,-0.0029609999999987,-0.0025959999999999,0.0038162000000004,0.0029402000000009,-0.0011083999999999,0,sub_24
0.0014511999999997,-0.0026749999999987,-0.0021533999999999,0.0055432000000004,0.0076224000000009,-0.0006723999999999,0,sub_24
0.0013249999999997,-0.0028325999999987,-0.0021099999999999,0.0072682000000004,0.0123030000000009,0.0001908,0,sub_24
0.0026055999999997,-0.0018561999999987,-0.0031691999999999,0.0079110000000004,0.0146378000000009,0.0019014,0,sub_24
0.0035205999999997,-0.0011507999999987,-0.0045167999999999,0.0066394000000004,0.0169842000000009,0.0023168,0,sub_24
0.0044939999999997,0.0007444000000011,-0.0053477999999999,0.0049240000000004,0.0140118000000009,0.0012404,0,sub_24
0.0043075999999997,0.0020822000000011,-0.0059795999999999,0.0023398000000004,0.0074264000000009,0.0001652,0,sub_24
0.0040487999999997,0.0032700000000011,-0.0060603999999998,-3.4799999999582215e-05,-0.000436599999999,-0.0013341999999999,0,sub_24
0.0031337999999997,0.0039944000000011,-0.0049985999999998,-0.0024033999999995,-0.007021199999999,-0.0028351999999999,0,sub_24
0.0025587999999997,0.0039108000000011,-0.0036869999999998,-0.0041253999999995,-0.010418999999999,-0.0026265999999999,0,sub_24
0.0022147999999997,0.0021094000000012,-0.0036849999999998,-0.0045575999999995,-0.011266199999999,-0.0019851999999999,0,sub_24
0.0030149999999997,0.0003674000000012,-0.0034441999999998,-0.0047755999999995,-0.011269599999999,-0.0009185999999999,0,sub_24
0.0032731999999997,-0.0011169999999987,-0.0034641999999999,-0.0049965999999995,-0.011699799999999,0.0003622,0,sub_24
0.0031363999999997,-0.0025491999999987,-0.0040961999999999,-0.0052111999999995,-0.010850999999999,0.0014276,0,sub_24
0.0021383999999997,-0.0031567999999987,-0.0047705999999999,-0.0054219999999995,-0.010419199999999,0.0014272,0,sub_24
0.0012257999999997,-0.0028833999999987,-0.0051695999999999,-0.0060597999999995,-0.010834399999999,0.0005704,0,sub_24
0.0003799999999997,-0.0024671999999987,-0.0055077999999999,-0.0056267999999995,-0.011249999999999,-0.0011335999999999,0,sub_24
0.0002581999999997,-0.0021533999999987,-0.0059331999999999,-0.0047583999999995,-0.009749599999999,-0.0028369999999999,0,sub_24
0.0002451999999997,-0.0011867999999988,-0.0051053999999999,-0.0032497999999995,-0.008251399999999,-0.0045357999999999,0,sub_24
0.0017449999999997,0.0002030000000011,-0.0045405999999999,-0.0017523999999995,-0.008889399999999,-0.0060201999999999,0,sub_24
0.0030331999999997,0.0010666000000011,-0.0041121999999998,-0.0011149999999995,-0.010167399999999,-0.0066549999999999,0,sub_24
0.0042541999999997,0.0015066000000011,-0.0033287999999998,-0.0011109999999995,-0.009315199999999,-0.0066557999999999,0,sub_24
0.0044855999999997,0.0014708000000011,-0.0028619999999998,-0.0013217999999995,-0.007189599999999,-0.0049495999999999,0,sub_24
0.0046015999999997,0.0009138000000011,-0.0025049999999998,-0.0017477999999995,-0.004852799999999,-0.0026043999999999,0,sub_24
0.0040877999999997,-6.599999999880534e-05,-0.0032049999999998,-0.0021759999999995,-0.003154199999999,-0.0004719999999999,0,sub_24
0.0033833999999997,-0.0006825999999988,-0.0042011999999999,-0.0032413999999995,-0.002087399999999,0.0003748,0,sub_24
0.0022865999999997,-0.0011661999999987,-0.0046967999999999,-0.0041001999999995,-0.003573599999999,0.000158,0,sub_24
0.0014495999999997,-0.0009505999999987,-0.0030099999999999,-0.0038943999999995,-0.006976199999999,-0.0015453999999999,0,sub_24
0.0008389999999997,-0.0007845999999987,-0.0030863999999999,-0.0032515999999995,-0.007612199999999,-0.0028217999999999,0,sub_24
0.0001245999999997,-0.0008965999999987,-0.0025323999999999,-0.0017397999999995,-0.003144799999999,-0.0023895999999999,0,sub_24
0.0001821999999997,-0.0013329999999987,-0.0014655999999998,0.0004180000000004,0.0038744000000009,-0.0006737999999999,0,sub_24
0.0012691999999997,-0.0017515999999987,-0.0017439999999998,0.0025700000000004,0.0106762000000009,0.0021104,0,sub_24
0.0024897999999997,-0.0025159999999987,-0.0040677999999998,0.0034368000000004,0.0155684000000009,0.0040334,0,sub_24
0.0029613999999997,-0.0024753999999987,-0.0051167999999998,0.0025814000000004,0.0153600000000009,0.0042416,0,sub_24
0.0036069999999997,-0.0016313999999987,-0.0057485999999998,0.0008582000000004,0.0098368000000009,0.0023142,0,sub_24
0.0030993999999997,1.1200000001194802e-05,-0.0061539999999999,-0.0010861999999995,0.0021832000000009,-3.959999999992147e-05,0,sub_24
0.0021665999999997,0.0018312000000011,-0.0052723999999999,-0.0030225999999995,-0.003978199999999,-0.0026087999999999,0,sub_24
0.0022865999999997,0.0031462000000011,-0.0040855999999999,-0.0045291999999995,-0.008016599999999,-0.0036821999999999,0,sub_24
0.0032897999999997,0.0036558000000011,-0.0033013999999999,-0.0045349999999995,-0.009506399999999,-0.0038935999999999,0,sub_24
0.0040631999999997,0.0031124000000011,-0.0022017999999999,-0.0036795999999995,-0.008021599999999,-0.0028209999999999,0,sub_24
0.0048963999999997,0.0014938000000012,-0.0014801999999999,-0.0026079999999995,-0.005262199999999,-0.0011077999999999,0,sub_24
0.0051097999999997,7.000000000121488e-05,-0.0020397999999999,-0.0015359999999995,-0.002501799999999,0.0003916,0,sub_24
0.0038189999999997,-0.0016807999999987,-0.0028349999999999,-0.0008859999999995,0.0006890000000009,0.0012466,0,sub_24
0.0024551999999997,-0.0033955999999987,-0.0029743999999999,-0.0008737999999995,0.0043076000000009,0.0020964,0,sub_24
0.0013613999999997,-0.0039593999999987,-0.0036031999999999,-0.0010819999999995,0.0051624000000009,0.0016664,0,sub_24
0.0009247999999997,-0.0033805999999987,-0.0041557999999999,-0.0012967999999995,0.0038896000000009,0.000598,0,sub_24
0.0001601999999997,-0.0025189999999987,-0.0039813999999999,-0.0015119999999995,0.0028292000000009,-0.0002569999999999,0,sub_24
0.0008049999999997,-0.0009769999999987,-0.0038579999999999,-0.0015155999999995,0.0017662000000009,-0.0006831999999999,0,sub_24
0.0019519999999997,0.0005782000000012,-0.0039433999999999,-0.0008885999999995,-0.001217599999999,-0.0008887999999999,0,sub_24
0.0024549999999997,0.0017496000000012,-0.0039633999999999,-0.0011127999999995,-0.003135599999999,-0.0004607999999999,0,sub_24
0.0025561999999997,0.0022936000000012,-0.0039359999999999,-0.0013341999999995,-0.004202399999999,0.00018,0,sub_24
0.0037159999999997,0.0020430000000012,-0.0036105999999999,-0.0011301999999995,-0.005272799999999,0.001251,0,sub_24
0.0039929999999997,0.0016764000000012,-0.0026085999999999,-0.0009243999999995,-0.006129399999999,0.0021082,0,sub_24
0.0035513999999997,0.0010960000000012,-0.0028491999999999,-0.0013519999999995,-0.006128799999999,0.0023188,0,sub_24
0.0030819999999997,0.0006614000000012,-0.0034771999999999,-0.0017771999999995,-0.006124999999999,0.0018884,0,sub_24
0.0026439999999997,-3.819999999878517e-05,-0.0035375999999998,-0.0022033999999995,-0.007182999999999,0.0006048,0,sub_24
0.0009497999999997,-0.0006257999999987,-0.0031891999999998,-0.0019873999999995,-0.008453399999999,-0.0013149999999999,0,sub_24
-7.040000000024305e-05,-0.0018535999999987,-0.0032041999999998,-0.0013333999999995,-0.005895399999999,-0.0019547999999999,0,sub_24
-0.0004576000000002,-0.0019001999999987,-0.0026941999999998,-3.439999999958216e-05,-0.000788999999999,-0.0010977999999999,0,sub_24
5.2999999999776926e-05,-0.0019499999999987,-0.0017455999999998,0.0016868000000004,0.0040988000000009,0.000617,0,sub_24
0.0011259999999997,-0.0020837999999987,-0.0017475999999998,0.0036176000000003,0.0087700000000009,0.0029744,0,sub_24
0.0028215999999997,-0.0017005999999987,-0.0030257999999999,0.0038432000000003,0.0132366000000009,0.0046794,0,sub_24
0.0042223999999997,0.0005180000000012,-0.0036927999999999,0.0025602000000003,0.0121784000000009,0.0042446,0,sub_24
0.0046193999999997,0.0017148000000012,-0.0040557999999999,0.0006198000000003,0.0055900000000009,0.0021032,0,sub_24
0.0041285999999997,0.0025442000000012,-0.0043535999999999,-0.0015471999999996,-0.003980599999999,-3.579999999994126e-05,0,sub_24
0.0030797999999997,0.0032924000000012,-0.0042247999999999,-0.0037085999999995,-0.011848199999999,-0.0017497999999999,0,sub_24
0.0020611999999997,0.0031806000000012,-0.0038007999999999,-0.0045819999999995,-0.016954799999999,-0.0023899999999999,0,sub_24
0.0011137999999997,0.0019030000000012,-0.0034625999999999,-0.0033045999999995,-0.017173799999999,-0.0019533999999999,0,sub_24
0.0015965999999997,0.0001650000000012,-0.0034631999999999,-0.0009431999999995,-0.013137399999999,-0.0010875999999999,0,sub_24
0.0014323999999997,-0.0013093999999987,-0.0031029999999999,0.0018564000000004,-0.006757799999999,-0.0004353999999999,0,sub_24
0.0026687999999997,-0.0028469999999987,-0.0032811999999999,0.0035912000000004,5.2600000000914936e-05,0.000209,0,sub_24
0.0022129999999997,-0.0032821999999987,-0.0036971999999999,0.0057402000000004,0.0040918000000009,0.0008596,0,sub_24
0.0011767999999997,-0.0030579999999987,-0.0046639999999998,0.0057468000000004,0.0060090000000009,0.0012844,0,sub_24
-0.0003208000000002,-0.0026521999999987,-0.0047615999999998,0.0044714000000004,0.0081414000000009,0.002341,0,sub_24
0.0006247999999997,-0.0013805999999987,-0.0048263999999998,0.0038304000000004,0.0087808000000009,0.0031904,0,sub_24
2.539999999975669e-05,0.0003046000000012,-0.0043915999999998,0.0038256000000004,0.0083526000000009,0.0038318,0,sub_24
0.0020975999999997,0.0008418000000012,-0.0036047999999998,0.0029778000000004,0.0109074000000009,0.0051046,0,sub_24
0.0039295999999997,0.0010400000000012,-0.0024359999999999,0.0040554000000003,0.0149448000000009,0.0068162,0,sub_24
0.0045445999999997,0.0019816000000012,-0.0019975999999999,0.0057696000000003,0.0179166000000008,0.0083202,0,sub_24
0.0044601999999997,0.0021492000000012,-0.0019835999999999,0.0057826000000003,0.0215360000000008,0.0091706,0,sub_24
0.0046295999999997,0.0021282000000012,-0.0017251999999999,0.0057890000000003,0.0226030000000008,0.008956,0,sub_24
0.0041247999999997,0.0026064000000012,-0.0022627999999999,0.0057754000000003,0.0172860000000008,0.0068266,0,sub_24
0.0034355999999997,0.0026552000000012,-0.0032455999999999,0.0049014000000004,0.0096320000000009,0.0038396,0,sub_24
0.0031825999999997,0.0013486000000012,-0.0041149999999999,0.0029708000000004,0.0049610000000009,0.0014822,0,sub_24
0.0024245999999997,4.800000000121478e-05,-0.0049431999999999,0.0012696000000004,0.0051846000000009,0.0004018,0,sub_24
0.0013615999999997,-0.0007633999999987,-0.0050805999999999,0.0006400000000004,0.0071062000000009,-3.2399999999921166e-05,0,sub_24
0.0002477999999997,-0.0016641999999987,-0.0044695999999999,0.0006502000000004,0.0094510000000009,0.0001786,0,sub_24
1.7999999997565754e-06,-0.0022517999999987,-0.0035407999999999,0.0008728000000004,0.0124308000000009,0.0012446,0,sub_24
0.0007825999999997,-0.0024541999999987,-0.0025025999999998,0.0028042000000004,0.0164670000000009,0.0029622,0,sub_24
0.0016597999999997,-0.0027181999999987,-0.0019743999999998,0.0053614000000004,0.0177296000000009,0.005115,0,sub_24
0.0027505999999997,-0.0029625999999987,-0.0034513999999998,0.0062106000000003,0.0192096000000009,0.007683,0,sub_24
0.0038129999999997,-0.0030381999999987,-0.0049085999999998,0.0059970000000003,0.0209080000000009,0.0093882,0,sub_24
0.0038699999999997,-0.0021381999999987,-0.0058935999999998,0.0051396000000003,0.0194224000000009,0.0087432,0,sub_24
0.0044535999999997,-0.0003317999999987,-0.0061039999999999,0.0029878000000003,0.0119868000000009,0.0053194,0,sub_24
0.0050129999999997,0.0013490000000012,-0.0060187999999999,0.0006150000000003,0.0017870000000009,0.0010432,0,sub_24
0.0047871999999997,0.0025058000000012,-0.0048651999999999,-4.319999999960226e-05,-0.006926599999999,-0.0034365999999999,0,sub_24
0.0044693999999997,0.0030716000000012,-0.0029793999999999,-0.0002591999999995,-0.010322999999999,-0.0059971999999999,0,sub_24
0.0046545999999997,0.0020924000000012,-0.0017017999999999,0.0008126000000004,-0.009473199999999,-0.0059905999999999,0,sub_24
0.0043815999999997,0.0005422000000012,-0.0014815999999999,0.0025272000000004,-0.005439999999999,-0.0034197999999999,0,sub_24
0.0037037999999997,-0.0005903999999987,-0.0011453999999999,0.0031902000000004,0.0024296000000009,-0.0006477999999999,0,sub_24
0.0046615999999997,-0.0017597999999987,-0.0016181999999999,0.0034112000000004,0.0060430000000009,0.001272,0,sub_24
0.0045885999999997,-0.0024071999999987,-0.0025179999999999,0.0036206000000004,0.0062510000000009,0.0023414,0,sub_24
0.0041285999999997,-0.0031337999999987,-0.0031097999999999,0.0023458000000004,0.0075348000000009,0.0025446,0,sub_24
0.0029475999999997,-0.0030831999999987,-0.0036385999999999,0.0012912000000003,0.0094606000000009,0.0018938,0,sub_24
0.0015405999999997,-0.0030405999999987,-0.0043579999999999,0.0012920000000003,0.0088262000000009,0.0012536,0,sub_24
-0.0001660000000002,-0.0020195999999987,-0.0043683999999999,0.0004354000000003,0.0084038000000009,0.0016754,0,sub_24
-0.0005478000000002,-0.0007553999999987,-0.0049045999999998,-0.0012801999999996,0.0067060000000009,0.002093,0,sub_24
0.0003921999999997,0.0011252000000012,-0.0049877999999998,-0.0021631999999995,0.0001048000000009,0.0020952,0,sub_24
0.0017669999999997,0.0022856000000012,-0.0046971999999998,-0.0032653999999995,-0.008835199999999,0.0010308,0,sub_24
0.0024983999999997,0.0036404000000012,-0.0044269999999998,-0.0045557999999995,-0.013296199999999,-0.0011087999999999,0,sub_24
0.0016741999999997,0.0039002000000012,-0.0037147999999998,-0.0051735999999995,-0.011576599999999,-0.0041063999999999,0,sub_24
0.0020411999999997,0.0025204000000012,-0.0031797999999999,-0.0053763999999995,-0.011990799999999,-0.0066711999999999,0,sub_24
0.0011435999999997,0.0016272000000012,-0.0041003999999998,-0.0049573999999995,-0.016454999999999,-0.0092263999999999,0,sub_24
0.0001965999999997,0.0010148000000012,-0.0043689999999998,-0.0045537999999995,-0.023478999999999,-0.0109239999999999,0,sub_24
0.0004929999999997,-0.0003801999999987,-0.0041353999999998,-0.0039455999999995,-0.030935799999999,-0.0111241999999999,0,sub_24
0.0017999999999997,-0.0019033999999987,-0.0033691999999999,-0.0039649999999995,-0.034559999999999,-0.0104787999999999,0,sub_24
0.0014165999999997,-0.0018073999999987,-0.0017117999999999,-0.0028801999999995,-0.030303199999999,-0.0102631999999999,0,sub_24
0.0023549999999997,-0.0022665999999987,-0.0001621999999999,-0.0026295999999995,-0.020509599999999,-0.0087785999999999,0,sub_24
0.0032891999999997,-0.0030987999999987,0.0008774,-0.0021521999999995,-0.005824399999999,-0.0053767999999999,0,sub_24
0.0037729999999997,-0.0034411999999987,0.0003022,-0.0014661999999995,0.0080070000000008,-0.0017587999999999,0,sub_24
0.0043449999999997,-0.0027511999999987,-0.0007523999999999,-0.0001639999999996,0.0165098000000008,0.0018702,0,sub_24
0.0048453999999997,-0.0022169999999987,-0.0026901999999998,0.0002570000000003,0.0179884000000008,0.0046478,0,sub_24
0.0045005999999997,-0.0008685999999987,-0.0035585999999998,3.3200000000397754e-05,0.0160700000000008,0.0050752,0,sub_24
0.0041653999999997,0.0009598000000012,-0.0047223999999998,-0.0006249999999996,0.0096900000000009,0.0027288,0,sub_24
0.0038621999999997,0.0023612000000012,-0.0042685999999998,-0.0015003999999995,0.0018218000000009,-0.0002579999999999,0,sub_24
0.0032445999999997,0.0032142000000012,-0.0041163999999998,-0.0023717999999995,-0.005618399999999,-0.0036725999999999,0,sub_24
0.0033019999999997,0.0041300000000012,-0.0034695999999999,-0.0032329999999995,-0.009230999999999,-0.0055979999999999,0,sub_24
0.0036147999999997,0.0038096000000012,-0.0032503999999999,-0.0030205999999995,-0.009658399999999,-0.0058107999999999,0,sub_24
0.0033567999999997,0.0026682000000012,-0.0032685999999999,-0.0025861999999995,-0.007319999999999,-0.0051711999999999,0,sub_24
0.0031821999999997,0.0013548000000012,-0.0031273999999999,-0.0015079999999995,-0.0037071999999991,-0.0041013999999999,0,sub_24
0.0032179999999997,-0.0001939999999987,-0.0028339999999999,-0.0006471999999995,-0.0003093999999991,-0.0023919999999999,0,sub_24
0.0026239999999997,-0.0019699999999987,-0.0037135999999999,-0.0006415999999995,0.0020300000000008,-0.0013267999999999,0,sub_24
0.0022171999999997,-0.0032317999999987,-0.0043841999999999,-0.0006381999999995,0.0039434000000008,-0.0002611999999999,0,sub_24
0.0021129999999997,-0.0035429999999987,-0.0046467999999999,-0.0008547999999995,0.0047906000000008,0.0012316,0,sub_24
0.0015675999999997,-0.0032277999999987,-0.0046359999999999,-0.0015019999999995,0.0043608000000009,0.00208,0,sub_24
0.0017085999999997,-0.0024197999999987,-0.0050759999999999,-0.0019375999999995,0.0030798000000009,0.0025038,0,sub_24
0.0020999999999997,-0.0010943999999987,-0.0046169999999999,-0.0013033999999995,0.0022220000000009,0.002721,0,sub_24
0.0020031999999997,0.0002828000000012,-0.0043829999999998,-0.0008803999999995,0.0011544000000009,0.002296,0,sub_24
0.0019593999999997,0.0009448000000012,-0.0041321999999998,-0.0002401999999995,8.920000000095449e-05,0.0010182,0,sub_24
0.0025399999999997,0.0016354000000012,-0.0045097999999998,0.0006124000000004,-0.000975599999999,0.0001712,0,sub_24
0.0026691999999997,0.0015564000000011,-0.0039371999999998,0.0014660000000004,-0.001190799999999,-3.599999999992142e-05,0,sub_24
0.0028107999999997,0.0016186000000011,-0.0036413999999998,0.0018958000000004,-0.000553199999999,-3.379999999994139e-05,0,sub_24
0.0031881999999997,0.0015562000000011,-0.0031357999999998,0.0014672000000004,8.320000000093444e-05,0.0010308,0,sub_24
0.0034259999999997,0.0020476000000011,-0.0030383999999998,0.0003982000000004,0.0002962000000009,0.0014482,0,sub_24
0.0037919999999997,0.0016636000000011,-0.0034453999999998,-0.0013115999999995,-0.000338399999999,0.0012214,0,sub_24
0.0034557999999997,0.0016426000000011,-0.0047701999999998,-0.0032339999999995,-0.001607799999999,0.0001394,0,sub_24
0.0030883999999997,0.0009190000000011,-0.0048005999999999,-0.0045257999999995,-0.005222199999999,-0.0011487999999999,0,sub_24
0.0023423999999997,-1.0999999998785246e-05,-0.0041429999999999,-0.0043183999999995,-0.007775799999999,-0.0026417999999999,0,sub_24
0.0013527999999997,-0.0009851999999987,-0.0032051999999999,-0.0034553999999995,-0.005011599999999,-0.0019983999999999,0,sub_24
0.0004365999999997,-0.0015175999999987,-0.0022153999999999,-0.0015169999999995,0.0009398000000009,-6.979999999992166e-05,0,sub_24
0.0006501999999997,-0.0020539999999987,-0.0013159999999999,0.0004196000000004,0.0066754000000009,0.0018578,0,sub_24
0.0011399999999997,-0.0024863999999987,-0.0018915999999999,0.0019284000000004,0.0124116000000009,0.003996,0,sub_24
0.0019131999999997,-0.0021425999999987,-0.0034461999999999,0.0023666000000004,0.0156018000000009,0.004421,0,sub_24
0.0031805999999997,-0.0013979999999987,-0.0046743999999998,0.0019304000000004,0.0124102000000009,0.003139,0,sub_24
0.0036051999999997,-0.0007451999999987,-0.0051451999999998,0.0002004000000004,0.0049670000000009,0.0005714,0,sub_24
0.0032507999999997,0.0004014000000012,-0.0051501999999998,-0.0013209999999995,-0.002903799999999,-0.0011383999999999,0,sub_24
