userAcceleration.x,userAcceleration.y,userAcceleration.z,rotationRate.x,rotationRate.y,rotationRate.z,label,subject
0.0009449999999998,0.0505886000000012,-0.0027735999999999,0.0063060000000003,-0.002369799999999,0.0009362000000001,0,sub_15
0.0007697999999998,0.0496672000000012,-0.0036809999999999,0.0058922000000003,-0.001297399999999,0.0007226000000001,0,sub_15
0.0007519999999998,0.0497544000000012,-0.0038683999999999,0.0059020000000003,-0.000865599999999,0.0005126000000001,0,sub_15
0.0010537999999997,0.0493316000000012,-0.0041199999999999,0.0050584000000003,-0.001067399999999,-0.0003433999999998,0,sub_15
0.0019451999999997,0.0489684000000012,-0.0040091999999999,0.0040014000000003,-0.001056399999999,-0.0009875999999998,0,sub_15
0.0021273999999997,0.0491652000000012,-0.0042981999999999,0.0023000000000003,-0.000408799999999,-0.0016411999999998,0,sub_15
0.0019199999999997,0.0490852000000012,-0.0043785999999999,0.0003806000000003,-0.000613399999999,-0.0020815999999998,0,sub_15
0.0017895999999997,0.0488850000000012,-0.0039403999999999,-0.0017539999999996,-0.000606799999999,-0.0018827999999998,0,sub_15
0.0010289999999998,0.0496608000000012,-0.0025771999999999,-0.0026153999999996,0.0004572000000009,-0.0010307999999998,0,sub_15
0.0003293999999997,0.0503736000000012,-0.0029981999999999,-0.0024117999999996,0.0010912000000009,-0.0001707999999998,0,sub_15
0.0002313999999997,0.0506336000000012,-0.0028293999999999,-0.0015669999999996,0.0012994000000009,5.320000000015599e-05,0,sub_15
0.0008431999999997,0.0509962000000012,-0.0027515999999999,-0.0005099999999996,0.0012938000000009,0.0002790000000001,0,sub_15
0.0009517999999997,0.0514680000000012,-0.0016991999999999,0.0014034000000003,0.0012878000000009,-0.0001301999999998,0,sub_15
0.0011639999999997,0.0511726000000012,-0.0014825999999999,0.0039688000000003,0.0017074000000009,-0.0007537999999998,0,sub_15
0.0009993999999997,0.0507054000000012,-0.0012795999999999,0.0054672000000003,0.0021310000000009,-0.0013847999999998,0,sub_15
0.0012059999999997,0.0502866000000012,-0.0022095999999999,0.0061054000000003,0.0019150000000009,-0.0011663999999998,0,sub_15
0.0009487999999997,0.0503348000000012,-0.0020079999999999,0.0060970000000003,0.0021270000000009,-0.0011623999999998,0,sub_15
0.0009173999999997,0.0502800000000012,-0.0025849999999999,0.0056608000000003,0.0023396000000008,-0.0009477999999998,0,sub_15
0.0006679999999998,0.0504728000000012,-0.0036861999999999,0.0041510000000003,0.0010646000000009,-0.0007385999999998,0,sub_15
0.0008397999999997,0.0507378000000012,-0.0041915999999999,0.0026432000000003,3.400000000913241e-06,-0.0007433999999998,0,sub_15
0.0008535999999997,0.0509736000000012,-0.0032217999999999,0.0024184000000003,-0.000423199999999,-0.0007399999999998,0,sub_15
0.0006863999999997,0.0508932000000012,-0.0031449999999998,0.0028402000000003,-0.001277799999999,-0.0005223999999998,0,sub_15
0.0012271999999997,0.0503856000000012,-0.0030003999999998,0.0028392000000003,-0.001702999999999,-0.0007353999999998,0,sub_15
0.0022669999999997,0.0492334000000012,-0.0035037999999998,0.0024106000000003,-0.001703199999999,-0.0003111999999998,0,sub_15
0.0020823999999998,0.0497108000000012,-0.0029331999999998,0.0017602000000003,-0.001493999999999,-9.999999999984408e-05,0,sub_15
0.0020787999999998,0.0505104000000012,-0.0032339999999998,0.0011108000000003,-0.000859399999999,0.0003242000000001,0,sub_15
0.0022747999999998,0.0508064000000012,-0.0037201999999998,0.0002452000000003,-0.001075599999999,0.0005344000000001,0,sub_15
0.0017783999999998,0.0511428000000012,-0.0042109999999998,0.0002274000000003,-0.001936399999999,0.0013922000000001,0,sub_15
0.0009117999999998,0.0517548000000012,-0.0035591999999998,0.0010744000000003,-0.001092399999999,0.0013994000000001,0,sub_15
0.0010825999999997,0.0511514000000012,-0.0039725999999998,0.0019260000000003,-0.001096999999999,0.0018326000000001,0,sub_15
0.0012041999999998,0.0502060000000012,-0.0030049999999999,0.0023518000000003,-0.001523799999999,0.0016224000000001,0,sub_15
0.0016009999999997,0.0489124000000012,-0.0013031999999999,0.0034274000000003,-0.000246599999999,0.0009874000000001,0,sub_15
0.0005697999999997,0.0493178000000012,-0.0020133999999999,0.0023662000000003,0.0012476000000009,0.0011918000000001,0,sub_15
0.0005957999999997,0.0497744000000012,-0.0014899999999999,0.0017068000000003,-3.419999999906683e-05,0.0011910000000001,0,sub_15
0.0007605999999997,0.0498762000000012,-0.0004239999999999,0.0021208000000003,-0.000464999999999,0.0005556000000001,0,sub_15
0.0008275999999997,0.0501292000000012,-0.0013147999999999,0.0023206000000003,-0.000683799999999,0.0003458000000001,0,sub_15
0.0003581999999998,0.0515094000000012,-0.0032801999999999,0.0016600000000003,-0.001966399999999,0.0005586000000001,0,sub_15
0.0011973999999998,0.0507022000000012,-0.0031193999999999,0.0024970000000003,-0.003675199999999,-0.0004995999999998,0,sub_15
0.0022211999999998,0.0492918000000012,-0.0026269999999999,0.0029284000000003,-0.003247999999999,-0.0011381999999998,0,sub_15
0.0015983999999998,0.0491702000000012,-0.0038499999999999,0.0012176000000003,-0.004094399999999,-0.0011489999999998,0,sub_15
0.0007297999999998,0.0492940000000012,-0.0042955999999998,-0.0005137999999996,-0.006649399999999,-0.0009409999999998,0,sub_15
0.0032497999999998,0.0471786000000012,-0.0018943999999999,-0.0005217999999996,-0.006437399999999,-0.0015791999999998,0,sub_15
0.0031137999999997,0.0492356000000012,-0.0004473999999999,-0.0020253999999996,-0.006434199999999,-0.0020137999999998,0,sub_15
0.0033199999999997,0.0475888000000012,-0.0034285999999999,-0.0056721999999996,-0.008129599999999,-0.0020339999999998,0,sub_15
0.0064629999999997,0.0474124000000012,-0.0043269999999999,-0.0067595999999996,-0.008985799999999,-0.0009691999999998,0,sub_15
0.0021567999999997,0.0505296000000012,-0.0050327999999999,-0.0071643999999996,-0.005144999999999,-0.0020451999999998,0,sub_15
0.0022039999999997,0.0506642000000012,-0.0077017999999999,-0.0112395999999996,-0.009181399999999,-0.0014275999999998,0,sub_15
0.0008885999999998,0.0511586000000012,-0.0069277999999999,-0.0127591999999996,-0.014504199999999,-0.0010041999999998,0,sub_15
0.0001789999999998,0.0549296000000012,-0.0035853999999999,-0.0104475999999996,-0.018567999999999,-0.0005517999999998,0,sub_15
-0.0024242000000001,0.0564338000000012,-0.0005585999999999,-0.0079081999999996,-0.020285599999999,-0.0009555999999998,0,sub_15
0.0037657999999998,0.0531204000000012,0.0035976,-0.0023653999999996,-0.017967399999999,-0.0009161999999998,0,sub_15
0.0036791999999998,0.0531286000000012,0.0033692,0.0072784000000003,-0.006072399999999,-0.0017149999999998,0,sub_15
0.0065433999999997,0.0505976000000012,-0.0022715999999999,0.0109316000000003,0.0011606000000009,-0.0036177999999998,0,sub_15
0.0054175999999997,0.0489174000000012,-0.0073227999999999,0.0058096000000003,0.0018144000000009,-0.0027999999999998,0,sub_15
0.0015199999999998,0.0519236000000012,-0.0085107999999998,-0.0027587999999996,-0.004975999999999,-0.0022101999999998,0,sub_15
-0.0011332000000001,0.0526976000000012,-0.0078639999999998,-0.0066837999999996,-0.020528199999999,0.0009870000000001,0,sub_15
-0.0071036000000001,0.0568384000000012,-0.0055499999999998,-0.0140187999999996,-0.032657999999999,0.0030908000000001,0,sub_15
-0.0101214000000001,0.0552588000000012,0.0004942000000001,-0.0127775999999996,-0.034383199999999,0.0065228000000001,0,sub_15
-0.0096276000000001,0.0560862000000012,0.0066562000000001,-0.0031361999999996,-0.023335599999999,0.0052972000000001,0,sub_15
-0.0073006000000001,0.0527594000000012,0.0005772,0.0069346000000003,-0.012286799999999,0.0034336000000001,0,sub_15
-0.0093494000000001,0.0518124000000012,-0.0065119999999999,0.0001290000000003,-0.003743399999999,0.0033780000000001,0,sub_15
-0.0061586000000001,0.0514194000000012,-0.0063785999999999,-0.0018055999999996,-0.006720399999999,0.0035818000000001,0,sub_15
-0.0041914000000001,0.0539036000000012,-0.0061959999999999,-0.0031289999999996,-0.018849599999999,0.0010244000000001,0,sub_15
-0.0024154000000001,0.0538452000000012,-0.0079633999999999,-0.0072645999999996,-0.037581399999999,0.0003786000000001,0,sub_15
0.0006327999999998,0.0534188000000012,-0.0017651999999999,-0.0105081999999996,-0.047581999999999,-5.859999999984472e-05,0,sub_15
0.0068683999999998,0.0528930000000012,-2.8999999999951635e-05,-0.0039019999999996,-0.049295199999999,-0.0034281999999998,0,sub_15
0.0104605999999998,0.0495014000000012,-0.0030405999999999,-0.0011183999999996,-0.046310399999999,-0.0061895999999998,0,sub_15
0.0127883999999998,0.0486114000000012,-0.0056431999999999,-0.0028057999999996,-0.038208599999999,-0.0059977999999998,0,sub_15
0.0111903999999998,0.0489620000000012,-0.0023325999999999,-0.0010583999999996,-0.024582799999999,-0.0049345999999998,0,sub_15
0.0089931999999998,0.0479668000000012,-0.0035049999999999,0.0026028000000003,-0.011818399999999,-0.0032157999999998,0,sub_15
0.0045205999999998,0.0462566000000012,-0.0025357999999999,0.0034764000000003,-0.003951999999999,0.0001984000000001,0,sub_15
-0.0011876000000001,0.0471640000000012,0.0012158,0.0049932000000003,0.0054002000000009,0.0044698000000001,0,sub_15
-0.0064796000000001,0.0493908000000012,0.0028292,0.0114288000000003,0.0209188000000009,0.0094100000000001,0,sub_15
-0.0103420000000001,0.0538034000000012,-0.0004883999999999,0.0144276000000003,0.0296384000000009,0.0126258000000001,0,sub_15
-0.0108720000000001,0.0551850000000012,-0.0020115999999999,0.0191016000000003,0.0281384000000009,0.0126616000000001,0,sub_15
-0.0089514000000001,0.0565200000000012,-0.0015089999999999,0.0259276000000003,0.0272836000000009,0.0092934000000001,0,sub_15
-0.0067858000000001,0.0566288000000012,-0.0037451999999999,0.0308398000000003,0.0277148000000009,0.0056966000000001,0,sub_15
-0.0035900000000001,0.0532874000000012,-0.0043637999999998,0.0293396000000003,0.0219846000000009,0.0014206000000001,0,sub_15
-0.0012722000000001,0.0480812000000012,-0.0059235999999998,0.0261314000000003,0.0160474000000009,-0.0028671999999998,0,sub_15
0.0022929999999998,0.0438160000000012,-0.0049183999999998,0.0195302000000003,0.0173556000000009,-0.0046241999999998,0,sub_15
0.0035861999999998,0.0451884000000012,-0.0043521999999998,0.0125142000000003,0.0220896000000009,-0.0051023999999998,0,sub_15
0.0048891999999998,0.0463936000000012,-0.0041469999999998,0.0084730000000003,0.0238312000000009,-0.0057697999999998,0,sub_15
0.0056839999999998,0.0485848000000011,-0.0041455999999998,0.0067796000000003,0.0253532000000009,-0.0068477999999998,0,sub_15
0.0083661999999998,0.0491966000000012,-0.0034873999999998,0.0076410000000003,0.0266490000000009,-0.0068393999999998,0,sub_15
0.0063219999999998,0.0525932000000012,-0.0034615999999998,0.0097770000000003,0.0270864000000009,-0.0063935999999998,0,sub_15
0.0037065999999998,0.0516536000000012,-0.0044241999999998,0.0110380000000003,0.0243062000000009,-0.0048857999999998,0,sub_15
0.0016111999999998,0.0484684000000012,-0.0043471999999998,0.0101624000000003,0.0213188000000009,-0.0029651999999998,0,sub_15
-0.0001148000000001,0.0467912000000012,-0.0042383999999998,0.0092974000000003,0.0202506000000009,-0.0014743999999998,0,sub_15
-0.0004610000000001,0.0448670000000012,-0.0041017999999998,0.0092994000000003,0.0208888000000009,-0.0012613999999998,0,sub_15
0.0001935999999998,0.0445092000000012,-0.0044049999999998,0.0071750000000003,0.0217916000000009,-0.0012733999999998,0,sub_15
0.0014519999999998,0.0461262000000012,-0.0044921999999998,0.0071882000000003,0.0220538000000009,-0.0027649999999998,0,sub_15
0.0028417999999998,0.0491424000000012,-0.0040891999999998,0.0103944000000003,0.0195394000000009,-0.0052989999999998,0,sub_15
0.0027009999999998,0.0527270000000012,-0.0050597999999998,0.0123050000000003,0.0146818000000009,-0.0067707999999998,0,sub_15
-0.0001968000000001,0.0591952000000012,-0.0058909999999998,0.0131372000000003,0.0091810000000009,-0.0063265999999998,0,sub_15
-0.0031792000000001,0.0628302000000012,-0.0052727999999998,0.0163024000000003,0.0017114000000009,-0.0058675999999998,0,sub_15
-0.0061234000000001,0.0626956000000012,-0.0039839999999998,0.0175472000000003,-0.004053999999999,-0.0037149999999998,0,sub_15
-0.0048810000000001,0.0593336000000012,0.0004758000000001,0.0188332000000003,-0.003127799999999,-0.0011423999999998,0,sub_15
-0.0016550000000001,0.0555932000000012,0.0043888,0.0212110000000003,0.0012120000000009,-0.0007029999999998,0,sub_15
0.0001723999999998,0.0496904000000012,0.0055684,0.0229678000000003,0.0125738000000009,0.0025004000000001,0,sub_15
0.0037941999999998,0.0445254000000012,0.0035576,0.0253762000000003,0.0264898000000009,0.0057052000000001,0,sub_15
0.0075157999999997,0.0417144000000012,-0.0012727999999999,0.0254194000000003,0.0342442000000009,0.0067648000000001,0,sub_15
0.0042871999999997,0.0463604000000012,-0.0103491999999999,0.0179332000000003,0.0291612000000009,0.0056508000000001,0,sub_15
0.0010449999999997,0.0486094000000012,-0.0132511999999999,0.0112794000000003,0.0196002000000009,0.0047620000000001,0,sub_15
0.0032589999999997,0.0492052000000012,-0.0112375999999999,0.0088920000000003,0.0059918000000009,6.260000000013512e-05,0,sub_15
0.0037891999999997,0.0494446000000012,-0.0055713999999999,0.0046036000000003,-0.002924399999999,-0.0042287999999998,0,sub_15
0.0020277999999998,0.0505406000000012,-0.0006963999999999,0.0013972000000003,-0.004752399999999,-0.0055335999999998,0,sub_15
0.0014845999999998,0.0478200000000012,0.0032382,0.0037652000000003,0.0021244000000009,-0.0040331999999998,0,sub_15
-0.0019830000000001,0.0466328000000012,0.0033586,0.0055036000000003,0.0119836000000009,-0.0018999999999998,0,sub_15
-0.0055744000000001,0.0461278000000012,0.0005546,0.0023308000000003,0.0201588000000009,-0.0006535999999998,0,sub_15
-0.0076664000000001,0.0472234000000012,-0.0030993999999999,-0.0029931999999996,0.0234456000000009,-0.0004841999999998,0,sub_15
-0.0062052000000001,0.0474342000000012,-0.0038103999999999,-0.0063841999999996,0.0258122000000009,-0.0032881999999998,0,sub_15
-0.0036824000000001,0.0465994000000012,-0.0056911999999999,-0.0104141999999996,0.0273330000000009,-0.0071639999999998,0,sub_15
0.0003423999999998,0.0465644000000012,-0.0079073999999999,-0.0172401999999996,0.0243878000000009,-0.0106261999999998,0,sub_15
0.0027649999999998,0.0489380000000012,-0.0080263999999999,-0.0213571999999996,0.0178096000000009,-0.0132119999999998,0,sub_15
0.0033701999999998,0.0502376000000012,-0.0063723999999999,-0.0209989999999996,0.0112106000000009,-0.0144845999999998,0,sub_15
0.0027385999999998,0.0511176000000012,-0.0057189999999999,-0.0195825999999996,0.0043880000000009,-0.0140403999999997,0,sub_15
0.0028201999999997,0.0522770000000012,-0.0039571999999999,-0.0175299999999996,-0.001591399999999,-0.0118835999999997,0,sub_15
0.0028599999999997,0.0526836000000012,-0.0026971999999999,-0.0135493999999996,-0.005024399999999,-0.0088621999999998,0,sub_15
0.0016655999999997,0.0519334000000012,-0.0021915999999999,-0.0101527999999996,-0.005263799999999,-0.0052061999999998,0,sub_15
0.0007777999999997,0.0518090000000012,-0.0029771999999998,-0.0076067999999996,-0.005497599999999,-0.0021971999999998,0,sub_15
0.0007229999999997,0.0519094000000012,-0.0033123999999998,-0.0055389999999996,-0.007053799999999,-0.0002505999999998,0,sub_15
0.0006335999999998,0.0522058000000012,-0.0029087999999998,-0.0030377999999996,-0.008605599999999,0.0002036000000001,0,sub_15
0.0003033999999998,0.0522236000000012,-0.0028679999999998,-0.0003163999999996,-0.009727599999999,-0.0004091999999998,0,sub_15
0.0005463999999998,0.0518784000000012,-0.0028919999999998,0.0017688000000003,-0.011268599999999,-0.0023077999999998,0,sub_15
0.0008321999999998,0.0515278000000012,-0.0031939999999999,0.0025736000000003,-0.012804999999999,-0.0042153999999998,0,sub_15
0.0007725999999998,0.0503980000000012,-0.0027143999999999,0.0025774000000003,-0.013013799999999,-0.0052831999999998,0,sub_15
0.0003551999999997,0.0488702000000012,-0.0029387999999999,0.0012980000000003,-0.012583999999999,-0.0050789999999998,0,sub_15
0.0004261999999997,0.0469548000000012,-0.0028779999999999,-0.0006213999999996,-0.011303199999999,-0.0040259999999998,0,sub_15
8.239999999979961e-05,0.0461228000000012,-0.0031663999999999,-0.0029695999999996,-0.009385999999999,-0.0019085999999998,0,sub_15
-0.0003876000000002,0.0454370000000012,-0.0037103999999999,-0.0062391999999996,-0.007310199999999,0.0004286000000001,0,sub_15
-0.0010288000000002,0.0461284000000012,-0.0050515999999999,-0.0112329999999996,-0.008214599999999,0.0036122000000001,0,sub_15
-0.0006578000000001,0.0482362000000012,-0.0026487999999999,-0.0145119999999996,-0.009330199999999,0.0048854000000001,0,sub_15
0.0143883999999998,0.0562640000000012,0.0215288,-0.0050807999999996,0.0541050000000009,-0.0036629999999998,0,sub_15
0.0338589999999998,0.0690366000000012,0.0565014,0.0384394000000003,0.3192822000000009,-0.0363735999999998,0,sub_15
0.0153943999999998,0.0512396000000012,-0.0046837999999999,0.0979026000000003,0.513492800000001,-0.0639807999999998,0,sub_15
0.0029751999999998,0.0300940000000012,-0.0663287999999999,0.0908130000000003,0.4576874000000009,-0.0616087999999998,0,sub_15
-0.0049096000000002,0.0242696000000012,-0.1180051999999999,0.0540736000000003,0.3625462000000009,-0.0534113999999998,0,sub_15
-0.0297364000000001,0.0143136000000012,-0.1279095999999999,0.0141826000000003,0.1908990000000009,-0.0376603999999998,0,sub_15
-0.0551052000000001,0.0023294000000012,-0.1417337999999999,-0.0507081999999996,-0.156943999999999,-0.0004937999999998,0,sub_15
-0.0371114000000001,0.0194338000000012,-0.0596147999999998,-0.1279035999999996,-0.399897199999999,0.0306840000000001,0,sub_15
-0.0176302000000002,0.0469000000000012,0.0033992000000001,-0.1328971999999996,-0.373452999999999,0.0286926000000001,0,sub_15
-0.0022550000000002,0.0598506000000012,0.0527594,-0.1023963999999996,-0.292128399999999,0.0179056000000001,0,sub_15
0.0154715999999997,0.0701020000000012,0.0425296,-0.0711069999999996,-0.180117199999999,0.0047346000000001,0,sub_15
0.0272217999999997,0.0785004000000012,0.0273436,-0.0439549999999996,-0.085778599999999,-0.0075879999999998,0,sub_15
0.0280445999999997,0.0845466000000012,0.0103072,-0.0169451999999996,-0.021273999999999,-0.0181641999999998,0,sub_15
0.0174337999999997,0.0781040000000012,0.0051954,0.0086830000000003,0.0234100000000009,-0.0259473999999998,0,sub_15
0.0048561999999998,0.0678666000000012,-0.0001719999999999,0.0280082000000003,0.0472176000000009,-0.0290475999999998,0,sub_15
-0.0089738000000001,0.0581172000000012,-0.0063545999999999,0.0361174000000003,0.0503732000000009,-0.0260039999999998,0,sub_15
-0.0177938000000001,0.0451986000000012,-0.0160497999999999,0.0334620000000003,0.0373536000000009,-0.0178873999999998,0,sub_15
-0.0186756000000001,0.0376184000000012,-0.0229193999999999,0.0228104000000003,0.0030510000000009,-0.0085175999999998,0,sub_15
-0.0136020000000001,0.0361240000000012,-0.0216055999999999,0.0082940000000003,-0.037837599999999,-0.0004479999999998,0,sub_15
-0.0068756000000001,0.0391234000000012,-0.0132853999999999,-0.0057553999999996,-0.070840599999999,0.0065464000000001,0,sub_15
0.0025419999999998,0.0426942000000012,-0.0083353999999999,-0.0187053999999996,-0.098725399999999,0.0114056000000001,0,sub_15
0.0096367999999998,0.0479940000000011,-0.0019707999999999,-0.0241259999999996,-0.116183999999999,0.0130992000000001,0,sub_15
0.0127717999999998,0.0507400000000011,0.0031188,-0.0223797999999996,-0.108940199999999,0.0116066000000001,0,sub_15
0.0122025999999998,0.0520366000000011,0.0057848,-0.0173753999999996,-0.088287799999999,0.0107604000000001,0,sub_15
0.0117613999999998,0.0509110000000011,0.0042216,-0.0140721999999996,-0.065289999999999,0.0109676000000001,0,sub_15
0.0083499999999997,0.0495124000000012,0.003099,-0.0088439999999996,-0.041445999999999,0.0109736000000001,0,sub_15
0.0059755999999997,0.0488118000000012,0.0006934000000001,-0.0029851999999996,-0.020371199999999,0.0103466000000001,0,sub_15
0.0015897999999997,0.0483734000000012,-0.0014893999999998,0.0006910000000003,-0.008457199999999,0.0114254000000001,0,sub_15
-0.0011238000000002,0.0492876000000012,5.820000000010904e-05,0.0013570000000003,5.160000000093267e-05,0.0141966000000001,0,sub_15
-0.0050042000000002,0.0509036000000012,-0.0016547999999998,0.0019866000000003,0.0008888000000009,0.0174046000000001,0,sub_15
-0.0082744000000001,0.0528312000000012,-0.0037765999999998,0.0004364000000003,-0.008280799999999,0.0208238000000001,0,sub_15
-0.0113210000000001,0.0536258000000012,-0.0035667999999999,-0.0023959999999996,-0.018296599999999,0.0238080000000001,0,sub_15
-0.0091300000000001,0.0534250000000012,-0.0034315999999999,-0.0033021999999996,-0.030011399999999,0.0238166000000001,0,sub_15
-0.0058358000000001,0.0511912000000012,-0.0049723999999999,-0.0037893999999996,-0.047464199999999,0.0197762000000001,0,sub_15
-0.0027474000000002,0.0477546000000012,-0.0042065999999998,-0.0050907999999996,-0.059149599999999,0.0127318000000001,0,sub_15
0.0010641999999997,0.0454882000000012,-0.0018687999999999,-0.0061211999999996,-0.058264799999999,0.0054596000000001,0,sub_15
0.0034357999999997,0.0433830000000012,-0.0003075999999999,-0.0084097999999996,-0.051414199999999,-0.0007609999999998,0,sub_15
0.0041921999999998,0.0435200000000012,0.0023792,-0.0138691999999996,-0.035401399999999,-0.0044515999999998,0,sub_15
0.0030091999999997,0.0451246000000012,0.0028678,-0.0165355999999996,-0.012166199999999,-0.0051407999999998,0,sub_15
0.0016117999999998,0.0474706000000012,0.0017656,-0.0168721999999996,0.0095598000000009,-0.0034617999999998,0,sub_15
0.0008039999999998,0.0492034000000012,-0.0004325999999999,-0.0151057999999996,0.0253096000000009,-0.0009059999999998,0,sub_15
0.0003527999999998,0.0519152000000012,-0.0013485999999999,-0.0116467999999996,0.0365844000000009,0.0003856000000001,0,sub_15
0.0012089999999998,0.0545070000000012,-0.0021439999999999,-0.0052101999999996,0.0440206000000009,-6.199999999843136e-06,0,sub_15
0.0025423999999998,0.0549994000000012,-0.0014399999999999,-0.0010995999999996,0.0533934000000009,-0.0031941999999998,0,sub_15
0.0039977999999998,0.0572458000000012,0.0001362,0.0030226000000003,0.0642620000000009,-0.0074521999999998,0,sub_15
0.0045011999999998,0.0589180000000012,0.001883,0.0073706000000003,0.0783238000000009,-0.0112853999999998,0,sub_15
0.0033419999999998,0.0597922000000012,0.0024548,0.0149048000000003,0.0915130000000009,-0.0127451999999998,0,sub_15
-0.0009144000000001,0.0582462000000012,-0.0006737999999999,0.0225958000000003,0.0963752000000009,-0.0099203999999998,0,sub_15
-0.0053840000000001,0.0567724000000012,-0.0054013999999999,0.0287260000000003,0.0905730000000008,-0.0028199999999998,0,sub_15
-0.0091346000000001,0.0533054000000012,-0.0099817999999999,0.0322468000000003,0.0751874000000009,0.0055564000000001,0,sub_15
-0.0076412000000001,0.0496268000000012,-0.0116145999999998,0.0331800000000003,0.0512488000000009,0.0113714000000001,0,sub_15
-0.0045282000000001,0.0468354000000012,-0.0127239999999998,0.0300688000000003,0.0260594000000009,0.0137414000000001,0,sub_15
8.359999999981959e-05,0.0457544000000012,-0.0095617999999999,0.0257318000000003,0.0085626000000009,0.0116064000000001,0,sub_15
0.0054189999999997,0.0453908000000012,-0.0042023999999999,0.0233786000000003,0.0013008000000009,0.0056266000000001,0,sub_15
0.0097805999999998,0.0458588000000012,0.0009248,0.0229888000000003,0.0019220000000009,-0.0020587999999998,0,sub_15
0.0079209999999998,0.0454222000000012,0.0010366,0.0230388000000003,0.0059982000000009,-0.0091139999999998,0,sub_15
0.0046883999999998,0.0442326000000012,0.0008654,0.0237240000000003,0.0113412000000009,-0.0138161999999998,0,sub_15
0.0010989999999998,0.0435996000000012,-0.0006947999999998,0.0228956000000003,0.0141248000000009,-0.0166029999999998,0,sub_15
-0.0039442000000001,0.0435066000000012,-0.0021983999999998,0.0196874000000003,0.0117950000000009,-0.0172633999999998,0,sub_15
-0.0087052000000001,0.0432852000000012,-0.0030169999999998,0.0141226000000003,0.0086160000000009,-0.0166571999999998,0,sub_15
-0.0111256000000001,0.0445162000000012,-0.0022329999999998,0.0075004000000003,0.0082078000000009,-0.0154211999999998,0,sub_15
-0.0108390000000001,0.0470140000000012,-0.0014103999999998,0.0002534000000003,0.0105742000000009,-0.0148339999999998,0,sub_15
-0.0091606000000001,0.0493704000000012,-0.0010025999999998,-0.0042043999999996,0.0159154000000009,-0.0146581999999998,0,sub_15
-0.0052518000000001,0.0517018000000012,-0.0014381999999998,-0.0067323999999996,0.0235926000000009,-0.0142583999999998,0,sub_15
0.0001825999999998,0.0550434000000012,-0.0029985999999998,-0.0062797999999996,0.0304046000000009,-0.0131957999999998,0,sub_15
0.0043877999999998,0.0573338000000012,-0.0047719999999999,-0.0030705999999996,0.0348574000000008,-0.0106151999999998,0,sub_15
0.0066447999999998,0.0569386000000012,-0.0072255999999999,0.0022378000000003,0.0335424000000009,-0.0060897999999998,0,sub_15
0.0063945999999998,0.0539644000000012,-0.0074229999999999,0.0073030000000003,0.0273212000000009,0.0001492000000001,0,sub_15
