userAcceleration.x,userAcceleration.y,userAcceleration.z,rotationRate.x,rotationRate.y,rotationRate.z,label,subject
0.0036147999999998,0.0052712000000012,-0.0062485999999998,-0.0001863999999994,0.0019086000000009,-0.0028817999999998,0,sub_1
0.0036909999999998,0.0049562000000012,-0.0068761999999998,-0.0012687999999994,0.0012624000000009,-0.0001109999999998,0,sub_1
0.0034057999999998,0.0046340000000012,-0.0077313999999998,-0.0019147999999994,0.0006142000000009,0.0022414000000001,0,sub_1
0.0027339999999998,0.0042184000000012,-0.0080537999999998,-0.0014939999999994,-0.000249999999999,0.0043878000000001,0,sub_1
0.0019573999999998,0.0040340000000012,-0.0079407999999998,4.200000000528434e-06,-0.000259799999999,0.0050452000000001,0,sub_1
0.0006629999999998,0.0036198000000012,-0.0084589999999999,0.0010796000000005,-0.000476999999999,0.0046316000000001,0,sub_1
-0.0002828000000001,0.0035700000000012,-0.0080377999999998,0.0019426000000005,-0.001116999999999,0.0035758000000001,0,sub_1
-0.0008660000000001,0.0027436000000012,-0.0076635999999999,0.0021570000000005,-0.001329199999999,0.0031502000000001,0,sub_1
-0.0008778000000001,0.0027490000000012,-0.0079525999999999,0.0013076000000005,-0.000474199999999,0.0031430000000001,0,sub_1
-0.0008058000000001,0.0031742000000012,-0.0080645999999998,-0.0004001999999994,-4.47999999990424e-05,0.0037712000000001,0,sub_1
-0.0004422000000001,0.0036112000000012,-0.0087605999999998,-0.0008183999999994,-0.000264399999999,0.0050578000000001,0,sub_1
0.0001449999999998,0.0029128000000012,-0.0092525999999998,4.380000000052866e-05,-0.000912799999999,0.0059268000000001,0,sub_1
0.0008437999999998,0.0031780000000012,-0.0095537999999998,0.0017584000000005,-0.002413799999999,0.0061620000000001,0,sub_1
0.0019259999999998,0.0025092000000012,-0.0092763999999998,0.0049676000000005,-0.003918799999999,0.0061942000000001,0,sub_1
0.0024061999999998,0.0021384000000012,-0.0098117999999999,0.0069082000000005,-0.003499399999999,0.0055740000000001,0,sub_1
0.0029897999999998,0.0020918000000012,-0.0083297999999999,0.0067056000000005,-0.001791399999999,0.0049296000000001,0,sub_1
0.0028375999999998,0.0024402000000012,-0.0071271999999999,0.0054388000000005,0.0005596000000009,0.0042770000000001,0,sub_1
0.0027053999999998,0.0033010000000012,-0.0064801999999998,0.0043892000000005,0.0035500000000009,0.0034112000000001,0,sub_1
0.0019227999999998,0.0048414000000012,-0.0063215999999998,0.0027074000000005,0.0050492000000009,0.0023352000000001,0,sub_1
0.0015409999999998,0.0050950000000012,-0.0062857999999998,0.0037898000000005,0.0048324000000009,0.0017080000000001,0,sub_1
0.0008435999999998,0.0046822000000012,-0.0070759999999998,0.0063658000000005,0.0043982000000009,0.0008778000000001,0,sub_1
0.0002905999999998,0.0048738000000012,-0.0082359999999998,0.0078712000000005,0.0031152000000009,4.1200000000136025e-05,0,sub_1
0.0001033999999998,0.0043914000000012,-0.0091947999999998,0.0078772000000004,0.0014078000000009,4.920000000013603e-05,0,sub_1
0.0003055999999998,0.0038424000000012,-0.0095555999999998,0.0072362000000004,0.0009846000000009,-0.0001685999999998,0,sub_1
0.0009949999999998,0.0037988000000012,-0.0094471999999998,0.0061694000000005,0.0007762000000009,-0.0003893999999998,0,sub_1
0.0015901999999998,0.0041002000000012,-0.0089501999999998,0.0055314000000005,0.0009922000000009,-0.0006077999999998,0,sub_1
0.0023709999999998,0.0038230000000012,-0.0088075999999998,0.0065994000000005,0.0012016000000009,-0.0006005999999998,0,sub_1
0.0026247999999998,0.0038678000000012,-0.0085543999999998,0.0076712000000005,0.0020512000000009,-0.0008077999999998,0,sub_1
0.0026813999999998,0.0034130000000012,-0.0084635999999998,0.0083162000000005,0.0033266000000009,-0.0005911999999998,0,sub_1
0.0018737999999998,0.0029652000000012,-0.0084753999999998,0.0083212000000005,0.0048164000000009,-0.0001657999999998,0,sub_1
0.0017073999999998,0.0031420000000012,-0.0088555999999999,0.0078954000000005,0.0052434000000009,4.4400000000136e-05,0,sub_1
0.0014063999999998,0.0039270000000012,-0.0083793999999999,0.0064018000000005,0.0052488000000009,3.4000000000116e-05,0,sub_1
0.0011995999999998,0.0043768000000012,-0.0080311999999999,0.0046908000000005,0.0052514000000009,0.0008766000000001,0,sub_1
0.0012993999999998,0.0052180000000012,-0.0075465999999999,0.0032124000000005,0.0046104000000009,0.0015196000000001,0,sub_1
0.0015811999999998,0.0056094000000012,-0.0071103999999999,0.0021570000000005,0.0029034000000009,0.0019532,0,sub_1
0.0012305999999998,0.0052556000000012,-0.0069079999999999,0.0013170000000005,0.0011974000000009,0.001961,0,sub_1
0.0012611999999998,0.0048574000000012,-0.0070303999999999,0.0004826000000005,0.0005574000000009,0.0017538000000001,0,sub_1
0.0016415999999998,0.0043014000000012,-0.0072905999999999,0.0009316000000005,-0.000296599999999,0.0007014000000001,0,sub_1
0.0017403999999998,0.0041430000000012,-0.0079361999999999,0.0017860000000005,-0.000723199999999,6.700000000011604e-05,0,sub_1
0.0018357999999998,0.0039000000000012,-0.0085113999999999,0.0017898000000005,-8.319999999904264e-05,-0.0001473999999998,0,sub_1
0.0023233999999998,0.0038572000000012,-0.0084679999999999,0.0009392000000005,0.0009834000000009,0.0002726000000001,0,sub_1
0.0022265999999998,0.0042688000000012,-0.0081599999999999,-0.0005473999999994,0.0016166000000009,0.0021906000000001,0,sub_1
0.0026845999999998,0.0044188000000012,-0.0080511999999998,-0.0035353999999994,0.0022482000000009,0.0058074000000001,0,sub_1
0.0028575999999998,0.0038830000000012,-0.0082673999999998,-0.0063147999999994,0.0020262000000009,0.0096402000000001,0,sub_1
0.0022601999999998,0.0036108000000012,-0.0091325999999998,-0.0086625999999994,0.0020192000000009,0.0126212000000001,0,sub_1
0.0010249999999998,0.0031776000000012,-0.0092497999999998,-0.0095089999999994,0.0018012000000009,0.0136902000000001,0,sub_1
0.0003747999999998,0.0023500000000012,-0.0096843999999998,-0.0082265999999994,0.0009496000000009,0.0124184000000001,0,sub_1
-0.0004262000000001,0.0030318000000012,-0.0094465999999999,-0.0052295999999994,0.0005232000000009,0.0098760000000001,0,sub_1
-0.0007500000000001,0.0039050000000012,-0.0091875999999998,-0.0026487999999994,0.0015930000000009,0.0064742000000001,0,sub_1
-0.0002786000000001,0.0043900000000012,-0.0082277999999999,-6.299999999947121e-05,0.0013808000000009,0.0030792000000001,0,sub_1
0.0009847999999998,0.0048938000000012,-0.0079747999999999,0.0027264000000005,0.0005230000000009,0.0011820000000001,0,sub_1
0.0026589999999998,0.0055766000000012,-0.0077805999999999,0.0052986000000005,-0.0001249999999989,0.0003512000000001,0,sub_1
0.0027249999999998,0.0051392000000012,-0.0078185999999999,0.0061638000000005,-0.0007669999999989,-0.0004913999999998,0,sub_1
0.0023579999999998,0.0053420000000012,-0.0080283999999998,0.0061832000000005,0.000722800000001,-0.0009151999999998,0,sub_1
0.0023435999999998,0.0049796000000012,-0.0074455999999998,0.0044866000000005,0.0028604000000009,-0.0011433999999998,0,sub_1
0.0029625999999998,0.0049776000000012,-0.0072053999999998,0.0025700000000005,0.0039320000000009,-0.0009443999999998,0,sub_1
0.0031239999999998,0.0045912000000012,-0.0073387999999998,0.0006524000000005,0.0047904000000009,-0.0007451999999998,0,sub_1
0.0039563999999998,0.0043964000000012,-0.0075857999999998,-0.0006191999999994,0.0062796000000009,-0.0001103999999998,0,sub_1
0.0042925999999998,0.0037662000000012,-0.0070953999999999,-0.0033979999999994,0.0052158000000009,0.0009444000000001,0,sub_1
0.0040791999999998,0.0042518000000012,-0.0076965999999999,-0.0051155999999994,0.0043554000000009,0.0035020000000001,0,sub_1
0.0020709999999998,0.0042350000000012,-0.0086763999999999,-0.0068255999999994,0.0047746000000009,0.0056306000000001,0,sub_1
-0.0002146000000001,0.0039094000000012,-0.0085783999999999,-0.0089623999999994,0.0043464000000009,0.0069026000000001,0,sub_1
-0.0016552000000001,0.0024994000000012,-0.0087791999999999,-0.0091861999999994,0.0007300000000009,0.0056236000000001,0,sub_1
-0.0009364000000001,0.0028750000000012,-0.0103889999999999,-0.0036369999999994,-0.001835399999999,0.0028882000000001,0,sub_1
-0.0001710000000001,0.0033090000000012,-0.0106367999999999,0.0015006000000005,-0.001839199999999,-0.0007079999999998,0,sub_1
0.0010313999999998,0.0037020000000012,-0.0088513999999998,0.0047258000000005,-0.001204999999999,-0.0034599999999998,0,sub_1
0.0026861999999998,0.0050444000000012,-0.0084685999999998,0.0066640000000005,0.0007010000000009,-0.0034449999999998,0,sub_1
0.0037509999999998,0.0078690000000012,-0.0078847999999998,0.0064632000000005,0.0049448000000009,-2.959999999986411e-05,0,sub_1
0.0033145999999998,0.0076282000000012,-0.0058313999999998,0.0006942000000005,0.0074924000000009,0.0061264000000001,0,sub_1
0.0015325999999998,0.0064580000000012,-0.0053965999999998,-0.0046577999999994,0.0064226000000009,0.0107944000000001,0,sub_1
-3.040000000017317e-05,0.0052794000000012,-0.0065893999999998,-0.0070273999999994,0.0036528000000009,0.0129178000000001,0,sub_1
-0.0012988000000001,0.0044090000000012,-0.0075475999999998,-0.0074659999999994,3.660000000095774e-05,0.0118510000000001,0,sub_1
-0.0014052000000001,0.0034404000000012,-0.0082423999999998,-0.0057601999999994,-0.002729199999999,0.0093026000000001,0,sub_1
-0.0022986000000001,0.0037936000000012,-0.0089725999999998,-0.0001929999999994,-0.004227999999999,0.0050732000000001,0,sub_1
-0.0010826000000001,0.0043574000000012,-0.0086449999999999,0.0051552000000005,-0.005518999999999,0.0023374000000001,0,sub_1
0.0012731999999998,0.0036274000000012,-0.0085937999999998,0.0087936000000005,-0.005320999999999,0.0017244000000001,0,sub_1
0.0036523999999998,0.0039114000000012,-0.0086369999999999,0.0107268000000005,-0.002992799999999,0.0028062000000001,0,sub_1
0.0038697999999998,0.0031466000000012,-0.0082169999999999,0.0098862000000005,-0.000230399999999,0.0042952000000001,0,sub_1
0.0043841999999998,0.0014818000000012,-0.0076965999999999,0.0075412000000005,0.0008410000000009,0.0049186000000001,0,sub_1
0.0049321999999998,0.0012816000000012,-0.0077441999999998,0.0054184000000005,0.0023438000000009,0.0040476000000001,0,sub_1
0.0045365999999998,0.0028822000000012,-0.0075591999999998,0.0024456000000005,0.0047018000000009,0.0031694000000001,0,sub_1
0.0031845999999998,0.0031410000000012,-0.0064611999999998,-9.259999999947124e-05,0.0081258000000009,0.0016518000000001,0,sub_1
0.0021877999999998,0.0027474000000012,-0.0060245999999998,-0.0004921999999994,0.0100506000000009,-0.0011287999999998,0,sub_1
0.0022079999999998,0.0028118000000012,-0.0072791999999998,0.0010256000000005,0.0109052000000009,-0.0043219999999998,0,sub_1
0.0011445999999998,0.0034014000000012,-0.0081047999999999,0.0048828000000005,0.0106836000000009,-0.0068565999999998,0,sub_1
0.0004267999999998,0.0041442000000012,-0.0082215999999999,0.0085238000000005,0.0096112000000009,-0.0096051999999998,0,sub_1
0.0002835999999998,0.0047570000000012,-0.0086877999999999,0.0104422000000005,0.0066214000000009,-0.0108679999999998,0,sub_1
0.0004949999999998,0.0063776000000012,-0.0089379999999999,0.0104264000000005,0.0036370000000009,-0.0104371999999998,0,sub_1
0.0009487999999998,0.0078970000000012,-0.0084239999999999,0.0099790000000005,0.0019230000000009,-0.0076609999999998,0,sub_1
0.0026535999999998,0.0075824000000012,-0.0074933999999998,0.0063410000000005,0.0017052000000009,-0.0044807999999998,0,sub_1
0.0022111999999998,0.0078142000000012,-0.0073487999999998,0.0020618000000005,0.0014888000000009,-0.0010913999999998,0,sub_1
0.0015529999999998,0.0074966000000012,-0.0077495999999998,-0.0024277999999994,-0.000209799999999,0.0001620000000001,0,sub_1
0.0012939999999998,0.0070728000000012,-0.0084851999999998,-0.0043555999999994,-0.004038599999999,-0.0009139999999998,0,sub_1
0.0006209999999998,0.0069722000000012,-0.0087783999999998,-0.0032913999999994,-0.008934599999999,-0.0041041999999998,0,sub_1
-0.0011358000000001,0.0064436000000012,-0.0080185999999998,-0.0020161999999994,-0.012975399999999,-0.0070811999999998,0,sub_1
-0.0007276000000001,0.0037178000000012,-0.0068569999999998,-0.0003111999999994,-0.015953999999999,-0.0096293999999998,0,sub_1
0.0010217999999998,0.0022054000000012,-0.0070947999999998,0.0030982000000005,-0.018092199999999,-0.0106711999999998,0,sub_1
0.0032565999999998,0.0009920000000012,-0.0078325999999998,0.0058790000000005,-0.015982199999999,-0.0091587999999998,0,sub_1
0.0037811999999998,0.0002820000000012,-0.0078899999999998,0.0052574000000005,-0.009393799999999,-0.0057531999999998,0,sub_1
0.0036841999999998,0.0010050000000012,-0.0076795999999998,0.0050634000000005,-0.003230199999999,-0.0029849999999998,0,sub_1
0.0028383999999998,0.0036422000000012,-0.0076441999999998,0.0055028000000005,0.0010152000000009,-0.0006371999999998,0,sub_1
0.0018101999999998,0.0053064000000012,-0.0060093999999998,0.0044414000000005,0.0039866000000009,0.0019154000000001,0,sub_1
0.0008163999999998,0.0066690000000012,-0.0050509999999998,0.0005972000000005,0.0054832000000009,0.0040230000000001,0,sub_1
0.0006925999999998,0.0071894000000012,-0.0054347999999998,-0.0028231999999994,0.0046414000000009,0.0044274000000001,0,sub_1
0.0009191999999998,0.0079654000000012,-0.0067823999999998,-0.0045251999999994,0.0052892000000009,0.0037736000000001,0,sub_1
0.0019363999999998,0.0075716000000012,-0.0083687999999998,-0.0062297999999994,0.0042290000000009,0.0026938000000001,0,sub_1
0.0018813999999998,0.0060640000000012,-0.0097553999999998,-0.0066575999999994,0.0025242000000009,0.0018372000000001,0,sub_1
0.0011471999999998,0.0051380000000012,-0.0095593999999998,-0.0081557999999994,0.0012440000000009,0.0022546000000001,0,sub_1
0.0001681999999998,0.0058412000000012,-0.0084649999999998,-0.0107267999999994,-0.000249799999999,0.0037330000000001,0,sub_1
-0.0003504000000001,0.0051042000000012,-0.0087949999999998,-0.0139587999999994,-0.004943199999999,0.0067064000000001,0,sub_1
-0.0006372000000001,0.0045870000000012,-0.0098781999999998,-0.0154831999999994,-0.008784999999999,0.0096914000000001,0,sub_1
-0.0003456000000001,0.0047548000000012,-0.0092729999999998,-0.0157033999999994,-0.008577999999999,0.0113986000000001,0,sub_1
0.0002911999999998,0.0044046000000012,-0.0088471999999998,-0.0116407999999994,-0.007947799999999,0.0101440000000001,0,sub_1
0.0019647999999998,0.0026124000000012,-0.0088221999999998,-0.0071473999999994,-0.007739999999999,0.0076114000000001,0,sub_1
0.0034727999999998,0.0021472000000012,-0.0086955999999998,-0.0028521999999994,-0.005406999999999,0.0050734000000001,0,sub_1
0.0038111999999998,0.0021244000000012,-0.0079877999999998,-3.799999999943128e-05,-8.679999999904216e-05,0.0027350000000001,0,sub_1
0.0026677999999998,0.0028248000000012,-0.0086377999999999,0.0025512000000005,0.0033140000000009,0.0010384000000001,0,sub_1
0.0013029999999998,0.0045838000000012,-0.0084635999999999,0.0034196000000005,0.0052232000000009,0.0008270000000001,0,sub_1
-0.0001634000000001,0.0061874000000012,-0.0082755999999999,0.0047042000000005,0.0060604000000009,0.0019016000000001,0,sub_1
-0.0018090000000001,0.0072422000000012,-0.0080807999999998,0.0061944000000005,0.0056280000000009,0.0021260000000001,0,sub_1
-0.0024986000000001,0.0068408000000012,-0.0080223999999999,0.0072568000000005,0.0043472000000009,0.0017074000000001,0,sub_1
-0.0017394000000001,0.0060270000000012,-0.0064739999999999,0.0068312000000005,0.0026446000000009,0.0004234000000001,0,sub_1
0.0001025999999998,0.0041914000000012,-0.0067989999999999,0.0076890000000005,0.0003036000000009,-0.0021323999999998,0,sub_1
0.0017347999999998,0.0036528000000012,-0.0075395999999998,0.0098346000000004,-0.002246999999999,-0.0066017999999998,0,sub_1
0.0042077999999998,0.0023342000000012,-0.0082559999999998,0.0136798000000004,-0.005658999999999,-0.0102035999999998,0,sub_1
0.0058997999999998,0.0026460000000012,-0.0077429999999999,0.0173136000000005,-0.007370799999999,-0.0125269999999998,0,sub_1
0.0075179999999998,0.0037358000000012,-0.0088291999999998,0.0183774000000005,-0.007376599999999,-0.0118783999999998,0,sub_1
0.0075125999999998,0.0047676000000012,-0.0098405999999998,0.0166580000000005,-0.006107999999999,-0.0078325999999998,0,sub_1
0.0074569999999998,0.0042306000000012,-0.0096953999999998,0.0113036000000005,-0.003560199999999,-0.0008227999999998,0,sub_1
0.0063701999999998,0.0039936000000012,-0.0089577999999998,0.0040370000000005,5.740000000095757e-05,0.0061716000000001,0,sub_1
0.0060081999999998,0.0034708000000012,-0.0091941999999998,-0.0023741999999994,0.0019760000000009,0.0110378000000001,0,sub_1
0.0040099999999998,0.0030514000000011,-0.0092677999999998,-0.0049359999999994,0.0024032000000009,0.0125144000000001,0,sub_1
0.0028801999999998,0.0033116000000011,-0.0080745999999998,-0.0042869999999994,0.0017676000000009,0.0105962000000001,0,sub_1
0.0012133999999998,0.0037042000000012,-0.0077817999999998,-0.0010619999999994,0.0013486000000009,0.0054910000000001,0,sub_1
0.0007187999999998,0.0048896000000012,-0.0067355999999999,0.0017392000000005,0.0017880000000009,-0.0002583999999998,0,sub_1
-0.0005606000000001,0.0057580000000012,-0.0059329999999999,0.0047432000000005,0.0017928000000009,-0.0040831999999998,0,sub_1
-0.0006576000000001,0.0059600000000012,-0.0055517999999999,0.0068880000000005,0.0013712000000009,-0.0070589999999998,0,sub_1
-0.0007292000000001,0.0047684000000012,-0.0066995999999999,0.0073202000000005,0.0005188000000009,-0.0085509999999998,0,sub_1
-0.0001772000000001,0.0045692000000012,-0.0082661999999998,0.0060338000000005,-0.000337999999999,-0.0074913999999998,0,sub_1
0.0002901999999998,0.0037818000000012,-0.0103035999999998,0.0047364000000005,-0.002690399999999,-0.0053617999999998,0,sub_1
0.0019897999999998,0.0031500000000012,-0.0111821999999998,0.0034410000000005,-0.005040799999999,-0.0036591999999998,0,sub_1
0.0034031999999998,0.0025790000000012,-0.0113779999999998,0.0030038000000005,-0.005692399999999,-0.0013117999999998,0,sub_1
0.0040365999999998,0.0030626000000012,-0.0103941999999998,0.0030012000000005,-0.005058199999999,-3.0599999999863985e-05,0,sub_1
0.0040565999999998,0.0034634000000012,-0.0081935999999998,0.0034310000000005,-0.003783399999999,0.0006120000000001,0,sub_1
0.0036425999999998,0.0039126000000012,-0.0063681999999998,0.0032308000000005,-0.000799599999999,0.0006070000000001,0,sub_1
0.0022965999999998,0.0046492000000012,-0.0056611999999998,0.0023950000000005,0.0017602000000009,-0.0002575999999998,0,sub_1
0.0009115999999998,0.0050330000000012,-0.0055213999999998,0.0013420000000005,0.0032564000000009,-0.0013359999999998,0,sub_1
0.0003763999999998,0.0058460000000012,-0.0065887999999998,6.780000000052838e-05,0.0038976000000009,-0.0015603999999998,0,sub_1
0.0003311999999998,0.0063276000000012,-0.0080355999999998,-0.0007853999999994,0.0030466000000009,-0.0019935999999998,0,sub_1
0.0002399999999998,0.0066774000000012,-0.0091525999999998,-0.0003667999999994,0.0009104000000009,-0.0017753999999998,0,sub_1
0.0001473999999998,0.0061672000000012,-0.0101697999999998,0.0006836000000005,-0.001017599999999,-5.659999999986405e-05,0,sub_1
0.0007601999999998,0.0054644000000012,-0.0112329999999998,0.0017360000000005,-0.002731799999999,0.0014484000000001,0,sub_1
0.0012783999999998,0.0048662000000012,-0.0106011999999998,0.0023712000000005,-0.003374799999999,0.0018810000000001,0,sub_1
0.0016139999999998,0.0044038000000012,-0.0103883999999999,0.0025874000000004,-0.002948599999999,0.0016682000000001,0,sub_1
0.0020373999999998,0.0038636000000012,-0.0098575999999998,0.0025962000000004,-0.001879799999999,0.0008124000000001,0,sub_1
0.0024573999999998,0.0040782000000012,-0.0086949999999998,0.0030406000000004,-0.000175199999999,-0.0006831999999998,0,sub_1
0.0022765999999998,0.0044424000000012,-0.0076591999999998,0.0024182000000004,0.0019576000000009,-0.0017595999999998,0,sub_1
0.0024401999999998,0.0041684000000012,-0.0071025999999998,0.0009348000000005,0.0040866000000009,-0.0011329999999998,0,sub_1
0.0024377999999998,0.0047914000000012,-0.0069329999999998,-0.0001305999999994,0.0047210000000009,-7.399999999984424e-05,0,sub_1
0.0020621999999998,0.0057244000000012,-0.0072417999999998,-0.0005619999999994,0.0047114000000009,0.0016310000000001,0,sub_1
0.0017981999999998,0.0051588000000012,-0.0081173999999998,-0.0007869999999994,0.0036410000000009,0.0031262000000001,0,sub_1
0.0016769999999998,0.0047576000000012,-0.0084113999999998,0.0002672000000005,0.0019286000000009,0.004204,0,sub_1
0.0010013999999998,0.0048872000000012,-0.0087061999999998,0.0028198000000005,-0.000209199999999,0.0037972,0,sub_1
0.0008961999999998,0.0038068000000012,-0.0085063999999998,0.0040952000000005,-0.000854399999999,0.0042342,0,sub_1
0.0016423999999998,0.0023150000000012,-0.0087229999999999,0.0034588000000005,0.0002076000000009,0.0048684000000001,0,sub_1
0.0022025999999998,0.0026098000000012,-0.0083909999999999,0.0015450000000005,0.0017014000000009,0.0052796000000001,0,sub_1
0.0023299999999998,0.0031348000000012,-0.0082159999999999,6.000000000052821e-05,0.0034076000000009,0.0054798000000001,0,sub_1
0.0021509999999998,0.0036408000000012,-0.0082859999999999,-0.0005735999999994,0.0042602000000009,0.0052598000000001,0,sub_1
0.0015491999999998,0.0043760000000012,-0.0081959999999999,0.0005026000000005,0.0044728000000009,0.0037706000000001,0,sub_1
0.0006015999999998,0.0060156000000012,-0.0083481999999999,0.0030668000000005,0.0027698000000009,0.0012270000000001,0,sub_1
0.0004377999999998,0.0063276000000012,-0.0079131999999999,0.0058434000000005,0.0017018000000009,-0.0004613999999998,0,sub_1
0.0006893999999998,0.0066904000000012,-0.0076239999999998,0.0071204000000005,-0.000214999999999,-0.0017319999999998,0,sub_1
0.0014837999999998,0.0064530000000012,-0.0068671999999998,0.0071162000000005,-0.001279199999999,-0.0019441999999998,0,sub_1
0.0023225999999998,0.0057282000000012,-0.0068065999999998,0.0062576000000005,-0.001916999999999,-0.0015221999999998,0,sub_1
0.0033763999999998,0.0047598000000012,-0.0066785999999998,0.0047600000000004,-0.002126999999999,-0.0008915999999998,0,sub_1
0.0037905999999998,0.0045190000000012,-0.0074025999999998,0.0030528000000004,-0.001908599999999,-0.0006901999999998,0,sub_1
0.0037353999999998,0.0033454000000012,-0.0079417999999999,0.0026288000000004,-0.001267599999999,-0.0006937999999998,0,sub_1
0.0039693999999998,0.0028546000000012,-0.0094019999999999,0.0032710000000004,-0.001055599999999,-0.0009031999999998,0,sub_1
0.0040047999999998,0.0028906000000012,-0.0098853999999998,0.0030586000000004,-0.000416999999999,-0.0004779999999998,0,sub_1
0.0035961999999998,0.0028982000000012,-0.0094283999999998,0.0022100000000005,0.0010760000000009,-5.839999999988411e-05,0,sub_1
0.0030543999999998,0.0029956000000012,-0.0086473999999998,0.0013546000000005,0.0017142000000009,0.0010032000000001,0,sub_1
0.0024307999999998,0.0040008000000012,-0.0082155999999998,-0.0007779999999994,0.0027838000000009,0.0018414,0,sub_1
0.0010571999999998,0.0042964000000012,-0.0072265999999998,-0.0029109999999994,0.0036410000000009,0.0024662,0,sub_1
0.0002147999999998,0.0049356000000012,-0.0065337999999998,-0.0037673999999994,0.0030048000000009,0.0024608,0,sub_1
-0.0003106000000001,0.0047470000000012,-0.0069373999999998,-0.0037723999999994,0.0015150000000009,0.0020354000000001,0,sub_1
-0.0003144000000001,0.0050630000000012,-0.0077969999999998,-0.0024941999999994,-0.000188999999999,0.0007644000000001,0,sub_1
-0.0001730000000001,0.0057094000000012,-0.0085359999999998,-0.0001511999999994,-0.001898399999999,-7.179999999986412e-05,0,sub_1
-0.0002164000000001,0.0060282000000012,-0.0086453999999998,0.0013422000000005,-0.003176999999999,-0.0013417999999998,0,sub_1
-4.320000000013342e-05,0.0055708000000012,-0.0086363999999999,0.0028364000000005,-0.003393799999999,-0.0017583999999998,0,sub_1
0.0008141999999998,0.0052970000000012,-0.0084971999999999,0.0043298000000005,-0.002762599999999,-0.0011081999999998,0,sub_1
0.0019655999999998,0.0041778000000012,-0.0082553999999998,0.0053956000000005,-0.001281799999999,0.0006064000000001,0,sub_1
0.0035175999999998,0.0032542000000012,-0.0081517999999999,0.0064654000000005,-0.000227999999999,0.0014656000000001,0,sub_1
0.0049757999999998,0.0027980000000012,-0.0077967999999999,0.0077412000000005,-0.000666799999999,0.0025420000000001,0,sub_1
0.0059439999999998,0.0028006000000012,-0.0073523999999999,0.0088074000000004,-0.001313399999999,0.0025488000000001,0,sub_1
0.0055093999999998,0.0031136000000012,-0.0074341999999999,0.0092440000000004,-0.000675199999999,0.0014816000000001,0,sub_1
0.0037333999999998,0.0044528000000012,-0.0074355999999998,0.0081954000000005,0.0008246000000009,-0.0006653999999998,0,sub_1
0.0020487999999998,0.0044934000000012,-0.0066699999999999,0.0056454000000005,0.0019042000000009,-0.0019663999999998,0,sub_1
0.0009015999999998,0.0046440000000012,-0.0070461999999999,0.0030942000000005,0.0034072000000009,-0.0026271999999998,0,sub_1
5.799999999866741e-06,0.0050466000000012,-0.0082741999999999,0.0003268000000005,0.0046960000000009,-0.0028617999999998,0,sub_1
-0.0009290000000001,0.0054996000000011,-0.0085327999999999,-0.0011751999999994,0.0034174000000009,-0.0022311999999998,0,sub_1
