userAcceleration.x,userAcceleration.y,userAcceleration.z,rotationRate.x,rotationRate.y,rotationRate.z,label,subject
0.0153343999999998,-0.0005149999999987,0.0035216,0.0049598000000005,-0.002671799999999,0.0007970000000001,0,sub_10
0.0159841999999998,-2.2799999998715253e-05,0.0035322,0.0045330000000005,-0.002033799999999,0.0014340000000001,0,sub_10
0.0155939999999998,0.0005388000000012,0.0031976,0.0030376000000005,-0.001181399999999,0.0027044000000001,0,sub_10
0.0151907999999998,0.0003360000000012,0.0029726,0.0015430000000005,-0.000115999999999,0.0039744000000001,0,sub_10
0.0137305999999998,-0.0003969999999987,0.0023054,0.0011204000000005,0.0001040000000009,0.0044210000000001,0,sub_10
0.0137653999999998,0.0002384000000012,0.002382,0.0021942000000005,-0.000527399999999,0.0033836000000001,0,sub_10
0.0143677999999998,0.0004536000000012,0.0028036,0.0036950000000005,-0.001796799999999,0.0017092000000001,0,sub_10
0.0151071999999998,0.0001278000000012,0.003842,0.0043440000000005,-0.001788399999999,0.0008816000000001,0,sub_10
0.0150825999999998,0.0004904000000012,0.0043304,0.0043482000000005,-0.000508999999999,0.0023980000000001,0,sub_10
0.0153947999999998,0.0016262000000012,0.004522,0.0026374000000005,0.0007668000000009,0.0045208000000001,0,sub_10
0.0147245999999998,0.0009016000000012,0.003838,0.0007142000000005,0.0026808000000009,0.0070686000000001,0,sub_10
0.0141411999999998,0.0003136000000012,0.003711,-0.0003535999999994,0.0048056000000009,0.0094084000000001,0,sub_10
0.0138251999999998,0.0001694000000012,0.0033388,-0.0003441999999994,0.0058712000000009,0.0102932000000001,0,sub_10
0.0144423999999998,0.0001000000000012,0.0033092,-0.0003367999999994,0.0046010000000009,0.0092582000000001,0,sub_10
0.0151025999999998,-4.71999999987554e-05,0.0039498,0.0007394000000004,0.0037530000000009,0.0082300000000001,0,sub_10
0.0154157999999998,3.12000000012446e-05,0.0050326,0.0009632000000004,0.0037576000000009,0.0078356000000001,0,sub_10
0.0145237999999998,-0.0002251999999987,0.0043362,0.0009716000000005,0.0027004000000009,0.0068002000000001,0,sub_10
0.0146685999999998,3.600000000124456e-05,0.0032038,0.0016068000000005,0.0007840000000009,0.0059524000000001,0,sub_10
0.0148395999999998,0.0002476000000012,0.0037882,0.0031004000000005,-0.000282199999999,0.0048960000000001,0,sub_10
0.0155559999999998,0.0001746000000012,0.0036862,0.0028988000000005,-6.75999999990439e-05,0.0044968000000001,0,sub_10
0.0163023999999998,-0.0002401999999987,0.0031004,0.0024800000000005,-0.000492199999999,0.0043106000000001,0,sub_10
0.0169923999999998,-0.0002803999999987,0.0038238,0.0018468000000005,-0.000704799999999,0.0045500000000001,0,sub_10
0.0166827999999998,-0.0003539999999987,0.004219,0.0007870000000005,-0.000703599999999,0.0049996000000001,0,sub_10
0.0167179999999998,-0.0005409999999987,0.0031984,-0.0002679999999995,-0.000273799999999,0.0048076000000001,0,sub_10
0.0159003999999998,-0.0006911999999987,0.0031878,0.0005914000000004,-0.000483799999999,0.0033184000000001,0,sub_10
0.0150849999999998,-2.9399999998735346e-05,0.0026948,0.0020918000000004,-0.001331799999999,0.0009798000000001,0,sub_10
0.0147239999999998,9.600000000124464e-05,0.0024494,0.0035884000000004,-0.001970999999999,-0.0002907999999998,0,sub_10
0.0151613999999998,0.0002454000000012,0.00267,0.0040190000000004,-0.001544799999999,-0.0007155999999998,0,sub_10
0.0141295999999998,0.0004348000000012,0.003412,0.0035942000000005,-0.000484199999999,0.0005816000000001,0,sub_10
0.0134303999999998,0.0008470000000012,0.0029428,0.0018834000000005,-6.079999999904391e-05,0.0025114000000001,0,sub_10
0.0127777999999998,0.0005048000000012,0.0030082,0.0008156000000004,0.0003630000000009,0.0038050000000001,0,sub_10
0.0124477999999998,0.0006936000000012,0.003177,-3.399999999951203e-05,0.0001536000000009,0.0033916000000001,0,sub_10
0.0125047999999998,0.0007654000000012,0.0031112,0.0010406000000004,-0.000483199999999,0.0017104000000001,0,sub_10
0.0134761999999998,0.0005210000000012,0.0028192,0.0021104000000004,-0.001969799999999,-0.0004165999999998,0,sub_10
0.0144423999999998,-0.0003171999999987,0.0030194,0.0029648000000004,-0.002820599999999,-0.0014775999999998,0,sub_10
0.0158211999999998,0.0003764000000012,0.0029172,0.0025370000000005,-0.002819999999999,-0.0012669999999998,0,sub_10
0.0166571999999998,0.0011110000000012,0.0029696,0.0014640000000005,-0.001329399999999,0.0004408000000001,0,sub_10
0.0163613999999998,0.0006858000000012,0.0031704,-0.0008919999999994,0.0003752000000009,0.0029942000000001,0,sub_10
0.0149135999999998,0.0003344000000012,0.0028876,-0.0021755999999994,0.0020812000000009,0.0042730000000001,0,sub_10
0.0146083999999998,0.0013252000000012,0.0027766,-0.0013233999999994,0.0022960000000009,0.0036458000000001,0,sub_10
0.0139845999999998,0.0013174000000012,0.00322,-0.0004681999999994,0.0027256000000009,0.0025912000000001,0,sub_10
0.0138633999999998,0.0010468000000012,0.0031468,-0.0004615999999994,0.0037924000000009,0.0021626000000001,0,sub_10
0.0138065999999998,0.0012810000000012,0.00315,-0.0004587999999994,0.0040070000000009,0.0017350000000001,0,sub_10
0.0152845999999998,0.0021208000000012,0.0035076,-0.0011091999999994,0.0035802000000009,0.0019374000000001,0,sub_10
0.0149847999999998,0.0014870000000012,0.0035246,-0.0028237999999994,0.0044328000000009,0.0027716000000001,0,sub_10
0.0141895999999998,0.0003286000000012,0.0032644,-0.0034733999999994,0.0044312000000009,0.0031870000000001,0,sub_10
0.0129741999999998,-0.0010269999999987,0.0028984,-0.0019891999999994,0.0025124000000009,0.0016970000000001,0,sub_10
0.0131829999999998,-0.0011875999999987,0.002809,0.0007762000000005,0.0001654000000009,-0.0004243999999998,0,sub_10
0.0132489999999997,-0.0015419999999987,0.0030302,0.0033376000000004,-0.000691599999999,-0.0014735999999998,0,sub_10
0.0137083999999998,-0.0011477999999987,0.003789,0.0035462000000005,-0.001121199999999,-0.0008305999999998,0,sub_10
0.0143349999999997,-6.0199999998755607e-05,0.003633,0.0028984000000005,-0.001550199999999,0.0004474000000001,0,sub_10
0.0153587999999997,0.0012982000000012,0.0035818,0.0018240000000005,-0.001341199999999,0.0023626000000001,0,sub_10
0.0147839999999998,0.0015768000000012,0.0033884,0.0001060000000005,-0.000281599999999,0.0040390000000001,0,sub_10
0.0143167999999998,0.0010728000000012,0.0029994,-0.0016139999999994,-0.000921399999999,0.0044358000000001,0,sub_10
0.0139483999999998,0.0005850000000012,0.0019732,-0.0005485999999994,-0.000923999999999,0.0029284000000001,0,sub_10
0.0141407999999998,-0.0001929999999987,0.0021426,0.0005178000000004,-0.000925799999999,0.0012074000000001,0,sub_10
0.0143783999999998,-0.0001007999999987,0.00236,0.0005144000000004,-0.000926399999999,0.0001198000000001,0,sub_10
0.0147703999999998,-0.0001173999999987,0.00269,8.760000000048837e-05,-0.000712599999999,0.0003302000000001,0,sub_10
0.0142453999999998,0.0005296000000012,0.002405,-0.0003361999999995,0.0007770000000009,0.0011798000000001,0,sub_10
0.0141235999999998,0.0006506000000012,0.0024182,-0.0005513999999995,0.0009882000000009,0.0018190000000001,0,sub_10
0.0132767999999998,0.0007098000000012,0.0023858,8.680000000050851e-05,0.0007720000000009,0.0020374000000001,0,sub_10
0.0130357999999998,0.0003072000000012,0.0026706,0.0009314000000005,0.0003438000000009,0.0013844000000001,0,sub_10
0.0135827999999998,0.0006178000000012,0.0025998,0.0017770000000005,-0.000507999999999,9.120000000015928e-05,0,sub_10
0.0148533999999998,0.0004722000000012,0.0034152,0.0017710000000005,-0.001142999999999,-0.0014217999999998,0,sub_10
0.0149845999999998,0.0002890000000012,0.0034618,0.0002638000000005,-0.001779399999999,-0.0012363999999998,0,sub_10
0.0154421999999998,0.0002178000000012,0.0029424,-0.0012425999999994,-0.002202799999999,-0.0010511999999998,0,sub_10
0.0160093999999998,0.0007432000000012,0.0027014,-0.0014569999999994,-0.002414999999999,-0.0010523999999998,0,sub_10
0.0151027999999998,0.0003104000000012,0.0027494,-0.0021043999999994,-0.001561399999999,-0.0006457999999998,0,sub_10
0.0138387999999998,-0.0001609999999987,0.0019842,-0.0021183999999994,-0.001140399999999,0.0008340000000001,0,sub_10
0.0138703999999998,-0.0002999999999987,0.0019182,-0.0010579999999994,-0.000716399999999,0.0006124000000001,0,sub_10
0.0141145999999998,3.160000000124439e-05,0.0031368,-0.0004213999999994,0.0009848000000009,0.0010270000000001,0,sub_10
0.0135483999999998,-0.0003531999999987,0.0032934,-0.0017089999999994,0.0029016000000009,0.0024962000000001,0,sub_10
0.0131913999999998,-0.0003003999999987,0.0024212,-0.0021347999999994,0.0041770000000009,0.0035600000000001,0,sub_10
0.0130091999999998,8.820000000124435e-05,0.0017586,-0.0010641999999994,0.0039644000000009,0.0024996000000001,0,sub_10
0.0134485999999998,0.0004836000000012,0.0022844,-0.0010631999999994,0.0033288000000009,0.0016458000000001,0,sub_10
0.0135865999999998,0.0008324000000012,0.0014608,-0.0010659999999994,0.0020532000000009,0.0010064000000001,0,sub_10
0.0139541999999998,0.0006410000000012,0.001653,-2.199999999471928e-06,0.0011962000000009,-6.799999999984078e-05,0,sub_10
0.0149619999999998,0.0005464000000012,0.0022154,-0.0002253999999994,-0.000510799999999,-0.0005093999999998,0,sub_10
0.0155011999999998,0.0004310000000012,0.0034684,-0.0013029999999994,-0.000730399999999,0.0007506000000001,0,sub_10
0.0145575999999998,0.0003520000000012,0.0032848,-0.0013089999999994,-0.000100799999999,0.0018032000000001,0,sub_10
0.0142311999999998,-0.0002795999999987,0.0031428,-0.0013149999999994,-0.000319999999999,0.0020024000000001,0,sub_10
0.0139107999999998,-0.0005189999999986,0.0028988,-0.0008939999999994,-0.001811999999999,0.0017936000000001,0,sub_10
0.0141499999999998,5.4000000012843255e-06,0.0030172,0.0006054000000005,-0.001599999999999,0.0007356000000001,0,sub_10
0.0144725999999998,0.0001660000000012,0.0032006,0.0014638000000005,-0.000961999999999,0.0003134000000001,0,sub_10
0.0150431999999998,5.0200000001284285e-05,0.00296,0.0012450000000005,-0.000540999999999,0.0009402000000001,0,sub_10
0.0147033999999998,0.0002024000000012,0.0034528,0.0010272000000005,9.30000000009568e-05,0.0015668000000001,0,sub_10
0.0141955999999998,0.0004680000000012,0.0029098,0.0010238000000005,0.0007272000000009,0.0019812000000001,0,sub_10
0.0132275999999998,0.0001080000000012,0.0024272,0.0005906000000005,0.0002992000000009,0.0019666000000001,0,sub_10
0.0124575999999998,0.0001266000000012,0.0020658,0.0010148000000005,8.380000000095668e-05,0.0013168000000001,0,sub_10
0.0128433999999998,0.0004906000000012,0.0023956,0.0018722000000004,-0.000764599999999,-0.0003851999999998,0,sub_10
0.0139051999999998,0.0009618000000012,0.0024826,0.0020884000000004,-0.001187199999999,-0.0014513999999998,0,sub_10
0.0143615999999998,0.0007218000000012,0.00324,0.0012344000000004,-0.000759199999999,-0.0016823999999998,0,sub_10
0.0151263999999998,0.0009682000000012,0.0036156,0.0001624000000004,0.0003020000000009,-0.0002065999999998,0,sub_10
0.0158289999999998,0.0010848000000012,0.0031484,-0.0011229999999994,0.0007274000000009,0.0006276000000001,0,sub_10
0.0147779999999998,0.0007564000000012,0.0024478,-0.0017683999999994,0.0011506000000009,0.0014662000000001,0,sub_10
0.0143911999999998,0.0007528000000012,0.0021398,-0.0011333999999994,0.0005082000000009,0.0012470000000001,0,sub_10
0.0146851999999998,0.0014506000000012,0.0017002,-0.0002779999999994,-0.000553999999999,-0.0002411999999998,0,sub_10
0.0153843999999998,0.0016702000000012,0.0020784,0.0003698000000005,-0.000337199999999,-0.0017325999999998,0,sub_10
0.0148515999999998,0.0014240000000012,0.0020954,-0.0009075999999994,0.0005186000000009,-0.0015289999999998,0,sub_10
0.0152743999999998,0.0016908000000012,0.0015602,-0.0021849999999994,0.0017988000000009,-0.0008985999999998,0,sub_10
0.0146929999999998,0.0015756000000012,0.0014478,-0.0034611999999994,0.0039306000000009,0.0001512000000001,0,sub_10
0.0142387999999998,0.0008008000000012,0.0018462,-0.0049507999999994,0.0064874000000009,0.0016262000000001,0,sub_10
0.0133341999999998,0.0001862000000012,0.0010448,-0.0051639999999994,0.0067022000000009,0.0016178000000001,0,sub_10
0.0132813999999998,0.0003222000000012,0.0009176,-0.0032425999999994,0.0052128000000009,-0.0002963999999998,0,sub_10
0.0142419999999998,0.0005306000000012,0.002143,-0.0019629999999994,0.0037238000000009,-0.0017877999999998,0,sub_10
0.0148039999999998,0.0007580000000012,0.002884,-0.0019649999999994,0.0024490000000009,-0.0026407999999998,0,sub_10
0.0146121999999998,0.0009902000000012,0.002221,-0.0015401999999994,0.0011726000000009,-0.0034905999999998,0,sub_10
0.0141683999999998,0.0004186000000012,0.002315,-0.0011153999999994,-0.000528199999999,-0.0047673999999998,0,sub_10
0.0142605999999998,-0.0003271999999987,0.0022822,-0.0009037999999994,-0.002228199999999,-0.0060455999999998,0,sub_10
0.0136009999999998,-0.0008897999999987,0.0028866,-0.0011159999999994,-0.003292599999999,-0.0069077999999998,0,sub_10
0.0134475999999998,-0.0018697999999987,0.0024058,-0.0019681999999994,-0.003718199999999,-0.0071343999999998,0,sub_10
0.0139139999999998,-0.0017383999999987,0.0027492,-0.0026107999999994,-0.004784399999999,-0.0071451999999998,0,sub_10
0.0143477999999998,-0.0012871999999987,0.003504,-0.0036793999999994,-0.004575199999999,-0.0060921999999998,0,sub_10
0.0140699999999998,-0.0004295999999987,0.0042188,-0.0049545999999994,-0.002661799999999,-0.0048291999999998,0,sub_10
0.0132963999999998,-0.0004703999999987,0.002697,-0.0049497999999994,-0.001808599999999,-0.0050439999999998,0,sub_10
0.0125691999999998,-2.039999999873569e-05,0.0021534,-0.0025971999999994,-0.002663399999999,-0.0067429999999998,0,sub_10
0.0124253999999998,-6.919999999875569e-05,0.0023058,-0.0015199999999994,-0.002023999999999,-0.0080255999999998,0,sub_10
0.0126725999999998,0.0003242000000012,0.0021966,-0.0008723999999994,-0.001597799999999,-0.0088835999999998,0,sub_10
0.0134841999999998,0.0003068000000012,0.0017206,-0.0004439999999994,-0.002236999999999,-0.0095281999999998,0,sub_10
0.0142945999999998,0.0007642000000012,0.0025152,-0.0004451999999994,-0.002665199999999,-0.0093213999999998,0,sub_10
0.0144595999999998,0.0007492000000012,0.0031604,-0.0017283999999994,-0.002450999999999,-0.0084759999999998,0,sub_10
0.0144591999999998,0.0009966000000012,0.0025406,-0.0021599999999994,-0.002453799999999,-0.0074107999999998,0,sub_10
0.0135935999999998,0.0007326000000012,0.0021276,-0.0027999999999994,-0.001602799999999,-0.0065617999999998,0,sub_10
0.0127001999999998,0.0002210000000012,0.0025894,-0.0025875999999994,-0.000967799999999,-0.0057063999999998,0,sub_10
0.0121579999999998,-0.0005651999999987,0.0026698,-0.0025929999999994,-0.000972799999999,-0.0046435999999998,0,sub_10
0.0122903999999998,-0.0002007999999987,0.0024696,-0.0021685999999994,-0.000764599999999,-0.0040053999999998,0,sub_10
0.0131547999999998,-0.0002429999999987,0.0026764,-0.0013203999999994,-0.001833599999999,-0.0040033999999998,0,sub_10
0.0147889999999998,0.0006456000000012,0.0032742,-0.0004673999999994,-0.002685999999999,-0.0048561999999998,0,sub_10
0.0154545999999998,0.0007010000000012,0.0034262,-0.0011013999999994,-0.002041999999999,-0.0057213999999998,0,sub_10
0.0151701999999998,0.0010788000000012,0.0027076,-0.0013001999999994,0.0003058000000009,-0.0065803999999998,0,sub_10
0.0155043999999998,0.0007688000000012,0.0028538,-0.0019355999999994,0.0017976000000009,-0.0061593999999998,0,sub_10
0.0144191999999998,0.0004578000000012,0.0035508,-0.0029965999999994,0.0043528000000009,-0.0048881999999998,0,sub_10
0.0136075999999998,-0.0001091999999987,0.0028274,-0.0040643999999994,0.0056226000000009,-0.0027641999999998,0,sub_10
0.0131625999999998,0.0004210000000012,0.0016454,-0.0038565999999994,0.0053984000000009,-0.0010565999999998,0,sub_10
0.0134009999999998,0.0010502000000012,0.0024348,-0.0036499999999994,0.0034756000000009,-0.0008421999999998,0,sub_10
0.0133933999999998,0.0010066000000012,0.00264,-0.0032183999999994,0.0030478000000009,-0.0016965999999998,0,sub_10
0.0137813999999998,0.0006408000000012,0.0019394,-0.0017209999999994,0.0015544000000009,-0.0033965999999998,0,sub_10
0.0140887999999998,0.0003176000000012,0.0022328,0.0001992000000005,-0.000574399999999,-0.0055167999999998,0,sub_10
0.0150719999999998,1.0800000001244374e-05,0.0037906,0.0006278000000005,-0.001210799999999,-0.0065811999999998,0,sub_10
0.0158325999999998,-0.0005133999999987,0.0034084,0.0002040000000005,-0.001006199999999,-0.0055117999999998,0,sub_10
0.0154691999999998,-0.0010767999999987,0.0027742,-0.0006513999999994,-0.001653199999999,-0.0042305999999998,0,sub_10
0.0146837999999998,-0.0011151999999987,0.0029998,-0.0019267999999994,-0.001231799999999,-0.0033811999999998,0,sub_10
0.0133047999999998,-0.0016811999999987,0.0025596,-0.0025581999999994,-0.000809199999999,-0.0033817999999998,0,sub_10
0.0127733999999998,-0.0018077999999987,0.0015524,-0.0023389999999994,-0.001877599999999,-0.0042291999999998,0,sub_10
0.0126103999999998,-0.0019577999999987,0.0027202,-0.0019065999999994,-0.002086199999999,-0.0057215999999998,0,sub_10
0.0131095999999998,-0.0013925999999987,0.0034302,-0.0010425999999994,-0.000594399999999,-0.0065721999999998,0,sub_10
0.0135769999999998,-0.0006083999999987,0.003614,-0.0012569999999994,-0.001018999999999,-0.0067867999999998,0,sub_10
0.0139901999999998,0.0003438000000012,0.0036858,-0.0021161999999994,-0.001233399999999,-0.0057243999999998,0,sub_10
0.0137757999999998,0.0004660000000012,0.0038074,-0.0027449999999994,-0.000166999999999,-0.0048581999999998,0,sub_10
0.0127601999999998,0.0007504000000012,0.0027676,-0.0023067999999994,0.0002588000000009,-0.0046245999999998,0,sub_10
0.0117709999999998,0.0006862000000012,0.0024156,-0.0016521999999994,0.0008988000000009,-0.0048169999999998,0,sub_10
0.0117571999999998,0.0001060000000012,0.0026342,-0.0005737999999994,0.0004738000000009,-0.0054323999999998,0,sub_10
0.0125161999999998,-5.819999999875569e-05,0.0032176,0.0005064000000004,0.0008992000000009,-0.0056215999999998,0,sub_10
0.0131057999999998,7.600000000124432e-05,0.0032374,0.0013532000000004,0.0006780000000009,-0.0043333999999998,0,sub_10
0.0141105999999998,0.0004302000000012,0.0030522,0.0009150000000004,0.0004572000000009,-0.0019859999999998,0,sub_10
0.0147439999999998,0.0006586000000012,0.0029114,0.0006972000000004,-0.001035399999999,-3.599999999984085e-05,0,sub_10
0.0150287999999998,0.0010190000000012,0.0022036,0.0009186000000004,2.8000000000996934e-05,0.0017002000000001,0,sub_10
0.0145731999999998,0.0009310000000012,0.0020888,0.0011448000000005,0.0006714000000009,0.0019414000000001,0,sub_10
0.0135763999999998,0.0006956000000012,0.0017982,0.0018006000000005,0.0017402000000009,0.0019714000000001,0,sub_10
0.0130125999999998,0.0004048000000012,0.0017088,0.0035194000000005,0.0019530000000009,0.0020100000000001,0,sub_10
0.0132119999999998,0.0008546000000012,0.002116,0.0041576000000005,0.0023734000000009,0.0028686000000001,0,sub_10
0.0130109999999998,0.0010878000000012,0.0021358,0.0037250000000005,0.0036430000000009,0.0054276000000001,0,sub_10
0.0132401999999998,0.0009726000000012,0.0014884,0.0030696000000005,0.0034194000000009,0.0086280000000001,0,sub_10
0.0138055999999998,0.0006110000000012,0.00245,0.0022186000000005,0.0029910000000009,0.0103596000000001,0,sub_10
0.0138461999999998,6.900000000124428e-05,0.0032834,0.0011658000000005,0.0029980000000009,0.0099528000000001,0,sub_10
0.0141685999999998,-0.0002365999999987,0.002532,0.0011768000000005,0.0017256000000009,0.0089140000000001,0,sub_10
0.0143545999999997,-0.0007129999999987,0.0031396,0.0016186000000005,3.0600000000957213e-05,0.0065970000000001,0,sub_10
0.0134331999999997,-0.0007643999999987,0.0046572,0.0018604000000005,0.0017436000000009,0.0047016000000001,0,sub_10
0.0123239999999997,-0.0004801999999987,0.0032076,0.0020786000000005,0.0019592000000009,0.0038482000000001,0,sub_10
0.0130315999999998,-0.0006653999999987,0.0023938,0.0027092000000005,0.0002508000000009,0.0042820000000001,0,sub_10
0.0133749999999998,-0.0018331999999987,0.0038346,0.0020710000000005,0.0013156000000009,0.0049172000000001,0,sub_10
0.0137629999999998,-0.0018717999999987,0.0039402,0.0016442000000005,0.0023782000000009,0.0059812000000001,0,sub_10
0.0143767999999998,-0.0021745999999987,0.0027174,0.0018572000000005,0.0002446000000009,0.0064396000000001,0,sub_10
0.0152431999999998,-0.0026757999999987,0.0038362,0.0018686000000004,-0.000392599999999,0.0058266000000001,0,sub_10
0.0146877999999998,-0.0019887999999987,0.0040804,0.0014616000000004,0.0011014000000009,0.0054214000000001,0,sub_10
0.0142501999999998,-0.0013069999999987,0.0029952,0.0021102000000004,3.52000000009573e-05,0.0050270000000001,0,sub_10
0.0137133999999998,-0.0010491999999987,0.0023646,0.0025454000000004,-0.001667199999999,0.0039908000000001,0,sub_10
0.0136521999999998,-0.0001783999999987,0.0028386,0.0019062000000004,-0.001664199999999,0.0037726000000001,0,sub_10
0.0133965999999998,0.0007688000000012,0.0026658,0.0014756000000005,-0.001878199999999,0.0044108000000001,0,sub_10
0.0134345999999998,0.0009318000000012,0.002534,0.0010450000000005,-0.002092399999999,0.0050490000000001,0,sub_10
0.0130969999999998,0.0009842000000012,0.002946,0.0002036000000005,-0.001875599999999,0.0050724000000001,0,sub_10
0.0131369999999998,0.0011036000000012,0.0032574,6.20000000050823e-06,-0.000384199999999,0.0055260000000001,0,sub_10
0.0129087999999998,0.0007382000000012,0.0023224,0.0012996000000005,3.840000000097735e-05,0.0055642000000001,0,sub_10
0.0137307999999998,0.0005378000000012,0.0020242,0.0025900000000005,-0.000390399999999,0.0053896000000001,0,sub_10
0.0137149999999998,3.540000000122434e-05,0.0029954,0.0030280000000005,-0.000815199999999,0.0049956000000001,0,sub_10
0.0134995999999998,-0.0008921999999987,0.001569,0.0034596000000005,3.6400000000977405e-05,0.0047838000000001,0,sub_10
0.0144735999999998,-0.0010991999999987,0.0009122,0.0040930000000005,-0.002305999999999,0.0039366000000001,0,sub_10
0.0152459999999998,-0.0008215999999987,0.0021618,0.0034568000000005,-0.002512599999999,0.0028642000000001,0,sub_10
0.0146489999999998,-0.0008413999999987,0.0020796,0.0024042000000005,-0.000804399999999,0.0028794000000001,0,sub_10
0.0148111999999998,-0.0006443999999987,0.0004298,0.0019850000000005,-0.000377599999999,0.0031142000000001,0,sub_10
0.0151475999999998,0.0003836000000012,0.0019106,0.0015638000000005,-0.000588999999999,0.0031362000000001,0,sub_10
0.0140941999999998,0.0005136000000012,0.0032382,0.0005160000000005,0.0028212000000009,0.0037902000000001,0,sub_10
0.0135331999999998,0.0002996000000012,0.002657,-0.0013957999999994,0.0049518000000009,0.0055078000000001,0,sub_10
0.0134363999999998,-3.779999999875571e-05,0.002718,-0.0024663999999994,0.0049522000000009,0.0063548000000001,0,sub_10
0.0126939999999998,0.0003020000000012,0.0039,-0.0028949999999994,0.0043154000000009,0.0061390000000001,0,sub_10
0.0130269999999998,0.0006526000000012,0.0031448,-0.0031131999999994,0.0038874000000009,0.0067790000000001,0,sub_10
0.0133563999999998,0.0008242000000012,0.0021882,-0.0020553999999994,0.0019624000000009,0.0065792000000001,0,sub_10
0.0131189999999998,0.0001434000000012,0.0025918,0.0005018000000005,0.0002496000000009,0.0053214000000001,0,sub_10
0.0130875999999998,0.0002292000000012,0.0025746,0.0019920000000005,-0.001035199999999,0.0044828000000001,0,sub_10
0.0133411999999998,-7.679999999873582e-05,0.0017768,0.0028402000000005,-0.001046199999999,0.0053472000000001,0,sub_10
