userAcceleration.x,userAcceleration.y,userAcceleration.z,rotationRate.x,rotationRate.y,rotationRate.z,label,subject
0.0063151999999997,0.0047698000000012,-0.0110803999999999,-0.0010083999999995,-0.002902399999999,0.0008348,0,sub_23
0.0056291999999997,0.0042708000000012,-0.0111281999999999,-0.0010071999999995,-0.003326599999999,0.00019,0,sub_23
0.0053053999999997,0.0048580000000012,-0.0110605999999999,-0.0014355999999995,-0.003327599999999,0.0006096,0,sub_23
0.0046617999999997,0.0050504000000012,-0.0106193999999999,-0.0014333999999995,-0.002902199999999,0.0006046,0,sub_23
0.0037997999999997,0.0047218000000012,-0.0108749999999999,-0.0014301999999995,-0.001839399999999,0.001026,0,sub_23
0.0041379999999997,0.0043472000000012,-0.0111427999999999,-0.0018507999999995,-0.0007725999999991,0.0008036,0,sub_23
0.0046699999999997,0.0042366000000012,-0.0111605999999999,-0.0014123999999995,0.0009340000000008,-5.019999999993537e-05,0,sub_23
0.0044171999999997,0.0035456000000012,-0.0110533999999999,-0.0005433999999995,0.0024302000000008,-0.0019687999999999,0,sub_23
0.0040231999999997,0.0035856000000012,-0.0111009999999999,0.0001084000000004,0.0034992000000008,-0.0034611999999999,0,sub_23
0.0041315999999997,0.0041292000000012,-0.0109399999999999,-0.0003071999999995,0.0043592000000008,-0.0051771999999999,0,sub_23
0.0035873999999997,0.0044950000000012,-0.0107709999999999,-0.0005133999999995,0.0050030000000009,-0.0062505999999999,0,sub_23
0.0028809999999997,0.0049342000000012,-0.0105147999999999,-0.0005157999999995,0.0047886000000009,-0.0060395999999999,0,sub_23
0.0027971999999997,0.0055872000000012,-0.0103999999999999,-0.0007373999999995,0.0041454000000008,-0.0049749999999999,0,sub_23
0.0030251999999997,0.0054060000000012,-0.0104185999999999,-0.0009561999999995,0.0037170000000008,-0.0043379999999998,0,sub_23
0.0036463999999997,0.0052764000000012,-0.0102387999999999,-0.0005361999999995,0.0032852000000008,-0.0032663999999998,0,sub_23
0.0044529999999997,0.0053164000000012,-0.0102051999999999,0.0003116000000004,0.0026406000000008,-0.0026187999999998,0,sub_23
0.0047019999999997,0.0051634000000012,-0.0101925999999999,0.0007316000000003,0.0017844000000008,-0.0019737999999998,0,sub_23
0.0047341999999997,0.0044896000000012,-0.0101457999999999,0.0011520000000003,0.0009292000000009,-0.0015449999999998,0,sub_23
0.0045635999999997,0.0047894000000012,-0.0101937999999999,0.0017820000000003,-0.000142199999999,-0.0004733999999999,0,sub_23
0.0043361999999997,0.0044284000000011,-0.0105273999999999,0.0019880000000003,-0.000785199999999,0.0003808,0,sub_23
0.0042193999999997,0.0043618000000011,-0.0108233999999999,0.0015528000000004,-0.001426999999999,0.0014442,0,sub_23
0.0044873999999997,0.0039022000000012,-0.0112003999999999,0.0013350000000004,-0.001853799999999,0.001868,0,sub_23
0.0046755999999997,0.0038150000000012,-0.0113281999999999,0.0009036000000004,-0.002280799999999,0.0025066,0,sub_23
0.0048771999999997,0.0038422000000012,-0.0112405999999999,0.0004770000000004,-0.002279199999999,0.0025036,0,sub_23
0.0049709999999997,0.0038004000000012,-0.0111407999999999,0.0006876000000004,-0.002706799999999,0.0027194,0,sub_23
0.0048763999999997,0.0038214000000012,-0.0110441999999999,0.0011140000000003,-0.002708199999999,0.0027214,0,sub_23
0.0046823999999997,0.0044888000000012,-0.0107511999999998,0.0013260000000003,-0.002709799999999,0.0029354,0,sub_23
0.0044687999999997,0.0048358000000012,-0.0104507999999998,0.0015398000000003,-0.002709599999999,0.002722,0,sub_23
0.0049125999999997,0.0044658000000012,-0.0103207999999998,0.0013248000000003,-0.002709599999999,0.002933,0,sub_23
0.0052451999999997,0.0049622000000012,-0.0109265999999998,0.0008964000000003,-0.002708799999999,0.0031426,0,sub_23
0.0054919999999997,0.0053012000000012,-0.0107191999999998,0.0011068000000004,-0.003136399999999,0.0033584,0,sub_23
0.0054255999999997,0.0054406000000012,-0.0110691999999998,0.0013152000000004,-0.003777799999999,0.003788,0,sub_23
0.0054515999999997,0.0053922000000012,-0.0113009999999998,0.0013104000000004,-0.003993999999999,0.0046428,0,sub_23
0.0049709999999997,0.0055354000000012,-0.0114705999999998,0.0013090000000004,-0.003994599999999,0.004856,0,sub_23
0.0049291999999997,0.0052170000000012,-0.0109849999999998,0.0013114000000004,-0.003779599999999,0.004428,0,sub_23
0.0050121999999997,0.0047584000000012,-0.0117583999999998,0.0008920000000004,-0.002922199999999,0.0035688,0,sub_23
0.0051361999999997,0.0043802000000012,-0.0116421999999999,0.0002572000000004,-0.002490199999999,0.0027088,0,sub_23
0.0054503999999997,0.0043886000000012,-0.0113581999999999,-0.0003795999999995,-0.002696599999999,0.001636,0,sub_23
0.0053341999999997,0.0047740000000012,-0.0113137999999999,-0.0005939999999995,-0.003120999999999,0.0014214,0,sub_23
0.0047587999999997,0.0050044000000012,-0.0110085999999999,-0.0005977999999995,-0.003336599999999,0.0020626,0,sub_23
0.0041781999999997,0.0052212000000011,-0.0102853999999999,-0.0010323999999995,-0.003978399999999,0.0031286,0,sub_23
0.0043429999999997,0.0051180000000011,-0.0102125999999999,-0.0012487999999995,-0.004192399999999,0.003555,0,sub_23
0.0045113999999997,0.0051298000000011,-0.0103185999999999,-0.0010327999999995,-0.003341599999999,0.0037694,0,sub_23
0.0051253999999997,0.0046022000000012,-0.0101873999999999,-0.0005985999999995,-0.002274999999999,0.0031306,0,sub_23
0.0054985999999997,0.0047326000000012,-0.0105929999999999,-0.0003739999999995,-0.001416599999999,0.0014222,0,sub_23
0.0054497999999997,0.0048346000000012,-0.0107245999999998,-0.0003693999999995,-0.000987799999999,0.0007812,0,sub_23
0.0046967999999997,0.0052944000000012,-0.0105075999999998,-0.0010087999999995,-0.000560199999999,0.0009898,0,sub_23
0.0042907999999997,0.0055340000000012,-0.0105683999999998,-0.0016499999999995,-0.000558799999999,0.001199,0,sub_23
0.0039999999999997,0.0059292000000012,-0.0109821999999998,-0.0018663999999995,-0.000984999999999,0.0014116,0,sub_23
0.0044443999999997,0.0059052000000012,-0.0106057999999998,-0.0018705999999995,-0.001200599999999,0.0020536,0,sub_23
0.0050591999999997,0.0055338000000012,-0.0103891999999999,-0.0020833999999995,-0.001411199999999,0.001626,0,sub_23
0.0058693999999997,0.0049928000000012,-0.0105101999999999,-0.0016509999999995,-0.000982999999999,0.0007748,0,sub_23
0.0063629999999997,0.0048596000000012,-0.0106585999999999,-0.0018617999999995,-0.000979599999999,0.0001334,0,sub_23
0.0063127999999997,0.0047024000000012,-0.0100485999999999,-0.0022905999999995,-0.001404199999999,0.000132,0,sub_23
0.0060873999999997,0.0044236000000012,-0.0103827999999998,-0.0029343999999995,-0.001829599999999,0.0005556,0,sub_23
0.0058709999999997,0.0050030000000012,-0.0106617999999998,-0.0022961999999995,-0.001620999999999,0.0012008,0,sub_23
0.0055121999999997,0.0051778000000012,-0.0109005999999998,-0.0020865999999995,-0.002049399999999,0.0016302,0,sub_23
0.0052059999999997,0.0051208000000012,-0.0111075999999998,-0.0016617999999995,-0.002052799999999,0.002062,0,sub_23
0.0050783999999997,0.0052820000000012,-0.0112727999999998,-0.0016561999999995,-0.0011989999999991,0.0016352,0,sub_23
0.0046011999999997,0.0054328000000012,-0.0109707999999998,-0.0010123999999995,-0.0009857999999991,0.001,0,sub_23
0.0046483999999997,0.0052150000000012,-0.0107023999999998,-0.0014345999999995,-0.0007681999999991,0.0001436,0,sub_23
0.0044769999999997,0.0051872000000012,-0.0103583999999998,-0.0007879999999995,8.420000000089546e-05,-0.0004923999999999,0,sub_23
0.0046051999999997,0.0054378000000012,-0.0102195999999998,6.820000000046133e-05,8.400000000089547e-05,-0.0011273999999999,0,sub_23
0.0047371999999997,0.0053830000000012,-0.0100431999999998,0.0004938000000004,8.180000000089545e-05,-0.0009107999999999,0,sub_23
0.0051491999999997,0.0050726000000012,-0.0104481999999998,0.0004946000000004,0.0005074000000008,-0.0006977999999999,0,sub_23
0.0051107999999997,0.0050714000000012,-0.0108537999999999,0.0007058000000004,0.0002930000000008,-0.0004813999999999,0,sub_23
0.0053039999999997,0.0053116000000012,-0.0111371999999999,0.0004892000000004,-0.000345199999999,-0.0004809999999999,0,sub_23
0.0054085999999997,0.0053656000000012,-0.0107721999999999,-0.0001531999999995,-0.000556599999999,-0.0002705999999999,0,sub_23
0.0053349999999997,0.0053798000000012,-0.0112565999999999,-0.0003697999999995,-0.001194799999999,-0.0002703999999999,0,sub_23
0.0047343999999997,0.0060678000000012,-0.0108389999999999,-0.0010131999999995,-0.001831599999999,-0.0002729999999999,0,sub_23
0.0045759999999997,0.0062586000000012,-0.0106087999999999,-0.0012255999999995,-0.001617599999999,-0.0002745999999999,0,sub_23
0.0045431999999997,0.0058024000000012,-0.0099797999999999,-0.0016543999999995,-0.001405599999999,0.000363,0,sub_23
0.0039661999999997,0.0057598000000012,-0.0101057999999999,-0.0014399999999995,-0.001193199999999,0.0003642,0,sub_23
0.0039551999999997,0.0059056000000012,-0.0099915999999999,-0.0012259999999995,-0.001192599999999,0.0001526,0,sub_23
0.0040869999999997,0.0053588000000012,-0.0105497999999999,-0.0007967999999995,-0.000766799999999,-5.799999999991489e-05,0,sub_23
0.0042177999999997,0.0052500000000012,-0.0109093999999999,-0.0005819999999995,-0.000340999999999,-5.65999999999149e-05,0,sub_23
0.0038445999999997,0.0056278000000012,-0.0113665999999999,-0.0001517999999995,-0.000126399999999,-0.0006941999999999,0,sub_23
0.0041603999999997,0.0055410000000012,-0.0117881999999999,-0.0001503999999995,8.800000000091557e-05,-0.0009075999999999,0,sub_23
0.0043339999999997,0.0052580000000012,-0.0116487999999998,-0.0001485999999995,0.0007264000000009,-0.0006947999999999,0,sub_23
0.0044413999999997,0.0053344000000012,-0.0111851999999998,6.480000000042135e-05,0.0007258000000009,-0.0006933999999999,0,sub_23
0.0044505999999997,0.0053954000000012,-0.0107653999999998,6.280000000044135e-05,0.0002998000000009,-0.0006927999999999,0,sub_23
0.0048785999999997,0.0053494000000012,-0.0105155999999998,-0.0001519999999995,0.0003006000000009,-0.0004801999999999,0,sub_23
0.0048923999999997,0.0051418000000012,-0.0099687999999998,-0.0003665999999995,0.0005136000000009,-5.399999999991497e-05,0,sub_23
0.0048477999999997,0.0052556000000012,-0.0098523999999998,-0.0001535999999995,0.0005138000000009,-5.179999999991497e-05,0,sub_23
0.0049315999999997,0.0051036000000012,-0.0097493999999998,-0.0001549999999995,0.0005140000000009,0.0001624,0,sub_23
0.0050519999999997,0.0048466000000012,-0.0099731999999998,5.9000000000421386e-05,0.0007272000000009,0.0001642,0,sub_23
0.0050465999999997,0.0047228000000012,-0.0104911999999998,0.0002704000000004,0.0005128000000009,0.0003796,0,sub_23
0.0050957999999997,0.0049220000000012,-0.0104965999999999,0.0004866000000004,0.0007270000000009,-4.639999999991496e-05,0,sub_23
0.0050861999999997,0.0048142000000012,-0.0108145999999999,0.0002732000000004,0.0007280000000009,-4.779999999991496e-05,0,sub_23
0.0047109999999997,0.0050714000000012,-0.0108735999999998,0.0004866000000004,0.0007284000000009,-4.599999999991496e-05,0,sub_23
0.0044899999999997,0.0047922000000012,-0.0104385999999998,0.0002732000000004,0.0007304000000009,-4.719999999991495e-05,0,sub_23
0.0048285999999997,0.0047736000000012,-0.0104645999999998,0.0004894000000004,0.0011578000000009,-0.0002595999999999,0,sub_23
0.0049065999999997,0.0048416000000012,-0.0108653999999998,0.0006998000000004,0.0009434000000009,0.0001696,0,sub_23
0.0048939999999997,0.0046870000000012,-0.0105029999999998,0.0004854000000004,0.0009444000000009,0.000382,0,sub_23
0.0052787999999997,0.0045504000000012,-0.0109799999999999,0.0002710000000004,0.0009444000000009,0.0005942,0,sub_23
0.0055159999999997,0.0047876000000012,-0.0113635999999999,0.0002710000000004,0.0007324000000009,0.0003808,0,sub_23
0.0051099999999997,0.0049770000000012,-0.0111495999999999,5.660000000042136e-05,0.0003080000000009,0.0001662,0,sub_23
0.0051823999999997,0.0049274000000012,-0.0110597999999999,5.660000000042136e-05,0.0003096000000009,0.0001664,0,sub_23
0.0047357999999997,0.0052108000000012,-0.0109379999999999,0.0004824000000004,9.66000000009555e-05,0.0001696,0,sub_23
0.0047071999999997,0.0052174000000012,-0.0107153999999999,0.0004816000000004,9.74000000009755e-05,0.0003832,0,sub_23
0.0047411999999997,0.0051356000000012,-0.0106763999999999,0.0004798000000004,9.74000000009755e-05,0.0008106,0,sub_23
0.0050961999999997,0.0048118000000012,-0.0102713999999999,0.0002666000000004,9.980000000095552e-05,0.0008094,0,sub_23
0.0044693999999997,0.0046878000000012,-0.0098623999999999,0.0002666000000004,-0.000112199999999,0.000596,0,sub_23
0.0047143999999997,0.0046448000000012,-0.0104279999999999,0.0002666000000004,-0.000111999999999,0.000596,0,sub_23
0.0046943999999997,0.0044408000000012,-0.0100635999999998,0.0002674000000004,-0.000110999999999,0.0003824,0,sub_23
0.0043867999999997,0.0045226000000012,-0.0099539999999998,0.0004820000000004,-0.000109399999999,0.0001702,0,sub_23
0.0041683999999997,0.0045416000000012,-0.0100709999999998,0.0004794000000004,-0.000110399999999,0.000811,0,sub_23
0.0043019999999997,0.0043264000000012,-0.0099489999999998,0.0004778000000004,-0.000322599999999,0.0010248,0,sub_23
0.0048235999999997,0.0041252000000012,-0.0094205999999998,0.0006906000000004,-0.000746999999999,0.0008132,0,sub_23
0.0055195999999997,0.0043026000000012,-0.0099145999999999,0.0004816000000004,-0.000316799999999,0.000384,0,sub_23
0.0060395999999997,0.0045632000000012,-0.0098329999999999,0.0006978000000004,-0.000102599999999,-4.199999999991485e-05,0,sub_23
0.0061985999999997,0.0048940000000012,-0.0098385999999999,0.0011304000000004,0.0001136000000009,-0.0011073999999999,0,sub_23
0.0063285999999997,0.0053704000000012,-0.0102891999999999,0.0011344000000004,0.0005416000000009,-0.0015349999999999,0,sub_23
0.0058595999999997,0.0059498000000012,-0.0101643999999999,0.0007110000000004,0.0009718000000009,-0.0017521999999999,0,sub_23
0.0053533999999997,0.0055152000000012,-0.0101233999999999,0.0009248000000004,0.0011850000000009,-0.0015373999999999,0,sub_23
0.0049553999999997,0.0051156000000012,-0.0101741999999998,0.0009282000000004,0.0018260000000009,-0.0015381999999999,0,sub_23
0.0048699999999997,0.0045880000000012,-0.0105099999999998,0.0009336000000004,0.0024686000000009,-0.0019663999999999,0,sub_23
0.0048031999999997,0.0039490000000012,-0.0105883999999998,0.0007294000000004,0.0033276000000009,-0.0030371999999999,0,sub_23
0.0049269999999997,0.0040304000000012,-0.0113379999999998,0.0003162000000004,0.0050388000000009,-0.0043239999999999,0,sub_23
0.0045475999999997,0.0047882000000012,-0.0110349999999998,-0.0011619999999995,0.0073920000000009,-0.0054055999999999,0,sub_23
0.0044773999999997,0.0047754000000012,-0.0113569999999998,-0.0024305999999995,0.0095288000000008,-0.0058445999999999,0,sub_23
0.0042919999999997,0.0053450000000012,-0.0107981999999998,-0.0037025999999995,0.0110270000000008,-0.0060691999999999,0,sub_23
0.0042881999999997,0.0060410000000012,-0.0101179999999998,-0.0039097999999995,0.0116710000000008,-0.0067125999999999,0,sub_23
0.0041601999999997,0.0052180000000012,-0.0094595999999998,-0.0039053999999995,0.0118884000000008,-0.0073539999999999,0,sub_23
0.0047525999999997,0.0044312000000012,-0.0093827999999998,-0.0028409999999995,0.0103986000000008,-0.0081993999999999,0,sub_23
0.0052147999999997,0.0041902000000012,-0.0089913999999998,-0.0022061999999995,0.0082710000000008,-0.0090467999999999,0,sub_23
0.0057563999999997,0.0045498000000012,-0.0097771999999998,-0.0013671999999995,0.0061336000000008,-0.0079699999999999,0,sub_23
0.0055071999999997,0.0050010000000012,-0.0099747999999998,-0.0009625999999995,0.0035664000000008,-0.0056137999999999,0,sub_23
0.0055879999999997,0.0055164000000012,-0.0095769999999998,-0.0007743999999995,0.0012094000000008,-0.0024047999999999,0,sub_23
0.0048305999999997,0.0060116000000012,-0.0095839999999998,-0.0010063999999995,-0.000290799999999,0.0003726,0,sub_23
0.0047701999999997,0.0060216000000012,-0.0100177999999999,-0.0010211999999995,-0.001575999999999,0.0025102,0,sub_23
0.0048533999999997,0.0052690000000012,-0.0097449999999999,-0.0012407999999995,-0.002640599999999,0.0029372,0,sub_23
0.0055105999999997,0.0042724000000012,-0.0101539999999999,-0.0016629999999995,-0.002421799999999,0.0022928,0,sub_23
0.0050307999999997,0.0040038000000012,-0.0107129999999999,-0.0016565999999995,-0.002202799999999,0.0012242,0,sub_23
0.0048135999999997,0.0041606000000011,-0.0107585999999999,-0.0014441999999995,-0.002840799999999,0.0007994,0,sub_23
0.0040335999999997,0.0050858000000011,-0.0101121999999999,-0.0014469999999995,-0.003479799999999,0.0008002,0,sub_23
0.0032861999999997,0.0055818000000012,-0.0099081999999999,-0.0016631999999995,-0.003481599999999,0.0014396,0,sub_23
0.0029471999999997,0.0057714000000012,-0.0098509999999999,-0.0016685999999995,-0.003485399999999,0.0027212,0,sub_23
0.0031465999999997,0.0061466000000012,-0.0105661999999999,-0.0012499999999995,-0.003917599999999,0.0042198,0,sub_23
0.0034533999999997,0.0056418000000012,-0.0106463999999999,-0.0008237999999995,-0.003494199999999,0.0048628,0,sub_23
0.0037719999999997,0.0046394000000012,-0.0114193999999999,-0.0003917999999995,-0.002216999999999,0.0050776,0,sub_23
0.0040449999999997,0.0043180000000012,-0.0121891999999998,0.0006832000000004,-0.001363799999999,0.004229,0,sub_23
0.0043679999999997,0.0040440000000012,-0.0122877999999998,0.0017598000000004,-0.000510199999999,0.0029534,0,sub_23
0.0046851999999997,0.0036566000000012,-0.0115027999999998,0.0024106000000004,0.0001336000000009,0.001248,0,sub_23
0.0055927999999997,0.0036532000000012,-0.0112019999999998,0.0037006000000004,0.0011988000000009,0.0001874,0,sub_23
0.0061489999999997,0.0046288000000012,-0.0109033999999998,0.0058406000000004,0.0024712000000008,0.0002004,0,sub_23
0.0066327999999997,0.0047412000000012,-0.0099519999999999,0.0084016000000004,0.0037372000000008,0.0014984,0,sub_23
0.0068743999999997,0.0052336000000012,-0.0096309999999999,0.0113910000000004,0.0060644000000008,0.003439,0,sub_23
0.0061073999999997,0.0045490000000012,-0.0086807999999999,0.0116258000000004,0.0120258000000008,0.0047146,0,sub_23
0.0043001999999997,0.0031432000000012,-0.0103687999999999,0.0099598000000004,0.0197082000000008,0.0034112,0,sub_23
0.0019619999999997,0.0022226000000012,-0.0134923999999998,0.0138430000000004,0.0254616000000008,-0.0002009999999998,0,sub_23
0.0001645999999997,0.0052304000000012,-0.0168421999999998,0.0172812000000004,0.0265314000000008,-0.0044513999999998,0,sub_23
-0.0007814000000002,0.0047142000000012,-0.0162459999999998,0.0147056000000004,0.0193112000000008,-0.0083059999999998,0,sub_23
-0.0003042000000002,0.0044154000000012,-0.0156049999999998,0.0089106000000004,0.0101758000000009,-0.0098303999999998,0,sub_23
0.0007827999999997,0.0062480000000012,-0.0155761999999998,0.0061150000000004,0.0071952000000009,-0.0079235999999998,0,sub_23
0.0026995999999997,0.0074944000000012,-0.0134971999999999,0.0020564000000004,0.0089030000000009,-0.0051769999999998,0,sub_23
0.0040365999999997,0.0047626000000012,-0.0110449999999999,-0.0017821999999995,0.0097674000000009,-0.0047777999999998,0,sub_23
0.0048409999999997,0.0048952000000012,-0.0116383999999999,-0.0002603999999995,0.0150926000000009,-0.0056285999999998,0,sub_23
0.0066137999999997,0.0057558000000012,-0.0123503999999998,0.0044692000000004,0.0229594000000009,-0.0056055999999998,0,sub_23
0.0085657999999997,0.0054970000000012,-0.0107901999999998,0.0046854000000004,0.0242348000000009,-0.0049647999999998,0,sub_23
0.0107141999999997,0.0052648000000012,-0.0106335999999998,-0.0004625999999995,0.0206220000000009,-0.0026457999999998,0,sub_23
0.0115791999999997,0.0054122000000012,-0.0104497999999998,-0.0058299999999995,0.0189140000000009,0.0030884000000001,0,sub_23
0.0115443999999997,0.0056246000000012,-0.0107985999999998,-0.0118365999999995,0.0184822000000009,0.0098846,0,sub_23
0.0109989999999997,0.0045714000000012,-0.0117499999999999,-0.0167769999999995,0.0148628000000008,0.0137012,0,sub_23
0.0116339999999997,0.0040704000000012,-0.0117535999999999,-0.0200095999999995,0.0078432000000008,0.0139024,0,sub_23
0.0126893999999997,0.0034048000000012,-0.0108519999999999,-0.0225981999999995,-0.0004483999999991,0.0119732,0,sub_23
0.0152883999999997,0.0039088000000012,-0.0097665999999999,-0.0249605999999995,-0.006394199999999,0.009401,0,sub_23
0.0182471999999997,0.0054556000000012,-0.0078965999999999,-0.0253921999999995,-0.010639199999999,0.0061994,0,sub_23
0.0199851999999997,0.0079434000000012,-0.0065515999999999,-0.0230579999999995,-0.016173799999999,0.003446,0,sub_23
0.0195593999999997,0.0087772000000012,-0.0054981999999999,-0.0198813999999995,-0.022995199999999,0.0019828,0,sub_23
0.0166007999999997,0.0095326000000012,-0.0049315999999999,-0.0167055999999995,-0.028544399999999,0.0020134,0,sub_23
0.0116675999999997,0.0092698000000012,-0.0057439999999998,-0.0133087999999995,-0.031966199999999,0.0024698,0,sub_23
0.0056467999999997,0.0077504000000012,-0.0083157999999998,-0.0107701999999995,-0.034965799999999,0.0044148,0,sub_23
-0.0008368000000002,0.0062252000000012,-0.0113671999999998,-0.0088667999999995,-0.036049599999999,0.0072074,0,sub_23
-0.0081072000000002,0.0055852000000012,-0.0147847999999998,-0.0067357999999995,-0.032877999999999,0.011063,0,sub_23
-0.0139450000000002,0.0045418000000012,-0.0178257999999998,-0.0050169999999995,-0.026297799999999,0.0151248,0,sub_23
-0.0189628000000002,0.0028148000000012,-0.0195737999999999,-0.0030749999999995,-0.017801199999999,0.0189718,0,sub_23
-0.0224522000000002,0.0017990000000012,-0.0204757999999999,-0.0006819999999995,-0.006313999999999,0.020468,0,sub_23
-0.0232000000000002,0.0009312000000012,-0.0207157999999999,0.0017310000000004,0.0064624000000008,0.0189726,0,sub_23
-0.0187938000000002,0.0011156000000012,-0.0190131999999999,0.0039422000000004,0.0186136000000008,0.014272,0,sub_23
-0.0132498000000002,0.0016354000000012,-0.0167231999999999,0.0078638000000004,0.0290654000000008,0.0070222,0,sub_23
-0.0056186000000002,0.0032368000000012,-0.0142967999999999,0.0119986000000004,0.0382448000000009,-0.0015059999999999,0,sub_23
0.0029833999999997,0.0048702000000012,-0.0109215999999999,0.0159072000000004,0.0440194000000008,-0.0106719999999999,0,sub_23
0.0112455999999997,0.0065724000000012,-0.0062769999999999,0.0193670000000004,0.0463834000000009,-0.0185555999999999,0,sub_23
0.0154777999999997,0.0071210000000012,-0.0026943999999999,0.0223756000000004,0.0461822000000009,-0.0236611999999999,0,sub_23
0.0191789999999997,0.0071124000000012,-0.0005393999999999,0.0225870000000004,0.0438470000000009,-0.0257917999999999,0,sub_23
0.0224351999999997,0.0062888000000012,-1.819999999990545e-05,0.0202168000000004,0.0381072000000009,-0.0266537999999999,0,sub_23
0.0244515999999997,0.0051752000000012,-0.0015255999999999,0.0161110000000004,0.0289528000000009,-0.0245323999999999,0,sub_23
0.0240337999999997,0.0041940000000012,-0.0040885999999999,0.0115548000000004,0.0170202000000009,-0.0198467999999999,0,sub_23
0.0236621999999997,0.0032960000000012,-0.0068153999999999,0.0061356000000004,0.0044448000000009,-0.0136709999999999,0,sub_23
0.0230147999999997,0.0020876000000012,-0.0089603999999999,-0.0003459999999995,-0.006424199999999,-0.0066507999999999,0,sub_23
0.0203245999999997,0.0022510000000012,-0.0109481999999998,-0.0070407999999995,-0.016231599999999,0.0014346,0,sub_23
0.0166735999999997,0.0023342000000012,-0.0121215999999998,-0.0135143999999995,-0.024547999999999,0.0093056,0,sub_23
0.0125261999999997,0.0031734000000012,-0.0129001999999998,-0.0197613999999995,-0.030311599999999,0.016535,0,sub_23
0.0066745999999997,0.0045506000000012,-0.0134417999999998,-0.0238553999999995,-0.033519599999999,0.0220666,0,sub_23
0.0010745999999997,0.0063408000000012,-0.0128231999999998,-0.0245193999999995,-0.035240199999999,0.0254834,0,sub_23
-0.0029834000000002,0.0069274000000012,-0.0120793999999999,-0.0221713999999995,-0.034191199999999,0.02614,0,sub_23
-0.0050472000000002,0.0069560000000012,-0.0108777999999999,-0.0185173999999995,-0.030153199999999,0.0240244,0,sub_23
-0.0055460000000002,0.0064972000000012,-0.0100027999999999,-0.0137753999999995,-0.024610799999999,0.0189222,0,sub_23
-0.0046938000000002,0.0060820000000012,-0.0096483999999999,-0.0088123999999995,-0.018637799999999,0.0125394,0,sub_23
