userAcceleration.x,userAcceleration.y,userAcceleration.z,rotationRate.x,rotationRate.y,rotationRate.z,label,subject
0.0335007999999997,-0.1207519999999987,0.0974928,-0.0014251999999995,-0.013193999999999,-0.0058525999999998,0,sub_19
0.0342903999999997,-0.1201155999999987,0.097821,-0.0061231999999995,-0.012544399999999,-0.0043907999999998,0,sub_19
0.0344549999999998,-0.1195729999999987,0.0982342,-0.0080453999999994,-0.010841799999999,-0.0022699999999998,0,sub_19
0.0346221999999997,-0.1187195999999987,0.0986788,-0.0061503999999994,-0.008932199999999,8.800000000009997e-05,0,sub_19
0.0343915999999997,-0.1188029999999987,0.0992634,-0.0025501999999994,-0.007030399999999,0.0028854000000001,0,sub_19
0.0345717999999998,-0.1186601999999987,0.0992602,0.0014796000000004,-0.004490799999999,0.0056848,0,sub_19
0.0346921999999998,-0.1188883999999987,0.0990686,0.0044462000000004,-0.001944199999999,0.0076224000000001,0,sub_19
0.0348789999999998,-0.1191383999999987,0.0991984,0.0074158000000004,0.0008172000000009,0.0091324000000001,0,sub_19
0.0350907999999998,-0.1196057999999987,0.0988808,0.0080598000000004,0.0027282000000009,0.0102028000000001,0,sub_19
0.0353101999999998,-0.1198501999999987,0.0988842,0.0078530000000004,0.0042204000000009,0.0101994000000001,0,sub_19
0.0348961999999997,-0.1202483999999987,0.0990348,0.0074290000000004,0.0042246000000008,0.0095556,0,sub_19
0.0344313999999998,-0.1203493999999987,0.0989892,0.0071974000000004,0.0035844000000008,0.0088984,0,sub_19
0.0338801999999998,-0.1207673999999987,0.0983438,0.0058968000000004,0.0023096000000008,0.008021,0,sub_19
0.0336805999999998,-0.1207907999999987,0.0982746,0.0041704000000004,0.0010372000000008,0.0069268,0,sub_19
0.0338281999999998,-0.1210597999999987,0.0984654,0.0020146000000004,-0.0002363999999991,0.0064706,0,sub_19
0.0343735999999998,-0.1206275999999987,0.0986126,0.0007160000000004,-0.001085199999999,0.0055926,0,sub_19
0.0354301999999998,-0.1200387999999987,0.0990224000000001,7.680000000048698e-05,-0.001718599999999,0.0047344,0,sub_19
0.0366865999999998,-0.1190609999999987,0.0990632,8.0600000000487e-05,-0.001927399999999,0.0036664,0,sub_19
0.0369701999999998,-0.1194309999999987,0.0991384000000001,0.0006916000000004,-0.002191599999999,0.003022,0,sub_19
0.0372683999999998,-0.1187239999999987,0.0986264,0.0021626000000004,-0.0016037999999991,0.0017416,0,sub_19
0.0376367999999997,-0.1189901999999987,0.0985504,0.0040596000000004,-0.0008061999999991,0.0008912,0,sub_19
0.0376459999999997,-0.1192715999999987,0.0983542,0.0051012000000004,-0.0004317999999991,3.540000000009998e-05,0,sub_19
0.0377407999999997,-0.1202045999999987,0.09863,0.0052874000000004,-0.000268199999999,-0.0006123999999999,0,sub_19
0.0381709999999997,-0.1199173999999986,0.0990602,0.0052932000000004,0.0003736000000009,-0.0012541999999998,0,sub_19
0.0389145999999998,-0.1201337999999987,0.0996982,0.0044408000000004,0.0003774000000009,-0.0014737999999998,0,sub_19
0.0384327999999998,-0.1201637999999987,0.1000616,0.0029482000000004,0.0003834000000009,-0.0016979999999998,0,sub_19
0.0379611999999998,-0.1207989999999987,0.1002478,0.0016428000000004,0.0005686000000009,-0.0021367999999999,0,sub_19
0.0372671999999998,-0.1204557999999987,0.1008956,0.0016158000000004,0.0009600000000009,-0.0019259999999999,0,sub_19
0.0369533999999997,-0.1206767999999987,0.1002716,0.0022336000000004,0.0019900000000008,-0.0021385999999999,0,sub_19
0.0356009999999997,-0.1208661999999987,0.0994398,0.0017808000000004,0.0023836000000008,-0.0021443999999999,0,sub_19
0.0351805999999998,-0.1207503999999987,0.0991356,0.0009012000000004,0.0032032000000008,-0.0017263999999999,0,sub_19
0.0353511999999998,-0.1204847999999987,0.0985950000000001,0.0004726000000004,0.0032030000000008,-0.0013021999999999,0,sub_19
0.0352697999999998,-0.1199415999999987,0.0974624,-0.0029461999999995,0.0015130000000008,-0.0019647999999999,0,sub_19
0.0349109999999998,-0.1194567999999987,0.0974688,-0.0089309999999995,-0.002082999999999,-0.0032839999999999,0,sub_19
0.0353133999999997,-0.1188481999999987,0.0977116,-0.0119229999999995,-0.005047599999999,-0.0052239999999999,0,sub_19
0.0354947999999998,-0.1183499999999987,0.0970824,-0.0119469999999995,-0.008028799999999,-0.0067115999999998,0,sub_19
0.0349731999999997,-0.1183923999999987,0.0973154,-0.0106887999999995,-0.009739599999999,-0.0073371999999999,0,sub_19
0.0343629999999997,-0.1191213999999987,0.0978422,-0.0068651999999995,-0.009545199999999,-0.0070929999999998,0,sub_19
0.0334773999999997,-0.1205167999999987,0.098701,0.0012334000000004,-0.005963599999999,-0.0051139999999999,0,sub_19
0.0326683999999998,-0.1210943999999987,0.1001404,0.0110456000000004,0.0016498000000009,-0.0005643999999999,0,sub_19
0.0322145999999998,-0.1213907999999987,0.1026128,0.0236672000000004,0.0141546000000008,0.0048488,0,sub_19
0.0307733999999998,-0.1200141999999987,0.1061276000000001,0.0414308000000004,0.0330264000000008,0.011999,0,sub_19
0.0294077999999998,-0.1183399999999987,0.1087798,0.0630358000000004,0.0584794000000008,0.0208632,0,sub_19
0.0287603999999998,-0.1154651999999987,0.1112216000000001,0.0823128000000004,0.0879894000000008,0.0294924,0,sub_19
0.0289933999999998,-0.1149871999999987,0.1112704,0.0988266000000004,0.1179428000000009,0.0361788000000001,0,sub_19
0.0302027999999997,-0.1145079999999987,0.107855,0.1097746000000004,0.1408970000000009,0.0398444000000001,0,sub_19
0.0327821999999997,-0.1153739999999987,0.1036634000000001,0.1121550000000004,0.1513322000000009,0.038125,0,sub_19
0.0363497999999998,-0.1161013999999987,0.0987902,0.1081056000000004,0.1471066000000009,0.0327612,0,sub_19
0.0391671999999998,-0.1173537999999987,0.0925328,0.1010096000000004,0.1281968000000009,0.0258992000000001,0,sub_19
0.0403501999999997,-0.1175483999999987,0.0880436,0.0887430000000004,0.0978018000000009,0.0185886,0,sub_19
0.0402267999999998,-0.1172231999999987,0.0873664000000001,0.0719762000000004,0.0648590000000009,0.012959,0,sub_19
0.0393453999999998,-0.1161229999999987,0.0862136,0.0502838000000004,0.0342684000000009,0.0094098,0,sub_19
0.0376177999999998,-0.1157571999999987,0.087157,0.0251938000000004,0.0077360000000009,0.0062588,0,sub_19
0.0370083999999998,-0.1158641999999987,0.0902058,0.0001316000000004,-0.013466599999999,0.0022468,0,sub_19
0.0364627999999998,-0.1155413999999987,0.0942378,-0.0199933999999995,-0.029779399999999,-0.0034461999999999,0,sub_19
0.0361231999999998,-0.1160149999999987,0.0977106,-0.0345523999999995,-0.042700199999999,-0.0097455999999999,0,sub_19
0.0356049999999998,-0.1172161999999987,0.1014788,-0.0416099999999995,-0.051178199999999,-0.0146979999999999,0,sub_19
0.0350983999999997,-0.1181565999999987,0.1040532,-0.0435265999999995,-0.053077799999999,-0.0174861999999999,0,sub_19
0.0343961999999998,-0.1189177999999987,0.1047968,-0.0426547999999995,-0.049244999999999,-0.0176985999999999,0,sub_19
0.0345815999999997,-0.1191167999999987,0.1035366,-0.0424361999999995,-0.042009199999999,-0.0160071999999999,0,sub_19
0.0353375999999997,-0.1192887999999987,0.1019794,-0.0447799999999994,-0.035827199999999,-0.0149733999999999,0,sub_19
0.0364915999999998,-0.1189275999999987,0.0999924,-0.0497003999999994,-0.034743599999999,-0.0154465999999999,0,sub_19
0.0382563999999998,-0.1182631999999987,0.0990622,-0.0544283999999994,-0.040045599999999,-0.0176193999999999,0,sub_19
0.0389653999999998,-0.1174389999999987,0.0987694,-0.0574601999999994,-0.049182399999999,-0.0212709999999999,0,sub_19
0.0393919999999998,-0.1172885999999987,0.0992560000000001,-0.0589891999999994,-0.060455399999999,-0.0246855999999999,0,sub_19
0.0386313999999998,-0.1170091999999987,0.0992708,-0.0596599999999995,-0.069180599999999,-0.0266019999999999,0,sub_19
0.0374695999999997,-0.1176553999999987,0.1001234,-0.0586101999999994,-0.071951399999999,-0.0263763999999999,0,sub_19
0.0357315999999997,-0.1187255999999987,0.1002616,-0.0554055999999994,-0.067920599999999,-0.0240081999999999,0,sub_19
0.0342111999999997,-0.1191365999999987,0.1004548,-0.0513339999999995,-0.058787999999999,-0.0195039999999999,0,sub_19
0.0324671999999997,-0.1197771999999987,0.100958,-0.0449019999999995,-0.045619799999999,-0.0139203999999999,0,sub_19
0.0316929999999998,-0.1208771999999987,0.1024398,-0.0346137999999995,-0.029268599999999,-0.0085273999999999,0,sub_19
0.0313479999999998,-0.1205541999999987,0.1035176000000001,-0.0206823999999995,-0.0112245999999991,-0.0041803999999999,0,sub_19
0.0309923999999998,-0.1194991999999987,0.1048558000000001,-0.0044027999999995,0.0061756000000008,-0.0006707999999999,0,sub_19
0.0309817999999998,-0.1191389999999987,0.1059926,0.0133656000000004,0.0212318000000008,0.0015704,0,sub_19
0.0321007999999998,-0.1187797999999987,0.1057646,0.0314726000000004,0.0330204000000008,0.0018726,0,sub_19
0.0329477999999998,-0.1185341999999987,0.1051264,0.0485088000000004,0.0418386000000009,3.4600000000098785e-05,0,sub_19
0.0341737999999998,-0.1176577999999987,0.1056414,0.0655528000000004,0.0513002000000009,-0.0028721999999999,0,sub_19
0.0354403999999998,-0.1157309999999987,0.1055072,0.0817460000000004,0.0611916000000009,-0.0059991999999999,0,sub_19
0.0363443999999998,-0.1124779999999987,0.1048138,0.0917514000000004,0.0708926000000009,-0.0093827999999999,0,sub_19
0.0365903999999998,-0.1087699999999987,0.1024696,0.0943694000000004,0.0817570000000009,-0.0113011999999999,0,sub_19
0.0373123999999998,-0.1093903999999987,0.1020234,0.0922980000000004,0.1004936000000009,-0.0064257999999999,0,sub_19
0.0378529999999998,-0.1121007999999987,0.0999258,0.0893272000000004,0.1145238000000009,0.004004,0,sub_19
0.0369303999999998,-0.1147539999999987,0.0988734,0.0903846000000004,0.1219386000000009,0.0136160000000001,0,sub_19
0.0353357999999998,-0.1169079999999987,0.1000018,0.0967736000000004,0.1286676000000009,0.0208542000000001,0,sub_19
0.0332417999999998,-0.1177661999999987,0.102926,0.1044666000000004,0.1390210000000009,0.0263878000000001,0,sub_19
0.0312157999999998,-0.1132587999999987,0.103203,0.1189992000000004,0.1493606000000009,0.0294054,0,sub_19
0.0263333999999997,-0.1059899999999987,0.1027456,0.1365734000000004,0.1678020000000009,0.0283746,0,sub_19
0.0233257999999997,-0.1015265999999986,0.1028982,0.1478012000000004,0.1960756000000008,0.0249366,0,sub_19
0.0220479999999997,-0.0993169999999987,0.102127,0.1524190000000004,0.2235558000000009,0.0219426,0,sub_19
0.0199963999999997,-0.1001029999999987,0.102209,0.1648896000000004,0.2429072000000009,0.0202956,0,sub_19
0.0187601999999998,-0.1046267999999987,0.1036178,0.1825774000000004,0.2574522000000009,0.0188842,0,sub_19
0.0195329999999998,-0.1101289999999987,0.1040702,0.1978702000000004,0.2632626000000009,0.01939,0,sub_19
0.0213047999999998,-0.1135249999999987,0.1029034,0.2143838000000004,0.2586180000000009,0.0226952,0,sub_19
0.0235675999999998,-0.1164825999999987,0.101979,0.2319078000000004,0.2386408000000009,0.0232496000000001,0,sub_19
0.0289895999999998,-0.1200639999999987,0.1031048,0.2391524000000005,0.2084806000000009,0.0218226000000001,0,sub_19
0.0331169999999998,-0.1209889999999987,0.1023158,0.2308592000000005,0.1646312000000009,0.0190434000000001,0,sub_19
0.0341955999999998,-0.1206607999999987,0.1037814,0.2178710000000004,0.1180386000000009,0.0136712000000001,0,sub_19
0.0317185999999998,-0.1199713999999987,0.1055528,0.2072566000000004,0.0791010000000009,0.0100150000000001,0,sub_19
0.0279535999999998,-0.1190217999999987,0.1057604,0.1971064000000004,0.0569590000000009,0.0148864000000001,0,sub_19
0.0222407999999997,-0.1163147999999987,0.1043592,0.1835844000000004,0.0501448000000009,0.0256966000000001,0,sub_19
0.0194265999999997,-0.1158253999999987,0.106368,0.1684110000000004,0.0590888000000009,0.0398934000000001,0,sub_19
0.0251277999999997,-0.1195101999999987,0.1091792,0.1513230000000004,0.0720766000000009,0.0568490000000001,0,sub_19
0.0316583999999997,-0.1207543999999987,0.1118904,0.1245996000000004,0.0723358000000009,0.0684124000000001,0,sub_19
0.0370981999999998,-0.1185461999999987,0.114459,0.0962046000000004,0.0711472000000009,0.0705656,0,sub_19
0.0391687999999998,-0.1126091999999987,0.1153522,0.0654858000000004,0.0651066000000009,0.0626676,0,sub_19
0.0377625999999998,-0.1048639999999987,0.1133784,0.0330408000000004,0.0461108000000009,0.0460146000000001,0,sub_19
0.0317875999999998,-0.0949917999999987,0.1095486,0.0044392000000004,0.0215870000000009,0.0232000000000001,0,sub_19
0.0293659999999998,-0.0900703999999987,0.1062214,-0.0147401999999995,0.0078824000000009,0.0038556,0,sub_19
0.0283241999999998,-0.0894185999999987,0.1064788000000001,-0.0179167999999995,-0.000360799999999,-0.0098291999999999,0,sub_19
0.0313021999999997,-0.0927529999999987,0.1091176,-0.0018899999999995,-0.006973599999999,-0.0216727999999999,0,sub_19
0.0341407999999997,-0.0950675999999987,0.1101182,0.0192684000000004,-0.011472799999999,-0.0336969999999999,0,sub_19
0.0346817999999997,-0.0994971999999987,0.1102982,0.0297658000000004,-0.012745199999999,-0.0443043999999999,0,sub_19
0.0321763999999997,-0.1047491999999987,0.1099208,0.0295762000000004,-0.014632799999999,-0.0515671999999999,0,sub_19
0.0275869999999997,-0.1121011999999987,0.1064056,0.0146152000000004,-0.021817599999999,-0.0533715999999998,0,sub_19
0.0190527999999997,-0.1190175999999987,0.1017732,-0.0123167999999995,-0.024099599999999,-0.0454383999999999,0,sub_19
0.0122481999999997,-0.1250135999999987,0.1019536,-0.0381531999999995,-0.014476599999999,-0.0319577999999999,0,sub_19
0.0043309999999997,-0.1289757999999987,0.1016176,-0.0578619999999995,-0.016175399999999,-0.0162835999999999,0,sub_19
0.0038985999999997,-0.1303255999999987,0.1071458,-0.0722077999999995,-0.016806399999999,-0.0059143999999999,0,sub_19
0.0032357999999997,-0.1292703999999987,0.1113514,-0.0784175999999995,-0.017228799999999,-0.0014707999999999,0,sub_19
0.0074313999999997,-0.1289459999999987,0.114096,-0.0773995999999995,-0.022793199999999,0.0038846,0,sub_19
0.0112603999999997,-0.1292443999999987,0.1141486,-0.0704541999999995,-0.033725199999999,0.0144156000000001,0,sub_19
0.0179199999999997,-0.1260649999999987,0.1156022,-0.0589563999999994,-0.028491799999999,0.0288062000000001,0,sub_19
0.0193997999999998,-0.1196171999999987,0.108386,-0.0472929999999995,-0.032426399999999,0.0447052,0,sub_19
0.0261109999999998,-0.1112605999999987,0.103497,-0.0499611999999995,-0.043132999999999,0.0615808,0,sub_19
0.0316113999999998,-0.1013611999999987,0.1017274,-0.0613047999999995,-0.049924599999999,0.0659994,0,sub_19
0.0401855999999998,-0.0909245999999987,0.1052124,-0.0667875999999995,-0.051130599999999,0.0537876,0,sub_19
0.0460263999999998,-0.0906713999999987,0.1118100000000001,-0.0562325999999995,-0.050866399999999,0.0318556,0,sub_19
0.0498067999999998,-0.0947227999999987,0.1204828,-0.0292133999999995,-0.039806599999999,0.0132294000000001,0,sub_19
0.0460925999999998,-0.1046231999999987,0.1289374000000001,0.0095548000000004,-0.019438999999999,0.0010828,0,sub_19
0.0397691999999998,-0.1140623999999987,0.1321606,0.0450974000000004,0.0115276000000009,0.005137,0,sub_19
0.0296917999999998,-0.1231469999999987,0.1282092,0.0566272000000004,0.0373826000000009,0.0295398,0,sub_19
0.0223151999999998,-0.1248383999999987,0.1196646,0.0461038000000004,0.0600642000000009,0.0674658,0,sub_19
0.0179587999999998,-0.1250305999999987,0.1101268,0.0184502000000004,0.0738392000000009,0.1097702,0,sub_19
0.0215111999999998,-0.1149413999999987,0.1015738,-0.0213531999999995,0.0804530000000009,0.1419576,0,sub_19
0.0255135999999997,-0.1042957999999987,0.0970512,-0.0528223999999995,0.0687996000000009,0.1530758,0,sub_19
0.0308827999999998,-0.0968917999999987,0.0950376,-0.0573673999999995,0.0479626000000009,0.1464478,0,sub_19
0.0372549999999998,-0.0912205999999987,0.0943584,-0.0501183999999995,0.0220436000000009,0.121749,0,sub_19
0.0379913999999997,-0.0889013999999987,0.0948226,-0.0453609999999995,-0.002319599999999,0.0831438,0,sub_19
0.0333589999999997,-0.0932673999999987,0.0969162,-0.0371809999999995,-0.021806599999999,0.0475474,0,sub_19
0.0289095999999997,-0.0988389999999987,0.0995048,-0.0315585999999995,-0.026427999999999,0.0262282,0,sub_19
0.0225897999999997,-0.1048493999999987,0.1012272000000001,-0.0400205999999995,-0.019330799999999,0.0169734,0,sub_19
0.0156149999999998,-0.1078011999999987,0.1016986,-0.0548971999999995,-0.004796199999999,0.0181328,0,sub_19
0.0135929999999998,-0.1074147999999987,0.1043414000000001,-0.0599671999999995,0.0143648000000009,0.0259776,0,sub_19
0.0156619999999997,-0.1048895999999987,0.104921,-0.0522243999999995,0.0303076000000009,0.0283612,0,sub_19
0.0198037999999997,-0.1007205999999987,0.1061668,-0.0376641999999995,0.0305142000000009,0.0173532,0,sub_19
0.0235059999999997,-0.0950177999999987,0.1071192,-0.0166635999999995,0.0220332000000009,-0.0111175999999999,0,sub_19
0.0260175999999997,-0.0947213999999987,0.1101176,0.0088236000000004,0.0080246000000009,-0.0463865999999999,0,sub_19
0.0265689999999997,-0.0963383999999987,0.1108286,0.0343146000000004,-0.007678199999999,-0.0842169999999998,0,sub_19
0.0249143999999998,-0.0989595999999987,0.111199,0.0553334000000004,-0.019538199999999,-0.1201607999999998,0,sub_19
0.0213141999999997,-0.1034747999999987,0.1090032,0.0718742000000004,-0.025013999999999,-0.1503757999999999,0,sub_19
0.0172565999999998,-0.1090535999999987,0.1044262,0.0832260000000004,-0.031593399999999,-0.1665249999999999,0,sub_19
0.0146765999999998,-0.1124329999999987,0.0990844,0.0851176000000004,-0.041599199999999,-0.1701309999999998,0,sub_19
0.0143133999999998,-0.1153635999999987,0.0941982,0.0705152000000004,-0.051816799999999,-0.1597513999999999,0,sub_19
0.0118705999999998,-0.1146775999999987,0.0914844,0.0456184000000004,-0.065652999999999,-0.1413205999999999,0,sub_19
0.0136059999999998,-0.1144505999999987,0.0903842,0.0138744000000004,-0.079269999999999,-0.1184511999999999,0,sub_19
0.0148199999999997,-0.1147967999999987,0.0933852,-0.0195621999999995,-0.088412199999999,-0.0943175999999999,0,sub_19
0.0182011999999997,-0.1139499999999987,0.1013744,-0.0407887999999995,-0.087368599999999,-0.0705389999999999,0,sub_19
0.0200357999999997,-0.1113951999999987,0.1095582,-0.0395133999999995,-0.072735599999999,-0.0547391999999999,0,sub_19
0.0264657999999997,-0.1138265999999987,0.1160676,-0.0247437999999995,-0.048129999999999,-0.0403533999999999,0,sub_19
0.0310153999999997,-0.1141367999999987,0.1206052,-0.0044427999999995,-0.028014599999999,-0.0267777999999999,0,sub_19
0.0384405999999998,-0.1119561999999987,0.1232528,0.0171394000000004,-0.013207599999999,-0.0187411999999999,0,sub_19
0.0430371999999998,-0.1096317999999987,0.1203946,0.0290970000000004,-0.011968399999999,-0.0193001999999999,0,sub_19
0.0438433999999998,-0.1088267999999987,0.1173116,0.0266962000000004,-0.031742599999999,-0.0271963999999999,0,sub_19
0.0420555999999998,-0.1133261999999987,0.1156038,0.0178712000000004,-0.056607599999999,-0.0351309999999998,0,sub_19
0.0377363999999998,-0.1135379999999987,0.1134228,0.0088368000000004,-0.075951199999999,-0.0383739999999998,0,sub_19
0.0315023999999998,-0.1117927999999987,0.1092298,0.0073202000000004,-0.081483799999999,-0.0388047999999998,0,sub_19
0.0235255999999998,-0.1082173999999987,0.1060624,0.0131302000000004,-0.070850399999999,-0.0389915999999998,0,sub_19
0.0139851999999998,-0.1087461999999987,0.103066,0.0198408000000004,-0.047658399999999,-0.0370515999999998,0,sub_19
0.0068979999999998,-0.1033799999999987,0.0976528,0.0224626000000004,-0.027241599999999,-0.0302227999999999,0,sub_19
0.0018275999999998,-0.1055459999999987,0.0936072,0.0212092000000004,-0.011510399999999,-0.0204241999999999,0,sub_19
-0.0022822000000001,-0.1113093999999987,0.0939634,0.0102716000000004,-0.006004599999999,-0.0025615999999999,0,sub_19
-0.0004996000000001,-0.1145079999999987,0.0975578,-0.0062271999999995,-0.001976799999999,0.0167598,0,sub_19
0.0095335999999998,-0.1133341999999987,0.099684,-0.0161595999999995,-0.016914599999999,0.0335872,0,sub_19
0.0186451999999998,-0.1126767999999987,0.1062808,-0.0047161999999995,-0.039744399999999,0.0341236000000001,0,sub_19
0.0279075999999998,-0.1116259999999987,0.1153534,0.0339158000000004,-0.052849599999999,0.0254102000000001,0,sub_19
0.0378873999999998,-0.1102759999999987,0.1236776,0.0897040000000004,-0.050871399999999,0.0127380000000001,0,sub_19
0.0436245999999998,-0.1152353999999987,0.1299444,0.1501854000000005,-0.039149199999999,0.0101274000000001,0,sub_19
0.0466129999999998,-0.1211785999999987,0.1355566,0.2121914000000004,-0.004260999999999,0.0181802000000001,0,sub_19
0.0468733999999998,-0.1250687999999987,0.134029,0.2641246000000005,0.0359282000000008,0.0413246000000001,0,sub_19
0.0437617999999998,-0.1237973999999987,0.1255802000000001,0.2876082000000005,0.0706582000000009,0.0737046,0,sub_19
0.0393047999999998,-0.1154967999999987,0.113092,0.2781508000000005,0.0941840000000008,0.1127054000000001,0,sub_19
0.0366907999999998,-0.0997399999999987,0.1031788,0.2539142000000004,0.1028568000000009,0.1492718000000001,0,sub_19
0.0338711999999997,-0.0799897999999987,0.0967486,0.2236800000000004,0.0962516000000009,0.1755610000000001,0,sub_19
0.0323663999999997,-0.0616663999999987,0.0939754,0.1949846000000004,0.0756760000000009,0.1777370000000001,0,sub_19
0.0340757999999997,-0.0459323999999987,0.0954136,0.1725632000000004,0.0417868000000009,0.1472862000000001,0,sub_19
0.0317541999999997,-0.0479293999999987,0.0936164,0.1607798000000004,-0.013386999999999,0.1024092,0,sub_19
0.0257625999999997,-0.0668327999999987,0.0859262,0.1675118000000005,-0.079914799999999,0.0570352000000001,0,sub_19
0.0185891999999998,-0.0944581999999987,0.0853230000000001,0.1854092000000004,-0.128169999999999,0.0144932000000001,0,sub_19
0.0114693999999997,-0.1108133999999987,0.0972442,0.1726826000000004,-0.133575199999999,-0.0080213999999998,0,sub_19
0.0050779999999997,-0.1235741999999987,0.1092718000000001,0.1256672000000004,-0.098272799999999,-0.0043357999999998,0,sub_19
0.0050331999999998,-0.1238315999999987,0.1238586,0.0697736000000004,-0.036976599999999,0.0067322000000001,0,sub_19
0.0089451999999997,-0.1131725999999987,0.1305504000000001,0.0146894000000004,0.0130308000000008,0.0163246000000001,0,sub_19
0.0107147999999997,-0.0922831999999987,0.1192784,-0.0335307999999995,0.0257208000000008,0.0281492,0,sub_19
0.0116747999999997,-0.0792821999999987,0.0965532,-0.0447267999999995,0.0110282000000008,0.035781,0,sub_19
0.0126065999999997,-0.0716891999999987,0.0815416,-0.0305871999999995,-0.015049199999999,0.0446726,0,sub_19
0.0175225999999997,-0.0713353999999987,0.0747004,-0.0234561999999995,-0.0300383999999991,0.0573466,0,sub_19
0.0265921999999998,-0.0786961999999987,0.0811714,-0.0390207999999995,-0.0104513999999991,0.0743044,0,sub_19
0.0382209999999998,-0.0941051999999987,0.0993708,-0.0645209999999995,0.0336566000000008,0.095007,0,sub_19
0.0441103999999998,-0.1129325999999987,0.1158072,-0.0859833999999995,0.0705212000000008,0.112115,0,sub_19
0.0407615999999998,-0.1265397999999987,0.1223414,-0.0844435999999995,0.0866842000000008,0.1180872,0,sub_19
