userAcceleration.x,userAcceleration.y,userAcceleration.z,rotationRate.x,rotationRate.y,rotationRate.z,label,subject
-0.0037544000000001,0.0080426000000012,-0.0052111999999998,0.0005354000000004,-0.000786799999999,-0.0013857999999999,0,sub_22
-0.0030334000000001,0.0078660000000011,-0.0049075999999998,0.0003276000000004,0.0007100000000009,-0.0018163999999999,0,sub_22
-0.0025156000000001,0.0072774000000011,-0.0047309999999998,-0.0003105999999995,0.0017804000000009,-0.0018221999999999,0,sub_22
-0.0025566000000001,0.0073958000000011,-0.0045429999999998,-0.0009489999999995,0.0030630000000009,-0.0016143999999999,0,sub_22
-0.0028704000000002,0.0079060000000011,-0.0046351999999998,-0.0015901999999995,0.0034942000000009,-0.0016191999999999,0,sub_22
-0.0032624000000002,0.0093336000000011,-0.0051835999999998,-0.0020179999999995,0.0037126000000008,-0.0018359999999999,0,sub_22
-0.0039670000000002,0.0100644000000011,-0.0054809999999998,-0.0020187999999995,0.0037118000000008,-0.0016223999999999,0,sub_22
-0.0051664000000002,0.0106316000000011,-0.0056897999999998,-0.0013787999999995,0.0039218000000008,-0.0014045999999999,0,sub_22
-0.0054526000000002,0.0112178000000011,-0.0067655999999998,0.0001110000000004,0.0034888000000008,-0.0009663999999999,0,sub_22
-0.0063796000000002,0.0114570000000012,-0.0072477999999998,0.0015978000000004,0.0024166000000008,-0.0005273999999999,0,sub_22
-0.0065600000000002,0.0106580000000012,-0.0072125999999998,0.0032972000000004,0.0015502000000008,0.0003416,0,sub_22
-0.0065762000000002,0.0101652000000012,-0.0075063999999998,0.0039306000000004,0.0009006000000008,0.001203,0,sub_22
-0.0061146000000002,0.0099402000000012,-0.0079169999999998,0.0037106000000003,4.1800000000891126e-05,0.0018452,0,sub_22
-0.0059480000000002,0.0103288000000012,-0.0081515999999998,0.0026408000000004,-0.0001739999999991,0.0022668,0,sub_22
-0.0062858000000002,0.0110378000000012,-0.0080545999999998,0.0013578000000003,0.0004598000000008,0.0035404,0,sub_22
-0.0069610000000002,0.0121630000000012,-0.0080871999999998,7.740000000039981e-05,0.0013132000000008,0.004385,0,sub_22
-0.0073726000000002,0.0134204000000012,-0.0080529999999998,-0.0005645999999996,0.0013136000000008,0.0048078,0,sub_22
-0.0079968000000002,0.0147548000000012,-0.0083955999999998,-0.0007775999999995,0.0010892000000009,0.0050204,0,sub_22
-0.0081630000000001,0.0150922000000012,-0.0082503999999998,-0.0003493999999995,0.0008634000000009,0.005024,0,sub_22
-0.0083620000000001,0.0146118000000012,-0.0082735999999998,0.0002950000000003,0.0006394000000009,0.0043882,0,sub_22
-0.0084820000000001,0.0140986000000012,-0.0087673999999998,0.0005088000000003,-0.000435399999999,0.0037504,0,sub_22
-0.0084000000000001,0.0132100000000012,-0.0093957999999998,0.0011464000000003,-0.001938599999999,0.0033298,0,sub_22
-0.0080126000000001,0.0118664000000012,-0.0093583999999998,0.0017818000000003,-0.003430599999999,0.0029088,0,sub_22
-0.0075860000000002,0.0108270000000012,-0.0085063999999998,0.0015664000000003,-0.004068199999999,0.0026944,0,sub_22
-0.0065774000000002,0.0099884000000012,-0.0077971999999998,0.0011406000000003,-0.004065999999999,0.0024778,0,sub_22
-0.0052588000000002,0.0089980000000012,-0.0070099999999998,0.0015692000000003,-0.003853599999999,0.0022668,0,sub_22
-0.0038488000000002,0.0082228000000012,-0.0062249999999998,0.0017912000000003,-0.002361199999999,0.0018392,0,sub_22
-0.0026182000000002,0.0083100000000012,-0.0052889999999998,0.0017968000000004,-0.001082799999999,0.0018376,0,sub_22
-0.0018424000000001,0.0081056000000012,-0.0053797999999998,0.0020130000000004,-0.000656599999999,0.001625,0,sub_22
-0.0019350000000001,0.0083648000000012,-0.0058451999999998,0.0020158000000004,-0.0002295999999991,0.0014108,0,sub_22
-0.0031124000000001,0.0089332000000012,-0.0064269999999998,0.0005270000000004,0.0014774000000008,0.0020392,0,sub_22
-0.0050562000000001,0.0091638000000012,-0.0064657999999998,-0.0016009999999995,0.0031876000000008,0.0024494,0,sub_22
-0.0060618000000001,0.0090546000000012,-0.0069619999999998,-0.0030859999999995,0.0053226000000008,0.00265,0,sub_22
-0.0069304000000002,0.0091914000000011,-0.0072261999999998,-0.0037201999999995,0.0066032000000008,0.002644,0,sub_22
-0.0071344000000002,0.0096726000000011,-0.0077963999999998,-0.0037181999999995,0.0068172000000009,0.00243,0,sub_22
-0.0067924000000001,0.0095102000000011,-0.0069851999999998,-0.0030799999999995,0.0057524000000009,0.0017948,0,sub_22
-0.0061168000000001,0.0103320000000011,-0.0071597999999998,-0.0015901999999995,0.0042584000000009,0.0011662,0,sub_22
-0.0059240000000001,0.0110914000000011,-0.0071721999999998,-0.0007403999999995,0.0027666000000009,0.0005332,0,sub_22
-0.0054076000000001,0.0115490000000012,-0.0074163999999998,-0.0005279999999995,0.0019162000000009,-0.0001051999999999,0,sub_22
-0.0049250000000001,0.0117646000000011,-0.0070253999999998,-0.0001061999999995,0.0008494000000009,-0.0001007999999999,0,sub_22
-0.0041686000000001,0.0127474000000011,-0.0074363999999998,0.0007406000000003,-0.000644999999999,-9.279999999995252e-05,0,sub_22
-0.0038276000000002,0.0131010000000012,-0.0074219999999998,0.0005194000000003,-0.001924399999999,0.0003346,0,sub_22
-0.0040762000000002,0.0129348000000012,-0.0075335999999998,0.0003002000000003,-0.002565399999999,0.0009748,0,sub_22
-0.0048280000000002,0.0130506000000012,-0.0076777999999998,8.10000000003998e-05,-0.002781999999999,0.0020418,0,sub_22
-0.0050960000000002,0.0129174000000012,-0.0078193999999998,-0.0005609999999996,-0.002781599999999,0.0024646,0,sub_22
-0.0053746000000002,0.0127402000000012,-0.0077981999999998,-0.0007723999999995,-0.002779199999999,0.0020358,0,sub_22
-0.0052406000000002,0.0123598000000012,-0.0076061999999998,9.34000000004198e-05,-0.002578799999999,0.0014024,0,sub_22
-0.0049046000000001,0.0120134000000012,-0.0075673999999998,0.0013888000000004,-0.002589799999999,-8.239999999995248e-05,0,sub_22
-0.0046460000000001,0.0115914000000012,-0.0079861999999998,0.0028936000000004,-0.003877999999999,-0.0019913999999999,0,sub_22
-0.0047458000000001,0.0115116000000012,-0.0082939999999998,0.0041870000000004,-0.004739199999999,-0.0039023999999999,0,sub_22
-0.0054160000000001,0.0111896000000012,-0.0085903999999998,0.0039868000000004,-0.004322199999999,-0.0045435999999999,0,sub_22
-0.0060628000000001,0.0111194000000012,-0.0093205999999998,0.0033486000000004,-0.004106199999999,-0.0047619999999999,0,sub_22
-0.0063246000000002,0.0114876000000012,-0.0096605999999998,0.0020626000000004,-0.004531199999999,-0.0039157999999999,0,sub_22
-0.0068272000000001,0.0117094000000012,-0.0090001999999998,0.0007768000000004,-0.004531999999999,-0.0026429999999999,0,sub_22
-0.0072416000000001,0.0115486000000012,-0.0084201999999998,-0.0005109999999995,-0.004534399999999,-0.0009427999999999,0,sub_22
-0.0067196000000001,0.0110100000000012,-0.0076119999999998,-0.0005199999999995,-0.004968999999999,-9.639999999995256e-05,0,sub_22
-0.0062004000000001,0.0102918000000012,-0.0069411999999998,-0.0005279999999995,-0.005190599999999,0.0007498,0,sub_22
-0.0061850000000001,0.0093898000000012,-0.0067867999999998,-0.0003197999999995,-0.005198199999999,0.0011698,0,sub_22
-0.0059572000000001,0.0085292000000012,-0.0066971999999998,-0.0005345999999995,-0.004351999999999,0.0015858,0,sub_22
-0.0051334000000001,0.0076298000000012,-0.0067289999999998,-0.0007463999999995,-0.003078999999999,0.0017876,0,sub_22
-0.0049860000000001,0.0072522000000012,-0.0070085999999998,-0.0015949999999995,-0.001374199999999,0.0024204,0,sub_22
-0.0051460000000001,0.0073864000000012,-0.0071521999999998,-0.0022293999999995,0.0003308000000009,0.002841,0,sub_22
-0.0052150000000001,0.0078754000000012,-0.0064723999999998,-0.0030779999999995,0.0024622000000008,0.0030352,0,sub_22
-0.0050220000000001,0.0085564000000012,-0.0066287999999998,-0.0039255999999995,0.0048066000000008,0.0032292,0,sub_22
-0.0056662000000001,0.0097872000000012,-0.0067123999999998,-0.0041321999999995,0.0069374000000008,0.0030008,0,sub_22
-0.0063190000000001,0.0112310000000012,-0.0065507999999998,-0.0039139999999995,0.0080040000000008,0.0021356,0,sub_22
-0.0064698000000001,0.0117878000000012,-0.0065487999999998,-0.0036975999999995,0.0086444000000008,0.001271,0,sub_22
-0.0065288000000002,0.0121654000000012,-0.0069619999999998,-0.0026287999999995,0.0082178000000008,0.0004244,0,sub_22
-0.0061950000000002,0.0125270000000012,-0.0067597999999998,-0.0009217999999995,0.0069386000000009,-0.0008437999999999,0,sub_22
-0.0055474000000002,0.0126328000000012,-0.0067123999999998,0.0003546000000004,0.0054452000000009,-0.0014739999999999,0,sub_22
-0.0047092000000002,0.0125900000000011,-0.0069265999999998,0.0014152000000004,0.0039426000000009,-0.0014755999999999,0,sub_22
-0.0040236000000002,0.0123274000000011,-0.0065281999999998,0.0020472000000004,0.0022276000000009,-0.0012663999999999,0,sub_22
-0.0033772000000002,0.0120394000000011,-0.0062733999999998,0.0024658000000004,0.0009378000000009,-0.0006317999999999,0,sub_22
-0.0030222000000002,0.0123060000000011,-0.0060901999999998,0.0022472000000004,0.0005014000000009,0.0002108,0,sub_22
-0.0030228000000002,0.0114914000000011,-0.0060545999999998,0.0020276000000004,-0.000572199999999,0.000627,0,sub_22
-0.0036670000000002,0.0110060000000012,-0.0063395999999998,0.0018056000000004,-0.001639999999999,0.0014814,0,sub_22
-0.0039656000000002,0.0116210000000012,-0.0072877999999998,0.0013720000000003,-0.002493199999999,0.0021204,0,sub_22
-0.0051106000000002,0.0118366000000012,-0.0082629999999998,0.0003012000000003,-0.002917199999999,0.0025408,0,sub_22
-0.0066084000000002,0.0117256000000012,-0.0088195999999998,-0.0005541999999995,-0.002915799999999,0.002962,0,sub_22
-0.0082298000000002,0.0126670000000012,-0.0097295999999998,-0.0014073999999995,-0.001851599999999,0.0038002,0,sub_22
-0.0089448000000002,0.0127372000000012,-0.0102703999999998,-0.0020413999999995,-0.000782999999999,0.0033582,0,sub_22
-0.0101774000000002,0.0125796000000012,-0.0101567999999998,-0.0022475999999995,-0.000139399999999,0.0022788,0,sub_22
-0.0105558000000002,0.0126942000000012,-0.0099205999999998,-0.0015993999999995,0.0007142000000009,0.001205,0,sub_22
-0.0103040000000002,0.0130902000000012,-0.0101935999999998,-0.0005263999999995,0.0009280000000009,-7.859999999993255e-05,0,sub_22
-0.0087692000000002,0.0129646000000012,-0.0095519999999998,0.0005472000000004,-0.000130799999999,-0.0026333999999999,0,sub_22
-0.0071464000000002,0.0131610000000012,-0.0081735999999998,0.0022590000000004,-0.001617999999999,-0.0051833999999999,0,sub_22
-0.0049834000000002,0.0117632000000011,-0.0064975999999998,0.0052424000000004,-0.003104399999999,-0.0070837999999999,0,sub_22
-0.0025760000000002,0.0100444000000011,-0.0045051999999999,0.0084326000000004,-0.005233999999999,-0.0081273999999999,0,sub_22
-0.0001962000000002,0.0075922000000011,-0.0038123999999999,0.0099118000000004,-0.007785399999999,-0.0087549999999999,0,sub_22
0.0014813999999997,0.0053954000000011,-0.0033029999999999,0.0101110000000004,-0.008422599999999,-0.0074711999999999,0,sub_22
0.0022975999999997,0.0033728000000012,-0.0035821999999999,0.0079678000000004,-0.006288799999999,-0.0044981999999999,0,sub_22
0.0012043999999997,0.0032956000000012,-0.0038961999999999,0.0030602000000004,-0.001815399999999,-5.159999999993226e-05,0,sub_22
-0.0007686000000002,0.0046806000000012,-0.0057205999999998,-0.0035505999999995,0.0037282000000009,0.0045954,0,sub_22
-0.0036808000000002,0.0071258000000012,-0.0065373999999998,-0.0090973999999995,0.0084168000000008,0.0090372,0,sub_22
-0.0078446000000002,0.0100532000000012,-0.0079667999999998,-0.0131547999999995,0.0116196000000008,0.0126322,0,sub_22
-0.0114474000000002,0.0130960000000012,-0.0091899999999998,-0.0146545999999995,0.0124766000000008,0.014539,0,sub_22
-0.0133140000000001,0.0153508000000012,-0.0112269999999998,-0.0135909999999995,0.0114174000000008,0.0139022,0,sub_22
-0.0142508000000001,0.0169320000000012,-0.0119373999999998,-0.0103897999999995,0.0084444000000009,0.0105056,0,sub_22
-0.0138706000000001,0.0174444000000012,-0.0122335999999998,-0.0056929999999995,0.0050434000000009,0.0062654,0,sub_22
-0.0123050000000001,0.0173202000000012,-0.0114947999999998,-0.0003519999999995,0.0014232000000009,0.0011798,0,sub_22
-0.0101592000000001,0.0163348000000012,-0.0106375999999998,0.0045652000000003,-0.001768399999999,-0.0041227999999999,0,sub_22
-0.0075998000000002,0.0151138000000012,-0.0086141999999998,0.0081954000000003,-0.004537199999999,-0.0075121999999999,0,sub_22
-0.0051290000000001,0.0130114000000012,-0.0065995999999998,0.0105476000000003,-0.005185199999999,-0.0087805999999999,0,sub_22
-0.0030032000000001,0.0108786000000012,-0.0052317999999998,0.0107688000000003,-0.003276799999999,-0.0081441999999998,0,sub_22
-0.0004932000000001,0.0087526000000012,-0.0041983999999998,0.0086440000000003,0.0001262000000009,-0.0062443999999998,0,sub_22
0.0011751999999998,0.0068726000000012,-0.0038579999999998,0.0050188000000003,0.0035284000000008,-0.0028595999999999,0,sub_22
0.0014437999999998,0.0062814000000012,-0.0043191999999998,0.0009632000000004,0.0062922000000008,0.0007368,0,sub_22
0.0006671999999997,0.0061140000000012,-0.0046737999999998,-0.0030985999999995,0.0075728000000008,0.0036978,0,sub_22
-0.0010838000000002,0.0064060000000012,-0.0051245999999998,-0.0065219999999995,0.0077884000000008,0.0060236,0,sub_22
-0.0034950000000002,0.0075106000000012,-0.0058269999999998,-0.0084529999999995,0.0067248000000009,0.0072934,0,sub_22
-0.0059686000000002,0.0094018000000012,-0.0065839999999998,-0.0086745999999995,0.0048060000000009,0.0072882,0,sub_22
-0.0075190000000001,0.0099620000000012,-0.0069789999999998,-0.0071873999999995,0.0020342000000009,0.0060142,0,sub_22
-0.0081926000000001,0.0111056000000012,-0.0079451999999998,-0.0046313999999995,-0.000951799999999,0.004107,0,sub_22
-0.0075940000000001,0.0123718000000012,-0.0079491999999998,-0.0016419999999996,-0.003720999999999,0.0009206,0,sub_22
-0.0068340000000001,0.0128662000000012,-0.0074145999999998,0.0015630000000003,-0.005852799999999,-0.0020513999999999,0,sub_22
-0.0058858000000001,0.0127398000000012,-0.0064115999999998,0.0045570000000003,-0.006918199999999,-0.0045927999999999,0,sub_22
-0.0050718000000002,0.0128756000000012,-0.0060753999999998,0.0067048000000003,-0.006279799999999,-0.0067161999999999,0,sub_22
-0.0043596000000002,0.0127054000000012,-0.0057081999999998,0.0071448000000004,-0.004787399999999,-0.0077843999999999,0,sub_22
-0.0045160000000002,0.0115402000000012,-0.0058739999999998,0.0069398000000004,-0.002872799999999,-0.0073619999999999,0,sub_22
-0.0055056000000002,0.0109898000000012,-0.0072103999999998,0.0060926000000004,-0.000320999999999,-0.0058767999999999,0,sub_22
-0.0064072000000002,0.0106332000000012,-0.0088085999999998,0.0035356000000003,0.0024464000000009,-0.0035491999999999,0,sub_22
-0.0082630000000002,0.0107998000000012,-0.0099157999999998,0.0001198000000004,0.0045786000000009,-0.0010119999999999,0,sub_22
-0.0097240000000002,0.0112466000000012,-0.0106955999999998,-0.0020157999999995,0.0064940000000009,0.0013206,0,sub_22
-0.0110418000000001,0.0123810000000012,-0.0112981999999998,-0.0037285999999995,0.0064948000000009,0.0025904,0,sub_22
-0.0112750000000001,0.0133200000000012,-0.0107915999999998,-0.0045905999999995,0.0045802000000009,0.0025868,0,sub_22
-0.0107802000000001,0.0140884000000012,-0.0102665999999998,-0.0035323999999995,0.0018102000000009,0.001743,0,sub_22
-0.0098746000000001,0.0142406000000012,-0.0094411999999998,-0.0014053999999996,-0.001386199999999,5.28000000000875e-05,0,sub_22
-0.0081210000000001,0.0130798000000012,-0.0087423999999998,0.0005092000000003,-0.004368799999999,-0.0016389999999999,0,sub_22
-0.0061188000000002,0.0118800000000012,-0.0077767999999998,0.0024316000000003,-0.005646999999999,-0.0033329999999999,0,sub_22
-0.0042596000000002,0.0099332000000012,-0.0071095999999998,0.0037146000000003,-0.006073199999999,-0.0043917999999999,0,sub_22
-0.0027844000000002,0.0080650000000012,-0.0061331999999998,0.0037184000000004,-0.005645399999999,-0.0048195999999998,0,sub_22
-0.0014984000000002,0.0070444000000012,-0.0053705999999998,0.0026594000000004,-0.003942999999999,-0.0037617999999999,0,sub_22
-0.0008980000000002,0.0069562000000012,-0.0047373999999998,0.0007468000000004,-0.0020253999999991,-0.0024965999999999,0,sub_22
-0.0015664000000002,0.0074454000000012,-0.0046575999999998,-0.0015953999999995,0.0001034000000008,-0.0003801999999999,0,sub_22
-0.0029828000000002,0.0085968000000012,-0.0053111999999998,-0.0037221999999995,0.0028696000000008,0.0019508,0,sub_22
-0.0048042000000002,0.0097918000000012,-0.0059219999999998,-0.0052107999999995,0.0043588000000008,0.0034332,0,sub_22
-0.0062236000000002,0.0114662000000012,-0.0073329999999998,-0.0060623999999995,0.0052122000000008,0.0038534,0,sub_22
-0.0081658000000002,0.0129610000000012,-0.0085005999999998,-0.0060595999999995,0.0054270000000009,0.0034258,0,sub_22
-0.0098592000000002,0.0137912000000012,-0.0096937999999998,-0.0045649999999995,0.0045738000000008,0.0023692,0,sub_22
-0.0099664000000002,0.0134608000000012,-0.0096431999999998,-0.0028591999999995,0.0028614000000008,0.000457,0,sub_22
-0.0100362000000002,0.0129962000000012,-0.0098771999999998,-0.0009379999999995,0.0019988000000009,-0.0010273999999999,0,sub_22
-0.0099952000000002,0.0117038000000012,-0.0095499999999998,0.0005554000000004,0.0007124000000009,-0.0027277999999999,0,sub_22
-0.0093440000000002,0.0101552000000012,-0.0087503999999998,0.0020460000000004,-0.000152199999999,-0.0033605999999999,0,sub_22
-0.0073806000000002,0.0088298000000012,-0.0074441999999998,0.0024726000000004,-0.000161599999999,-0.0037883999999999,0,sub_22
-0.0061076000000002,0.0087680000000012,-0.0068841999999998,0.0022612000000004,0.0006898000000009,-0.0033635999999999,0,sub_22
-0.0046022000000002,0.0086096000000011,-0.0062581999999998,0.0011962000000004,0.0017562000000008,-0.0027313999999999,0,sub_22
-0.0032110000000002,0.0082556000000012,-0.0055735999999998,0.0003446000000004,0.0032464000000008,-0.0016711999999999,0,sub_22
-0.0028852000000002,0.0085564000000012,-0.0059407999999998,-0.0007201999999995,0.0043052000000008,-0.0004021999999999,0,sub_22
-0.0029004000000002,0.0093464000000012,-0.0066133999999998,-0.0024241999999995,0.0051548000000009,0.0004354,0,sub_22
-0.0032332000000002,0.0102542000000012,-0.0071367999999998,-0.0037023999999995,0.0053654000000009,0.0008494,0,sub_22
-0.0043450000000001,0.0114640000000012,-0.0076953999999998,-0.0037003999999995,0.0055716000000009,0.0012722,0,sub_22
-0.0057896000000001,0.0126798000000012,-0.0082405999999998,-0.0030601999999995,0.0049250000000009,0.0012734,0,sub_22
-0.0064010000000001,0.0133170000000012,-0.0085931999999998,-0.0019951999999995,0.0036464000000009,0.0004278,0,sub_22
-0.0068996000000001,0.0134820000000012,-0.0083925999999998,-8.259999999958023e-05,0.0012988000000009,-0.0001967999999999,0,sub_22
-0.0074760000000001,0.0129038000000012,-0.0086297999999998,0.0018300000000004,-0.000836599999999,-0.0006079999999999,0,sub_22
-0.0072090000000002,0.0117652000000012,-0.0085615999999998,0.0026754000000004,-0.002548199999999,-0.0010235999999999,0,sub_22
-0.0061744000000002,0.0107976000000012,-0.0086105999999998,0.0026694000000004,-0.003830799999999,-0.0014457999999999,0,sub_22
-0.0056336000000002,0.0105106000000012,-0.0080797999999998,0.0022374000000004,-0.004262199999999,-0.0012309999999999,0,sub_22
-0.0056944000000002,0.0100902000000012,-0.0081741999999998,0.0018102000000004,-0.003416399999999,-0.0008043999999999,0,sub_22
-0.0054784000000002,0.0098496000000012,-0.0074621999999998,0.0009564000000004,-0.002568999999999,-0.0003807999999999,0,sub_22
-0.0057852000000002,0.0108628000000012,-0.0070257999999998,0.0003174000000004,-0.002141599999999,-0.0001721999999999,0,sub_22
-0.0060940000000002,0.0118340000000012,-0.0070035999999998,0.0003182000000004,-0.001291999999999,0.0004676,0,sub_22
-0.0067574000000002,0.0119354000000012,-0.0072363999999998,0.0003220000000004,-0.000227599999999,0.0006798,0,sub_22
-0.0070068000000002,0.0115248000000012,-0.0073329999999998,0.0005344000000004,0.0001988000000009,0.0006874,0,sub_22
-0.0070986000000002,0.0112660000000012,-0.0081851999999998,0.0011706000000004,0.0001966000000009,0.0009122,0,sub_22
-0.0070570000000002,0.0102596000000012,-0.0088215999999998,0.0015924000000003,-0.000229999999999,0.0009222,0,sub_22
-0.0072414000000002,0.0092348000000012,-0.0082989999999998,0.0015858000000003,-0.001081199999999,0.0009298,0,sub_22
-0.0065062000000002,0.0085174000000012,-0.0079283999999998,0.0017934000000003,-0.001932399999999,0.0007252,0,sub_22
-0.0058770000000001,0.0083428000000012,-0.0074969999999998,0.0011514000000003,-0.002356199999999,0.0007212,0,sub_22
-0.0058752000000001,0.0088196000000012,-0.0068509999999998,0.0007256000000003,-0.0019293999999991,0.0009312,0,sub_22
-0.0057518000000001,0.0095926000000012,-0.0067143999999998,8.640000000039979e-05,-0.0012897999999991,0.0013532,0,sub_22
-0.0056680000000001,0.0103362000000012,-0.0071953999999998,9.50000000003998e-05,-1.9599999999108524e-05,0.0017812,0,sub_22
-0.0061682000000001,0.0110512000000012,-0.0074797999999998,-0.0003239999999995,0.0010390000000008,0.0022066,0,sub_22
-0.0068490000000001,0.0119462000000012,-0.0079239999999998,-0.0005315999999995,0.0018830000000008,0.0028472,0,sub_22
-0.0066110000000001,0.0122440000000012,-0.0081485999999998,-0.0007409999999995,0.0018764000000009,0.0030618,0,sub_22
-0.0066564000000001,0.0118434000000012,-0.0078237999999998,-0.0005217999999995,0.0020824000000008,0.0030654,0,sub_22
-0.0066658000000001,0.0115998000000012,-0.0076405999999998,-0.0007369999999995,0.0014448000000008,0.0028512,0,sub_22
-0.0064938000000002,0.0115766000000012,-0.0076159999999998,-0.0005255999999995,0.0010180000000008,0.0028532,0,sub_22
-0.0061068000000002,0.0111958000000012,-0.0073151999999998,0.0003242000000003,0.0001628000000008,0.0028604,0,sub_22
-0.0064832000000001,0.0107178000000012,-0.0069433999999998,0.0007518000000003,0.0001622000000008,0.0026496,0,sub_22
-0.0063584000000001,0.0110454000000012,-0.0071989999999998,0.0009712000000003,0.0001536000000009,0.0022286,0,sub_22
-0.0057970000000001,0.0108644000000012,-0.0072027999999998,0.0011924000000003,0.0003590000000008,0.0015936,0,sub_22
-0.0057510000000001,0.0105980000000012,-0.0076777999999998,0.0011974000000003,0.0003502000000008,0.0013848,0,sub_22
-0.0057808000000001,0.0107116000000012,-0.0079629999999998,0.0005632000000004,0.0005568000000008,0.0011712,0,sub_22
-0.0054358000000001,0.0110092000000012,-0.0082795999999998,0.0001414000000004,0.0003374000000008,0.000746,0,sub_22
-0.0056836000000001,0.0112064000000012,-0.0077361999999998,-0.0002873999999995,0.0001250000000008,0.000957,0,sub_22
-0.0058150000000001,0.0114948000000012,-0.0078415999999998,-0.0002855999999995,0.0003390000000009,0.0007432,0,sub_22
-0.0062712000000002,0.0116036000000012,-0.0067135999999998,-6.879999999954015e-05,0.0005404000000009,0.0009612,0,sub_22
-0.0062050000000002,0.0116708000000012,-0.0068873999999998,0.0005746000000004,0.0005280000000009,0.0009688,0,sub_22
-0.0068170000000002,0.0117388000000012,-0.0072273999999998,0.0012152000000004,0.0003010000000009,0.001404,0,sub_22
-0.0068790000000002,0.0111474000000012,-0.0083747999999998,0.0018568000000004,7.480000000095136e-05,0.0016256,0,sub_22
-0.0068008000000002,0.0110024000000012,-0.0086221999999998,0.0018544000000004,-0.000152799999999,0.0026972,0,sub_22
-0.0061464000000002,0.0107894000000012,-0.0093453999999998,0.0012132000000004,-0.000363599999999,0.002693,0,sub_22
-0.0061754000000002,0.0109414000000012,-0.0090717999999998,0.0001464000000004,-0.000147599999999,0.002899,0,sub_22
-0.0059634000000001,0.0106964000000011,-0.0084677999999998,-0.0009175999999995,0.0004952000000009,0.0028908,0,sub_22
-0.0057512000000001,0.0109918000000011,-0.0075665999999998,-0.0013457999999995,0.0004924000000009,0.0031022,0,sub_22
-0.0059584000000001,0.0113104000000011,-0.0074379999999998,-0.0015585999999995,0.0002786000000009,0.0026746,0,sub_22
-0.0063860000000001,0.0120136000000011,-0.0073813999999998,-0.0011321999999995,6.160000000091132e-05,0.002465,0,sub_22
-0.0066146000000001,0.0121926000000011,-0.0073277999999998,-0.0007039999999995,5.840000000091132e-05,0.0020414,0,sub_22
-0.0067218000000001,0.0121386000000012,-0.0074301999999998,-6.139999999956018e-05,0.0002676000000009,0.0016192,0,sub_22
