userAcceleration.x,userAcceleration.y,userAcceleration.z,rotationRate.x,rotationRate.y,rotationRate.z,label,subject
-0.0110376000000001,0.0365806000000012,0.0134118,0.0115088000000004,-0.010345599999999,6.660000000011734e-05,0,sub_18
-0.0123150000000002,0.0355666000000012,0.0122838,0.0109024000000004,-0.010788999999999,0.0002756000000001,0,sub_18
-0.0138354000000002,0.0350998000000012,0.0116042,0.0092444000000004,-0.008243999999999,4.600000000013736e-05,0,sub_18
-0.0149824000000002,0.0352446000000012,0.009525,0.0041898000000004,-0.001852199999999,-0.0002121999999998,0,sub_18
-0.0155736000000002,0.0359264000000012,0.0079082,-0.0016961999999995,0.0096550000000009,-0.0002689999999998,0,sub_18
-0.0159992000000002,0.0369704000000012,0.0087088,-0.0067623999999994,0.0222412000000009,0.0001066000000001,0,sub_18
-0.0160966000000002,0.0372738000000012,0.0103954,-0.0082253999999994,0.0297008000000009,0.0007278000000001,0,sub_18
-0.0148468000000002,0.0380870000000012,0.0120036,-0.0082377999999994,0.0284164000000009,0.0022250000000001,0,sub_18
-0.0123272000000002,0.0380906000000012,0.0141192,-0.0055009999999995,0.0213066000000009,0.0030900000000001,0,sub_18
-0.0099854000000002,0.0372532000000012,0.014228,-0.0014905999999995,0.0116400000000009,0.0028990000000001,0,sub_18
-0.0075498000000002,0.0375962000000012,0.012932,0.0027196000000004,-0.001646599999999,0.0020732000000001,0,sub_18
-0.0059886000000002,0.0377618000000012,0.0125008,0.0065088000000004,-0.014502199999999,0.0003892000000001,0,sub_18
-0.0050054000000002,0.0368882000000012,0.012127,0.0079874000000004,-0.020314599999999,-0.0023881999999998,0,sub_18
-0.0064288000000002,0.0368224000000012,0.01166,0.0080008000000004,-0.020090399999999,-0.0051655999999998,0,sub_18
-0.0090528000000002,0.0369496000000012,0.0111622,0.0069444000000004,-0.018803999999999,-0.0062427999999998,0,sub_18
-0.0130382000000002,0.0361328000000012,0.0111116,0.0058928000000004,-0.015603599999999,-0.0064679999999998,0,sub_18
-0.0164368000000002,0.0362594000000012,0.0108322,0.0044014000000004,-0.010738799999999,-0.0054279999999998,0,sub_18
-0.0200682000000002,0.0372132000000012,0.0108748,0.0050282000000004,-0.008441399999999,-0.0035153999999998,0,sub_18
-0.0219234000000002,0.0368220000000012,0.0112508,0.0065038000000004,-0.006575599999999,-0.0009553999999998,0,sub_18
-0.0216996000000002,0.0365674000000012,0.0123686,0.0073528000000004,-0.001936999999999,0.0013832000000001,0,sub_18
-0.0194880000000002,0.0367906000000012,0.012571,0.0075636000000004,0.0029176000000009,0.0035034000000001,0,sub_18
-0.0160702000000002,0.0363470000000012,0.0112858,0.0065178000000004,0.0086696000000009,0.0045570000000001,0,sub_18
-0.0120462000000002,0.0355372000000012,0.0109288,0.0041986000000004,0.0150686000000009,0.0047462,0,sub_18
-0.0080728000000002,0.0356210000000012,0.0123426,0.0042082000000004,0.0155014000000009,0.0030366000000001,0,sub_18
-0.0061850000000001,0.0369542000000012,0.011868,0.0080006000000004,0.0039596000000009,-0.0016309999999998,0,sub_18
-0.0050460000000001,0.0394158000000012,0.0114696,0.0115548000000004,-0.011847599999999,-0.0050127999999998,0,sub_18
-0.0048890000000001,0.0400966000000012,0.0107524,0.0127822000000004,-0.021262599999999,-0.0064961999999998,0,sub_18
-0.0054512000000001,0.0404306000000012,0.010612,0.0114864000000004,-0.022783999999999,-0.0084345999999998,0,sub_18
-0.0075364000000001,0.0415980000000012,0.0092726,0.0095562000000004,-0.021539399999999,-0.0088855999999998,0,sub_18
-0.0094428000000001,0.0408348000000012,0.0114464,0.0078628000000004,-0.015579799999999,-0.0059139999999998,0,sub_18
-0.0123838000000001,0.0378004000000012,0.01151,0.0083156000000004,-0.007706799999999,-0.0037843999999998,0,sub_18
-0.0152510000000001,0.0363164000000012,0.0125548,0.0106414000000004,-0.007740999999999,-0.0031329999999998,0,sub_18
-0.0176150000000001,0.0355888000000012,0.0120888,0.0142168000000004,-0.013748399999999,-0.0016105999999998,0,sub_18
-0.0190380000000001,0.0339564000000012,0.011693,0.0152462000000004,-0.016338999999999,0.0001032000000001,0,sub_18
-0.0195354000000002,0.0331238000000012,0.0103926,0.0122424000000004,-0.014864799999999,0.0011428,0,sub_18
-0.0186400000000002,0.0338386000000012,0.0109174,0.0073298000000004,-0.011463799999999,0.0015254,0,sub_18
-0.0171224000000002,0.0352310000000012,0.0117596,0.0039322000000004,-0.007617799999999,0.0017102,0,sub_18
-0.0146290000000002,0.0368820000000012,0.013033,0.0024482000000004,-0.005906599999999,0.0012702,0,sub_18
-0.0116330000000002,0.0387546000000012,0.0133102,0.0039408000000004,-0.006549199999999,0.0008542,0,sub_18
-0.0087224000000001,0.0402016000000012,0.0139256,0.0077588000000004,-0.009794199999999,0.0004520000000001,0,sub_18
-0.0065210000000001,0.0405286000000011,0.0141638,0.0124226000000004,-0.014746599999999,5.800000000011724e-05,0,sub_18
-0.0056412000000001,0.0401958000000011,0.0131722,0.0153888000000004,-0.017350199999999,-0.0001371999999998,0,sub_18
-0.0064902000000001,0.0393950000000012,0.0115394,0.0162358000000004,-0.016326199999999,7.540000000011727e-05,0,sub_18
-0.0085874000000001,0.0385634000000012,0.010884,0.0151682000000004,-0.014229399999999,5.960000000011724e-05,0,sub_18
-0.0113770000000002,0.0373418000000012,0.01058,0.0128344000000004,-0.011238399999999,3.9400000000117245e-05,0,sub_18
-0.0138228000000002,0.0367642000000012,0.0106628,0.0094376000000004,-0.007603799999999,-0.0002025999999998,0,sub_18
-0.0155400000000001,0.0366742000000012,0.011144,0.0068916000000004,-0.004823399999999,-0.0006511999999998,0,sub_18
-0.0166012000000001,0.0363790000000012,0.011807,0.0058256000000004,-0.004606599999999,-0.0006587999999998,0,sub_18
-0.0170082000000001,0.0361704000000012,0.0123032,0.0051610000000004,-0.006310399999999,-0.0008729999999998,0,sub_18
-0.0161308000000001,0.0367506000000012,0.0119092,0.0044984000000004,-0.007588199999999,-0.0010875999999998,0,sub_18
-0.0141302000000001,0.0374338000000012,0.012285,0.0042654000000004,-0.007803799999999,-0.0008731999999998,0,sub_18
-0.0124000000000001,0.0373132000000012,0.0128778,0.0046714000000004,-0.008234799999999,-0.0006541999999998,0,sub_18
-0.0106990000000002,0.0373594000000012,0.0128922,0.0052898000000004,-0.009303799999999,-0.0008601999999998,0,sub_18
-0.0089022000000001,0.0376632000000012,0.0118994,0.0057184000000004,-0.008242599999999,-0.0002175999999998,0,sub_18
-0.0078082000000001,0.0378408000000011,0.010972,0.0040258000000004,-0.004191999999999,0.0006200000000001,0,sub_18
-0.0082944000000001,0.0379280000000012,0.0098084,0.0006144000000004,0.0028478000000009,0.0010156000000001,0,sub_18
-0.0088538000000001,0.0384818000000012,0.008826,-0.0042827999999995,0.0118094000000009,0.0016122000000001,0,sub_18
-0.0102682000000001,0.0390254000000012,0.0095328,-0.0085417999999995,0.0203426000000009,0.0022138000000001,0,sub_18
-0.0121252000000002,0.0388090000000012,0.0118596,-0.0098317999999995,0.0237564000000009,0.0017746000000001,0,sub_18
-0.0141020000000001,0.0392388000000012,0.0131562,-0.0064573999999995,0.0199126000000009,0.0007362000000001,0,sub_18
-0.0147774000000001,0.0388450000000012,0.014022,-0.0005183999999995,0.0120088000000009,0.0007880000000001,0,sub_18
-0.0149254000000001,0.0382734000000012,0.0141834,0.0058396000000004,0.0026112000000009,0.0010582000000001,0,sub_18
-0.0145262000000001,0.0372828000000012,0.0129976,0.0104994000000004,-0.004438599999999,0.0017406000000001,0,sub_18
-0.0136260000000001,0.0369658000000012,0.010691,0.0111252000000004,-0.006575599999999,0.0028158000000001,0,sub_18
-0.0122228000000001,0.0356000000000012,0.0096816,0.0087516000000004,-0.003132599999999,0.0032322000000001,0,sub_18
-0.0118926000000001,0.0356266000000012,0.0091198,0.0051036000000004,0.0005324000000009,0.0025710000000001,0,sub_18
-0.0118084000000001,0.0359098000000012,0.0096582,0.0016670000000004,0.0037706000000009,0.0019118000000001,0,sub_18
-0.0114242000000001,0.0362174000000012,0.0112022,-0.0007055999999995,0.0055170000000009,0.0004076000000001,0,sub_18
-0.0113642000000001,0.0371288000000012,0.0112658,-0.0018075999999995,0.0051284000000009,-0.0010849999999998,0,sub_18
-0.0113332000000001,0.0387562000000012,0.0120092,-0.0011799999999995,0.0021444000000009,-0.0012905999999998,0,sub_18
-0.0112804000000001,0.0396548000000012,0.0131244,0.0003020000000004,-0.000205399999999,-0.0010635999999998,0,sub_18
-0.0113756000000001,0.0402752000000012,0.013957,0.0041130000000004,-0.006823399999999,-0.0010283999999998,0,sub_18
-0.0112590000000001,0.0404804000000012,0.0132782,0.0089332000000004,-0.014897199999999,8.940000000013745e-05,0,sub_18
-0.0112180000000001,0.0394996000000012,0.014088,0.0139764000000004,-0.020841399999999,0.0012060000000001,0,sub_18
-0.0117206000000001,0.0387324000000012,0.014232,0.0181730000000004,-0.025715599999999,0.0018882000000001,0,sub_18
-0.0120492000000001,0.0381408000000012,0.0139824,0.0225734000000004,-0.032508799999999,0.0027878000000001,0,sub_18
-0.0128588000000001,0.0376772000000012,0.0132476,0.0257108000000004,-0.035462599999999,0.0036736000000001,0,sub_18
-0.0137538000000001,0.0376494000000012,0.0129106,0.0282626000000004,-0.037388999999999,0.0036940000000001,0,sub_18
-0.0135614000000001,0.0375272000000012,0.0124966,0.0301714000000004,-0.040376599999999,0.0032840000000001,0,sub_18
-0.0133136000000001,0.0370054000000012,0.0119482,0.0303762000000004,-0.042719199999999,0.0028612000000001,0,sub_18
-0.0125732000000001,0.0358958000000012,0.0106156,0.0279886000000004,-0.041166399999999,0.0019928,0,sub_18
-0.0111134000000001,0.0356782000000012,0.0101484,0.0236960000000004,-0.036622599999999,0.00068,0,sub_18
-0.0098308000000001,0.0358542000000012,0.0099306,0.0181358000000004,-0.029092399999999,-0.0004319999999999,0,sub_18
-0.0099884000000002,0.0366728000000012,0.0099134,0.0127880000000004,-0.020927199999999,-0.0006887999999999,0,sub_18
-0.0107298000000002,0.0373012000000012,0.0097526,0.0076526000000004,-0.012975799999999,-0.0009437999999999,0,sub_18
-0.0117900000000002,0.0384658000000012,0.0103772,0.0042684000000004,-0.006783599999999,-0.0014025999999998,0,sub_18
-0.0120618000000002,0.0389994000000012,0.0109656,0.0027930000000004,-0.003154799999999,-0.0018447999999998,0,sub_18
-0.0125292000000002,0.0397770000000012,0.010607,0.0023344000000004,-0.002054799999999,-0.0018467999999998,0,sub_18
-0.0125494000000002,0.0399020000000012,0.010311,0.0022996000000004,-0.001807799999999,-0.0020583999999998,0,sub_18
-0.0111512000000002,0.0397804000000012,0.0098966,0.0026886000000004,-0.001776999999999,-0.0018393999999998,0,sub_18
-0.0098002000000002,0.0394958000000012,0.0096908,0.0028662000000004,-0.000682799999999,-0.0009823999999998,0,sub_18
-0.0094726000000002,0.0397226000000012,0.0084608,7.200000000046475e-05,0.0040430000000009,6.280000000011762e-05,0,sub_18
-0.0091912000000002,0.0390750000000012,0.0086806,-0.0043675999999995,0.0142808000000009,0.001087,0,sub_18
-0.0095928000000002,0.0378504000000012,0.0098174,-0.0098547999999995,0.0294202000000009,0.0027384,0,sub_18
-0.0108242000000002,0.0368178000000012,0.0110366,-0.0149047999999995,0.0473260000000009,0.0048166,0,sub_18
-0.0129898000000001,0.0345860000000012,0.0136854,-0.0182525999999995,0.0641606000000009,0.006908,0,sub_18
-0.0153866000000001,0.0320192000000012,0.0159662,-0.0167379999999995,0.0705402000000009,0.0086196,0,sub_18
-0.0175690000000001,0.0303844000000012,0.0152218,-0.0131499999999995,0.0622168000000009,0.0090826,0,sub_18
-0.0186142000000001,0.0293528000000012,0.0144086,-0.0091677999999995,0.0449504000000009,0.0078508,0,sub_18
-0.0177024000000001,0.0286248000000012,0.0134738,-0.0062601999999995,0.0238614000000009,0.0044798,0,sub_18
-0.0151058000000002,0.0305636000000012,0.0114066,-0.0073969999999995,0.0032194000000009,-0.0006291999999999,0,sub_18
-0.0122902000000002,0.0326882000000011,0.0109162,-0.0108635999999995,-0.010801399999999,-0.0059769999999999,0,sub_18
-0.0095880000000002,0.0348944000000011,0.0117434,-0.0130241999999995,-0.018437399999999,-0.0106827999999998,0,sub_18
-0.0085684000000002,0.0397444000000011,0.0138102,-0.0111335999999995,-0.025241399999999,-0.0138659999999998,0,sub_18
-0.0095212000000002,0.0435232000000011,0.016359,-0.0032905999999995,-0.034419999999999,-0.0144407999999998,0,sub_18
-0.0115046000000001,0.0456530000000012,0.0179274,0.0102846000000004,-0.047463999999999,-0.0124065999999998,0,sub_18
-0.0142988000000001,0.0462114000000012,0.0164376,0.0266376000000004,-0.060745999999999,-0.0084297999999998,0,sub_18
-0.0171888000000001,0.0464838000000012,0.0162146,0.0425792000000004,-0.068707999999999,-0.0025399999999998,0,sub_18
-0.0189318000000001,0.0428132000000012,0.0125022,0.0540022000000004,-0.071701999999999,0.0043752000000001,0,sub_18
-0.0205246000000001,0.0403868000000012,0.0071348,0.0584042000000004,-0.070833999999999,0.0105956000000001,0,sub_18
-0.0200570000000001,0.0391614000000012,0.002593,0.0566558000000004,-0.063120599999999,0.0152686000000001,0,sub_18
-0.0179538000000002,0.0392156000000012,0.0014938,0.0472796000000004,-0.046420199999999,0.0168860000000001,0,sub_18
-0.0139532000000002,0.0391072000000012,0.0025456,0.0353612000000004,-0.0277847999999991,0.0163466000000001,0,sub_18
-0.0089950000000002,0.0397438000000012,0.0066948,0.0264782000000004,-0.011556199999999,0.0149820000000001,0,sub_18
-0.0046818000000002,0.0392420000000012,0.0119996,0.0212110000000004,0.0023152000000009,0.0138592000000001,0,sub_18
-0.0037734000000002,0.0368844000000012,0.0144132,0.0197528000000004,0.0089302000000009,0.0125586000000001,0,sub_18
-0.0038662000000002,0.0340106000000011,0.0156932,0.0214520000000004,0.0070076000000009,0.0123592000000001,0,sub_18
-0.0063164000000002,0.0315834000000011,0.0145804,0.0226388000000004,0.0017704000000009,0.0117294000000001,0,sub_18
-0.0103414000000001,0.0291204000000011,0.0126164,0.0210566000000004,-0.004301599999999,0.0091584000000001,0,sub_18
-0.0133894000000001,0.0269820000000011,0.0111336,0.0162814000000004,-0.010992199999999,0.0042158000000001,0,sub_18
-0.0157858000000002,0.0269918000000011,0.0110732,0.0098088000000004,-0.015758399999999,-0.0009545999999998,0,sub_18
-0.0190578000000002,0.0282038000000012,0.0102068,0.0033306000000004,-0.021378599999999,-0.0056967999999998,0,sub_18
-0.0210920000000002,0.0298890000000012,0.0097318,-0.0024449999999995,-0.028373799999999,-0.0095737999999998,0,sub_18
-0.0214760000000002,0.0333526000000012,0.0088118,-0.0073555999999995,-0.031754399999999,-0.0123809999999998,0,sub_18
-0.0212512000000002,0.0379280000000012,0.0077828,-0.0103351999999995,-0.030463999999999,-0.0128307999999998,0,sub_18
-0.0196334000000002,0.0422094000000012,0.0079378,-0.0111723999999995,-0.024504999999999,-0.0104941999999998,0,sub_18
-0.0151876000000002,0.0456258000000011,0.0091558,-0.0092223999999995,-0.014299599999999,-0.0068615999999998,0,sub_18
-0.0108618000000002,0.0470888000000011,0.010696,-0.0047049999999995,-0.001762999999999,-0.0023595999999999,0,sub_18
-0.0067608000000002,0.0470068000000011,0.0121272,0.0015088000000004,0.0082118000000009,0.0019438,0,sub_18
-0.0038126000000002,0.0455048000000012,0.012424,0.0083482000000004,0.0137154000000009,0.0049756,0,sub_18
-0.0017904000000002,0.0420288000000012,0.0122798,0.0145400000000004,0.0149704000000009,0.0054444,0,sub_18
-0.0020572000000002,0.0383892000000012,0.0117726,0.0185854000000004,0.0121900000000009,0.0046216000000001,0,sub_18
-0.0043084000000002,0.0347580000000012,0.0113232,0.0196378000000004,0.0066562000000009,0.0022860000000001,0,sub_18
-0.0085386000000002,0.0321070000000012,0.0105366,0.0174888000000004,0.0007084000000009,-0.0002851999999998,0,sub_18
-0.0123198000000002,0.0294892000000012,0.011015,0.0134262000000004,-0.003741199999999,-0.0028715999999998,0,sub_18
-0.0168394000000002,0.0283778000000012,0.0110994,0.0076622000000004,-0.006482199999999,-0.0050447999999998,0,sub_18
-0.0210084000000002,0.0272838000000012,0.0115126,0.0016888000000004,-0.007309399999999,-0.0061535999999998,0,sub_18
-0.0233200000000002,0.0275040000000012,0.0110834,-0.0036387999999995,-0.006648199999999,-0.0070461999999998,0,sub_18
-0.0238190000000002,0.0287918000000012,0.010889,-0.0083225999999995,-0.004288199999999,-0.0070817999999998,0,sub_18
-0.0234392000000002,0.0307734000000012,0.0103226,-0.0117203999999995,-0.000866599999999,-0.0073235999999998,0,sub_18
-0.0213776000000002,0.0329122000000012,0.0104402,-0.0138387999999995,0.0031862000000009,-0.0067025999999998,0,sub_18
-0.0183870000000002,0.0359866000000012,0.0103372,-0.0153179999999995,0.0068116000000009,-0.0062903999999998,0,sub_18
-0.0153400000000002,0.0392032000000012,0.0107214,-0.0157351999999995,0.0100046000000009,-0.0052291999999998,0,sub_18
-0.0120258000000002,0.0409554000000012,0.0104198,-0.0152977999999995,0.0134076000000009,-0.0041623999999998,0,sub_18
-0.0091232000000002,0.0429156000000012,0.0108352,-0.0144355999999995,0.0174440000000009,-0.0020249999999998,0,sub_18
-0.0066638000000002,0.0439088000000012,0.011732,-0.0127189999999995,0.0208418000000009,-0.0007353999999998,0,sub_18
-0.0057020000000001,0.0436104000000012,0.0116328,-0.0109947999999995,0.0250952000000009,-0.0003015999999998,0,sub_18
-0.0053012000000001,0.0418382000000012,0.0106916,-0.0107525999999995,0.0316982000000009,-9.47999999998821e-05,0,sub_18
-0.0059814000000001,0.0406076000000012,0.0108772,-0.0111371999999995,0.0406496000000008,-0.0005361999999998,0,sub_18
-0.0080156000000001,0.0381026000000012,0.0109566,-0.0125847999999995,0.0496082000000009,-0.0018397999999998,0,sub_18
-0.0108022000000001,0.0359104000000012,0.0096362,-0.0155365999999995,0.0560162000000009,-0.0033641999999998,0,sub_18
-0.0128190000000001,0.0342358000000012,0.0092412,-0.0187111999999995,0.0600822000000009,-0.0051005999999998,0,sub_18
-0.0147488000000001,0.0338686000000012,0.0100918,-0.0218935999999995,0.0624438000000008,-0.0068349999999998,0,sub_18
-0.0169180000000001,0.0326418000000012,0.0101906,-0.0251263999999995,0.0576038000000008,-0.0079207999999998,0,sub_18
-0.0181734000000002,0.0323952000000012,0.0102694,-0.0277335999999995,0.0502024000000009,-0.0083579999999998,0,sub_18
-0.0190956000000002,0.0329330000000012,0.0114776,-0.0294813999999995,0.0447130000000009,-0.0081507999999998,0,sub_18
-0.0204888000000001,0.0334846000000012,0.0124972,-0.0295243999999995,0.0398526000000009,-0.0068641999999998,0,sub_18
-0.0217414000000001,0.0353546000000012,0.0121706,-0.0265943999999995,0.0334834000000009,-0.0038457999999998,0,sub_18
-0.0212158000000001,0.0380550000000012,0.0131788,-0.0187399999999995,0.0279028000000009,-0.0003653999999998,0,sub_18
-0.0198354000000001,0.0414864000000012,0.0139444,-0.0066929999999995,0.0204832000000009,0.0027134000000001,0,sub_18
-0.0166744000000001,0.0421666000000012,0.0130088,0.0072626000000004,0.0111368000000009,0.0064490000000001,0,sub_18
-0.0121554000000001,0.0431730000000012,0.0118494,0.0182416000000004,0.0032956000000009,0.0093072000000001,0,sub_18
-0.0071126000000001,0.0413276000000011,0.01077,0.0239286000000004,0.0025134000000009,0.0097694000000001,0,sub_18
-0.0044920000000001,0.0383078000000011,0.00962,0.0226336000000004,0.0126308000000009,0.0078186000000001,0,sub_18
-0.0048946000000002,0.0349746000000011,0.0085372,0.0131314000000004,0.0326998000000009,0.0055902000000001,0,sub_18
-0.0082620000000002,0.0346372000000011,0.0068026,-0.0025305999999995,0.0591812000000009,0.0035240000000001,0,sub_18
-0.0128672000000002,0.0347566000000011,0.0053424,-0.0186269999999995,0.0871426000000008,0.0046576000000001,0,sub_18
-0.0176848000000002,0.0357794000000011,0.0083808,-0.0324367999999995,0.1048564000000008,0.0090250000000001,0,sub_18
-0.0250696000000002,0.0380020000000011,0.0110684,-0.0374369999999994,0.1038472000000008,0.0136904000000001,0,sub_18
-0.0289742000000002,0.0367852000000011,0.0138724,-0.0303717999999994,0.0859458000000009,0.0231616000000001,0,sub_18
-0.0298248000000002,0.0345410000000011,0.0171928,-0.0161123999999995,0.0518380000000009,0.0299266,0,sub_18
-0.0251510000000002,0.0346404000000011,0.0165378,-0.0035417999999995,0.0154182000000009,0.0302734,0,sub_18
-0.0194778000000002,0.0357708000000011,0.0151632,0.0093236000000004,-0.009683199999999,0.0237712,0,sub_18
-0.0072952000000002,0.0354548000000012,0.012804,0.0178336000000004,-0.023528199999999,0.0155162,0,sub_18
0.0016381999999997,0.0360902000000012,0.0104032,0.0170328000000004,-0.026661399999999,0.0005596000000001,0,sub_18
0.0083779999999997,0.0372586000000012,0.009764,0.0092138000000004,-0.021473599999999,-0.0112519999999998,0,sub_18
0.0071267999999997,0.0361406000000012,0.011554,0.0015654000000004,-0.015011599999999,-0.0166453999999998,0,sub_18
-0.0011300000000002,0.0352776000000012,0.0106112,-0.0052773999999995,-0.012627199999999,-0.0154051999999998,0,sub_18
-0.0140764000000002,0.0351192000000012,0.0106676,-0.0112859999999994,-0.010050399999999,-0.0096727999999998,0,sub_18
-0.0250692000000002,0.0365078000000012,0.009731,-0.0141091999999994,-0.007710799999999,-0.0007131999999998,0,sub_18
-0.0350924000000002,0.0369892000000012,0.0085988,-0.0115731999999994,-0.000486999999999,0.0076366000000001,0,sub_18
-0.0408522000000002,0.0370636000000012,0.0088894,-0.0049421999999995,0.0088412000000009,0.0134392000000001,0,sub_18
-0.0376546000000002,0.0360720000000012,0.0089362,0.0008400000000004,0.0173280000000009,0.0173144,0,sub_18
-0.0299164000000002,0.0344954000000011,0.0095046,0.0049538000000004,0.0270242000000009,0.0190532,0,sub_18
-0.0192908000000002,0.0338276000000012,0.0107246,0.0071482000000004,0.0339694000000009,0.0177912,0,sub_18
-0.0066836000000002,0.0338864000000012,0.0107646,0.0078354000000004,0.0349662000000009,0.0135352,0,sub_18
0.0043947999999997,0.0332892000000012,0.0113996,0.0076384000000004,0.0274508000000008,0.0075748,0,sub_18
0.0105705999999997,0.0334216000000012,0.0132972,0.0067900000000004,0.0165320000000009,0.0007594000000001,0,sub_18
0.0106887999999997,0.0345386000000012,0.0132656,0.0056810000000004,0.0007954000000009,-0.0056375999999998,0,sub_18
0.0061129999999998,0.0348282000000012,0.0122954,0.0047652000000004,-0.016869599999999,-0.0094669999999998,0,sub_18
-0.0021778000000001,0.0344938000000012,0.012368,0.0029988000000004,-0.032194799999999,-0.0115961999999998,0,sub_18
-0.0123470000000001,0.0353070000000012,0.010949,0.0018974000000004,-0.041134199999999,-0.0128743999999998,0,sub_18
-0.0222124000000001,0.0349662000000012,0.0082164,0.0027402000000004,-0.044117199999999,-0.0135055999999998,0,sub_18
-0.0281786000000001,0.0349892000000012,0.0065524,0.0019078000000004,-0.039639199999999,-0.0137307999999998,0,sub_18
-0.0304170000000001,0.0357368000000012,0.0065144,0.0006744000000004,-0.028982999999999,-0.0135393999999998,0,sub_18
-0.0299100000000001,0.0375664000000012,0.0064982,0.0009434000000004,-0.014716999999999,-0.0116329999999998,0,sub_18
-0.0266984000000001,0.0387410000000012,0.0083064,0.0035432000000004,-0.002171199999999,-0.0077851999999998,0,sub_18
-0.0217588000000001,0.0401832000000011,0.0100982,0.0080288000000004,0.0043956000000009,-0.0022073999999998,0,sub_18
-0.0165734000000001,0.0398424000000012,0.0102748,0.0135524000000004,0.0054158000000009,0.0042392000000001,0,sub_18
-0.0132508000000001,0.0386504000000012,0.0098266,0.0171538000000004,0.0058046000000009,0.0104594000000001,0,sub_18
