userAcceleration.x,userAcceleration.y,userAcceleration.z,rotationRate.x,rotationRate.y,rotationRate.z,label,subject
9.719999999980309e-05,-0.0052173999999987,0.0009852,-0.0058925999999995,0.0144686000000008,-0.0099433999999999,0,sub_22
0.0036217999999998,-0.0032551999999987,-0.0055241999999999,-0.0020291999999995,0.0216858000000008,-0.0103409999999999,0,sub_22
0.0073919999999998,0.0008362000000012,-0.0106221999999999,0.0078182000000004,0.0320736000000008,-0.0096325999999999,0,sub_22
0.0111953999999998,0.0056848000000012,-0.0144259999999999,0.0198004000000004,0.0435158000000008,-0.0080561999999999,0,sub_22
0.0103423999999998,0.0080194000000012,-0.0097527999999998,0.0283408000000004,0.0498524000000008,-0.0054289999999999,0,sub_22
0.0085299999999998,0.0107726000000012,-0.0039969999999998,0.0325706000000004,0.0464042000000008,-0.0030329999999998,0,sub_22
0.0035395999999998,0.0084720000000012,0.0055778,0.0295250000000004,0.0346916000000008,-0.0017573999999998,0,sub_22
-0.0012946000000001,0.0045982000000012,0.0120172,0.0185692000000004,0.0181124000000008,-0.0020263999999998,0,sub_22
-0.0051290000000001,0.0017652000000012,0.0162192,0.0029028000000004,-0.0020721999999991,-0.0023235999999998,0,sub_22
-0.0054162000000001,0.0027880000000012,0.012492,-0.0119227999999995,-0.0208045999999991,-0.0004985999999998,0,sub_22
-0.0050122000000001,0.0037362000000012,0.0091716,-0.0276123999999995,-0.0393309999999991,0.0038840000000001,0,sub_22
-0.0014098000000001,-0.0027005999999987,-0.0006157999999999,-0.0415961999999995,-0.0580765999999991,0.0082786,0,sub_22
0.0075255999999998,0.0102866000000012,-0.0173285999999999,-0.0292439999999995,-0.0562493999999991,0.0132582,0,sub_22
0.0010429999999998,0.0098000000000012,-0.0173007999999999,-0.0159375999999995,-0.0388451999999991,0.0113878,0,sub_22
-0.0020038000000001,0.0050604000000012,-0.0147067999999999,-0.0001011999999995,-0.0322803999999991,0.0076444,0,sub_22
0.0001277999999998,0.0053238000000012,-0.0139725999999999,0.0086786000000004,-0.0276145999999991,0.0053496,0,sub_22
0.0008833999999998,0.0123222000000012,-0.0112295999999999,0.0155804000000004,-0.0120821999999991,0.0045234,0,sub_22
-0.0031016000000001,-0.0012291999999987,-0.0012517999999999,0.0085698000000004,-0.0077677999999991,0.004267,0,sub_22
0.0034645999999998,-0.0020949999999987,-0.0012303999999999,0.0018796000000004,-0.0196767999999991,0.0115112,0,sub_22
0.0060621999999998,0.0007640000000012,-0.0019575999999999,-0.0092213999999995,-0.0179269999999991,0.0167842,0,sub_22
0.0041221999999998,5.880000000126366e-05,-0.0035475999999999,-0.0055355999999995,-0.0089565999999991,0.015101,0,sub_22
0.0021445999999998,0.0001062000000012,-0.0022473999999999,0.0041170000000004,-0.0046823999999991,0.0104744,0,sub_22
-0.0005994000000001,0.0006840000000012,0.0021114,0.0022100000000004,-0.0078467999999991,0.0042694,0,sub_22
0.0006797999999997,0.0016342000000012,0.0009902,0.0013862000000004,-0.0084539999999991,-0.0029993999999999,0,sub_22
0.0023819999999997,0.0027724000000011,-0.0024637999999999,0.0054718000000004,-0.0052569999999991,-0.0068203999999999,0,sub_22
0.0026123999999997,0.0027346000000011,-0.0049333999999999,0.0050662000000004,-0.0003561999999991,-0.0066157999999998,0,sub_22
0.0002847999999997,0.0020332000000011,-0.0027399999999999,0.0010116000000004,-0.0001201999999991,-0.0049129999999999,0,sub_22
-0.0004408000000002,0.0017242000000011,-0.0008895999999999,-7.199999999955021e-05,-0.0045773999999991,-0.0042517999999999,0,sub_22
0.0012191999999998,0.0021776000000012,-0.0004667999999999,0.0016306000000004,-0.0071233999999991,-0.0044279999999999,0,sub_22
0.0034603999999998,0.0025764000000012,-0.0012621999999999,0.0037736000000004,-0.0083857999999991,-0.0063119999999999,0,sub_22
0.0048611999999997,0.0028906000000012,-0.0006447999999999,0.0059156000000004,-0.0098611999999991,-0.0081957999999999,0,sub_22
0.0054677999999997,0.0029692000000012,0.0003302,0.0069922000000004,-0.0100685999999991,-0.0105379999999998,0,sub_22
0.0035279999999998,-0.0009063999999987,0.0008904,0.0050902000000004,-0.0081359999999991,-0.0126901999999999,0,sub_22
0.0027055999999998,-0.0025249999999987,-0.0008923999999999,0.0010524000000004,-0.0060227999999991,-0.0146085999999998,0,sub_22
0.0046385999999998,-0.0022493999999987,-0.0038585999999999,-0.0010737999999995,-0.0028631999999991,-0.0135239999999999,0,sub_22
0.0075767999999998,-0.0010945999999987,-0.0087061999999998,0.0002168000000004,0.0036824000000008,-0.0096423999999999,0,sub_22
0.0088923999999998,0.0020866000000012,-0.0136745999999998,0.0077076000000004,0.0155226000000008,-0.0031605999999999,0,sub_22
0.0076887999999998,0.0063024000000012,-0.0113665999999998,0.0164758000000004,0.0271434000000008,0.0037578,0,sub_22
0.0043681999999998,0.0080900000000012,-0.0066563999999998,0.0228722000000004,0.0322096000000008,0.0099916,0,sub_22
-0.0006288000000001,0.0067082000000012,0.0012620000000001,0.0239112000000004,0.0296348000000008,0.0136342,0,sub_22
-0.0047322000000001,0.0054064000000012,0.0083048,0.0200340000000004,0.0224010000000008,0.014471,0,sub_22
-0.0073396000000001,0.0015696000000012,0.0132028,0.0095136000000004,0.0081354000000008,0.0120912,0,sub_22
-0.0073562000000001,0.0004852000000012,0.0110514,-0.0039977999999995,-0.0080329999999991,0.0086248,0,sub_22
-0.0065898000000001,0.0006880000000012,0.008909,-0.0168633999999995,-0.0218643999999991,0.0062282,0,sub_22
-0.0065208000000001,0.0016792000000012,0.0080458,-0.0316453999999995,-0.0348367999999991,0.003817,0,sub_22
-0.0038692000000001,-0.0041471999999987,-0.0017065999999999,-0.0451453999999995,-0.0478119999999991,0.0009876000000001,0,sub_22
-0.0046006000000001,0.0005668000000012,-0.0111921999999999,-0.0289203999999995,-0.0459511999999991,0.0010986000000001,0,sub_22
-0.0072452000000001,0.0014340000000012,-0.0117621999999999,-0.0134693999999995,-0.0306479999999991,-0.0030859999999998,0,sub_22
-0.0103244000000001,-0.0007811999999987,-0.0063779999999999,-0.0004143999999995,-0.0262023999999991,-0.0072733999999998,0,sub_22
-0.0086722000000001,-0.0006999999999987,-0.0058615999999999,0.0107046000000004,-0.0236449999999991,-0.0099777999999999,0,sub_22
-0.0104976000000001,0.0051442000000011,0.0061892,0.0223138000000004,-0.0066033999999991,-0.0122699999999999,0,sub_22
-0.0044502000000001,-0.0001893999999988,0.0074092,0.0149108000000004,0.0041190000000008,-0.0161823999999999,0,sub_22
0.0007137999999998,-0.0016491999999987,0.0085476,0.0076004000000004,-0.0047891999999991,-0.0128049999999999,0,sub_22
0.0048565999999998,-0.0011905999999987,0.006417,-8.499999999955002e-05,-0.0030397999999991,-0.0102985999999999,0,sub_22
0.0035227999999998,-0.0014117999999987,0.006971,0.0016652000000004,0.0076026000000008,-0.0092317999999999,0,sub_22
0.0046481999999998,-0.0010741999999987,0.0005424,0.0061384000000004,0.0069436000000008,-0.0081315999999999,0,sub_22
0.0021605999999998,0.0007672000000012,0.0059778,0.0005532000000004,0.0005638000000008,-0.0062395999999999,0,sub_22
0.0039343999999998,0.0024240000000012,0.0025974,-0.0028539999999995,0.0024916000000008,-0.0058385999999999,0,sub_22
0.0055151999999998,0.0039038000000012,-0.0010597999999999,-0.0002789999999995,0.0080520000000008,-0.0043365999999999,0,sub_22
0.0069785999999997,0.0042282000000012,-0.0059047999999999,-0.0002845999999995,0.0104204000000008,-0.0015665999999999,0,sub_22
0.0054083999999998,0.0036724000000012,-0.0050097999999999,-0.0039375999999995,0.0076908000000008,0.0005436,0,sub_22
0.0034525999999998,0.0029478000000012,-0.0034205999999999,-0.0056721999999995,0.0024064000000008,0.0005338000000001,0,sub_22
0.0022899999999998,0.0021214000000012,-0.0015985999999999,-0.0048271999999995,0.0001010000000008,-0.0007435999999998,0,sub_22
0.0023361999999997,0.0019068000000012,-0.0022945999999999,-0.0041803999999995,-0.0001073999999991,-0.0024479999999998,0,sub_22
0.0019983999999997,0.0015328000000012,-0.0024977999999999,-0.0033191999999995,-0.0011645999999991,-0.0052179999999998,0,sub_22
0.0023503999999997,0.0018210000000012,-0.0013233999999998,-0.0014009999999995,-0.0009169999999991,-0.0068989999999999,0,sub_22
0.0029477999999997,0.0024318000000012,-0.0017533999999998,8.68000000004293e-05,-0.0002469999999991,-0.0073015999999999,0,sub_22
0.0018093999999997,0.0032810000000012,-0.0028301999999998,0.0004970000000004,-0.0006435999999991,-0.0064285999999999,0,sub_22
0.0004233999999998,0.0033796000000012,-0.0037177999999998,0.0004672000000004,-0.0029603999999991,-0.0044877999999999,0,sub_22
-0.0004460000000001,0.0037736000000012,-0.0033609999999998,-0.0002017999999995,-0.0040007999999991,-0.0014849999999999,0,sub_22
-0.0019524000000001,0.0038738000000011,-0.0035487999999998,-0.0010667999999995,-0.0037957999999991,0.001286,0,sub_22
-0.0034948000000001,0.0040492000000011,-0.0036975999999998,-0.0017145999999995,-0.0021027999999991,0.0046976,0,sub_22
-0.0042658000000001,0.0040302000000011,-0.0042001999999998,-0.0019355999999995,-0.0006233999999991,0.0078988,0,sub_22
-0.0047806000000001,0.0039458000000011,-0.0043347999999998,-0.0019675999999995,0.0004304000000008,0.0106718,0,sub_22
-0.0037106000000001,0.0029018000000011,-0.0042901999999998,-0.0019965999999995,0.0006378000000008,0.0119504,0,sub_22
-0.0022586000000001,0.0017846000000011,-0.0036533999999999,-0.0018063999999995,0.0004252000000008,0.011522,0,sub_22
-0.0001534000000001,-0.0006769999999987,-0.0026885999999999,-0.0026735999999995,1.2800000000832826e-05,0.0087364,0,sub_22
0.0025599999999998,-0.0025997999999987,-0.0009241999999999,-0.0048103999999995,0.0010994000000008,0.0050854,0,sub_22
0.0053267999999998,-0.0030337999999987,-0.0004931999999999,-0.0066971999999995,0.0045312000000008,0.0010086,0,sub_22
0.0074013999999998,-0.0024861999999987,-0.0025505999999998,-0.0068713999999995,0.0100842000000008,-0.0022043999999999,0,sub_22
0.0099615999999998,-0.0004353999999987,-0.0069395999999998,-0.0027713999999995,0.0192356000000007,-0.0032557999999999,0,sub_22
0.0111153999999998,0.0029340000000012,-0.0095589999999998,0.0072966000000004,0.0294714000000007,-0.0010571999999999,0,sub_22
0.0088597999999998,0.0048196000000012,-0.0079949999999998,0.0171444000000004,0.0399144000000007,0.0028488,0,sub_22
0.0052061999999998,0.0040392000000012,-0.0035137999999998,0.0220580000000004,0.0450454000000007,0.007368,0,sub_22
0.0011229999999998,0.0042038000000012,0.001648,0.0213990000000004,0.0450808000000008,0.012282,0,sub_22
-0.0032514000000001,0.0034762000000012,0.0068946,0.0145302000000004,0.0404500000000008,0.0173724,0,sub_22
-0.0053478000000001,0.0008040000000012,0.0101878,0.0016732000000004,0.0311094000000008,0.0200718,0,sub_22
-0.0033728000000001,0.0001446000000012,0.0087454,-0.0122717999999995,0.0141144000000008,0.0197824,0,sub_22
0.0003205999999998,0.0017830000000012,0.005844,-0.0236649999999995,-0.0058679999999991,0.0184464,0,sub_22
0.0034579999999998,0.0013160000000012,0.006603,-0.0342055999999995,-0.0262461999999991,0.01607,0,sub_22
0.0096387999999998,-0.0015043999999987,-0.0006117999999999,-0.0417571999999995,-0.0468455999999991,0.0130738,0,sub_22
0.0084525999999998,0.0010052000000012,-0.0068947999999999,-0.0249227999999995,-0.0528335999999991,0.0112974,0,sub_22
0.0045171999999998,0.0008176000000012,-0.0057417999999999,-0.0109939999999995,-0.0453699999999991,0.0047834,0,sub_22
-5.480000000015715e-05,-0.0020691999999987,-0.0015311999999999,-7.259999999955185e-05,-0.0410967999999991,-0.0004655999999999,0,sub_22
-0.0022842000000001,-0.0007803999999987,-0.0033423999999999,0.0067878000000004,-0.0353623999999991,-0.0019203999999999,0,sub_22
-0.0076404000000001,0.0022882000000012,0.0048708,0.0134838000000004,-0.0162149999999991,-0.0008299999999999,0,sub_22
-0.0063088000000001,0.0011164000000012,0.0030436,0.0032754000000004,-0.0053271999999991,0.0025032,0,sub_22
-0.0061274000000001,0.0014848000000012,-0.0010597999999999,-0.0061921999999995,-0.0112933999999991,0.0150714,0,sub_22
-0.0064632000000001,0.0032684000000012,-0.0046981999999999,-0.0151985999999995,-0.0106521999999991,0.0265662,0,sub_22
-0.0078170000000001,0.0024346000000012,-0.0061337999999999,-0.0136833999999995,-0.0017129999999991,0.0317144,0,sub_22
-0.0084784000000001,0.0015168000000012,-0.0091875999999999,-0.0091809999999995,0.0016986000000008,0.031336,0,sub_22
-0.0084898000000001,0.0002250000000012,-0.0027025999999999,-0.0099947999999995,0.0030230000000008,0.0247272,0,sub_22
-0.0031258000000001,-0.0013465999999987,-0.0001883999999999,-0.0047855999999995,0.0086006000000008,0.0106560000000001,0,sub_22
0.0037329999999998,-0.0021101999999987,-0.0012349999999999,0.0066162000000004,0.0118266000000008,-0.0067873999999998,0,sub_22
0.0080603999999998,-0.0024213999999987,-0.0006371999999999,0.0154048000000004,0.0067390000000008,-0.0208199999999999,0,sub_22
0.0098421999999998,-0.0022179999999987,0.0008168,0.0200962000000004,-0.0049431999999991,-0.0303799999999998,0,sub_22
0.0090461999999998,-0.0008219999999987,0.0016296,0.0219936000000004,-0.0157847999999991,-0.0346191999999998,0,sub_22
0.0054371999999998,0.0012904000000012,0.000516,0.0200646000000004,-0.0166267999999991,-0.0320613999999998,0,sub_22
0.0022181999999998,0.0028280000000012,-0.0008643999999999,0.0155934000000004,-0.0083189999999991,-0.0244055999999998,0,sub_22
0.0021001999999998,0.0036232000000012,-0.0016133999999998,0.0098390000000004,0.0006274000000008,-0.0154777999999998,0,sub_22
0.0034159999999998,0.0041064000000012,-0.0016577999999998,0.0036386000000004,0.0067918000000008,-0.0065557999999998,0,sub_22
0.0052031999999997,0.0044260000000012,-0.0013729999999998,-0.0019329999999995,0.0103974000000008,0.0023736,0,sub_22
0.0047583999999997,0.0043774000000012,-0.0013905999999998,-0.0058159999999995,0.0097368000000008,0.0111066,0,sub_22
0.0032937999999998,0.0041842000000012,-0.0015159999999998,-0.0090713999999995,0.0054286000000008,0.0189906,0,sub_22
0.0013635999999998,0.0036062000000012,-0.0021007999999998,-0.0112397999999995,0.0028320000000008,0.0241026,0,sub_22
-4.400000000019705e-05,0.0027542000000011,-0.0026563999999999,-0.0116693999999995,0.0036528000000008,0.0255904,0,sub_22
-0.0015018000000001,0.0023032000000012,-0.0034489999999999,-0.0103777999999995,0.0040560000000008,0.023459,0,sub_22
-0.0007334000000001,0.0020208000000012,-0.0033223999999999,-0.0077981999999995,0.0034006000000008,0.0185604,0,sub_22
-0.0002208000000001,0.0021960000000012,-0.0033163999999999,-0.0045697999999995,0.0029896000000008,0.0119604,0,sub_22
-0.0006254000000001,0.0025896000000012,-0.0033799999999999,-0.0017709999999995,0.0027898000000008,0.0062118,0,sub_22
-0.0003064000000001,0.0030302000000012,-0.0035049999999999,0.0005904000000004,0.0017334000000008,0.0019568,0,sub_22
0.0007359999999998,0.0032110000000012,-0.0027451999999999,0.0016678000000004,0.0017390000000008,-0.0003857999999999,0,sub_22
0.0016335999999998,0.0033076000000012,-0.0022629999999999,0.0012660000000004,0.0029908000000008,-0.0008507999999999,0,sub_22
0.0013803999999998,0.0033170000000012,-0.0021551999999999,-0.0006341999999995,0.0048802000000008,0.000382,0,sub_22
0.0019503999999998,0.0028550000000012,-0.0018891999999999,-0.0021125999999995,0.0063396000000008,0.0022592,0,sub_22
0.0025917999999998,0.0025312000000012,-0.0010405999999999,-0.0033785999999995,0.0063118000000008,0.0028578,0,sub_22
0.0052801999999998,0.0026536000000012,-0.0002617999999999,-0.0031547999999995,0.0035168000000008,0.0015476,0,sub_22
0.0075367999999998,0.0026172000000012,-0.0001067999999999,-0.0012545999999995,-0.0035103999999991,-0.0009939999999998,0,sub_22
0.0098191999999998,0.0026800000000012,0.0003392,0.0023390000000004,-0.0143749999999991,-0.0043733999999998,0,sub_22
0.0096643999999998,0.0030770000000012,0.0005082,0.0046688000000004,-0.0258479999999991,-0.0069491999999998,0,sub_22
0.0071971999999998,0.0035100000000012,-0.0006687999999999,0.0055214000000004,-0.0309351999999991,-0.0067661999999999,0,sub_22
0.0003727999999998,0.0030550000000012,-0.0030379999999999,0.0036394000000004,-0.0251555999999991,-0.0044797999999999,0,sub_22
-0.0057114000000001,0.0026114000000012,-0.0040395999999999,0.0013622000000004,-0.0119193999999991,-0.0017781999999999,0,sub_22
-0.0080734000000001,0.0025390000000012,-0.0053213999999999,-0.0002679999999995,0.0017450000000008,-0.0001409999999999,0,sub_22
-0.0076342000000001,0.0023950000000011,-0.0067015999999999,-0.0015001999999995,0.0113410000000008,-0.0012301999999999,0,sub_22
-0.0059036000000001,0.0025730000000012,-0.0064695999999999,-0.0016857999999995,0.0141250000000008,-0.0046533999999999,0,sub_22
-0.0038022000000001,0.0032922000000011,-0.0052369999999999,0.0008680000000004,0.0094418000000008,-0.0078341999999998,0,sub_22
-0.0026968000000001,0.0041472000000011,-0.0046085999999999,0.0019166000000004,0.0032680000000008,-0.0099553999999998,0,sub_22
-0.0047176000000001,0.0040220000000011,-0.0039257999999999,0.0016978000000004,0.0003096000000008,-0.0106171999999999,0,sub_22
-0.0059426000000001,0.0040288000000012,-0.0034917999999999,0.0029946000000004,0.0024586000000008,-0.0110613999999998,0,sub_22
-0.0058774000000001,0.0039192000000012,-0.0036755999999999,0.0053718000000004,0.0071620000000008,-0.0119285999999999,0,sub_22
-0.0023764000000001,0.0034802000000012,-0.0031219999999999,0.0066782000000004,0.0099558000000008,-0.0138689999999999,0,sub_22
0.0019649999999998,0.0028458000000012,-0.0022797999999999,0.0081778000000004,0.0080628000000008,-0.0160159999999999,0,sub_22
0.0060907999999998,0.0026816000000012,-0.0009733999999999,0.0092332000000004,0.0044414000000008,-0.0170721999999999,0,sub_22
0.0083225999999998,0.0024698000000012,0.000769,0.0087864000000004,0.0008176000000008,-0.0162159999999999,0,sub_22
0.0094953999999998,0.0019814000000012,0.002063,0.0066290000000004,-0.0017329999999991,-0.0132515999999999,0,sub_22
0.0090687999999998,0.0013532000000012,0.0021294,0.0040488000000004,-0.0025811999999991,-0.0094379999999999,0,sub_22
0.0082059999999998,0.0012008000000012,0.0015346,0.0016936000000004,-0.0008735999999991,-0.0056257999999999,0,sub_22
0.0071277999999997,0.0010510000000012,-0.0001293999999999,-0.0008683999999995,0.0012652000000008,-0.0028839999999999,0,sub_22
0.0054065999999998,0.0010530000000012,-0.0012315999999999,-0.0032179999999995,0.0023412000000008,-0.0009939999999999,0,sub_22
0.0031733999999998,0.0013900000000012,-0.0019973999999999,-0.0055689999999995,0.0027704000000008,0.0002708,0,sub_22
0.0010627999999998,0.0020468000000012,-0.0027593999999999,-0.0070635999999995,0.0034114000000008,0.0011142,0,sub_22
-0.0006844000000001,0.0024752000000012,-0.0029507999999999,-0.0074923999999995,0.0027746000000008,0.0008984,0,sub_22
-0.0007132000000001,0.0025892000000012,-0.0024607999999999,-0.0066417999999995,0.0012836000000008,5.160000000008196e-05,0,sub_22
-0.0006956000000001,0.0027588000000012,-0.0028109999999999,-0.0049271999999995,-0.0004195999999991,-0.0014589999999998,0,sub_22
-0.0010398000000001,0.0027708000000012,-0.0028093999999999,-0.0027827999999995,-0.0019095999999991,-0.0033941999999998,0,sub_22
-0.0013516000000001,0.0027578000000012,-0.0029893999999999,-0.0004193999999995,-0.0025463999999991,-0.0057561999999998,0,sub_22
-0.0018112000000001,0.0026138000000012,-0.0034463999999999,0.0015192000000004,-0.0023311999999991,-0.0076951999999998,0,sub_22
-0.0021014000000001,0.0024812000000012,-0.0040335999999999,0.0028176000000003,-0.0014771999999991,-0.0089983999999998,0,sub_22
-0.0009022000000001,0.0020210000000012,-0.0039377999999999,0.0030416000000004,0.0004412000000008,-0.0094265999999999,0,sub_22
0.0013921999999998,0.0016516000000012,-0.0037205999999998,0.0028330000000004,0.0019316000000008,-0.0090025999999999,0,sub_22
0.0023617999999998,0.0014006000000012,-0.0023841999999999,0.0017702000000004,0.0027982000000008,-0.0079581999999999,0,sub_22
0.0024761999999998,0.0017848000000012,-0.0017575999999999,0.0004902000000004,0.0036622000000008,-0.0060605999999999,0,sub_22
0.0018189999999998,0.0022080000000012,-0.0015619999999999,-0.0005793999999995,0.0047352000000008,-0.0033071999999999,0,sub_22
-0.0003242000000001,0.0028718000000012,-0.0024667999999999,-0.0018613999999995,0.0070830000000008,0.0005112,0,sub_22
-0.0033226000000001,0.0030820000000012,-0.0037147999999999,-0.0037785999999995,0.0107104000000008,0.0045372,0,sub_22
-0.0046384000000001,0.0030578000000012,-0.0041411999999998,-0.0048483999999995,0.0136824000000008,0.008158,0,sub_22
-0.0040166000000001,0.0026084000000012,-0.0042659999999998,-0.0044273999999995,0.0149490000000008,0.0107232,0,sub_22
-0.0015796000000001,0.0023150000000012,-0.0037839999999998,-0.0025069999999995,0.0145178000000008,0.01031,0,sub_22
0.0020357999999998,0.0021304000000012,-0.0026323999999998,0.0006888000000004,0.0104704000000008,0.0073466,0,sub_22
0.0058385999999998,0.0020718000000012,-0.0018969999999999,0.0038836000000004,0.0045188000000008,0.0028938,0,sub_22
0.0076791999999998,0.0021282000000012,-0.0024067999999999,0.0062280000000004,-0.0007905999999991,-0.0015657999999999,0,sub_22
0.0085579999999998,0.0022136000000012,-0.0031553999999999,0.0058022000000004,-0.0037525999999991,-0.0045523999999999,0,sub_22
0.0063861999999998,0.0025282000000012,-0.0036197999999999,0.0025988000000004,-0.0037375999999991,-0.0037165999999999,0,sub_22
0.0036821999999998,0.0023336000000012,-0.0045179999999999,-0.0010293999999995,-0.0007483999999991,-0.0003237999999999,0,sub_22
0.0030083999999998,0.0017216000000012,-0.0064741999999998,-0.0053015999999995,0.0028696000000008,0.0043418,0,sub_22
0.0052259999999997,0.0009132000000012,-0.0076179999999998,-0.0121285999999995,0.0075628000000008,0.0087746,0,sub_22
0.0069301999999998,0.0001556000000012,-0.0062729999999998,-0.0181093999999995,0.0120420000000008,0.012176,0,sub_22
0.0086487999999998,-0.0015733999999987,-0.0039177999999998,-0.0225995999999995,0.0135428000000008,0.0132414,0,sub_22
0.0117785999999998,-0.0025587999999987,-0.0009205999999999,-0.0262371999999995,0.0131298000000008,0.012606,0,sub_22
0.0126197999999998,-0.0039913999999987,5.700000000006429e-05,-0.0277333999999995,0.0133530000000008,0.0109166,0,sub_22
0.0130577999999998,-0.0046709999999987,-0.0013773999999999,-0.0279607999999995,0.0103784000000007,0.0085992,0,sub_22
0.0139545999999998,-0.0058505999999987,-0.0040693999999999,-0.0298657999999995,0.0093378000000007,0.0041006,0,sub_22
0.0136081999999998,-0.0055739999999987,-0.0094337999999999,-0.0343091999999995,0.0123576000000007,-0.0012753999999999,0,sub_22
0.0115025999999998,-0.0051309999999987,-0.0120201999999999,-0.0419359999999995,0.0183746000000007,-0.0075319999999999,0,sub_22
0.0067143999999998,-0.0032611999999987,-0.0062039999999999,-0.0499707999999995,0.0278022000000007,-0.0144113999999999,0,sub_22
-0.0010456000000001,-0.0006555999999987,0.0016514,-0.0520331999999995,0.0389048000000008,-0.0191147999999999,0,sub_22
-0.0069764000000001,0.0028696000000012,0.006387,-0.0460409999999995,0.0422922000000008,-0.0194791999999999,0,sub_22
-0.0099640000000001,0.0054704000000012,0.0116082,-0.0356283999999995,0.0345756000000008,-0.0174483999999999,0,sub_22
-0.0125694000000001,0.0068878000000012,0.0144756,-0.0201361999999995,0.0193776000000008,-0.0136633999999998,0,sub_22
-0.0130542000000001,0.0066472000000012,0.0122966,-0.0012841999999995,-0.0050023999999991,-0.0070911999999998,0,sub_22
-0.0118900000000001,0.0047948000000012,0.0088814,0.0143404000000004,-0.0344877999999991,0.0003196000000001,0,sub_22
-0.0117850000000001,0.0024156000000012,0.0068076,0.0231658000000004,-0.0584065999999991,0.0068212000000001,0,sub_22
-0.0116570000000001,0.0002686000000012,0.0042348,0.0282042000000004,-0.0708079999999991,0.0128854,0,sub_22
-0.0120974000000001,-0.0012013999999987,0.0021294,0.0300862000000004,-0.0742465999999991,0.0180614,0,sub_22
-0.0123460000000001,-0.0013701999999987,0.0002122,0.0284012000000004,-0.0678575999999991,0.019568,0,sub_22
-0.0128096000000001,-0.0009191999999987,-0.0024695999999999,0.0261260000000004,-0.0531463999999991,0.0182824,0,sub_22
-0.0134812000000001,-0.0005085999999987,-0.0037207999999999,0.0262104000000004,-0.0375833999999991,0.0150894,0,sub_22
-0.0145834000000001,-1.959999999877693e-05,-0.0031063999999999,0.0294934000000004,-0.0237281999999991,0.010608,0,sub_22
-0.0127210000000001,0.0001592000000012,-0.0064505999999999,0.0336222000000004,-0.0120047999999991,0.005708,0,sub_22
