userAcceleration.x,userAcceleration.y,userAcceleration.z,rotationRate.x,rotationRate.y,rotationRate.z,label,subject
-0.0068144000000001,0.0174840000000011,-0.0023799999999998,-0.0014177999999995,-0.0003333999999991,-0.0032611999999999,0,sub_9
-0.0064986000000001,0.0176420000000011,-0.0019099999999998,-0.0009911999999995,-0.0001225999999991,-0.0030447999999999,0,sub_9
-0.0063370000000001,0.0181992000000011,-0.0011853999999999,-0.0007797999999995,-0.0001249999999991,-0.0026161999999999,0,sub_9
-0.0059674000000001,0.0182896000000011,-0.0013321999999999,7.080000000047842e-05,-0.0005549999999991,-0.0023959999999999,0,sub_9
-0.0062114000000001,0.0181452000000011,-0.0012549999999999,0.0002804000000004,-0.0009835999999991,-0.0019665999999999,0,sub_9
-0.0060192000000001,0.0178490000000011,-0.0017465999999999,0.0004844000000004,-0.0009867999999991,-0.0011121999999999,0,sub_9
-0.0064048000000001,0.0177958000000011,-0.0018137999999999,0.0002646000000004,-0.0011981999999991,-0.0011149999999999,0,sub_9
-0.0067012000000001,0.0174252000000012,-0.0021291999999999,0.0002600000000004,-0.0011963999999991,-0.0013299999999999,0,sub_9
-0.0067432000000001,0.0177592000000012,-0.0021539999999998,-0.0003847999999994,-0.0007677999999991,-0.0011227999999999,0,sub_9
-0.0063506000000001,0.0175264000000012,-0.0020583999999998,-0.0008141999999994,-0.0001261999999991,-0.0011281999999999,0,sub_9
-0.0068820000000001,0.0175820000000012,-0.0017509999999998,-0.0005951999999994,0.0005148000000008,-0.0017683999999999,0,sub_9
-0.0070140000000001,0.0177208000000011,-0.0017167999999998,-0.0003817999999994,0.0009384000000008,-0.0013399999999999,0,sub_9
-0.0066618000000001,0.0179178000000011,-0.0017647999999998,-0.0008101999999994,0.0013652000000008,-0.0011297999999998,0,sub_9
-0.0069104000000001,0.0180414000000011,-0.0015747999999999,-0.0005973999999995,0.0015784000000008,-0.0013421999999998,0,sub_9
-0.0065614000000001,0.0183038000000011,-0.0015139999999999,-0.0005989999999995,0.0015794000000008,-0.0015555999999998,0,sub_9
-0.0064010000000001,0.0184082000000011,-0.0015057999999999,-0.0010311999999994,0.0013662000000008,-0.0011307999999998,0,sub_9
-0.0061594000000001,0.0184602000000011,-0.0018191999999998,-0.0012471999999994,0.0011548000000008,-0.0013455999999998,0,sub_9
-0.0060402000000001,0.0188110000000011,-0.0020333999999998,-0.0012471999999994,0.0007304000000008,-0.0017723999999999,0,sub_9
-0.0058512000000001,0.0184370000000011,-0.0020277999999998,-0.0008243999999994,8.880000000084172e-05,-0.0015549999999999,0,sub_9
-0.0064322000000001,0.0188524000000011,-0.0021755999999998,2.5200000000518383e-05,-0.0005541999999991,-0.0013345999999999,0,sub_9
-0.0063654000000001,0.0187260000000011,-0.0019279999999998,0.0006626000000004,-0.0009899999999991,-0.0013303999999999,0,sub_9
-0.0064866000000001,0.0182864000000011,-0.0018849999999998,0.0008732000000004,-0.0012119999999991,-0.0011157999999999,0,sub_9
-0.0070148000000001,0.0176284000000011,-0.0017391999999998,0.0015086000000004,-0.0014371999999991,-0.0004709999999999,0,sub_9
-0.0074752000000001,0.0174628000000011,-0.0011931999999998,0.0015078000000004,-0.001444399999999,-0.0004717999999999,0,sub_9
-0.0078184000000001,0.0162826000000012,-0.0016429999999998,0.0012954000000004,-0.000812799999999,-0.0002611999999999,0,sub_9
-0.0081512000000001,0.0159852000000012,-0.0023375999999999,0.0010850000000004,3.9400000000881614e-05,-5.019999999991745e-05,0,sub_9
-0.0079702000000001,0.0159882000000012,-0.0020849999999999,0.0002334000000005,0.0006808000000008,0.0001566,0,sub_9
-0.0081460000000001,0.0164574000000012,-0.0023521999999999,-0.0008295999999994,0.0013246000000008,-6.519999999991746e-05,0,sub_9
-0.0079342000000001,0.0167524000000012,-0.0028309999999999,-0.0014701999999994,0.0019594000000008,0.0003604,0,sub_9
-0.0072436000000001,0.0180238000000012,-0.0025301999999999,-0.0016857999999994,0.0019546000000008,0.0005758,0,sub_9
-0.0064730000000001,0.0182840000000011,-0.0021807999999999,-0.0012643999999994,0.0010960000000008,0.0005832,0,sub_9
-0.0067938000000001,0.0182542000000011,-0.0021183999999999,1.260000000049841e-05,0.0008728000000008,0.0008096,0,sub_9
-0.0061844000000001,0.0183560000000011,-0.0021437999999998,0.0004360000000004,0.0008648000000008,0.0012432,0,sub_9
-0.0056054000000001,0.0185322000000011,-0.0021617999999998,0.0006484000000004,0.0006510000000008,0.0012448,0,sub_9
-0.0058252000000001,0.0178740000000011,-0.0017607999999998,0.0006474000000004,1.3400000000841602e-05,0.0008184,0,sub_9
-0.0063448000000001,0.0176464000000011,-0.0015827999999998,0.0004312000000004,-0.0008371999999991,0.0006044,0,sub_9
-0.0059894000000001,0.0176942000000011,-0.0017997999999998,3.0000000004784013e-06,-0.0018999999999991,-3.179999999993735e-05,0,sub_9
-0.0059858000000001,0.0171938000000011,-0.0016337999999998,0.0002170000000004,-0.0025387999999991,-0.0006639999999999,0,sub_9
-0.0067292000000001,0.0174124000000011,-0.0019813999999998,0.0002176000000004,-0.0023281999999991,-0.0004441999999999,0,sub_9
-0.0069356000000001,0.0176430000000011,-0.0027057999999998,0.0004296000000004,-0.0016955999999991,0.0006312,0,sub_9
-0.0072388000000001,0.0180854000000012,-0.0029287999999998,0.0004340000000004,-0.0004203999999991,0.0010632,0,sub_9
-0.0074300000000001,0.0178918000000012,-0.0027593999999998,0.0008608000000004,0.0004270000000008,0.0019196,0,sub_9
-0.0076354000000001,0.0179462000000011,-0.0022903999999998,0.0012866000000004,0.0008490000000008,0.002563,0,sub_9
-0.0075346000000001,0.0172264000000011,-0.0020159999999998,0.0015010000000004,0.0006370000000008,0.0021376000000001,0,sub_9
-0.0079078000000001,0.0171134000000011,-0.0017249999999998,0.0015042000000004,0.0002130000000008,0.0012900000000001,0,sub_9
-0.0078620000000001,0.0167100000000011,-0.0019695999999998,0.0010796000000004,0.0002138000000008,0.0010800000000001,0,sub_9
-0.0081264000000001,0.0171820000000011,-0.0024111999999998,0.0004436000000004,0.0006416000000008,0.000868,0,sub_9
-0.0079708000000001,0.0175022000000012,-0.0025877999999998,2.000000000051841e-05,0.0010678000000008,0.000871,0,sub_9
-0.0082314000000001,0.0177540000000012,-0.0027971999999999,-0.0001911999999994,0.0014924000000008,0.001089,0,sub_9
-0.0079702000000001,0.0178782000000012,-0.0028525999999999,-0.0001921999999994,0.0019160000000008,0.0017294,0,sub_9
-0.0072404000000001,0.0177880000000012,-0.0024151999999999,0.0004488000000005,0.0021268000000008,0.0017336,0,sub_9
-0.0069610000000001,0.0177644000000011,-0.0017071999999999,0.0008756000000005,0.0021252000000008,0.0017364,0,sub_9
-0.0067408000000001,0.0171304000000011,-0.0022337999999999,0.0010890000000005,0.0021244000000008,0.001738,0,sub_9
-0.0066102000000001,0.0174356000000011,-0.0015951999999999,0.0013012000000004,0.0019086000000008,0.0019602,0,sub_9
-0.0060680000000001,0.0173322000000011,-0.0019003999999999,0.0010896000000004,0.0016968000000008,0.0015384,0,sub_9
-0.0060608000000001,0.0177036000000011,-0.0016831999999999,0.0006618000000004,0.0010590000000008,0.0013292,0,sub_9
-0.0061092000000001,0.0172968000000012,-0.0020293999999999,0.0006626000000004,0.0004214000000008,0.0006958,0,sub_9
-0.0061278000000001,0.0178022000000012,-0.0014625999999999,0.0008720000000004,-0.0010699999999991,0.0002786,0,sub_9
-0.0058310000000001,0.0174170000000012,-0.0019189999999999,0.0010834000000004,-0.0019211999999991,-0.0001461999999998,0,sub_9
-0.0064852000000001,0.0174034000000012,-0.0013679999999999,0.0010824000000004,-0.0023463999999991,-0.0003593999999998,0,sub_9
-0.0069794000000001,0.0173108000000011,-0.0019197999999998,0.0012954000000004,-0.0021357999999991,-0.0001391999999998,0,sub_9
-0.0074224000000001,0.0171854000000011,-0.0018779999999998,0.0008652000000005,-0.0021377999999991,0.0005040000000001,0,sub_9
-0.0078518000000001,0.0168722000000011,-0.0021375999999998,0.0008656000000005,-0.0019255999999991,0.0005088000000001,0,sub_9
-0.0081240000000001,0.0164202000000011,-0.0019753999999998,0.0008662000000005,-0.0017133999999991,0.0005138000000001,0,sub_9
-0.0084330000000001,0.0165418000000011,-0.0022825999999998,0.0006524000000005,-0.0015011999999991,0.0007310000000001,0,sub_9
-0.0089016000000001,0.0161972000000011,-0.0021567999999999,0.0002266000000005,-0.0012865999999991,0.0007276000000001,0,sub_9
-0.0079990000000001,0.0161094000000011,-0.0024037999999999,1.6200000000538355e-05,-0.0010709999999991,0.0002986000000001,0,sub_9
-0.0074932000000001,0.0155574000000011,-0.0028581999999999,-0.0008315999999994,-0.0002141999999991,-0.0001355999999998,0,sub_9
-0.0068576000000001,0.0161060000000011,-0.0035569999999999,-0.0029575999999994,0.0006494000000008,-0.0012173999999998,0,sub_9
-0.0064292000000001,0.0169420000000011,-0.0039585999999999,-0.0052909999999994,0.0019432000000008,-0.0031557999999998,0,sub_9
-0.0065866000000001,0.0175436000000011,-0.0032059999999999,-0.0071957999999994,0.0032372000000008,-0.0055181999999998,0,sub_9
-0.0057462000000001,0.0171254000000011,-0.0027247999999999,-0.0080423999999994,0.0030344000000008,-0.0074441999999999,0,sub_9
-0.0039116000000001,0.0163356000000012,-0.0019077999999999,-0.0084707999999994,0.0007006000000008,-0.0095781999999999,0,sub_9
-0.0024154000000001,0.0149782000000012,-0.0006465999999999,-0.0086811999999994,-0.0009937999999991,-0.0119275999999999,0,sub_9
-0.0017906000000001,0.0136026000000012,0.0008016,-0.0093137999999994,-0.0009847999999991,-0.0136411999999999,0,sub_9
-0.0028598000000001,0.0140336000000012,0.001114,-0.0108065999999994,-0.0005543999999991,-0.0134385999999999,0,sub_9
-0.0063942000000001,0.0163218000000012,0.0007028000000001,-0.0116659999999994,0.0009296000000008,-0.0113107999999999,0,sub_9
-0.0109640000000001,0.0197594000000012,-0.0010233999999998,-0.0108211999999994,0.0036782000000008,-0.0072497999999999,0,sub_9
-0.0142236000000001,0.0225890000000012,-0.0030147999999998,-0.0074321999999995,0.0042816000000008,-0.0016727999999999,0,sub_9
-0.0158534000000001,0.0244490000000011,-0.0047039999999998,-0.0012845999999995,0.0021030000000008,0.004568,0,sub_9
-0.0151526000000001,0.0243162000000011,-0.0058411999999998,0.0067862000000004,-0.0007163999999991,0.0095412,0,sub_9
-0.0130704000000001,0.0225130000000011,-0.0058907999999998,0.0142274000000004,-0.0037371999999991,0.0125882,0,sub_9
-0.0109340000000001,0.0203024000000011,-0.0046555999999998,0.0191158000000004,-0.0063177999999991,0.0143348,0,sub_9
-0.0085820000000001,0.0173026000000011,-0.0030849999999998,0.0210304000000004,-0.0067539999999991,0.0152034,0,sub_9
-0.0059206000000001,0.0146794000000012,-0.0025189999999998,0.0197556000000004,-0.0052605999999991,0.014761,0,sub_9
-0.0034994000000001,0.0128154000000011,-0.0024517999999998,0.0159280000000005,-0.0029023999999991,0.013445,0,sub_9
-0.0024104000000001,0.0122052000000011,-0.0018175999999998,0.0106126000000004,-0.0001095999999991,0.0112634,0,sub_9
-0.0013346000000001,0.0121042000000011,-0.0017533999999998,0.0055114000000004,0.0022590000000008,0.008443,0,sub_9
-0.0019540000000001,0.0131296000000011,-0.0014445999999998,0.0014732000000005,0.0035592000000008,0.0054178,0,sub_9
-0.0030988000000001,0.0143634000000011,-0.0015885999999998,-0.0010747999999994,0.0035792000000008,0.0026226,0,sub_9
-0.0037942000000001,0.0156794000000011,-0.0013287999999998,-0.0027769999999994,0.0021040000000008,4.880000000008176e-05,0,sub_9
-0.0046790000000001,0.0163928000000011,-0.0013115999999998,-0.0034189999999994,-0.0006539999999991,-0.0023021999999999,0,sub_9
-0.0059992000000001,0.0164826000000012,-0.0010527999999998,-0.0038551999999994,-0.0032053999999991,-0.0038017999999999,0,sub_9
-0.0069370000000001,0.0165654000000011,-0.0016263999999998,-0.0042903999999994,-0.0046947999999991,-0.0044481999999999,0,sub_9
-0.0080076000000001,0.0168230000000011,-0.0014847999999998,-0.0045113999999994,-0.0051231999999991,-0.0042397999999999,0,sub_9
-0.0098040000000001,0.0174074000000011,-0.0020325999999998,-0.0045159999999994,-0.0042765999999991,-0.0033905999999998,0,sub_9
-0.0107482000000001,0.0181454000000011,-0.0033769999999998,-0.0043015999999994,-0.0015157999999991,-0.0019013999999999,0,sub_9
-0.0112420000000001,0.0190570000000011,-0.0040915999999998,-0.0034403999999994,0.0016710000000008,-0.0004039999999999,0,sub_9
-0.0108156000000001,0.0194134000000011,-0.0039145999999998,-0.0017305999999994,0.0035774000000008,0.0008874,0,sub_9
-0.0102404000000001,0.0194808000000011,-0.0039309999999998,0.0004012000000005,0.0037804000000008,0.001543,0,sub_9
-0.0087720000000001,0.0187990000000011,-0.0035149999999998,0.0027444000000005,0.0031322000000008,0.0017738,0,sub_9
-0.0073170000000001,0.0179874000000011,-0.0027305999999998,0.0038064000000004,0.0020638000000008,0.0015688,0,sub_9
-0.0055844000000001,0.0174252000000012,-0.0020333999999998,0.0042292000000004,0.0012108000000008,0.001359,0,sub_9
-0.0046882000000001,0.0170606000000012,-0.0018137999999998,0.0042282000000004,0.0007862000000008,0.000932,0,sub_9
-0.0037342000000001,0.0166900000000012,-0.0014705999999998,0.0035852000000004,0.0005744000000008,0.0011412,0,sub_9
-0.0037532000000001,0.0166646000000012,-0.0014143999999998,0.0023040000000004,0.0003664000000008,0.0009188,0,sub_9
-0.0038388000000001,0.0166248000000012,-0.0008485999999999,0.0018744000000004,-0.0002711999999991,0.0009166,0,sub_9
-0.0047656000000001,0.0162816000000012,-0.0012709999999999,0.0014448000000004,-0.0013331999999991,0.0004876000000001,0,sub_9
-0.0053748000000001,0.0164486000000011,-0.0016937999999999,0.0008230000000004,-0.0019685999999991,-0.0003519999999998,0,sub_9
-0.0059988000000001,0.0162488000000011,-0.0021401999999999,-1.039999999950178e-05,-0.0026013999999991,-0.0016203999999998,0,sub_9
-0.0062592000000001,0.0161724000000011,-0.0021103999999999,-0.0008417999999995,-0.0025959999999991,-0.0026759999999998,0,sub_9
-0.0071838000000001,0.0164432000000011,-0.0029601999999999,-0.0018865999999995,-0.0025897999999991,-0.0037329999999998,0,sub_9
-0.0075614000000001,0.0170512000000011,-0.0031977999999999,-0.0025015999999995,-0.0017337999999991,-0.0045743999999998,0,sub_9
-0.0083528000000001,0.0173774000000011,-0.0037053999999999,-0.0027119999999995,-0.0013059999999991,-0.0047899999999998,0,sub_9
-0.0083380000000001,0.0176850000000011,-0.0033875999999998,-0.0022841999999995,-0.0006699999999991,-0.0043605999999998,0,sub_9
-0.0084168000000001,0.0181190000000011,-0.0035031999999998,-0.0016479999999995,-0.0006755999999991,-0.0035015999999998,0,sub_9
-0.0078590000000001,0.0180514000000011,-0.0034233999999998,-0.0005913999999995,-4.2599999999138295e-05,-0.0024333999999998,0,sub_9
-0.0075094000000001,0.0180152000000011,-0.0027753999999998,-0.0001777999999995,0.0001656000000008,-0.0011553999999999,0,sub_9
-0.0067806000000001,0.0175100000000012,-0.0017729999999998,0.0002386000000004,0.0005886000000008,-0.0003049999999999,0,sub_9
-0.0068932000000001,0.0173030000000011,-0.0015181999999999,1.6800000000498186e-05,0.0008032000000008,-9.95999999999185e-05,0,sub_9
-0.0064722000000001,0.0169872000000011,-0.0015427999999999,8.600000000498183e-06,0.0010172000000008,0.0001072,0,sub_9
-0.0068194000000001,0.0170500000000011,-0.0018223999999998,-0.0006313999999995,0.0008072000000008,-0.0001105999999999,0,sub_9
-0.0066664000000001,0.0168348000000011,-0.0017199999999998,-0.0006295999999995,0.0005968000000008,-0.0007511999999999,0,sub_9
-0.0065306000000001,0.0172314000000011,-0.0021981999999998,-0.0008429999999995,0.0003854000000008,-0.0009659999999999,0,sub_9
-0.0063354000000001,0.0170554000000011,-0.0028391999999998,-0.0010631999999995,0.0006008000000008,-0.0011911999999998,0,sub_9
-0.0068152000000001,0.0171876000000011,-0.0026027999999998,-0.0010691999999995,0.0010284000000008,-0.0014151999999998,0,sub_9
-0.0066368000000001,0.0174746000000011,-0.0021013999999998,-0.0012875999999995,0.0018820000000008,-0.0014275999999998,0,sub_9
-0.0068856000000001,0.0176798000000012,-0.0022877999999998,-0.0015067999999995,0.0027346000000008,-0.0012263999999998,0,sub_9
-0.0071570000000001,0.0178162000000012,-0.0022689999999998,-0.0019431999999995,0.0027358000000008,-0.0010255999999998,0,sub_9
-0.0073772000000001,0.0181170000000012,-0.0019709999999999,-0.0015183999999995,0.0025204000000008,-0.0008087999999999,0,sub_9
-0.0066934000000001,0.0177484000000012,-0.0021903999999998,-0.0013069999999995,0.0020936000000008,-0.0008067999999999,0,sub_9
-0.0059900000000001,0.0177214000000012,-0.0020655999999998,-0.0006697999999995,0.0012400000000008,-0.0010147999999999,0,sub_9
-0.0059376000000001,0.0175862000000011,-0.0020439999999998,-0.0002513999999995,0.0003872000000008,-0.0012309999999999,0,sub_9
-0.0058260000000001,0.0172032000000011,-0.0019103999999998,0.0003834000000004,-3.9399999999158336e-05,-0.0016599999999999,0,sub_9
-0.0054364000000001,0.0174330000000011,-0.0021165999999998,-4.959999999950182e-05,-0.0004631999999991,-0.0018827999999999,0,sub_9
-0.0062454000000001,0.0173984000000011,-0.0020481999999999,-0.0002701999999994,-0.0008885999999991,-0.0018903999999999,0,sub_9
-0.0068814000000001,0.0171608000000011,-0.0023569999999999,-0.0004877999999994,-0.0006747999999991,-0.0018989999999999,0,sub_9
-0.0070536000000001,0.0168156000000012,-0.0025989999999999,-0.0007009999999994,-0.0006739999999991,-0.0019005999999999,0,sub_9
-0.0075100000000001,0.0170344000000012,-0.0029159999999999,-0.0009133999999994,-0.0004601999999991,-0.0019023999999999,0,sub_9
-0.0083092000000001,0.0166394000000012,-0.0027577999999999,-0.0006979999999994,-0.0002469999999991,-0.0021147999999999,0,sub_9
-0.0079570000000001,0.0169030000000011,-0.0034399999999998,-0.0007033999999995,0.0001808000000008,-0.0023349999999999,0,sub_9
-0.0081996000000001,0.0172430000000011,-0.0032305999999998,-0.0007107999999995,0.0003946000000008,-0.0023413999999999,0,sub_9
-0.0077530000000001,0.0174662000000011,-0.0030829999999998,-0.0005057999999995,0.0006068000000008,-0.0021325999999999,0,sub_9
-0.0071966000000001,0.0175442000000011,-0.0023339999999998,-0.0005141999999995,0.0008198000000008,-0.0019251999999999,0,sub_9
-0.0062980000000001,0.0172686000000011,-0.0023315999999998,-9.679999999950184e-05,0.0008182000000008,-0.0017145999999999,0,sub_9
-0.0067086000000001,0.0169786000000011,-0.0014425999999999,-9.779999999950184e-05,0.0008174000000008,-0.0015009999999999,0,sub_9
-0.0066022000000001,0.0169270000000011,-0.0011165999999999,0.0001126000000004,0.0006020000000008,-0.0010717999999999,0,sub_9
-0.0075270000000001,0.0171726000000011,-0.0011211999999999,-0.0003169999999995,0.0001766000000008,-0.0008605999999999,0,sub_9
-0.0082104000000001,0.0169322000000011,-0.0017275999999999,-0.0001089999999995,-0.0002471999999991,-0.0006429999999999,0,sub_9
-0.0091916000000001,0.0174834000000011,-0.0015955999999998,-0.0003297999999995,-0.0004589999999991,0.0002124,0,sub_9
-0.0092592000000001,0.0176112000000012,-0.0020889999999998,0.0003040000000004,-0.0006729999999991,0.0008602,0,sub_9
-0.0096244000000001,0.0173756000000012,-0.0029109999999998,0.0002986000000004,-0.0004595999999991,0.0017166,0,sub_9
-0.0087818000000001,0.0174260000000012,-0.0031437999999998,0.0007246000000004,0.0008176000000008,0.0025746,0,sub_9
-0.0077562000000001,0.0177698000000011,-0.0029731999999998,0.0009378000000004,0.0012412000000008,0.003003,0,sub_9
-0.0067020000000001,0.0176204000000011,-0.0028289999999998,0.0013646000000004,0.0006030000000008,0.0023658,0,sub_9
-0.0057214000000001,0.0169800000000011,-0.0021327999999998,0.0013654000000004,-3.279999999917845e-05,0.001512,0,sub_9
-0.0047408000000001,0.0167000000000011,-0.0014355999999998,0.0009410000000004,-0.0006643999999991,0.000232,0,sub_9
-0.0044796000000001,0.0166250000000011,-0.0013965999999998,0.0003014000000004,-0.0010847999999991,-0.0004087999999999,0,sub_9
-0.0053054000000001,0.0168998000000011,-0.0016229999999999,-0.0007637999999995,-0.0004419999999991,-0.0001993999999999,0,sub_9
-0.0062354000000001,0.0171834000000011,-0.0018107999999999,-0.0014033999999995,0.0008352000000008,0.0008668,0,sub_9
-0.0068524000000001,0.0181192000000012,-0.0021731999999999,-0.0016179999999995,0.0021092000000008,0.0023632,0,sub_9
-0.0069998000000001,0.0185742000000012,-0.0027199999999999,-0.0005547999999995,0.0023142000000008,0.0034386,0,sub_9
-0.0074046000000001,0.0182118000000012,-0.0026527999999999,0.0005064000000004,0.0008200000000008,0.0032344,0,sub_9
-0.0074194000000001,0.0175628000000012,-0.0023183999999999,0.0017818000000004,-0.0008861999999991,0.0026046,0,sub_9
-0.0073932000000001,0.0165474000000012,-0.0021263999999999,0.0026366000000004,-0.002166199999999,0.0015498,0,sub_9
-0.0076702000000001,0.0160382000000012,-0.0023565999999999,0.0026398000000004,-0.002804999999999,0.0007018,0,sub_9
-0.0084932000000001,0.0155450000000012,-0.0021873999999999,0.0017934000000004,-0.0017397999999991,0.0007002,0,sub_9
-0.0081954000000001,0.0153002000000012,-0.0020685999999999,0.0007346000000004,0.0001758000000008,0.001337,0,sub_9
-0.0076440000000001,0.0154462000000011,-0.0024995999999999,0.0001026000000004,0.0016656000000008,0.00155,0,sub_9
-0.0074258000000001,0.0163306000000011,-0.0025449999999999,-0.0005345999999995,0.0025192000000008,0.0017582,0,sub_9
-0.0072160000000001,0.0167676000000011,-0.0024275999999999,-0.0005325999999995,0.0027332000000008,0.0015444,0,sub_9
-0.0067126000000001,0.0170240000000011,-0.0016743999999999,0.0001046000000004,0.0016674000000008,0.001123,0,sub_9
-0.0070694000000001,0.0170036000000011,-0.0016919999999999,0.0007452000000004,0.0005998000000008,0.000708,0,sub_9
-0.0070912000000001,0.0166786000000012,-0.0016361999999999,0.0007438000000005,-0.0002551999999991,0.0009292,0,sub_9
-0.0069210000000001,0.0168380000000012,-0.0012813999999999,0.0007464000000005,-0.0002577999999991,0.0011494,0,sub_9
-0.0075708000000001,0.0168580000000012,-0.0012355999999999,0.0003240000000005,0.0001670000000008,0.001366,0,sub_9
-0.0077218000000001,0.0172294000000012,-0.0021205999999998,-0.0003107999999994,0.0008058000000008,0.0015808,0,sub_9
-0.0077282000000001,0.0174226000000012,-0.0024373999999998,-0.0005241999999994,0.0008066000000008,0.0015794,0,sub_9
-0.0078614000000001,0.0177976000000011,-0.0023271999999998,-9.559999999948188e-05,0.0010190000000008,0.0013686,0,sub_9
-0.0080442000000001,0.0174568000000011,-0.0029517999999998,0.0001176000000005,0.0008060000000008,0.0011566,0,sub_9
-0.0070354000000001,0.0170544000000011,-0.0029861999999998,0.0005446000000005,0.0001652000000008,0.0009532,0,sub_9
-0.0069848000000001,0.0161744000000011,-0.0020661999999999,0.0009716000000005,-0.0004755999999991,0.0007498,0,sub_9
-0.0064190000000001,0.0160408000000011,-0.0017323999999999,0.0011862000000004,-0.0006903999999991,0.000758,0,sub_9
-0.0064052000000001,0.0158864000000012,-0.0013857999999999,0.0011894000000004,-0.000478399999999,0.000764,0,sub_9
-0.0062228000000001,0.0155648000000012,-0.0011939999999999,0.0011908000000004,-0.000480199999999,0.000984,0,sub_9
-0.0066318000000001,0.0156280000000011,-0.0013611999999999,0.0009746000000004,-0.0006941999999991,0.00141,0,sub_9
-0.0064212000000001,0.0161674000000011,-0.0021975999999998,0.0009738000000004,-0.000694999999999,0.0016236,0,sub_9
-0.0066416000000001,0.0162656000000011,-0.0020151999999998,0.0011872000000004,-0.0006957999999991,0.001625,0,sub_9
-0.0065488000000001,0.0159574000000011,-0.0021551999999998,0.0009694000000004,-0.0013361999999991,0.0020534,0,sub_9
-0.0068240000000001,0.0162080000000011,-0.0019915999999998,0.0009686000000004,-0.0017617999999991,0.0018422,0,sub_9
-0.0070054000000001,0.0159560000000012,-0.0021979999999998,0.0011832000000004,-0.0017619999999991,0.0016318,0,sub_9
-0.0072436000000001,0.0157226000000012,-0.0019241999999999,0.0009720000000004,-0.0017599999999991,0.0012048,0,sub_9
-0.0070992000000001,0.0158294000000012,-0.0025161999999999,0.0009734000000004,-0.0017593999999991,0.000993,0,sub_9
-0.0078274000000001,0.0160106000000012,-0.0029543999999999,0.0007648000000004,-0.0013299999999991,0.00035,0,sub_9
-0.0079300000000001,0.0160672000000012,-0.0033067999999999,0.0005544000000004,-0.0004779999999991,0.000561,0,sub_9
-0.0080850000000001,0.0162272000000012,-0.0029697999999999,0.0005572000000004,-5.0999999999158205e-05,0.0003468,0,sub_9
-0.0082682000000001,0.0162912000000012,-0.0029059999999999,0.0005554000000004,-5.179999999915821e-05,0.0005578,0,sub_9
-0.0083672000000001,0.0160858000000012,-0.0025919999999999,0.0007688000000004,0.0001604000000008,0.0005562,0,sub_9
-0.0077330000000001,0.0162062000000012,-0.0019037999999999,0.0011936000000004,0.0001580000000008,0.0007702,0,sub_9
-0.0071944000000001,0.0160278000000011,-0.0019127999999998,0.0014060000000004,-0.0002671999999991,0.0003422,0,sub_9
