userAcceleration.x,userAcceleration.y,userAcceleration.z,rotationRate.x,rotationRate.y,rotationRate.z,label,subject
-0.0052490000000002,0.0035098000000011,-0.0059167999999999,0.0064058000000004,0.0016942000000009,-0.0121905999999999,0,sub_11
-0.0043640000000002,0.0028752000000011,-0.0046501999999999,0.0074592000000004,-0.002777799999999,-0.0136729999999999,0,sub_11
-0.0039182000000002,0.0021662000000011,-0.0053967999999998,0.0055140000000004,-0.005763999999999,-0.0111189999999999,0,sub_11
-0.0049606000000002,0.0028018000000011,-0.0046931999999999,0.0029190000000004,-0.007270999999999,-0.0049395999999999,0,sub_11
-0.0059544000000002,0.0030138000000011,-0.0052181999999999,-0.0003075999999995,-0.006437199999999,0.0025112,0,sub_11
-0.0051358000000002,0.0016942000000011,-0.0063465999999999,-0.0041695999999995,-0.006021199999999,0.0084628,0,sub_11
-0.0045888000000002,-0.0013551999999988,-0.0050653999999999,-0.0050403999999995,-0.006885399999999,0.0123004,0,sub_11
-0.0045236000000002,-0.0012961999999988,-0.0027895999999999,-0.0024705999999995,-0.004978999999999,0.0129538,0,sub_11
-0.0017746000000002,-0.0016409999999988,-0.0045835999999999,-0.0005063999999995,-0.000493399999999,0.0084722,0,sub_11
0.0006501999999997,-0.0021631999999988,-0.0072651999999999,0.0010274000000004,0.0010226000000009,0.0010034,0,sub_11
-2.800000000223197e-06,-0.0015569999999988,-0.0065397999999999,0.0023268000000004,-0.000662399999999,-0.0049673999999999,0,sub_11
-0.0006512000000002,0.0005580000000011,-0.0062743999999999,0.0019172000000004,-0.000221199999999,-0.0083891999999999,0,sub_11
0.0009785999999997,0.0008974000000011,-0.0068901999999999,0.0010810000000004,0.0019190000000009,-0.0101069999999999,0,sub_11
0.0010677999999997,-5.2599999998784174e-05,-0.0063205999999999,0.0012788000000004,0.0010530000000009,-0.0081801999999999,0,sub_11
0.0012031999999997,-0.0013399999999987,-0.0053257999999999,0.0006124000000004,0.0001806000000009,-0.0039091999999999,0,sub_11
0.0022515999999997,-0.0011755999999987,-0.0061565999999999,-0.0002529999999995,0.0022924000000009,0.0001428,0,sub_11
0.0029363999999997,-0.0008047999999987,-0.0069091999999999,-0.0013201999999995,0.0050520000000009,0.00227,0,sub_11
0.0012109999999997,-0.0011801999999987,-0.0064103999999999,-0.0021759999999995,0.0067482000000009,0.003759,0,sub_11
-0.0024618000000002,-0.0007621999999988,-0.0049523999999999,-0.0026007999999995,0.0080246000000009,0.004609,0,sub_11
-0.0062210000000002,-3.859999999880409e-05,-0.0042953999999999,-0.0021623999999995,0.0099432000000009,0.0039686,0,sub_11
-0.0088866000000002,0.0002962000000011,-0.0049251999999999,-0.0013061999999995,0.0091074000000009,0.0020548,0,sub_11
-0.0108492000000001,0.0008860000000011,-0.0063521999999999,-3.859999999951194e-05,0.0048610000000009,0.000148,0,sub_11
-0.0115682000000001,0.0021278000000011,-0.0074337999999999,-5.699999999951196e-05,-0.001083599999999,-0.0021927999999999,0,sub_11
-0.0097390000000001,0.0025902000000011,-0.0078259999999999,-7.539999999951196e-05,-0.006815999999999,-0.0043201999999999,0,sub_11
-0.0068994000000002,0.0018694000000011,-0.0065755999999999,0.0005358000000004,-0.012984399999999,-0.0045197999999999,0,sub_11
-0.0048432000000002,0.0011534000000011,-0.0054673999999999,-0.0007645999999995,-0.015544399999999,-0.0026027999999999,0,sub_11
-0.0009488000000002,0.0001810000000011,-0.0053697999999999,-0.0031067999999995,-0.011924399999999,-5.999999999995141e-05,0,sub_11
0.0021371999999997,-0.0013643999999988,-0.0043347999999999,-0.0035237999999995,-0.007033799999999,0.0027082,0,sub_11
0.0044985999999997,-0.0028023999999988,-0.0023493999999999,-0.0024353999999995,-0.000438999999999,0.0044106,0,sub_11
0.0044281999999997,-0.0023579999999987,-0.0014693999999999,0.0005954000000004,0.0085028000000008,0.0035598,0,sub_11
0.0024329999999997,-0.0009131999999987,-0.0032029999999998,0.0057562000000004,0.0146752000000008,0.0008044,0,sub_11
-0.0028484000000002,-1.3599999998784029e-05,-0.0044311999999999,0.0098050000000004,0.0114744000000008,-0.0013057999999999,0,sub_11
-0.0090874000000002,0.0022190000000012,-0.0063395999999999,0.0104158000000004,0.0044446000000008,-0.0019393999999999,0,sub_11
-0.0141734000000002,0.0029830000000012,-0.0093149999999998,0.0076074000000004,-0.002366799999999,-0.0010957999999999,0,sub_11
-0.0148050000000002,0.0014912000000011,-0.0112063999999998,0.0015888000000004,-0.009812199999999,0.0012218,0,sub_11
-0.0110430000000002,-0.0016709999999988,-0.0090633999999998,-0.0054869999999995,-0.015335399999999,0.003316,0,sub_11
-0.0049170000000002,-0.0037123999999988,-0.0052937999999999,-0.0089049999999995,-0.014895199999999,0.003293,0,sub_11
0.0028707999999997,-0.0055453999999988,-0.0031689999999999,-0.0076039999999995,-0.011053799999999,0.001162,0,sub_11
0.0094535999999997,-0.0047993999999988,-0.0019181999999999,-0.0039499999999995,-0.006578999999999,-0.0015941999999999,0,sub_11
0.0129943999999997,-0.0029515999999988,-0.0017941999999999,0.0005584000000004,-0.002106199999999,-0.0045581999999999,0,sub_11
0.0123323999999997,-0.0013995999999988,-0.0027533999999999,0.0046256000000004,0.0012942000000009,-0.0053873999999999,0,sub_11
0.0079803999999997,-0.0003957999999988,-0.0048761999999999,0.0050618000000004,0.0057574000000009,-0.0030399999999999,0,sub_11
0.0019011999999997,0.0005684000000011,-0.0060301999999999,0.0014356000000004,0.0112880000000009,0.0022688,0,sub_11
-0.0049152000000002,0.0005998000000011,-0.0062965999999999,-0.0030643999999995,0.0136208000000009,0.0088574,0,sub_11
-0.0114974000000001,0.0012318000000011,-0.0066581999999999,-0.0058767999999995,0.0125314000000009,0.0150362,0,sub_11
-0.0140924000000001,0.0030854000000011,-0.0077301999999998,-0.0071849999999995,0.0095362000000009,0.016955,0,sub_11
-0.0128784000000001,0.0039954000000011,-0.0087267999999998,-0.0057155999999995,0.0027154000000009,0.014198,0,sub_11
-0.0089022000000001,0.0031810000000011,-0.0085123999999999,-0.0021039999999995,-0.006439599999999,0.007186,0,sub_11
-0.0026418000000002,0.0017376000000011,-0.0083807999999999,0.0021766000000004,-0.012175999999999,-0.0028167999999999,0,sub_11
0.0039149999999997,-0.0001937999999988,-0.0072209999999998,0.0047792000000004,-0.012147599999999,-0.0121989999999999,0,sub_11
0.0050959999999997,-0.0027397999999988,-0.0044805999999999,0.0056662000000004,-0.008725599999999,-0.0162563999999999,0,sub_11
0.0036931999999997,-0.0037815999999988,-0.0030333999999999,0.0046234000000004,-0.001910199999999,-0.0147769999999999,0,sub_11
0.0006837999999997,-0.0034679999999987,-0.0029485999999999,0.0016516000000004,0.0072386000000009,-0.0090409999999999,0,sub_11
-0.0043378000000002,-0.0016555999999987,-0.0039769999999999,-0.0019859999999995,0.0136022000000009,-0.0005289999999999,0,sub_11
-0.0099706000000002,0.0016280000000012,-0.0045353999999999,-0.0048017999999995,0.0133566000000009,0.0084244,0,sub_11
-0.0119280000000002,0.0050012000000012,-0.0063675999999999,-0.0056971999999995,0.0101334000000009,0.014404,0,sub_11
-0.0101292000000002,0.0063002000000012,-0.0078557999999999,-0.0052979999999995,0.0041598000000009,0.0144142,0,sub_11
-0.0060388000000002,0.0055358000000011,-0.0087943999999999,-0.0031889999999995,-0.006061199999999,0.0095278,0,sub_11
-0.0015380000000002,0.0032226000000011,-0.0071595999999999,-0.0002141999999995,-0.015419599999999,0.0029376,0,sub_11
0.0026525999999997,-0.0005521999999988,-0.0061357999999999,0.0019368000000004,-0.018170399999999,-0.0036667999999999,0,sub_11
0.0060531999999997,-0.0033761999999988,-0.0049849999999999,0.0036814000000004,-0.014743399999999,-0.0089995999999999,0,sub_11
0.0077415999999997,-0.0061221999999988,-0.0030143999999999,0.0047868000000004,-0.007705999999999,-0.0109231999999999,0,sub_11
0.0073609999999997,-0.0060159999999988,-0.0010897999999999,0.0052608000000004,0.0040098000000009,-0.0100797999999999,0,sub_11
0.0071243999999997,-0.0057195999999988,-0.0018583999999999,0.0048880000000004,0.0182808000000009,-0.0081773999999999,0,sub_11
0.0044769999999997,-0.0042351999999988,-0.0024403999999999,0.0044894000000004,0.0282848000000009,-0.0047741999999999,0,sub_11
-0.0009838000000002,-0.0032841999999988,-0.0007045999999999,0.0034274000000004,0.0344466000000008,0.000338,0,sub_11
-0.0066762000000002,-0.0014049999999988,-0.0026519999999999,0.0038590000000004,0.0399666000000008,0.0048204,0,sub_11
-0.0128620000000002,0.0012258000000011,-0.0056213999999999,0.0036254000000004,0.0405860000000009,0.0099454,0,sub_11
-0.0140752000000002,0.0031544000000011,-0.0064077999999999,0.0038200000000004,0.0388852000000008,0.0116572,0,sub_11
-0.0099184000000002,0.0048934000000011,-0.0089697999999999,0.0033688000000004,0.0282690000000008,0.0056846,0,sub_11
-0.0068462000000002,0.0060668000000011,-0.0139991999999999,0.0005416000000004,0.0085108000000009,-0.0030701999999999,0,sub_11
-0.0082750000000002,0.0055518000000011,-0.0115449999999999,-0.0022903999999995,-0.007856399999999,-0.0073427999999999,0,sub_11
-0.0072916000000002,0.0041862000000011,-0.0080283999999999,-0.0025195999999995,-0.013585199999999,-0.0103289999999999,0,sub_11
-0.0082570000000002,0.0042290000000011,-0.0065645999999999,-0.0023321999999995,-0.019550599999999,-0.0105337999999999,0,sub_11
-0.0098512000000002,0.0033450000000011,-0.0053699999999999,-0.0027887999999995,-0.019999999999999,-0.0043407999999999,0,sub_11
-0.0068602000000002,0.0026588000000011,-0.0042249999999999,-0.0038689999999995,-0.015551999999999,0.0031234,0,sub_11
0.0016871999999997,0.0023198000000011,-0.0063839999999999,-0.0062309999999995,-0.016618999999999,0.0054478,0,sub_11
0.0073137999999997,2.2800000001195128e-05,-0.0059317999999999,-0.0068917999999995,-0.021092199999999,0.005652,0,sub_11
0.0092753999999997,-0.0024215999999988,-0.0044979999999999,-0.0094595999999995,-0.022151599999999,0.0062658,0,sub_11
0.0082035999999997,-0.0039125999999988,-0.0011085999999999,-0.0092199999999995,-0.015763799999999,0.0068896,0,sub_11
0.0067175999999997,-0.0045099999999988,-0.0005001999999999,-0.0040277999999995,-0.001713999999999,0.0051882,0,sub_11
0.0031609999999997,-0.0032991999999988,-0.0011213999999999,0.0024300000000004,0.0084994000000009,0.00287,0,sub_11
-0.0014828000000002,-0.0008201999999988,-0.0032179999999999,0.0054440000000004,0.0129690000000009,0.0013898,0,sub_11
-0.0056348000000002,0.0018768000000011,-0.0076883999999999,0.0067348000000004,0.0133982000000009,-0.0005245999999999,0,sub_11
-0.0091370000000002,0.0025186000000011,-0.0121097999999999,0.0062926000000004,0.0080824000000009,-0.0026599999999999,0,sub_11
-0.0110952000000002,0.0020056000000011,-0.0110467999999999,0.0045510000000004,-4.599999999060391e-06,-0.0033055999999999,0,sub_11
-0.0102872000000002,0.0014346000000011,-0.0092367999999999,0.0011224000000004,-0.002338199999999,-0.0026883999999999,0,sub_11
-0.0072240000000002,0.0006042000000011,-0.0086901999999998,-0.0010113999999995,-0.003178199999999,-0.0037733999999999,0,sub_11
-0.0048522000000002,-0.0007495999999988,-0.0060973999999998,0.0009146000000004,-0.002541799999999,-0.0046181999999999,0,sub_11
-0.0013680000000002,-0.0011357999999988,-0.0051969999999998,0.0026464000000004,0.0017184000000009,-0.0058935999999999,0,sub_11
0.0005347999999997,-0.0010319999999988,-0.0060733999999998,0.0026598000000004,0.0034280000000009,-0.0071775999999999,0,sub_11
0.0007965999999997,-0.0017711999999988,-0.0059115999999998,0.0035142000000004,0.0034258000000009,-0.0073851999999999,0,sub_11
0.0006261999999997,-0.0014381999999988,-0.0053927999999998,0.0030776000000004,0.0038500000000009,-0.0050413999999999,0,sub_11
0.0009313999999997,-0.0012973999999988,-0.0047843999999999,0.0017866000000004,0.0047006000000009,-0.0020631999999999,0,sub_11
0.0007221999999997,-0.0011171999999988,-0.0036651999999999,0.0009206000000004,0.0057602000000009,0.0015586,0,sub_11
0.0002779999999997,-0.0007609999999988,-0.0039179999999999,0.0004888000000004,0.0078860000000009,0.004541,0,sub_11
-0.0018188000000002,4.600000000119475e-05,-0.0051935999999999,-0.0001561999999995,0.0085272000000009,0.0060284,0,sub_11
-0.0044508000000002,0.0004928000000011,-0.0064685999999999,-0.0005895999999995,0.0068250000000009,0.0058137999999999,0,sub_11
-0.0068132000000002,0.0009042000000011,-0.0082965999999999,-0.0018783999999995,0.0034266000000009,0.0043136,0,sub_11
-0.0092014000000002,0.0019176000000011,-0.0092009999999999,-0.0031721999999995,-0.002097999999999,0.001748,0,sub_11
-0.0105370000000002,0.0023696000000011,-0.0088815999999999,-0.0038383999999995,-0.008312199999999,-0.0006003999999999,0,sub_11
-0.0095970000000002,0.0022762000000011,-0.0085853999999999,-0.0049285999999995,-0.013673599999999,-0.0027391999999999,0,sub_11
-0.0073160000000002,0.0004152000000011,-0.0078137999999999,-0.0057947999999995,-0.017116599999999,-0.0053061999999999,0,sub_11
-0.0043546000000002,-0.0007103999999987,-0.0057861999999999,-0.0055883999999995,-0.018648399999999,-0.0072271999999999,0,sub_11
-0.0012376000000002,-0.0019435999999987,-0.0049199999999999,-0.0045177999999995,-0.016778599999999,-0.0080783999999999,0,sub_11
0.0009049999999997,-0.0025511999999987,-0.0046843999999999,-0.0036499999999995,-0.013161399999999,-0.0076495999999999,0,sub_11
0.0013727999999997,-0.0027333999999987,-0.0041695999999999,-0.0029953999999995,-0.008270199999999,-0.0059421999999999,0,sub_11
0.0012913999999997,-0.0016823999999987,-0.0045201999999999,-0.0023495999999995,-0.004447799999999,-0.0033787999999999,0,sub_11
0.0026989999999997,-0.0015307999999987,-0.0047565999999999,-0.0012793999999995,-0.001698599999999,-0.0010259999999999,0,sub_11
0.0035591999999997,-0.0018621999999987,-0.0045347999999999,-0.0002081999999995,0.0006272000000009,0.0006864,0,sub_11
0.0033709999999997,-0.0026187999999987,-0.0033985999999999,0.0015118000000004,0.0042316000000009,0.0017608,0,sub_11
0.0033423999999997,-0.0026471999999987,-0.0035239999999999,0.0032384000000004,0.0086908000000009,0.0021932,0,sub_11
0.0025671999999997,-0.0027529999999987,-0.0039963999999999,0.0047528000000004,0.0133638000000009,0.0026238,0,sub_11
-0.0015366000000002,-0.0014721999999987,-0.0046733999999999,0.0054054000000004,0.0163436000000009,0.0028382,0,sub_11
-0.0047484000000002,0.0001496000000011,-0.0050789999999998,0.0041310000000004,0.0178386000000008,0.003041,0,sub_11
-0.0071834000000002,0.0008130000000011,-0.0068741999999998,0.0022002000000004,0.0163506000000009,0.003884,0,sub_11
-0.0095052000000002,0.0022990000000011,-0.0072129999999999,0.0004670000000004,0.0110216000000009,0.004301,0,sub_11
-0.0113688000000002,0.0026530000000011,-0.0071359999999999,-0.0019073999999995,0.0052698000000009,0.0045004,0,sub_11
-0.0110148000000002,0.0023906000000011,-0.0076095999999998,-0.0034213999999995,0.0005818000000009,0.0042772,0,sub_11
-0.0109920000000002,0.0019736000000011,-0.0075717999999998,-0.0034419999999995,-0.004535799999999,0.0036378,0,sub_11
-0.0099178000000002,0.0017662000000011,-0.0067511999999998,-0.0030251999999995,-0.008796799999999,0.0015046,0,sub_11
-0.0079358000000002,0.0001080000000011,-0.0063335999999998,-0.0021745999999995,-0.011136399999999,-0.0001955999999999,0,sub_11
-0.0050990000000002,1.5600000001194984e-05,-0.0060099999999998,-0.0004627999999995,-0.011986999999999,-0.0021051999999999,0,sub_11
-0.0025734000000002,-0.0003191999999987,-0.0058059999999999,-0.0002445999999995,-0.011771399999999,-0.0029585999999999,0,sub_11
0.0002031999999997,-0.0011773999999987,-0.0058433999999999,-0.0002415999999995,-0.010920199999999,-0.0027459999999999,0,sub_11
0.0025063999999997,-0.0016705999999988,-0.0055187999999999,-0.0006707999999995,-0.008803799999999,-0.0012511999999999,0,sub_11
0.0043867999999997,-0.0018863999999988,-0.0051239999999999,-0.0013073999999995,-0.004984199999999,0.0006672,0,sub_11
0.0053843999999997,-0.0024007999999988,-0.0052455999999999,-0.0023717999999994,-0.001163799999999,0.0027962,0,sub_11
0.0054321999999997,-0.0023267999999988,-0.0053875999999999,-0.0027903999999994,0.0028718000000009,0.0038612,0,sub_11
0.0041331999999997,-0.0020431999999988,-0.0054575999999999,-0.0027803999999994,0.0066954000000009,0.0042886,0,sub_11
0.0009891999999997,-0.0016163999999988,-0.0051639999999999,-0.0019075999999994,0.0107412000000009,0.004076,0,sub_11
-0.0029034000000002,-0.0005445999999988,-0.0052189999999999,-0.0014627999999994,0.0137268000000009,0.003007,0,sub_11
-0.0073560000000002,0.0013054000000011,-0.0059029999999999,-0.0008193999999995,0.0130868000000009,0.001945,0,sub_11
-0.0114992000000002,0.0028228000000011,-0.0072871999999999,2.0000000000467903e-05,0.0096720000000009,0.0019562,0,sub_11
-0.0135656000000002,0.0035892000000011,-0.0086963999999999,-0.0002225999999995,0.0024276000000009,0.0015374,0,sub_11
-0.0133470000000002,0.0040916000000011,-0.0106595999999998,-0.0011111999999995,-0.006729399999999,0.0004756,0,sub_11
-0.0107094000000002,0.0019840000000011,-0.0096769999999999,-0.0011441999999995,-0.015038999999999,-0.0001537999999999,0,sub_11
-0.0070952000000002,-0.0008311999999987,-0.0069107999999999,-0.0005117999999995,-0.017382399999999,-0.0007871999999999,0,sub_11
-0.0026484000000002,-0.0037767999999987,-0.0034085999999999,0.0003628000000004,-0.013971399999999,-0.0020671999999999,0,sub_11
0.0012333999999997,-0.0055121999999987,-0.0019679999999999,0.0012574000000004,-0.005661799999999,-0.0029261999999999,0,sub_11
0.0049433999999997,-0.0063703999999987,-0.0006383999999999,0.0032296000000004,0.0043594000000009,-0.0029165999999999,0,sub_11
0.0079887999999997,-0.0051909999999987,-0.0004733999999999,0.0060744000000004,0.0188510000000009,-0.0026931999999999,0,sub_11
0.0093823999999997,-0.0013851999999987,-0.0030901999999999,0.0067664000000003,0.0295134000000009,-0.0020525999999999,0,sub_11
0.0073397999999997,0.0041352000000012,-0.0083061999999999,0.0054874000000004,0.0280418000000009,-0.0022647999999999,0,sub_11
0.0047773999999997,0.0085746000000012,-0.0135501999999999,0.0037662000000004,0.0229506000000009,-0.0026889999999999,0,sub_11
0.0041933999999997,0.0077964000000011,-0.0103681999999999,-0.0020455999999995,0.0104058000000009,-0.0039953999999999,0,sub_11
-0.0027178000000002,0.0065548000000011,-0.0070027999999999,-0.0061647999999995,-0.005765199999999,-0.0057125999999999,0,sub_11
-0.0100494000000002,0.0030868000000011,-0.0018439999999999,-0.0053523999999995,-0.014080599999999,-0.0048415999999999,0,sub_11
-0.0137302000000001,-0.0007627999999988,0.0018644,-0.0027907999999995,-0.011130399999999,-0.0016221999999999,0,sub_11
-0.0157508000000001,-0.0026655999999988,0.004347,-0.0017361999999995,-0.012855199999999,-0.0001165999999999,0,sub_11
-0.0195392000000001,0.0001390000000011,-0.0012635999999999,0.0005966000000004,-0.015222799999999,0.001185,0,sub_11
-0.0155978000000001,0.0010168000000011,-0.0063901999999999,-0.0007121999999995,-0.019712599999999,0.0035322,0,sub_11
-0.0070006000000002,0.0012474000000011,-0.0082497999999999,-0.0035069999999995,-0.025463599999999,0.0028796,0,sub_11
0.0032667999999997,-0.0002407999999988,-0.0077187999999999,-0.0047929999999995,-0.028434999999999,0.0011652,0,sub_11
0.0124715999999997,-0.0034815999999987,-0.0051401999999999,-0.0034897999999995,-0.022901799999999,0.0015946,0,sub_11
0.0211295999999997,-0.0059191999999987,-0.0026403999999999,-0.0010841999999995,-0.009277199999999,0.0022348,0,sub_11
0.0231043999999997,-0.0056093999999988,-0.0018531999999999,0.0017702000000004,0.0071270000000009,0.0018052,0,sub_11
0.0206009999999997,-0.0054301999999988,-0.0039645999999999,0.0024660000000004,0.0175748000000009,0.0009408,0,sub_11
0.0146869999999997,-0.0048933999999988,-0.0046479999999999,0.0014432000000004,0.0261086000000009,0.0007078,0,sub_11
0.0042383999999997,-0.0034963999999988,-0.0039751999999999,0.0008414000000004,0.0333624000000009,0.0004792,0,sub_11
-0.0064806000000002,-0.0023993999999988,-0.0039651999999999,0.0002138000000004,0.0359248000000009,0.0013248,0,sub_11
-0.0129152000000002,-0.0011631999999988,-0.0049879999999999,-0.0006587999999995,0.0327276000000009,0.002391,0,sub_11
-0.0165050000000002,0.0008902000000011,-0.0065255999999999,-0.0002465999999995,0.0297426000000009,0.0026112,0,sub_11
-0.0182852000000002,0.0046362000000011,-0.0074949999999999,0.0005742000000004,0.0207982000000009,0.0009192,0,sub_11
-0.0156756000000002,0.0070784000000011,-0.0083333999999999,0.0013938000000004,0.0090846000000009,-0.0020565999999999,0,sub_11
-0.0116314000000002,0.0075366000000011,-0.0082431999999999,0.0035060000000004,-0.000924799999999,-0.0060937999999999,0,sub_11
-0.0082534000000002,0.0072920000000011,-0.0085185999999999,0.0058420000000004,-0.008379199999999,-0.0099191999999999,0,sub_11
-0.0068952000000002,0.0048354000000011,-0.0086595999999999,0.0041106000000004,-0.016892599999999,-0.0118485999999999,0,sub_11
-0.0061782000000002,0.0005922000000011,-0.0088911999999999,0.0013134000000004,-0.023067199999999,-0.0116521999999999,0,sub_11
-0.0057786000000002,-0.0031523999999987,-0.0078663999999999,-0.0016939999999995,-0.025196799999999,-0.0093203999999999,0,sub_11
-0.0051100000000002,-0.0048079999999987,-0.0065799999999999,-0.0042583999999995,-0.021796199999999,-0.0050697999999999,0,sub_11
-0.0044072000000002,-0.0062521999999987,-0.0036413999999999,-0.0061701999999995,-0.014991399999999,-0.0001779999999999,0,sub_11
-0.0026494000000002,-0.0053417999999987,-0.0021747999999999,-0.0048731999999995,-0.006708199999999,0.0043066,0,sub_11
-0.0005304000000002,-0.0033537999999987,-0.0022699999999999,-0.0031457999999995,0.0009402000000009,0.0072996,0,sub_11
0.0009691999999997,-0.0012165999999988,-0.0037421999999999,-0.0016373999999995,0.0056134000000009,0.0085856,0,sub_11
0.0011381999999997,0.0009724000000011,-0.0052949999999999,-0.0009957999999995,0.0056094000000009,0.0081626,0,sub_11
0.0024011999999997,0.0026044000000011,-0.0082307999999999,-0.0007857999999995,0.0026316000000009,0.0058174,0,sub_11
0.0032703999999997,0.0033074000000011,-0.0095069999999999,-0.0014259999999995,-0.001397999999999,0.0017588,0,sub_11
0.0035183999999997,0.0016210000000011,-0.0086291999999999,-0.0007781999999995,-0.004364199999999,-0.0029329999999999,0,sub_11
0.0025175999999997,0.0001020000000011,-0.0066621999999999,0.0003040000000004,-0.004990799999999,-0.0069837999999999,0,sub_11
0.0007169999999997,-0.0013605999999988,-0.0054707999999999,0.0018216000000004,-0.002852799999999,-0.0101805999999999,0,sub_11
-0.0014922000000002,-0.0023209999999988,-0.0052303999999999,0.0031264000000004,0.0005584000000009,-0.0118799999999999,0,sub_11
-0.0044006000000002,-0.0022777999999988,-0.0043603999999999,0.0039844000000004,0.0028920000000009,-0.0101627999999999,0,sub_11
-0.0079102000000002,-0.0006409999999988,-0.0042807999999999,0.0029078000000004,0.0047952000000009,-0.0056811999999999,0,sub_11
-0.0084752000000002,0.0006460000000011,-0.0055593999999999,0.0016080000000004,0.0058418000000009,8.180000000006827e-05,0,sub_11
-0.0073752000000002,0.0016648000000011,-0.0073021999999999,-0.0005529999999995,0.0041260000000009,0.004774,0,sub_11
-0.0062066000000002,0.0024082000000011,-0.0066661999999998,-0.0027143999999995,0.0007136000000009,0.0075408,0,sub_11
-0.0052938000000002,0.0016130000000011,-0.0063901999999998,-0.0031487999999995,-0.001201399999999,0.0073266,0,sub_11
-0.0036274000000002,0.0014934000000011,-0.0065657999999999,-0.0022865999999995,-0.002669199999999,0.0045576,0,sub_11
-0.0030790000000002,0.0018162000000011,-0.0069975999999999,-0.0016269999999995,-0.004126799999999,-0.0005627999999999,0,sub_11
-0.0033740000000002,0.0013404000000011,-0.0065389999999998,-0.0007559999999995,-0.005586799999999,-0.0052543999999999,0,sub_11
-0.0033034000000002,0.0007454000000011,-0.0067157999999999,0.0003216000000004,-0.006841399999999,-0.0082357999999999,0,sub_11
-0.0021510000000002,-1.1399999998805076e-05,-0.0059739999999999,0.0003304000000004,-0.007032999999999,-0.0097305999999999,0,sub_11
-0.0011486000000002,-0.0016357999999987,-0.0051773999999999,-9.639999999955248e-05,-0.006819199999999,-0.0095201999999999,0,sub_11
-0.0004982000000002,-0.0029837999999987,-0.0043405999999999,-0.0007413999999995,-0.005547999999999,-0.0071763999999999,0,sub_11
8.639999999977657e-05,-0.0032789999999987,-0.0036161999999999,-0.0015949999999995,-0.002149799999999,-0.0037683999999999,0,sub_11
-0.0003304000000002,-0.0030209999999987,-0.0030865999999998,-0.0018067999999995,0.0018574000000009,-0.0003539999999999,0,sub_11
-0.0016630000000002,-0.0015771999999987,-0.0041065999999998,-0.0015915999999995,0.0050144000000009,0.00221,0,sub_11
-0.0030796000000002,-0.0002247999999988,-0.0050999999999998,-0.0009505999999995,0.0066836000000009,0.003497,0,sub_11
-0.0046124000000002,0.0005648000000011,-0.0057585999999998,0.0001132000000003,0.0064382000000009,0.0037212,0,sub_11
