userAcceleration.x,userAcceleration.y,userAcceleration.z,rotationRate.x,rotationRate.y,rotationRate.z,label,subject
0.0256927999999997,-0.0554603999999987,0.046163,0.1834338000000004,0.1930206000000009,0.073893,0,sub_19
0.0288413999999997,-0.0530511999999987,0.0433864,0.1759456000000004,0.1896334000000009,0.0749132,0,sub_19
0.0310005999999997,-0.0526059999999987,0.0404738,0.1592260000000004,0.1696766000000009,0.0718308,0,sub_19
0.0332283999999997,-0.0509563999999987,0.0363248,0.1363012000000004,0.1427234000000009,0.0655096,0,sub_19
0.0341255999999997,-0.0484013999999987,0.0320778,0.1108160000000004,0.1176890000000008,0.0610906,0,sub_19
0.0330633999999997,-0.0453619999999987,0.029005,0.0829712000000004,0.0939248000000008,0.060713,0,sub_19
0.0334965999999997,-0.0422657999999987,0.0288168,0.0534136000000004,0.0712226000000009,0.0626722,0,sub_19
0.0348639999999997,-0.0387761999999987,0.0299552,0.0215414000000004,0.0500430000000009,0.0588448,0,sub_19
0.0365081999999997,-0.0377485999999987,0.0352932,-0.0062363999999995,0.0288848000000008,0.0460728,0,sub_19
0.0373361999999998,-0.0390473999999987,0.0421556,-0.0213665999999995,0.0128276000000008,0.025478,0,sub_19
0.0367127999999998,-0.0415925999999987,0.0476282,-0.0187179999999995,0.0099264000000008,0.0028538,0,sub_19
0.0328741999999998,-0.0437561999999987,0.0477606,-0.0038609999999995,0.0212410000000008,-0.0156439999999999,0,sub_19
0.0294079999999998,-0.0461869999999987,0.0463986,0.0193080000000004,0.0390960000000008,-0.0253325999999999,0,sub_19
0.0251781999999998,-0.0478793999999987,0.0415272,0.0421994000000004,0.0526508000000008,-0.0249763999999999,0,sub_19
0.0219977999999998,-0.0501839999999987,0.0365962,0.0511400000000004,0.0513252000000008,-0.0189237999999999,0,sub_19
0.0208283999999998,-0.0527897999999987,0.032983,0.0399450000000004,0.0330238000000008,-0.0125625999999999,0,sub_19
0.0216885999999998,-0.0555159999999987,0.0330218,0.0152634000000004,0.0003004000000008,-0.0109773999999999,0,sub_19
0.0208621999999998,-0.0587241999999986,0.0333646,-0.0154185999999995,-0.040064199999999,-0.0113471999999999,0,sub_19
0.0180867999999998,-0.0619677999999987,0.034046,-0.0469491999999995,-0.079360599999999,-0.0117241999999999,0,sub_19
0.0164013999999998,-0.0639657999999987,0.0339926,-0.0718279999999995,-0.107185799999999,-0.0114349999999999,0,sub_19
0.0159003999999998,-0.0649985999999987,0.0346058,-0.0827693999999995,-0.1197205999999991,-0.0108543999999999,0,sub_19
0.0170337999999998,-0.0646915999999987,0.0371294,-0.0815345999999995,-0.1170099999999991,-0.0079835999999999,0,sub_19
0.0203761999999998,-0.0628831999999987,0.0416754,-0.0768319999999995,-0.1017437999999991,-0.0044635999999999,0,sub_19
0.0265531999999998,-0.0597265999999987,0.0471884,-0.0712463999999995,-0.0815733999999991,-0.0026529999999999,0,sub_19
0.0318385999999998,-0.0554997999999987,0.0523966,-0.0628963999999995,-0.0646041999999991,-0.0018871999999999,0,sub_19
0.0357625999999998,-0.0521477999999987,0.0563824,-0.0530749999999995,-0.0529647999999991,-0.0015315999999999,0,sub_19
0.0373115999999998,-0.0493497999999987,0.0580888,-0.0434347999999995,-0.0449005999999991,-0.0019019999999999,0,sub_19
0.0373615999999998,-0.0470351999999987,0.0567114,-0.0316629999999995,-0.0372699999999991,-0.0022567999999999,0,sub_19
0.0366105999999998,-0.0451577999999987,0.0533426,-0.0196709999999995,-0.027936599999999,-0.0023985999999999,0,sub_19
0.0356593999999998,-0.0446737999999987,0.0478032,-0.0098107999999995,-0.018381799999999,-0.0027691999999999,0,sub_19
0.0335903999999998,-0.0447617999999987,0.0426564,-0.0026415999999995,-0.009551999999999,-0.0033787999999999,0,sub_19
0.0319505999999998,-0.0467073999999987,0.0381066,0.0032338000000004,-0.003912599999999,-0.0042069999999999,0,sub_19
0.0300293999999998,-0.0497683999999987,0.0360524,0.0073908000000004,-0.001884799999999,-0.0061109999999999,0,sub_19
0.0274991999999998,-0.0526395999999987,0.0351914,0.0094026000000004,-0.002194199999999,-0.0078131999999998,0,sub_19
0.0254713999999998,-0.0546295999999987,0.0368938,0.0079946000000004,-0.001860199999999,-0.0076173999999999,0,sub_19
0.0247699999999998,-0.0560791999999987,0.0399616,0.0041500000000004,-0.001213599999999,-0.0061495999999999,0,sub_19
0.0244073999999998,-0.0570443999999987,0.0433748,-0.0014005999999995,7.640000000093922e-05,-0.0042671999999999,0,sub_19
0.0252789999999998,-0.0569927999999987,0.0451884,-0.0082343999999995,0.0005194000000009,-0.0026061999999999,0,sub_19
0.0260451999999998,-0.0568615999999987,0.0464344,-0.0143341999999995,-0.0004361999999991,-0.0023621999999999,0,sub_19
0.0262085999999998,-0.0565471999999987,0.0465644,-0.0180927999999995,-0.0043759999999991,-0.0038071999999999,0,sub_19
0.0258561999999998,-0.0564069999999987,0.0448324,-0.0203575999999995,-0.0091699999999991,-0.0060951999999998,0,sub_19
0.0256579999999998,-0.0562953999999987,0.0422606,-0.0219795999999995,-0.013114799999999,-0.0081661999999998,0,sub_19
0.0241305999999997,-0.0556261999999987,0.0394034,-0.0240271999999995,-0.0166327999999991,-0.0100271999999998,0,sub_19
0.0231005999999997,-0.0550951999999987,0.0373704,-0.0280965999999995,-0.0202397999999991,-0.0102645999999999,0,sub_19
0.0220659999999997,-0.0549845999999987,0.0357762,-0.0336613999999995,-0.0236309999999991,-0.0098717999999999,0,sub_19
0.0221579999999997,-0.0540513999999987,0.0355726,-0.0411581999999995,-0.0293597999999991,-0.0092759999999999,0,sub_19
0.0218061999999997,-0.0534863999999987,0.0360176,-0.0497793999999995,-0.0377273999999991,-0.0089991999999999,0,sub_19
0.0222313999999998,-0.0533131999999987,0.0381888,-0.0558449999999995,-0.0469569999999991,-0.0084895999999999,0,sub_19
0.0238443999999998,-0.0533525999999987,0.039939,-0.0578527999999995,-0.0551361999999991,-0.0077395999999999,0,sub_19
0.0255479999999998,-0.0528689999999987,0.0423084,-0.0572875999999995,-0.0603425999999991,-0.0067615999999999,0,sub_19
0.0260463999999998,-0.0544649999999987,0.0450072,-0.0509449999999995,-0.0604617999999991,-0.0042541999999999,0,sub_19
0.0273511999999997,-0.0566495999999987,0.0484328,-0.0396237999999995,-0.054760799999999,-0.0011913999999999,0,sub_19
0.0280045999999997,-0.0589387999999987,0.0507874,-0.0240091999999995,-0.0431099999999991,0.0021074,0,sub_19
0.0280385999999997,-0.0600865999999987,0.051991,-0.0036707999999995,-0.0246589999999991,0.0056442,0,sub_19
0.0284315999999997,-0.0612631999999987,0.0521252,0.0174792000000004,-0.002850999999999,0.0100108,0,sub_19
0.0288887999999997,-0.0612683999999987,0.0501106,0.0302950000000004,0.0147308000000008,0.012829,0,sub_19
0.0296041999999997,-0.0600525999999987,0.0470084,0.0296426000000004,0.0244854000000009,0.013427,0,sub_19
0.0308677999999998,-0.0569867999999987,0.043595,0.0168050000000004,0.0274714000000009,0.0122392,0,sub_19
0.0323471999999998,-0.0544993999999987,0.0404064,-0.0020367999999995,0.0240860000000009,0.0112314,0,sub_19
0.0336575999999998,-0.0524433999999987,0.0381836,-0.0174379999999995,0.0160420000000008,0.0115614,0,sub_19
0.0344209999999997,-0.0510619999999987,0.0378926,-0.0262303999999995,0.0069088000000008,0.0121526,0,sub_19
0.0346417999999997,-0.0500505999999987,0.0375852,-0.0275509999999995,-0.0011861999999991,0.0130082,0,sub_19
0.0338161999999997,-0.0503369999999987,0.038597,-0.0248127999999995,-0.0086543999999991,0.0134642,0,sub_19
0.0321273999999997,-0.0510125999999987,0.0403106,-0.0256815999999995,-0.017116399999999,0.012165,0,sub_19
0.0303259999999997,-0.0515527999999987,0.04203,-0.0329323999999995,-0.025114599999999,0.0069752,0,sub_19
0.0292941999999998,-0.0525331999999987,0.0429734,-0.0384473999999995,-0.028636999999999,-0.0001309999999999,0,sub_19
0.0272863999999998,-0.0543431999999987,0.0437052,-0.0362559999999995,-0.026434599999999,-0.0069771999999999,0,sub_19
0.0257291999999998,-0.0563843999999987,0.0435338,-0.0257353999999995,-0.020859399999999,-0.0120603999999999,0,sub_19
0.0236067999999998,-0.0580425999999987,0.0436644,-0.0081793999999995,-0.011743199999999,-0.0160085999999999,0,sub_19
0.0227547999999998,-0.0593535999999987,0.044049,0.0136458000000004,-9.379999999910083e-05,-0.0177939999999999,0,sub_19
0.0220675999999998,-0.0597123999999987,0.0443452,0.0329060000000004,0.0121970000000008,-0.0178889999999999,0,sub_19
0.0239327999999998,-0.0581765999999987,0.044515,0.0457534000000004,0.0228022000000009,-0.0171717999999999,0,sub_19
0.0267361999999998,-0.0568215999999987,0.0452194,0.0517622000000004,0.0306636000000008,-0.0169261999999999,0,sub_19
0.0303699999999998,-0.0557425999999987,0.0455548,0.0528464000000004,0.0338582000000008,-0.0175637999999999,0,sub_19
0.0314869999999998,-0.0544671999999987,0.0447388,0.0492182000000004,0.0325968000000008,-0.0186557999999999,0,sub_19
0.0320195999999998,-0.0533717999999987,0.0423912,0.0425872000000004,0.0285736000000008,-0.0191241999999999,0,sub_19
0.0302929999999998,-0.0530767999999986,0.0408332,0.0344512000000004,0.0232722000000008,-0.0183195999999999,0,sub_19
0.0284441999999998,-0.0531707999999987,0.0390908,0.0254590000000004,0.0183956000000009,-0.0164533999999998,0,sub_19
0.0264437999999997,-0.0530981999999986,0.0375684,0.0179660000000004,0.0156410000000008,-0.0137247999999998,0,sub_19
0.0260335999999997,-0.0528111999999987,0.0366442,0.0121858000000004,0.0152198000000008,-0.0099189999999998,0,sub_19
0.0266821999999997,-0.0522089999999987,0.0371446,0.0046996000000004,0.0145932000000008,-0.0065521999999999,0,sub_19
0.0277373999999997,-0.0539051999999987,0.0385484,-0.0032219999999995,0.0101408000000008,-0.0051063999999998,0,sub_19
0.0282675999999997,-0.0555629999999987,0.0410614,-0.0034621999999995,0.0050248000000009,-0.0042469999999998,0,sub_19
0.0275377999999998,-0.0564965999999987,0.0441368,0.0057014000000004,0.0054070000000009,-0.0011923999999998,0,sub_19
0.0268373999999998,-0.0584589999999987,0.0475976,0.0229998000000004,0.0136360000000009,0.0038318000000001,0,sub_19
0.0256237999999998,-0.0613081999999987,0.0510326,0.0497174000000004,0.0297108000000009,0.0099800000000001,0,sub_19
0.0247423999999998,-0.0621541999999987,0.053395,0.0837308000000004,0.0566192000000009,0.0178742,0,sub_19
0.0241755999999998,-0.0615813999999987,0.054146,0.1149962000000004,0.0905630000000009,0.0270222,0,sub_19
0.0246963999999998,-0.0616057999999987,0.0538398,0.1383572000000004,0.1217672000000009,0.0354774,0,sub_19
0.0247521999999998,-0.0625723999999987,0.0534378,0.1570140000000004,0.1451428000000009,0.0415568,0,sub_19
0.0244523999999998,-0.0612547999999987,0.0510072,0.1737274000000004,0.1621388000000009,0.046349,0,sub_19
0.0244081999999998,-0.0599051999999987,0.0484864,0.1870048000000004,0.1731854000000008,0.0500568,0,sub_19
0.0245361999999998,-0.0592027999999987,0.045837,0.1959936000000004,0.1774376000000009,0.0516068,0,sub_19
0.0249139999999997,-0.0595259999999987,0.0441198,0.2007006000000004,0.1751138000000009,0.049717,0,sub_19
0.0252485999999997,-0.0592537999999987,0.042904,0.2015406000000004,0.1670352000000008,0.0446058,0,sub_19
0.0246109999999997,-0.0560353999999987,0.0433068,0.1957546000000004,0.1555742000000008,0.038598,0,sub_19
0.0223913999999997,-0.0500747999999987,0.0450996,0.1780344000000004,0.1448024000000009,0.0335742,0,sub_19
0.0231171999999997,-0.0450571999999987,0.045989,0.1543006000000004,0.1291362000000009,0.0323602,0,sub_19
0.0240421999999997,-0.0407877999999987,0.0413798,0.1303314000000004,0.1138754000000009,0.0364852,0,sub_19
0.0261299999999997,-0.0385899999999987,0.0337186,0.1125710000000004,0.1051900000000009,0.042568,0,sub_19
0.0291941999999997,-0.0418343999999987,0.0264732,0.1025178000000004,0.0992594000000009,0.04571,0,sub_19
0.0330441999999997,-0.0480611999999987,0.0227366,0.0971068000000004,0.0803240000000009,0.0437736,0,sub_19
0.0348481999999997,-0.0525725999999987,0.0236484,0.0793048000000004,0.0535668000000009,0.0372742,0,sub_19
0.0364641999999998,-0.0543451999999987,0.029844,0.0429230000000004,0.0198574000000009,0.0272356,0,sub_19
0.0366561999999998,-0.0530965999999987,0.0393114,-0.0109935999999995,-0.023586199999999,0.0158052,0,sub_19
0.0370403999999998,-0.0510209999999987,0.0471836,-0.0662181999999995,-0.069596599999999,0.0080008,0,sub_19
0.0379085999999997,-0.0492689999999987,0.050474,-0.1053783999999995,-0.0977833999999991,0.0045588,0,sub_19
0.0364565999999997,-0.0488515999999987,0.0527818,-0.1169043999999995,-0.101778399999999,0.0012788,0,sub_19
0.0334435999999997,-0.0505377999999987,0.0553666,-0.1003767999999995,-0.085621799999999,-0.0041811999999999,0,sub_19
0.0298035999999997,-0.0527025999999987,0.0560708,-0.0652225999999995,-0.054407399999999,-0.0084621999999999,0,sub_19
0.0263615999999997,-0.0537325999999987,0.0566698,-0.0270639999999995,-0.017670799999999,-0.0110199999999999,0,sub_19
0.0230805999999997,-0.0543373999999987,0.0554398,0.0057344000000004,0.0154540000000008,-0.0114743999999999,0,sub_19
0.0213013999999998,-0.0552093999999987,0.0521788,0.0331450000000004,0.0406982000000008,-0.0078969999999999,0,sub_19
0.0220087999999998,-0.0552131999999987,0.0480366,0.0519630000000003,0.0557356000000008,-0.0018027999999999,0,sub_19
0.0236049999999998,-0.0549165999999987,0.0462608,0.0594234000000004,0.0599466000000008,0.0042258,0,sub_19
0.0251629999999998,-0.0555689999999987,0.0462794,0.0557646000000004,0.0552628000000008,0.0065564,0,sub_19
0.0246547999999998,-0.0560221999999987,0.0457486,0.0444118000000004,0.0427432000000008,0.0037158,0,sub_19
0.0233535999999998,-0.0556637999999987,0.042626,0.0289972000000004,0.0236528000000008,-0.0040585999999999,0,sub_19
0.0210447999999998,-0.0551605999999987,0.0395434,0.0131530000000004,0.0024392000000009,-0.0133287999999999,0,sub_19
0.0191249999999998,-0.0544083999999987,0.0363842,-0.0009793999999995,-0.016653999999999,-0.0215213999999999,0,sub_19
0.0181207999999998,-0.0531973999999987,0.0352514,-0.0114759999999995,-0.030022799999999,-0.0258505999999998,0,sub_19
0.0189547999999998,-0.0520111999999987,0.0371372,-0.0185479999999995,-0.035754799999999,-0.0248243999999998,0,sub_19
0.0212459999999998,-0.0516951999999987,0.0418152,-0.0232661999999995,-0.034486599999999,-0.0182359999999999,0,sub_19
0.0231471999999998,-0.0513411999999987,0.046831,-0.0245675999999995,-0.029620199999999,-0.0086371999999999,0,sub_19
0.0248207999999998,-0.0510839999999987,0.050657,-0.0224501999999995,-0.023063799999999,0.001624,0,sub_19
0.0258273999999998,-0.0517487999999987,0.0522222,-0.0177577999999995,-0.014593999999999,0.010619,0,sub_19
0.0270717999999998,-0.0519693999999987,0.0517582,-0.0119881999999995,-0.006118399999999,0.0172714,0,sub_19
0.0277129999999998,-0.0519265999999987,0.0505776,-0.0070585999999995,0.0017356000000009,0.0202868,0,sub_19
0.0288195999999998,-0.0524455999999987,0.048953,-0.0046893999999995,0.0068398000000009,0.0205104,0,sub_19
0.0291905999999998,-0.0535921999999987,0.0472068,-0.0050987999999995,0.0077054000000009,0.0175154,0,sub_19
0.0288891999999998,-0.0543409999999987,0.0457532,-0.0089395999999995,0.0028382000000009,0.012581,0,sub_19
0.0288253999999998,-0.0546883999999987,0.0453048,-0.0162037999999995,-0.005632999999999,0.0061318,0,sub_19
0.0281987999999997,-0.0546951999999987,0.0457026,-0.0234689999999995,-0.015378199999999,-0.0013839999999999,0,sub_19
0.0274543999999997,-0.0544681999999987,0.0464978,-0.0256085999999995,-0.023439399999999,-0.0082251999999999,0,sub_19
0.0264665999999997,-0.0540663999999987,0.0468932,-0.0213441999999995,-0.028337599999999,-0.0124619999999999,0,sub_19
0.0258973999999997,-0.0528883999999987,0.0467158,-0.0140847999999995,-0.029843999999999,-0.0149729999999999,0,sub_19
0.0253293999999997,-0.0527737999999987,0.047367,-0.0061785999999995,-0.028163799999999,-0.0157745999999999,0,sub_19
0.0246987999999997,-0.0527649999999987,0.0483964,0.0004494000000004,-0.023506599999999,-0.0140251999999999,0,sub_19
0.0248483999999997,-0.0528097999999987,0.0487234,0.0036966000000004,-0.015840999999999,-0.0108051999999999,0,sub_19
0.0258397999999997,-0.0523163999999987,0.048928,0.0039690000000004,-0.004546399999999,-0.0067559999999999,0,sub_19
0.0269991999999997,-0.0522639999999987,0.0482538,0.0046758000000004,0.0088756000000009,-0.0022793999999999,0,sub_19
0.0281403999999997,-0.0520639999999987,0.0469756,0.0085794000000004,0.0212220000000009,0.0020074,0,sub_19
0.0288253999999997,-0.0517981999999987,0.0448756,0.0139650000000004,0.0290966000000009,0.0043874,0,sub_19
0.0283363999999997,-0.0514789999999987,0.043474,0.0180296000000004,0.0320626000000009,0.0050528,0,sub_19
0.0275125999999997,-0.0517101999999987,0.0425828,0.0182392000000004,0.0303610000000009,0.0042018,0,sub_19
0.0266961999999997,-0.0518455999999987,0.042863,0.0141660000000004,0.0242042000000009,0.0022584,0,sub_19
0.0252465999999997,-0.0521175999999987,0.0427522,0.0073074000000004,0.0146518000000009,-0.0005545999999999,0,sub_19
0.0238737999999997,-0.0529191999999987,0.0429832,-0.0008409999999995,0.0033978000000009,-0.0029471999999999,0,sub_19
0.0226057999999997,-0.0534649999999987,0.0426938,-0.0089893999999995,-0.007643999999999,-0.0051263999999999,0,sub_19
0.0224791999999997,-0.0538777999999987,0.0428814,-0.0147867999999995,-0.017417599999999,-0.0068635999999999,0,sub_19
0.0226123999999997,-0.0546619999999987,0.0438496,-0.0163005999999995,-0.023159599999999,-0.0081485999999999,0,sub_19
0.0229827999999997,-0.0552211999999987,0.0458226,-0.0152423999999995,-0.024868599999999,-0.0079253999999999,0,sub_19
0.0238261999999997,-0.0550099999999987,0.0471904,-0.0109673999999995,-0.022542599999999,-0.0072575999999999,0,sub_19
0.0258759999999997,-0.0548667999999987,0.0487728,-0.0056147999999995,-0.017452199999999,-0.0061583999999999,0,sub_19
0.0277513999999997,-0.0548007999999987,0.0498694,0.0003854000000004,-0.010659599999999,-0.0050567999999999,0,sub_19
0.0286973999999997,-0.0545173999999987,0.0500576,0.0038206000000004,-0.005347799999999,-0.0043987999999998,0,sub_19
0.0290151999999997,-0.0540095999999987,0.0485238,0.0055410000000004,-0.002158799999999,-0.0041771999999998,0,sub_19
0.0295423999999998,-0.0537651999999987,0.0468816,0.0046904000000004,-0.001516599999999,-0.0041837999999998,0,sub_19
0.0293557999999998,-0.0535147999999987,0.04494,0.0019070000000004,-0.003425399999999,-0.0039871999999998,0,sub_19
0.0279257999999998,-0.0527585999999987,0.0438598,-0.0036597999999995,-0.007030399999999,-0.0033805999999998,0,sub_19
0.0268565999999998,-0.0520621999999987,0.0429366,-0.0083741999999995,-0.009790599999999,-0.0017007999999999,0,sub_19
0.0264749999999998,-0.0516001999999987,0.0432678,-0.0132989999999995,-0.011274199999999,0.0006168,0,sub_19
0.0256615999999998,-0.0507973999999987,0.0439052,-0.0175807999999995,-0.011908599999999,0.0031514,0,sub_19
0.0246781999999998,-0.0499303999999987,0.044876,-0.0205757999999995,-0.012116999999999,0.0046262,0,sub_19
0.0243711999999998,-0.0500547999999987,0.0451806,-0.0201499999999995,-0.011482799999999,0.005483,0,sub_19
0.0238875999999998,-0.0511939999999987,0.0458472,-0.0195107999999995,-0.011061399999999,0.0061278,0,sub_19
0.0231221999999997,-0.0523383999999987,0.0461978,-0.0192963999999995,-0.010424799999999,0.0065558,0,sub_19
0.0230391999999997,-0.0541365999999987,0.0466928,-0.0201497999999995,-0.010421999999999,0.0065498,0,sub_19
0.0241267999999997,-0.0546773999999986,0.046341,-0.0222843999999995,-0.009778799999999,0.0056784,0,sub_19
0.0253589999999997,-0.0544029999999987,0.0458672,-0.0252611999999995,-0.008273599999999,0.0030908,0,sub_19
0.0277435999999997,-0.0532535999999987,0.046461,-0.0237513999999995,-0.007415399999999,-0.0013871999999999,0,sub_19
0.0311165999999997,-0.0524941999999986,0.0472736,-0.0183979999999995,-0.009326799999999,-0.0092531999999999,0,sub_19
0.0343295999999997,-0.0517993999999987,0.0471228,-0.0132531999999995,-0.012506199999999,-0.0194691999999999,0,sub_19
0.0359079999999997,-0.0524043999999987,0.0480008,-0.0098115999999995,-0.016525199999999,-0.0296947999999999,0,sub_19
0.0364669999999997,-0.0535041999999987,0.0488892,-0.0080949999999995,-0.022039799999999,-0.0373667999999999,0,sub_19
0.0350805999999997,-0.0549127999999986,0.0481096,-0.0104487999999995,-0.027342599999999,-0.0412219999999999,0,sub_19
0.0319131999999997,-0.0552643999999987,0.0466774,-0.0141779999999995,-0.0303881999999991,-0.0389077999999999,0,sub_19
0.0266831999999997,-0.0552165999999987,0.0454292,-0.0170719999999995,-0.031118799999999,-0.0301811999999999,0,sub_19
0.0219573999999997,-0.0548109999999987,0.044078,-0.0184827999999995,-0.029741999999999,-0.0169605999999999,0,sub_19
0.0187127999999997,-0.0540783999999986,0.0418158,-0.0203099999999995,-0.025171199999999,-0.0028923999999999,0,sub_19
0.0164167999999997,-0.0528521999999987,0.0398934,-0.0212663999999995,-0.0176173999999991,0.0103234,0,sub_19
0.0155885999999997,-0.0526829999999987,0.038859,-0.0223389999999995,-0.0091307999999991,0.0201326,0,sub_19
0.0171503999999997,-0.0530361999999987,0.0383338,-0.0229799999999995,-0.0046731999999991,0.0248226,0,sub_19
0.0197707999999998,-0.0536801999999987,0.0384798,-0.0234163999999995,-0.0078631999999991,0.0237554,0,sub_19
0.0221301999999998,-0.0542343999999987,0.0403388,-0.0238707999999995,-0.0201941999999991,0.0175724,0,sub_19
0.0255223999999998,-0.0547605999999987,0.0433046,-0.0277885999999995,-0.038697199999999,0.007316,0,sub_19
0.0295661999999998,-0.0548719999999987,0.0466586,-0.0338287999999995,-0.055909399999999,-0.0042387999999999,0,sub_19
0.0325117999999998,-0.0546625999999987,0.0504896,-0.0379141999999995,-0.062911999999999,-0.0132293999999999,0,sub_19
0.0342683999999998,-0.0541339999999987,0.0538636,-0.0362019999999995,-0.056745999999999,-0.0170687999999999,0,sub_19
0.0353185999999998,-0.0535591999999987,0.0560854,-0.0265701999999995,-0.038914199999999,-0.0146721999999999,0,sub_19
0.0348565999999998,-0.0531545999999987,0.0550146,-0.0096351999999995,-0.014712399999999,-0.0077481999999999,0,sub_19
0.0328331999999998,-0.0527591999999987,0.0523748,0.0113434000000004,0.0090416000000009,0.0011274,0,sub_19
0.0309039999999998,-0.0516903999999987,0.048415,0.0278164000000004,0.0259986000000009,0.0086984,0,sub_19
0.0292079999999998,-0.0507075999999987,0.0443618,0.0337920000000004,0.0340608000000009,0.0127952,0,sub_19
0.0281287999999998,-0.0504793999999987,0.039451,0.0273680000000004,0.0328080000000009,0.012758,0,sub_19
0.0274197999999998,-0.0509215999999987,0.0367788,0.0111076000000004,0.0230828000000009,0.0088172,0,sub_19
0.0267089999999998,-0.0514205999999987,0.0356064,-0.0088029999999995,0.0061350000000009,0.0027238,0,sub_19
0.0262155999999998,-0.0531779999999987,0.0364084,-0.0246673999999995,-0.011894799999999,-0.0026989999999999,0,sub_19
0.0256859999999997,-0.0547071999999987,0.0380436,-0.0321833999999995,-0.025704399999999,-0.0059385999999999,0,sub_19
0.0245587999999997,-0.0552137999999987,0.0419458,-0.0313529999999995,-0.031244999999999,-0.0063529999999999,0,sub_19
