userAcceleration.x,userAcceleration.y,userAcceleration.z,rotationRate.x,rotationRate.y,rotationRate.z,label,subject
0.0149203999999997,-0.0100031999999988,0.0137264,0.0005082000000004,0.0013218000000009,0.0034982,0,sub_13
0.0161955999999997,-0.0109295999999987,0.0131966,0.0013578000000004,4.2200000000952935e-05,0.0030784,0,sub_13
0.0174633999999997,-0.0109911999999988,0.0139124,0.0007234000000004,-0.000374799999999,0.0013654,0,sub_13
0.0181789999999997,-0.0116947999999988,0.0141666,0.0007244000000004,-0.001646999999999,-0.0001285999999999,0,sub_13
0.0174455999999997,-0.0108451999999988,0.014314,0.0005094000000004,-0.002084999999999,-0.0014345999999999,0,sub_13
0.0172761999999997,-0.0094143999999988,0.0141278,-0.0007675999999995,-0.001453999999999,-0.0027493999999999,0,sub_13
0.0170011999999997,-0.0082133999999987,0.0141078,-0.0016111999999995,-0.000181999999999,-0.0049163999999999,0,sub_13
0.0166209999999997,-0.0090243999999988,0.013526,-0.0026737999999995,0.0002368000000009,-0.0066565999999999,0,sub_13
0.0156505999999997,-0.0090917999999988,0.013136,-0.0039593999999995,-0.000413199999999,-0.0073285999999999,0,sub_13
0.0150997999999997,-0.0097007999999987,0.0123664,-0.0041783999999995,-0.001690599999999,-0.0073283999999999,0,sub_13
0.0134883999999997,-0.0100451999999988,0.0125762,-0.0037593999999995,-0.002335599999999,-0.0062563999999999,0,sub_13
0.0129195999999997,-0.0106739999999987,0.0126928,-0.0027011999999995,-0.002559199999999,-0.0045395999999999,0,sub_13
0.0127239999999997,-0.0102845999999988,0.0133096,-0.0012141999999995,-0.002782599999999,-0.0032469999999999,0,sub_13
0.0139627999999997,-0.0102817999999988,0.0131334,5.560000000038182e-05,-0.003448199999999,-0.0026231999999999,0,sub_13
0.0142459999999997,-0.0096831999999987,0.0135444,0.0006862000000003,-0.003898599999999,-0.0020041999999999,0,sub_13
0.0156977999999997,-0.0095089999999987,0.0135388,0.0013188000000003,-0.004771599999999,-0.0022389999999999,0,sub_13
0.0159147999999997,-0.0096181999999987,0.0138558,0.0015246000000003,-0.005642999999999,-0.0024767999999999,0,sub_13
0.0163305999999997,-0.0092087999999987,0.0142066,0.0013074000000004,-0.005660799999999,-0.0027187999999999,0,sub_13
0.0165517999999997,-0.0085391999999987,0.0149738,0.0011036000000004,-0.004166199999999,-0.0033629999999999,0,sub_13
0.0171077999999997,-0.0083995999999987,0.0147602,0.0011122000000004,-0.002885399999999,-0.0040053999999999,0,sub_13
0.0170279999999997,-0.0084305999999987,0.0146974,0.0006872000000004,-0.001623599999999,-0.0040411999999999,0,sub_13
0.0171671999999997,-0.0075737999999987,0.0143068,-0.0003777999999995,-0.000571799999999,-0.0042947999999999,0,sub_13
0.0165073999999997,-0.0074257999999987,0.0131658,-0.0010189999999995,-0.000160599999999,-0.0045445999999999,0,sub_13
0.0155601999999997,-0.0078301999999987,0.0126474,-0.0016649999999995,-0.000602399999999,-0.0045797999999999,0,sub_13
0.0149449999999997,-0.0083941999999988,0.0129952,-0.0025261999999995,-0.001045199999999,-0.0041891999999999,0,sub_13
0.0149441999999997,-0.0089047999999988,0.0123328,-0.0031701999999995,-0.002319399999999,-0.0046193999999999,0,sub_13
0.0138405999999997,-0.0098397999999987,0.0119974,-0.0023233999999995,-0.003813799999999,-0.0046115999999999,0,sub_13
0.0131477999999997,-0.0101391999999987,0.0126138,-0.0021167999999995,-0.004456999999999,-0.0037545999999999,0,sub_13
0.0129183999999997,-0.0096829999999988,0.0129928,-0.0025521999999995,-0.004478599999999,-0.0027221999999999,0,sub_13
0.0126635999999997,-0.0093453999999988,0.0125426,-0.0021331999999995,-0.005138999999999,-0.0025375999999999,0,sub_13
0.0120475999999997,-0.0092105999999988,0.012997,-0.0002175999999995,-0.004741199999999,-0.0019165999999999,0,sub_13
0.0133491999999997,-0.0096027999999988,0.0129974,0.0006360000000004,-0.003274199999999,-0.0013043999999999,0,sub_13
0.0148849999999997,-0.0101479999999987,0.0133802,0.0010618000000004,-0.003079999999999,-0.0017619999999999,0,sub_13
0.0164001999999997,-0.0110051999999987,0.0134014,0.0021326000000004,-0.003080399999999,-0.0026091999999999,0,sub_13
0.0169959999999997,-0.0107467999999987,0.0138656,0.0021412000000004,-0.001587399999999,-0.0030383999999999,0,sub_13
0.0174665999999997,-0.0102095999999987,0.013945,0.0004410000000004,-0.000726599999999,-0.0036923999999999,0,sub_13
0.0164501999999997,-0.0091369999999987,0.0140288,-0.0001953999999995,-0.000720999999999,-0.0045513999999999,0,sub_13
0.0158651999999997,-0.0089559999999987,0.0138664,-0.0001863999999995,0.0013992000000009,-0.0050037999999999,0,sub_13
0.0151729999999997,-0.0092421999999988,0.0132766,-0.0006099999999995,0.0033036000000009,-0.0043905999999999,0,sub_13
0.0154027999999997,-0.0095581999999987,0.0122944,-0.0006161999999995,0.0028638000000009,-0.0039851999999999,0,sub_13
0.0151927999999997,-0.0100735999999987,0.0117152,-0.0006253999999995,0.0019970000000009,-0.0033655999999999,0,sub_13
0.0152297999999997,-0.0104697999999988,0.011911,-0.0019167999999995,0.0009208000000009,-0.0025411999999999,0,sub_13
0.0148119999999997,-0.0105269999999988,0.0119406,-0.0025701999999995,-0.001210799999999,-0.0016883999999999,0,sub_13
0.0141637999999997,-0.0102489999999987,0.0123966,-0.0017223999999995,-0.002067799999999,-0.0012541999999999,0,sub_13
0.0145033999999997,-0.0111513999999988,0.0125868,-0.0012985999999995,-0.002283999999999,-0.0008235999999999,0,sub_13
0.0142209999999997,-0.0111625999999988,0.0132622,-0.0004443999999995,-0.002503399999999,-0.0006079999999999,0,sub_13
0.0155611999999997,-0.0110151999999987,0.0132288,0.0002004000000004,-0.002294199999999,-0.0008217999999999,0,sub_13
0.0156569999999997,-0.0107081999999987,0.0131674,-1.1399999999558204e-05,-0.002721199999999,-0.0010407999999999,0,sub_13
0.0154795999999997,-0.0104313999999987,0.013501,-0.0006497999999995,-0.003146599999999,-0.0012625999999999,0,sub_13
0.0150531999999997,-0.0098557999999987,0.0144036,-0.0002137999999995,-0.002083599999999,-0.0016925999999999,0,sub_13
0.0158543999999997,-0.0098739999999987,0.0147052,-0.0002021999999995,4.860000000095257e-05,-0.0021225999999999,0,sub_13
0.0154575999999997,-0.0098843999999987,0.0146016,0.0002342000000004,0.0017532000000009,-0.0025489999999999,0,sub_13
0.0171763999999997,-0.0102237999999987,0.0135686,-0.0001823999999995,0.0028302000000009,-0.0036165999999999,0,sub_13
0.0175843999999997,-0.0101971999999988,0.0129366,-0.0012505999999995,0.0009284000000009,-0.0051123999999999,0,sub_13
0.0173229999999997,-0.0102027999999988,0.0131298,-0.0038181999999995,-0.001609999999999,-0.0059767999999999,0,sub_13
0.0170625999999997,-0.0110269999999987,0.0124882,-0.0055361999999995,-0.004791399999999,-0.0066207999999999,0,sub_13
0.0163121999999997,-0.0124389999999988,0.0122694,-0.0061883999999995,-0.007552799999999,-0.0066169999999999,0,sub_13
0.0140641999999997,-0.0130693999999987,0.0126818,-0.0057797999999995,-0.009480399999999,-0.0044751999999999,0,sub_13
0.0129787999999997,-0.0131689999999987,0.0129872,-0.0040805999999995,-0.008219999999999,-0.0014739999999999,0,sub_13
0.0119015999999997,-0.0133203999999988,0.01239,-0.0008847999999995,-0.005476799999999,0.0023904,0,sub_13
0.0105563999999997,-0.0127993999999988,0.0124794,0.0038056000000004,-0.001889199999999,0.006905,0,sub_13
0.0104725999999997,-0.0109905999999988,0.0130548,0.0074374000000004,0.0023526000000009,0.0112098,0,sub_13
0.0118003999999997,-0.0089599999999987,0.013753,0.0110836000000004,0.0074562000000009,0.0131634,0,sub_13
0.0138763999999997,-0.0072769999999987,0.0136196,0.0136668000000004,0.0110814000000009,0.0127616,0,sub_13
0.0167825999999997,-0.0054207999999987,0.0129266,0.0147582000000004,0.0119550000000009,0.009148,0,sub_13
0.0192355999999997,-0.0024739999999987,0.014301,0.0118060000000004,0.0120034000000009,0.0023026,0,sub_13
0.0209211999999997,-0.0008431999999987,0.0142098,0.0062822000000004,0.0086488000000009,-0.0064911999999999,0,sub_13
0.0206113999999997,-0.0009329999999987,0.013742,0.0007526000000004,0.0038038000000009,-0.0154967999999999,0,sub_13
0.0192717999999997,-0.0030487999999987,0.0134626,-0.0054169999999995,3.020000000097268e-05,-0.0229973999999999,0,sub_13
0.0172743999999997,-0.0054387999999987,0.014276,-0.0094603999999995,-0.002696599999999,-0.0277069999999999,0,sub_13
0.0157917999999997,-0.0089209999999987,0.01282,-0.0107501999999995,-0.006299799999999,-0.0287641999999999,0,sub_13
0.0142221999999997,-0.0129299999999987,0.011884,-0.0090535999999995,-0.006943399999999,-0.0265997999999999,0,sub_13
0.0142553999999997,-0.0156179999999987,0.0116318,-0.0067235999999995,-0.006322199999999,-0.0216549999999999,0,sub_13
0.0147647999999997,-0.0170763999999987,0.0119448,-0.0033413999999995,-0.006574399999999,-0.0147943999999999,0,sub_13
0.0151903999999997,-0.0181843999999988,0.0119358,-0.0003887999999995,-0.006615599999999,-0.0070825999999999,0,sub_13
0.0161913999999997,-0.0181251999999988,0.0124016,0.0017190000000004,-0.004948599999999,0.0004076,0,sub_13
0.0175801999999997,-0.0164349999999987,0.0134594,0.0025484000000004,-0.004968199999999,0.0066242,0,sub_13
0.0180183999999997,-0.0149519999999988,0.0141862,0.0016726000000004,-0.005616799999999,0.0117614,0,sub_13
0.0171727999999997,-0.0129441999999987,0.0147396,0.0010228000000004,-0.004769599999999,0.0156164,0,sub_13
0.0170173999999997,-0.0110425999999988,0.0143366,0.0001722000000004,-0.002849599999999,0.0177596,0,sub_13
0.0160853999999997,-0.0096289999999988,0.0143436,0.0003942000000004,-0.000928199999999,0.0186282,0,sub_13
0.0150111999999997,-0.0084741999999987,0.0139668,0.0004086000000004,0.0024798000000009,0.0188376,0,sub_13
0.0142649999999997,-0.0069059999999987,0.0134292,0.0012814000000004,0.0056770000000009,0.0177714,0,sub_13
0.0142455999999997,-0.0051267999999987,0.0124954,0.0021550000000004,0.0071774000000009,0.0147846,0,sub_13
0.0140633999999997,-0.0032813999999987,0.0123728,0.0025990000000004,0.0069790000000009,0.0107286,0,sub_13
0.0151009999999997,-0.0028347999999987,0.0123706,0.0004892000000004,0.0057380000000009,0.0051768,0,sub_13
0.0156551999999997,-0.0033471999999987,0.012089,-0.0014119999999995,0.0023698000000009,-0.0014389999999999,0,sub_13
0.0162371999999997,-0.0041829999999987,0.011714,-0.0028855999999995,-0.000998999999999,-0.0082655999999999,0,sub_13
0.0158345999999997,-0.0060305999999987,0.0122342,-0.0041523999999995,-0.004162399999999,-0.0133817999999999,0,sub_13
0.0160693999999997,-0.0076429999999987,0.0124456,-0.0066983999999995,-0.006046999999999,-0.0174401999999999,0,sub_13
0.0151089999999997,-0.0084275999999988,0.0122482,-0.0069145999999995,-0.008170799999999,-0.0189343999999999,0,sub_13
0.0137453999999997,-0.0102203999999988,0.0118576,-0.0054229999999995,-0.007540999999999,-0.0178565999999999,0,sub_13
0.0128569999999997,-0.0122227999999987,0.0120176,-0.0030775999999995,-0.005420799999999,-0.0148443999999999,0,sub_13
0.0138251999999997,-0.0137971999999987,0.0115436,-0.0007389999999995,-0.003518599999999,-0.0105501999999999,0,sub_13
0.0143989999999997,-0.0150009999999987,0.0120514,0.0024462000000004,-0.001837799999999,-0.0049679999999999,0,sub_13
0.0140061999999997,-0.0150087999999988,0.0129098,0.0047848000000004,0.0017618000000009,0.0010332,0,sub_13
0.0143109999999997,-0.0135701999999987,0.0146844,0.0064890000000004,0.0064298000000009,0.006815,0,sub_13
0.0165237999999997,-0.0117231999999987,0.0150538,0.0071262000000003,0.0093958000000009,0.0104476,0,sub_13
0.0173935999999997,-0.0101703999999987,0.014662,0.0058412000000003,0.0096082000000009,0.0117202,0,sub_13
0.0176211999999997,-0.0093747999999987,0.0136104,0.0030568000000003,0.0072744000000009,0.0117038,0,sub_13
0.0182001999999997,-0.0093073999999987,0.0124662,-0.0005905999999995,0.0026020000000009,0.0104252,0,sub_13
0.0178873999999997,-0.0092967999999987,0.0109572,-0.0044569999999995,-0.004621199999999,0.0078666,0,sub_13
0.0153277999999997,-0.0095287999999988,0.0105198,-0.0074689999999995,-0.010573399999999,0.0063804,0,sub_13
0.0124405999999997,-0.0085097999999988,0.0119358,-0.0070449999999995,-0.010788599999999,0.0057656,0,sub_13
0.0101157999999997,-0.0079241999999988,0.013264,-0.0029687999999995,-0.005264799999999,0.0053826,0,sub_13
0.0106527999999997,-0.0078041999999987,0.013694,0.0024008000000004,0.0017506000000009,0.0045566,0,sub_13
0.0126333999999997,-0.0073447999999987,0.0138492,0.0073438000000004,0.0083432000000009,0.0033008,0,sub_13
0.0144721999999997,-0.0070079999999987,0.0143248,0.0097176000000004,0.0117542000000009,0.0007494,0,sub_13
0.0167785999999997,-0.0070685999999987,0.013558,0.0090918000000003,0.0115570000000009,-0.0026729999999999,0,sub_13
0.0176787999999997,-0.0061143999999987,0.0126546,0.0058936000000003,0.0077592000000009,-0.0067227999999999,0,sub_13
0.0166407999999997,-0.0059597999999987,0.0118552,0.0016248000000004,0.0035374000000009,-0.0103523999999999,0,sub_13
0.0149683999999997,-0.0062039999999987,0.0117818,-0.0019981999999995,0.0008036000000009,-0.0137655999999999,0,sub_13
0.0137295999999997,-0.0068351999999988,0.0112644,-0.0041255999999995,0.0001884000000009,-0.0154619999999999,0,sub_13
0.0134341999999997,-0.0088641999999987,0.0101498,-0.0054043999999995,-0.000433999999999,-0.0160841999999999,0,sub_13
0.0140879999999997,-0.0111847999999987,0.0091684,-0.0064817999999995,-0.002561599999999,-0.0158753999999999,0,sub_13
0.0146661999999997,-0.0128233999999987,0.009228,-0.0062905999999995,-0.006189399999999,-0.0145873999999999,0,sub_13
0.0145391999999997,-0.0139977999999987,0.0102732,-0.0052493999999995,-0.008759999999999,-0.0115925999999999,0,sub_13
0.0143439999999997,-0.0144361999999987,0.0116102,-0.0033469999999995,-0.009204799999999,-0.0081671999999999,0,sub_13
0.0151687999999997,-0.0148963999999987,0.0125372,-0.0016587999999995,-0.0094373999999989,-0.0043161999999999,0,sub_13
0.0158341999999997,-0.0153265999999987,0.013507,0.0004562000000004,-0.0086107999999989,0.0006046,0,sub_13
0.0154933999999997,-0.0136693999999987,0.0147704,0.0013024000000004,-0.0052229999999989,0.0055132,0,sub_13
0.0163619999999997,-0.0123171999999987,0.0149166,0.0012976000000004,-0.002044199999999,0.0097819999999999,0,sub_13
0.0172027999999997,-0.0112675999999987,0.0137416,-0.0006283999999995,-0.000344999999999,0.0127573999999999,0,sub_13
0.0168073999999997,-0.0093053999999987,0.0140324,-0.0023363999999995,0.0007210000000009,0.0140259999999999,0,sub_13
0.0157965999999997,-0.0073649999999987,0.014206,-0.0044629999999995,0.0007386000000009,0.0136016,0,sub_13
0.0154597999999997,-0.0074471999999987,0.0132712,-0.0057339999999995,-0.000518399999999,0.0114756,0,sub_13
0.0148875999999997,-0.0073251999999987,0.0125032,-0.0065819999999995,-0.003265799999999,0.0087136,0,sub_13
0.0135107999999997,-0.0075769999999987,0.0122394,-0.0057203999999995,-0.005592199999999,0.0057494,0,sub_13
0.0113671999999997,-0.0067833999999987,0.012685,-0.0029383999999995,-0.006864199999999,0.0038654,0,sub_13
0.0110977999999997,-0.0062507999999987,0.013157,-0.0007845999999995,-0.004519599999999,0.001741,0,sub_13
0.0113955999999997,-0.0055189999999987,0.0129896,0.0011492000000004,-0.003241199999999,4.380000000005889e-05,0,sub_13
0.0117367999999997,-0.0055543999999987,0.012245,0.0015854000000004,-0.003021999999999,-0.0018761999999999,0,sub_13
0.0126549999999997,-0.0055379999999987,0.0122986,0.0011558000000004,-0.005144999999999,-0.0033719999999999,0,sub_13
0.0130869999999997,-0.0068887999999987,0.0119092,-0.0009753999999995,-0.005558799999999,-0.0042433999999999,0,sub_13
0.0127749999999997,-0.0080147999999987,0.0127302,-0.0016185999999995,-0.005770799999999,-0.0036089999999999,0,sub_13
0.0129337999999997,-0.0091909999999987,0.0136306,-0.0026847999999995,-0.004280199999999,-0.0021251999999999,0,sub_13
0.0136757999999997,-0.0102897999999988,0.0140854,-0.0018325999999995,-0.003010399999999,-0.0004141999999999,0,sub_13
0.0134911999999997,-0.0104453999999987,0.0147718,0.0005208000000004,-4.1399999999027217e-05,0.0013052,0,sub_13
0.0144801999999997,-0.0103341999999987,0.01492,0.0026642000000004,0.0029304000000009,0.002171,0,sub_13
0.0160611999999997,-0.0104631999999987,0.0135346,0.0035196000000004,0.0033534000000009,0.0021764,0,sub_13
0.0172575999999997,-0.0108809999999987,0.012336,0.0039376000000004,0.0016450000000009,0.0013246,0,sub_13
0.0176111999999997,-0.0107793999999987,0.011962,0.0028630000000004,-5.699999999904705e-05,0.0002488,0,sub_13
0.0177407999999997,-0.0109333999999987,0.0122738,0.0013646000000004,-0.000906399999999,-0.0006173999999999,0,sub_13
0.0180085999999997,-0.0105007999999987,0.0121744,-0.0007749999999995,-0.002178799999999,-0.0017011999999999,0,sub_13
0.0176579999999997,-0.0105903999999988,0.0124626,-0.0027039999999995,-0.004090999999999,-0.0027825999999999,0,sub_13
0.0161257999999997,-0.0103829999999988,0.012729,-0.0029183999999995,-0.004303199999999,-0.0027837999999999,0,sub_13
0.0145029999999997,-0.0102497999999988,0.0140664,-0.0018409999999995,-0.000902399999999,-0.0017123999999999,0,sub_13
0.0143697999999997,-0.0099847999999988,0.0135242,-0.0020513999999995,0.0007986000000009,-0.0006477999999999,0,sub_13
0.0141991999999997,-0.0101857999999988,0.01247,-0.0018475999999995,-5.93999999990472e-05,0.0006366,0,sub_13
0.0134933999999997,-0.0106301999999987,0.0114752,-0.0003603999999995,-0.000706999999999,0.0021656,0,sub_13
0.0117463999999997,-0.0101741999999987,0.0127788,0.0013488000000004,0.0011986000000009,0.004334,0,sub_13
0.0108637999999997,-0.0087957999999988,0.0126356,0.0024198000000004,0.0031082000000009,0.0060706,0,sub_13
0.0114543999999997,-0.0080295999999988,0.012143,0.0045634000000004,0.0054436000000009,0.0069596,0,sub_13
0.0121955999999997,-0.0080899999999987,0.0123334,0.0075634000000003,0.0075664000000009,0.0070002,0,sub_13
0.0141265999999997,-0.0076735999999988,0.011919,0.0069252000000003,0.0065094000000009,0.0055016,0,sub_13
0.0162623999999997,-0.0087523999999987,0.011182,0.0020004000000003,0.0005696000000009,0.0033382,0,sub_13
0.0164209999999997,-0.0104211999999987,0.0112626,-0.0010059999999995,-0.004317599999999,0.0026826,0,sub_13
0.0141031999999997,-0.0111815999999987,0.0128942,-0.0005671999999995,-0.001759799999999,0.0041766,0,sub_13
0.0171575999999997,-0.0129241999999987,0.0102874,-0.0031145999999995,0.0022946000000009,0.0069298,0,sub_13
0.0171369999999997,-0.0138323999999987,0.0077944,0.0011178000000004,-0.003903199999999,0.0101706,0,sub_13
0.0142969999999997,-0.0115769999999988,0.008754,0.0105192000000004,-0.001587999999999,0.0113003999999999,0,sub_13
0.0173833999999997,-0.0119545999999987,0.0109904,0.0122776000000004,0.0099126000000009,0.0130057999999999,0,sub_13
0.0224647999999997,-0.0143173999999987,0.0089896,0.0099304000000004,0.0135282000000009,0.0166168,0,sub_13
0.0215507999999997,-0.0130315999999987,0.0150652,0.0112116000000003,0.0184052000000009,0.0213196,0,sub_13
0.0221017999999997,-0.0109333999999987,0.0214092,0.0053102000000003,0.0390744000000009,0.0257385999999999,0,sub_13
0.0266947999999997,-0.0120977999999987,0.0198104,-0.0021259999999996,0.0497470000000009,0.0310108,0,sub_13
0.0247445999999997,-0.0100071999999987,0.0167842,-0.0010741999999996,0.0457062000000009,0.0320882,0,sub_13
0.0212367999999997,-0.0060745999999987,0.0179128,-0.0023417999999996,0.0429716000000009,0.0282339999999999,0,sub_13
0.0167107999999997,-0.0050773999999987,0.0129304,-0.0070291999999995,0.0372730000000009,0.0226505999999999,0,sub_13
0.0113359999999997,-0.0056167999999987,0.0069996,-0.0098201999999995,0.0270900000000009,0.0179405999999999,0,sub_13
0.0063767999999997,-0.0072483999999987,0.004322,-0.0117595999999995,0.0173184000000009,0.0123847999999999,0,sub_13
0.0038615999999997,-0.0088193999999988,0.0030092,-0.0137059999999995,0.0092386000000009,0.0100315999999999,0,sub_13
0.0026915999999997,-0.0103267999999988,0.0022602,-0.0103271999999995,7.980000000095307e-05,0.0094236,0,sub_13
0.0040985999999997,-0.0117025999999987,0.0031964,-0.0043781999999995,-0.007806199999999,0.0079774,0,sub_13
0.0068839999999997,-0.0121467999999987,0.0053512,0.0045588000000004,-0.015489599999999,0.0065517999999999,0,sub_13
0.0087565999999997,-0.0086459999999987,0.0080438,0.0145798000000004,-0.019341799999999,0.0051287999999999,0,sub_13
0.0128531999999997,-0.0059953999999987,0.0108946,0.0216408000000004,-0.019976799999999,0.0009036,0,sub_13
0.0171371999999997,-0.0048263999999987,0.0135764,0.0216648000000004,-0.019106799999999,-0.0035839999999999,0,sub_13
0.0196261999999997,-0.0041819999999987,0.0163212,0.0178366000000004,-0.019506799999999,-0.0068149999999999,0,sub_13
0.0204635999999997,-0.0042871999999988,0.0189642,0.0112460000000004,-0.017340399999999,-0.0100683999999999,0,sub_13
0.0215077999999997,-0.0068167999999988,0.0207114,0.0025142000000004,-0.013687799999999,-0.0101339999999999,0,sub_13
0.0205895999999997,-0.0083355999999987,0.0204078,-0.0066505999999995,-0.011093799999999,-0.0091349999999999,0,sub_13
0.0168615999999997,-0.0100139999999987,0.018708,-0.0100579999999995,-0.009796399999999,-0.0085213999999999,0,sub_13
0.0141131999999997,-0.0100163999999987,0.018196,-0.0078937999999995,-0.002343399999999,-0.0070221999999999,0,sub_13
0.0158651999999997,-0.0115855999999987,0.0168418,-0.0063657999999995,0.0066008000000009,-0.0048885999999999,0,sub_13
0.0156485999999997,-0.0132827999999987,0.0145662,-0.0054913999999995,0.0134130000000009,-0.0019021999999999,0,sub_13
0.0145071999999997,-0.0147225999999987,0.0124048,-0.0020725999999995,0.0178616000000009,0.0015342,0,sub_13
0.0136851999999997,-0.0133627999999987,0.0097856,0.0019806000000004,0.0180586000000009,0.0019896,0,sub_13
0.0116949999999997,-0.0122127999999987,0.0083244,0.0040886000000004,0.0125152000000009,0.0013572,0,sub_13
0.0083227999999997,-0.0094719999999988,0.0075386,0.0055624000000004,0.0080400000000009,0.0005054,0,sub_13
0.0096555999999997,-0.0073441999999988,0.0083654,0.0061892000000004,0.0018764000000009,-0.0035547999999999,0,sub_13
0.0101869999999997,-0.0074311999999988,0.0093668,0.0040356000000004,-0.005344599999999,-0.0072057999999999,0,sub_13
0.0119455999999997,-0.0092957999999987,0.0115234,-3.739999999957753e-05,-0.008313999999999,-0.0068163999999999,0,sub_13
0.0137265999999997,-0.0101509999999987,0.0117872,-0.0017481999999995,-0.008947999999999,-0.0066137999999999,0,sub_13
0.0159303999999997,-0.0120245999999987,0.0134322,-0.0008975999999995,-0.008953399999999,-0.0059669999999999,0,sub_13
0.0160647999999997,-0.0128719999999987,0.014417,-4.11999999995772e-05,-0.006195199999999,-0.0038281999999999,0,sub_13
0.0162473999999997,-0.0123979999999987,0.0143154,0.0003776000000004,-0.002200199999999,-0.0011011999999999,0,sub_13
0.0161263999999997,-0.0117209999999987,0.0140516,0.0007944000000004,0.0003076000000009,0.0005594,0,sub_13
0.0168593999999997,-0.0120069999999987,0.0139108,-7.07999999995771e-05,0.0026060000000009,0.002425,0,sub_13
0.0161027999999997,-0.0106901999999987,0.01416,-0.0015789999999995,0.0034186000000009,0.0034336,0,sub_13
