userAcceleration.x,userAcceleration.y,userAcceleration.z,rotationRate.x,rotationRate.y,rotationRate.z,label,subject
-0.0033194000000001,0.0026942000000012,-0.0177081999999999,0.0018014000000005,-9.839999999904543e-05,0.0018632000000001,0,sub_1
-0.0021788000000001,0.0040478000000012,-0.0172033999999999,0.0064820000000005,-0.003524999999999,0.0016832000000001,0,sub_1
-0.0011790000000001,0.0052042000000012,-0.0154155999999999,0.0128742000000005,-0.005679799999999,0.0017272000000001,0,sub_1
-0.0012134000000001,0.0055432000000012,-0.0106047999999999,0.0173570000000005,-0.007603999999999,-0.0005891999999998,0,sub_1
0.0003689999999998,0.0054742000000012,-0.0040633999999999,0.0160880000000005,-0.008438199999999,-0.0040153999999998,0,sub_1
0.0035655999999998,0.0059986000000012,-0.0001017999999999,0.0129012000000005,-0.009050399999999,-0.0078825999999998,0,sub_1
0.0057059999999998,0.0059900000000012,-0.0004441999999999,0.0097038000000005,-0.009885799999999,-0.0094017999999998,0,sub_1
0.0080265999999998,0.0056626000000012,-0.0015349999999999,0.0060778000000004,-0.009235799999999,-0.0090027999999998,0,sub_1
0.0098187999999998,0.0054318000000012,-0.0032103999999999,0.0033042000000004,-0.006891799999999,-0.0066773999999998,0,sub_1
0.0102593999999998,0.0043506000000012,-0.0055685999999998,0.0026512000000005,-0.005415799999999,-0.0021993999999998,0,sub_1
0.0081411999999998,0.0027454000000012,-0.0066375999999998,0.0034882000000005,-0.003312199999999,0.0037836000000001,0,sub_1
0.0051735999999998,0.0009036000000012,-0.0067361999999998,0.0030548000000005,-0.001405999999999,0.0071968000000001,0,sub_1
0.0032881999999998,-0.0006217999999987,-0.0067251999999998,0.0013394000000005,-0.002255999999999,0.0082542000000001,0,sub_1
0.0013471999999998,-0.0011237999999987,-0.0081633999999998,0.0002634000000005,-0.005018999999999,0.0076094000000001,0,sub_1
-0.0004504000000001,-4.5199999998734446e-05,-0.0092021999999998,0.0002644000000005,-0.007779799999999,0.0050462000000001,0,sub_1
-0.0002574000000001,0.0008578000000012,-0.0099337999999999,-0.0001547999999994,-0.009684599999999,0.0018380000000001,0,sub_1
-0.0001358000000001,0.0025114000000012,-0.0103131999999999,-0.0001435999999994,-0.009889999999999,-0.0005147999999998,0,sub_1
-0.0006734000000001,0.0040804000000012,-0.0105995999999999,7.700000000053497e-05,-0.008826399999999,-0.0007313999999998,0,sub_1
-0.0005078000000001,0.0046378000000012,-0.0094277999999999,-0.0001291999999994,-0.006063799999999,0.0007560000000001,0,sub_1
-0.0002330000000001,0.0045248000000012,-0.0078777999999999,-0.0001313999999994,-0.004155999999999,0.0031034000000001,0,sub_1
-0.0006932000000001,0.0049718000000012,-0.0072241999999999,-0.0001305999999994,-0.002669999999999,0.0043832000000001,0,sub_1
9.619999999986196e-05,0.0046840000000012,-0.0065413999999999,0.0002988000000005,-0.002032399999999,0.0043852000000001,0,sub_1
0.0011501999999998,0.0044824000000012,-0.0058221999999999,0.0018032000000005,-0.002029999999999,0.0020424000000001,0,sub_1
0.0018001999999998,0.0050064000000012,-0.0055865999999998,0.0037372000000005,-0.002662999999999,-0.0015783999999998,0,sub_1
0.0024097999999998,0.0047486000000012,-0.0061949999999998,0.0046140000000005,-0.001161799999999,-0.0052091999999998,0,sub_1
0.0029437999999998,0.0037548000000012,-0.0059427999999998,0.0042058000000005,0.0011884000000009,-0.0069271999999998,0,sub_1
0.0031973999999998,0.0034666000000012,-0.0061791999999998,0.0027202000000005,0.0026842000000009,-0.0071561999999998,0,sub_1
0.0030171999999998,0.0034442000000012,-0.0065937999999998,0.0007968000000005,0.0033252000000009,-0.0058883999999998,0,sub_1
0.0040813999999998,0.0027654000000012,-0.0070861999999998,-0.0013523999999994,0.0037438000000009,-0.0020581999999998,0,sub_1
0.0049433999999998,0.0025074000000012,-0.0071615999999998,-0.0037139999999994,0.0043762000000009,0.0017702000000001,0,sub_1
0.0049893999999998,0.0025356000000012,-0.0077205999999998,-0.0052195999999994,0.0041564000000009,0.0043206000000001,0,sub_1
0.0042193999999998,0.0024260000000012,-0.0079009999999998,-0.0052313999999994,0.0030826000000009,0.0060280000000001,0,sub_1
0.0031469999999998,0.0032192000000012,-0.0081029999999999,-0.0052355999999994,0.0028642000000009,0.0068796000000001,0,sub_1
0.0020365999999998,0.0032660000000012,-0.0091187999999999,-0.0062883999999994,0.0043630000000009,0.0053716000000001,0,sub_1
0.0002333999999998,0.0033734000000012,-0.0090925999999999,-0.0071267999999994,0.0054374000000009,0.0032246000000001,0,sub_1
-0.0006234,0.0041244000000012,-0.0083011999999999,-0.0054121999999994,0.0050136000000009,0.0011004000000001,0,sub_1
-0.0002762,0.0053528000000012,-0.0077919999999999,-0.0022021999999994,0.0050106000000009,-0.0010139999999998,0,sub_1
0.0009693999999998,0.0057216000000012,-0.0077119999999999,0.0010048000000005,0.0045808000000009,-0.0029139999999998,0,sub_1
0.0019805999999998,0.0055200000000012,-0.0069127999999999,0.0031278000000005,0.0013788000000009,-0.0037531999999998,0,sub_1
0.0039427999999998,0.0049610000000012,-0.0067965999999999,0.0050280000000005,-0.002255199999999,-0.0028841999999998,0,sub_1
0.0058407999999998,0.0041710000000012,-0.0070033999999999,0.0050184000000005,-0.003114199999999,-0.0016045999999998,0,sub_1
0.0065205999999998,0.0037134000000012,-0.0059135999999999,0.0024454000000005,-0.003330199999999,0.0009382000000001,0,sub_1
0.0080279999999998,0.0019838000000012,-0.0061259999999999,0.0005136000000005,-0.003335199999999,0.0034852000000001,0,sub_1
0.0084177999999998,0.0017668000000012,-0.0077521999999999,-0.0003417999999994,-0.001847799999999,0.0054004000000001,0,sub_1
0.0082585999999998,0.0025748000000012,-0.0088313999999999,-0.0005553999999994,-0.000360799999999,0.0068928000000001,0,sub_1
0.0061791999999998,0.0022710000000012,-0.0081723999999999,8.560000000055467e-05,-0.000149399999999,0.0068972000000001,0,sub_1
0.0049557999999998,0.0018872000000012,-0.0090957999999999,0.0024380000000005,-0.000790399999999,0.0049882000000001,0,sub_1
0.0027411999999998,0.0029386000000012,-0.0086503999999998,0.0037264000000005,-0.000576599999999,0.0032840000000001,0,sub_1
0.0010159999999998,0.0031060000000012,-0.0075239999999998,0.0045842000000005,-0.000576999999999,0.0022180000000001,0,sub_1
-0.0003974000000001,0.0032408000000012,-0.0068653999999998,0.0050172000000005,-0.000574599999999,0.0007216000000001,0,sub_1
-0.0002944000000001,0.0040436000000012,-0.0075721999999998,0.0048014000000005,-0.001426399999999,0.0002900000000001,0,sub_1
0.0007355999999998,0.0043718000000012,-0.0075041999999998,0.0052194000000005,-0.002920999999999,0.0007220000000001,0,sub_1
0.0012655999999998,0.0042732000000012,-0.0084123999999999,0.0060632000000005,-0.004417799999999,0.0013708000000001,0,sub_1
0.0014391999999998,0.0046980000000012,-0.0081803999999999,0.0062734000000005,-0.004845399999999,0.0015862000000001,0,sub_1
0.0017423999999998,0.0040998000000012,-0.0073719999999999,0.0058426000000004,-0.005483799999999,0.0017976000000001,0,sub_1
0.0021471999999998,0.0028972000000012,-0.0071413999999999,0.0054158000000004,-0.005057799999999,0.0022214000000001,0,sub_1
0.0019461999999998,0.0019276000000012,-0.0085785999999998,0.0041366000000004,-0.003354799999999,0.0037058000000001,0,sub_1
0.0020427999999998,0.0014488000000012,-0.0083699999999998,0.0020060000000004,-0.001434999999999,0.0049704000000001,0,sub_1
0.0020441999999998,0.0013268000000012,-0.0079969999999998,0.0011586000000005,5.860000000095502e-05,0.0051764000000001,0,sub_1
0.0021977999999998,0.0014042000000012,-0.0085605999999998,0.0007436000000005,0.0015560000000009,0.0041036000000001,0,sub_1
0.0022685999999998,0.0024440000000012,-0.0086467999999998,0.0005352000000005,0.0015612000000009,0.0030340000000001,0,sub_1
0.0027525999999998,0.0029710000000012,-0.0078903999999998,0.0001170000000005,0.0013584000000009,0.0008948000000001,0,sub_1
0.0027729999999998,0.0030292000000012,-0.0066487999999998,0.0005514000000005,0.0011518000000009,-0.0010247999999998,0,sub_1
0.0030809999999998,0.0029554000000012,-0.0060181999999998,0.0007676000000005,0.0007294000000009,-0.0020909999999998,0,sub_1
0.0028331999999998,0.0035532000000012,-0.0060983999999998,0.0009788000000005,0.0003028000000009,-0.0020889999999998,0,sub_1
0.0041391999999998,0.0040934000000012,-0.0062015999999998,0.0005498000000005,0.0003030000000009,-0.0016647999999998,0,sub_1
0.0041879999999998,0.0048376000000012,-0.0064019999999998,0.0001210000000005,0.0003032000000009,-0.0012403999999998,0,sub_1
0.0040137999999998,0.0043756000000012,-0.0072129999999999,-0.0007395999999994,-0.001396999999999,-0.0014577999999998,0,sub_1
0.0042901999999998,0.0047956000000012,-0.0073305999999999,-0.0009619999999994,-0.003737599999999,-0.0018835999999998,0,sub_1
0.0045209999999998,0.0045390000000012,-0.0062081999999999,-0.0005401999999994,-0.005228399999999,-0.0023059999999998,0,sub_1
0.0032855999999998,0.0043104000000012,-0.0066023999999999,-0.0005375999999994,-0.005437599999999,-0.0031601999999998,0,sub_1
0.0030035999999998,0.0036736000000012,-0.0069139999999999,-0.0005379999999994,-0.006073999999999,-0.0038003999999998,0,sub_1
0.0028271999999998,0.0042822000000012,-0.0078169999999999,0.0001060000000005,-0.005012799999999,-0.0038031999999998,0,sub_1
0.0026987999999998,0.0039212000000012,-0.0090259999999998,0.0005386000000005,-0.004161599999999,-0.0044481999999998,0,sub_1
0.0025959999999998,0.0036554000000012,-0.0101905999999998,0.0020334000000005,-0.005015999999999,-0.0057243999999998,0,sub_1
0.0038425999999998,0.0029448000000012,-0.0105277999999998,0.0050162000000005,-0.006729599999999,-0.0065617999999998,0,sub_1
0.0038927999999998,0.0025074000000012,-0.0096593999999998,0.0065074000000005,-0.008011599999999,-0.0074099999999998,0,sub_1
0.0032125999999998,0.0017508000000012,-0.0073149999999998,0.0045892000000005,-0.008851799999999,-0.0087039999999998,0,sub_1
0.0026573999999998,0.0020068000000012,-0.0057285999999999,0.0020316000000005,-0.008415599999999,-0.0089359999999998,0,sub_1
0.0025781999999998,0.0027206000000012,-0.0059351999999999,-0.0009509999999994,-0.006702999999999,-0.0083181999999998,0,sub_1
0.0026951999999998,0.0027930000000012,-0.0055217999999999,-0.0045733999999994,-0.003714999999999,-0.0066417999999998,0,sub_1
0.0029507999999998,0.0029150000000012,-0.0051253999999999,-0.0073393999999994,0.0007578000000009,-0.0041067999999998,0,sub_1
0.0035511999999998,0.0033360000000012,-0.0057701999999999,-0.0073393999999994,0.0045776000000009,-0.0004833999999998,0,sub_1
0.0036123999999998,0.0035134000000012,-0.0065495999999999,-0.0062801999999994,0.0071136000000009,0.0035764000000001,0,sub_1
0.0035431999999998,0.0029850000000012,-0.0054053999999999,-0.0067143999999994,0.0088062000000009,0.0067722000000001,0,sub_1
0.0014203999999998,0.0030848000000012,-0.0053035999999999,-0.0073651999999994,0.0081626000000009,0.0084776000000001,0,sub_1
-0.0002046000000001,0.0034056000000012,-0.0067161999999999,-0.0073807999999994,0.0058146000000009,0.0095486000000001,0,sub_1
-0.0014034000000001,0.0033810000000012,-0.0082585999999999,-0.0063263999999994,0.0036774000000009,0.0101994000000001,0,sub_1
-0.0030272000000001,0.0037600000000012,-0.0093845999999999,-0.0052673999999994,0.0026054000000009,0.0106312000000001,0,sub_1
-0.0041280000000001,0.0038512000000012,-0.0110995999999999,-0.0037827999999994,0.0015306000000009,0.0112796000000001,0,sub_1
-0.0042518000000001,0.0035488000000012,-0.0116255999999999,-0.0016435999999994,0.0019518000000009,0.0102214000000001,0,sub_1
-0.0031230000000001,0.0031488000000012,-0.0101585999999999,0.0013540000000005,0.0019502000000009,0.0076742000000001,0,sub_1
-0.0008022000000001,0.0033094000000012,-0.0087877999999999,0.0047810000000004,0.0013132000000009,0.0038490000000001,0,sub_1
0.0027487999999998,0.0027898000000012,-0.0075519999999999,0.0082170000000004,0.0013208000000009,-0.0010409999999998,0,sub_1
0.0057679999999998,0.0023724000000012,-0.0055297999999999,0.0110118000000004,0.0009062000000009,-0.0061483999999998,0,sub_1
0.0091985999999998,0.0029352000000012,-0.0040471999999999,0.0116574000000005,6.120000000093524e-05,-0.0082789999999998,0,sub_1
0.0110119999999998,0.0025200000000012,-0.0036351999999999,0.0101656000000005,0.0011316000000009,-0.0080809999999998,0,sub_1
0.0117151999999998,0.0025542000000012,-0.0043375999999999,0.0063258000000005,0.0034828000000009,-0.0064053999999998,0,sub_1
0.0111719999999998,0.0029082000000012,-0.0047305999999999,0.0020478000000005,0.0064618000000009,-0.0015289999999998,0,sub_1
0.0101877999999998,0.0041798000000012,-0.0044683999999999,-0.0013757999999994,0.0094384000000009,0.0031396000000001,0,sub_1
0.0079425999999998,0.0041330000000012,-0.0044453999999999,-0.0039497999999994,0.0096500000000009,0.0058946000000001,0,sub_1
0.0056475999999998,0.0045264000000012,-0.0059517999999999,-0.0043959999999994,0.0070888000000009,0.0076040000000001,0,sub_1
0.0032301999999998,0.0040662000000012,-0.0064137999999999,-0.0035667999999994,0.0030332000000009,0.0088968,0,sub_1
0.0015513999999998,0.0034496000000011,-0.0068257999999999,-0.0027345999999994,-0.002505599999999,0.008055,0,sub_1
8.379999999984194e-05,0.0026364000000011,-0.0083561999999999,-0.0021089999999994,-0.006340399999999,0.0074234,0,sub_1
-0.0010616000000001,0.0028422000000011,-0.0097285999999999,-0.0004079999999994,-0.007835399999999,0.006792,0,sub_1
-0.0011558000000001,0.0027284000000012,-0.0100021999999999,0.0012988000000005,-0.007839999999999,0.0063722,0,sub_1
-0.0002884000000001,0.0026794000000012,-0.0103479999999999,0.0032230000000005,-0.007205199999999,0.0057396,0,sub_1
-7.860000000013811e-05,0.0024076000000012,-0.0096371999999999,0.0051518000000005,-0.006141599999999,0.0044656,0,sub_1
0.0007393999999998,0.0024778000000012,-0.0087289999999999,0.0068636000000005,-0.006141599999999,0.0029776,0,sub_1
0.0014483999999998,0.0022892000000012,-0.0074913999999998,0.0075134000000005,-0.005286599999999,0.0016992000000001,0,sub_1
0.0018451999999998,0.0027548000000012,-0.0065845999999998,0.0060380000000005,-0.002930799999999,-2.3199999999874363e-05,0,sub_1
0.0018753999999998,0.0028942000000012,-0.0054629999999998,0.0032766000000005,-0.000573199999999,-0.0009019999999998,0,sub_1
0.0024567999999998,0.0026328000000012,-0.0057481999999998,0.0005056000000005,0.0007148000000009,-0.0007111999999998,0,sub_1
0.0029809999999998,0.0027128000000012,-0.0064061999999998,-0.0016243999999994,0.0032748000000009,0.0005506000000001,0,sub_1
0.0032743999999998,0.0021440000000012,-0.0073533999999999,-0.0037551999999994,0.0056218000000009,0.0018126000000001,0,sub_1
0.0030083999999998,0.0018562000000012,-0.0075881999999999,-0.0050381999999994,0.0058386000000009,0.0022288000000001,0,sub_1
0.0030917999999998,0.0018878000000012,-0.0074943999999999,-0.0048275999999994,0.0047744000000009,0.0018044000000001,0,sub_1
0.0033285999999998,0.0025368000000012,-0.0076387999999999,-0.0048255999999994,0.0043520000000009,0.0009504000000001,0,sub_1
0.0027125999999998,0.0025982000000012,-0.0071099999999998,-0.0058905999999994,0.0030844000000009,-0.0007643999999998,0,sub_1
0.0033859999999998,0.0025720000000012,-0.0067479999999998,-0.0063189999999994,0.0016016000000009,-0.0022627999999998,0,sub_1
0.0043017999999998,0.0026202000000012,-0.0065823999999998,-0.0056851999999994,0.0007476000000009,-0.0020453999999998,0,sub_1
0.0050249999999998,0.0033382000000012,-0.0071221999999998,-0.0056907999999994,0.0007456000000009,-0.0011925999999998,0,sub_1
0.0051297999999998,0.0036716000000012,-0.0071153999999998,-0.0061249999999994,0.0003190000000009,-0.0003423999999998,0,sub_1
0.0060093999999998,0.0040916000000011,-0.0074693999999999,-0.0067753999999994,-0.000109399999999,0.0011472000000001,0,sub_1
0.0047793999999998,0.0045464000000011,-0.0076717999999999,-0.0067813999999994,-0.000326199999999,0.0022156000000001,0,sub_1
0.0035139999999998,0.0043176000000011,-0.0079179999999999,-0.0074207999999994,-0.000322799999999,0.0019974000000001,0,sub_1
0.0018719999999998,0.0036436000000011,-0.0074231999999999,-0.0074171999999994,-0.000531399999999,0.0009294000000001,0,sub_1
0.0008661999999998,0.0034178000000011,-0.0072371999999999,-0.0069845999999994,-0.000100999999999,-0.0003523999999998,0,sub_1
-0.0007732000000001,0.0036892000000012,-0.0080123999999999,-0.0046325999999994,-0.000739199999999,-0.0024739999999998,0,sub_1
-0.0011582,0.0042786000000012,-0.0088727999999999,-0.0039865999999994,0.0001148000000009,-0.0033275999999998,0,sub_1
-0.0010122,0.0040728000000012,-0.0096765999999999,-0.0018499999999994,0.0009608000000009,-0.0035297999999998,0,sub_1
0.0002349999999998,0.0036800000000012,-0.0104987999999999,0.0022054000000005,0.0017984000000009,-0.0032913999999998,0,sub_1
0.0014953999999998,0.0032248000000012,-0.0107681999999999,0.0056242000000005,0.0032762000000009,-0.0028419999999998,0,sub_1
0.0024941999999998,0.0035988000000012,-0.0098341999999999,0.0058414000000005,0.0066742000000009,-0.0002809999999998,0,sub_1
0.0036933999999998,0.0033964000000012,-0.0076813999999999,0.0039134000000005,0.0070988000000009,0.0018416000000001,0,sub_1
0.0048855999999998,0.0039546000000012,-0.0059841999999999,0.0013282000000005,0.0051786000000009,0.0050282000000001,0,sub_1
0.0042309999999998,0.0041168000000012,-0.0046869999999999,-0.0031727999999994,0.0043306000000009,0.0082000000000001,0,sub_1
0.0028063999999998,0.0043928000000012,-0.0033499999999999,-0.0057545999999994,0.0026258000000009,0.0107452000000001,0,sub_1
0.0017627999999998,0.0027614000000012,-0.0032873999999999,-0.0057669999999994,7.100000000097547e-05,0.0105320000000001,0,sub_1
0.0014529999999998,0.0018084000000012,-0.0048529999999998,-0.0036387999999994,-0.002061199999999,0.0092650000000001,0,sub_1
0.0011675999999998,0.0020314000000012,-0.0052415999999998,-0.0036281999999994,-0.002476199999999,0.0064882000000001,0,sub_1
0.0017209999999998,0.0029648000000012,-0.0053057999999998,-0.0055437999999994,-0.003738599999999,0.0041264000000001,0,sub_1
0.0026071999999998,0.0023032000000012,-0.0061971999999998,-0.0078907999999994,-0.005215599999999,0.0026164000000001,0,sub_1
0.0040287999999998,0.0015492000000012,-0.0074727999999998,-0.0093919999999994,-0.007126999999999,0.0023948000000001,0,sub_1
0.0043679999999998,0.0017684000000012,-0.0072145999999998,-0.0085451999999994,-0.008620999999999,0.0024028000000001,0,sub_1
0.0044149999999998,0.0018792000000012,-0.0081801999999998,-0.0047023999999994,-0.007995599999999,0.0026426000000001,0,sub_1
0.0039483999999998,0.0018098000000012,-0.0089079999999999,-0.0002079999999994,-0.005876799999999,0.0018168000000001,0,sub_1
0.0035481999999998,0.0027542000000012,-0.0085657999999999,0.0028004000000005,-0.002685199999999,0.0003382000000001,0,sub_1
0.0023187999999998,0.0040362000000012,-0.0066407999999999,0.0043188000000004,0.0011518000000009,-0.0013651999999998,0,sub_1
0.0020999999999998,0.0046034000000012,-0.0059785999999999,0.0045522000000005,0.0041400000000009,-0.0028629999999998,0,sub_1
0.0021307999999998,0.0044668000000012,-0.0053135999999998,0.0039222000000005,0.0050006000000009,-0.0043641999999998,0,sub_1
0.0026791999999998,0.0047602000000012,-0.0059147999999998,0.0043524000000005,0.0056392000000009,-0.0045757999999998,0,sub_1
0.0030813999999998,0.0043782000000012,-0.0072693999999998,0.0043512000000005,0.0056386000000009,-0.0043621999999998,0,sub_1
0.0032411999999998,0.0034196000000012,-0.0085691999999998,0.0043406000000005,0.0041440000000009,-0.0035057999999998,0,sub_1
0.0034391999999998,0.0032332000000012,-0.0095385999999998,0.0056064000000005,0.0028538000000009,-0.0015723999999998,0,sub_1
0.0033269999999998,0.0036646000000012,-0.0093491999999999,0.0062312000000005,0.0024138000000009,0.0014236000000001,0,sub_1
0.0023385999999998,0.0043742000000012,-0.0088825999999999,0.0053564000000005,6.400000000093535e-05,0.0037706000000001,0,sub_1
0.0021715999999998,0.0035420000000012,-0.0077859999999999,0.0046980000000005,-0.003981599999999,0.0037712000000001,0,sub_1
0.0034857999999998,0.0027608000000012,-0.0076471999999999,0.0051172000000005,-0.008442199999999,0.0003558000000001,0,sub_1
0.0055281999999998,0.0013550000000012,-0.0096417999999999,0.0044718000000005,-0.012472799999999,-0.0030675999999998,0,sub_1
0.0071157999999998,0.0006532000000012,-0.0116171999999999,-1.4999999999484523e-05,-0.014792999999999,-0.0045969999999998,0,sub_1
0.0100331999999998,0.0005040000000012,-0.0122743999999998,-0.0062095999999994,-0.015410199999999,-0.0042175999999998,0,sub_1
0.0118943999999998,0.0023594000000012,-0.0129099999999998,-0.0119863999999994,-0.012853399999999,0.0012882000000001,0,sub_1
0.0103741999999998,0.0040612000000012,-0.0115199999999998,-0.0181901999999994,-0.006054799999999,0.0117050000000001,0,sub_1
0.0040237999999998,0.0043462000000012,-0.0061937999999998,-0.0224511999999994,0.0009690000000009,0.0172212000000001,0,sub_1
0.0009573999999998,0.0037504000000012,-0.0012155999999998,-0.0198729999999994,0.0037348000000009,0.0159538000000001,0,sub_1
-0.0025762000000001,0.0028096000000012,0.0003162000000001,-0.0149287999999994,0.0067228000000009,0.0104258000000001,0,sub_1
-0.0052282000000001,0.0025148000000012,0.0001952000000001,-0.0104035999999994,0.0052626000000009,-0.0012951999999998,0,sub_1
-0.0039744000000001,0.0044488000000012,-0.0026613999999999,-0.0073875999999994,0.0003988000000009,-0.0130223999999998,0,sub_1
-0.0002450000000001,0.0065182000000012,-0.0082781999999999,-0.0046077999999994,-0.004696599999999,-0.0198371999999998,0,sub_1
2.539999999984152e-05,0.0081238000000012,-0.0142627999999999,-0.0009935999999994,-0.008538999999999,-0.0210929999999998,0,sub_1
0.0002791999999998,0.0083832000000012,-0.0164543999999998,0.0043078000000005,-0.011345599999999,-0.0165661999999998,0,sub_1
-0.0011242000000001,0.0062422000000012,-0.0158201999999998,0.0102486000000005,-0.009062799999999,-0.0067003999999998,0,sub_1
-0.0043804000000001,0.0028286000000012,-0.0132031999999998,0.0155650000000005,-0.004854599999999,0.0016632000000001,0,sub_1
-0.006058,0.0001974000000012,-0.0088395999999998,0.0153488000000005,0.0015090000000009,0.0086996000000001,0,sub_1
-0.0060906,-0.0021967999999987,-0.0046447999999998,0.0079040000000005,0.0104676000000009,0.0124774000000001,0,sub_1
-0.0051312,-0.0027203999999987,-0.0021909999999998,-0.0037929999999994,0.0181816000000009,0.0115272000000001,0,sub_1
-0.0015580000000001,-0.0012489999999987,-0.0024421999999999,-0.0150595999999994,0.0231394000000009,0.0069516000000001,0,sub_1
0.0032627999999998,-0.0003865999999987,-0.0044305999999999,-0.0233437999999994,0.0259610000000009,0.0013314000000001,0,sub_1
0.0072175999999998,0.0014478000000012,-0.0081669999999999,-0.0263191999999994,0.0244970000000009,-0.0027465999999998,0,sub_1
0.0102573999999998,0.0030572000000012,-0.0114805999999999,-0.0231405999999994,0.0187376000000009,-0.0035711999999998,0,sub_1
0.0132157999999998,0.0025380000000012,-0.0119249999999999,-0.0144217999999994,0.0131646000000009,-0.0024343999999998,0,sub_1
0.0139879999999998,0.0025416000000012,-0.0109083999999999,-0.0063515999999994,0.0084356000000009,0.0014704000000001,0,sub_1
0.0135985999999998,0.0031736000000012,-0.0090213999999999,-0.0019213999999994,0.0030716000000009,0.0074872000000001,0,sub_1
0.0131459999999998,0.0041520000000012,-0.0062621999999999,-0.0006795999999994,-0.000360199999999,0.0126246000000001,0,sub_1
0.0121047999999998,0.0052284000000012,-0.0033751999999999,-0.0019743999999994,-0.000154399999999,0.0160304000000001,0,sub_1
0.0085711999999998,0.0075632000000012,-0.0028943999999999,-0.0045459999999994,-0.000153199999999,0.0183588000000001,0,sub_1
0.0042187999999998,0.0095612000000012,-0.0035957999999998,-0.0049807999999994,-0.002279199999999,0.0177174000000001,0,sub_1
0.0005449999999998,0.0096758000000012,-0.0053173999999998,-0.0024129999999994,-0.003977999999999,0.0141052000000001,0,sub_1
-0.0024204,0.0079956000000012,-0.0072343999999998,0.0020802000000005,-0.005467599999999,0.0096514000000001,0,sub_1
-0.0047794,0.0055680000000012,-0.0092185999999998,0.0059328000000005,-0.007804399999999,0.0045492000000001,0,sub_1
-0.005478,0.0016396000000012,-0.0108597999999998,0.0091382000000005,-0.011419199999999,-0.0001283999999998,0,sub_1
-0.0034488,-0.0004349999999987,-0.0125651999999999,0.0123366000000005,-0.014828399999999,-0.0028831999999998,0,sub_1
-0.0002264000000001,-0.0003833999999987,-0.0122933999999999,0.0151074000000005,-0.016963599999999,-0.0041471999999998,0,sub_1
0.0021773999999998,0.0006910000000012,-0.0107507999999999,0.0161778000000005,-0.016327999999999,-0.0041445999999998,0,sub_1
0.0041245999999998,0.0001074000000012,-0.0069625999999999,0.0149064000000005,-0.013344799999999,-0.0030889999999998,0,sub_1
0.0068655999999998,0.0006278000000012,-0.0043509999999999,0.0106544000000005,-0.008647199999999,-0.0018425999999998,0,sub_1
0.0083397999999998,-0.0010241999999987,-0.0017723999999999,0.0038516000000005,-0.001385399999999,-0.0001899999999998,0,sub_1
0.0093405999999998,-0.0013433999999987,-0.0022837999999999,-0.0033809999999994,0.0060876000000009,0.0025236000000001,0,sub_1
