userAcceleration.x,userAcceleration.y,userAcceleration.z,rotationRate.x,rotationRate.y,rotationRate.z,label,subject
0.0034049999999998,-0.0168125999999987,0.0009976,-0.0585053999999996,0.0184584000000008,-0.0381183999999998,0,sub_14
0.0047597999999998,-0.0147251999999987,-0.0035093999999999,-0.0440767999999996,0.0224492000000008,-0.0378087999999998,0,sub_14
0.0052355999999998,-0.0127177999999987,-0.0058895999999999,-0.0294779999999996,0.0217324000000008,-0.0325779999999998,0,sub_14
0.0064323999999997,-0.0117763999999987,-0.0061593999999999,-0.0173779999999996,0.0152686000000009,-0.0250075999999998,0,sub_14
0.0086211999999998,-0.0122481999999987,-0.0048219999999999,-0.0082757999999996,0.0079568000000009,-0.0159615999999998,0,sub_14
0.0105333999999998,-0.0122005999999987,-0.0023299999999999,0.0009588000000003,0.0023456000000009,-0.0081855999999998,0,sub_14
0.0111749999999998,-0.0129597999999986,0.0002608,0.0091314000000003,-0.004530799999999,-0.0027655999999998,0,sub_14
0.0109457999999997,-0.0139361999999986,0.0023328,0.0122060000000003,-0.008822399999999,5.160000000016233e-05,0,sub_14
0.0105023999999998,-0.0153889999999986,0.002954,0.0110418000000003,-0.009041799999999,0.0004840000000001,0,sub_14
0.0083617999999998,-0.0157273999999986,0.004008,0.0079718000000003,-0.008180599999999,-0.0012345999999998,0,sub_14
0.0065243999999997,-0.0156675999999987,0.0043316,0.0043654000000003,-0.0066637999999991,-0.0044663999999998,0,sub_14
0.0046387999999997,-0.0157497999999987,0.0046624,0.0003438000000003,-0.0036497999999991,-0.0087711999999998,0,sub_14
0.0035215999999998,-0.0159591999999987,0.002871,-0.0019657999999996,0.0004236000000008,-0.0130653999999998,0,sub_14
0.0027961999999998,-0.0149699999999987,0.0005142,-0.0003105999999996,0.0021270000000008,-0.0169003999999998,0,sub_14
0.0027035999999998,-0.0137485999999987,-0.0016945999999999,0.0028200000000003,0.0025358000000008,-0.0179459999999998,0,sub_14
0.0027493999999998,-0.0123325999999987,-0.0035809999999999,0.0044342000000003,0.0018682000000008,-0.0149415999999998,0,sub_14
0.0036049999999998,-0.0114649999999987,-0.0038075999999999,0.0047450000000003,0.0003358000000008,-0.0076721999999998,0,sub_14
0.0041367999999998,-0.0102799999999987,-0.0036593999999999,0.0056882000000003,-0.0024787999999991,3.060000000016244e-05,0,sub_14
0.0044091999999998,-0.0096415999999987,-0.0028903999999999,0.0069254000000003,-0.0048559999999991,0.0073062000000001,0,sub_14
0.0039399999999998,-0.0100211999999987,-0.0014687999999999,0.0056096000000003,-0.0059441999999991,0.0141350000000001,0,sub_14
0.0033347999999998,-0.0115481999999987,0.0006768,0.0013180000000003,-0.0057383999999991,0.0196594000000001,0,sub_14
0.0026641999999998,-0.0129183999999987,0.0018824,-0.0040267999999996,-0.0050925999999991,0.0226122000000001,0,sub_14
0.0026179999999998,-0.0135777999999987,0.0028652,-0.0102603999999996,-0.0048705999999991,0.0246962000000001,0,sub_14
0.0022325999999998,-0.0133509999999987,0.0036328,-0.0184027999999996,-0.0027215999999991,0.0261236000000001,0,sub_14
0.0023069999999998,-0.0124559999999987,0.0027164,-0.0261087999999996,-0.0005655999999991,0.0254174000000001,0,sub_14
0.0022429999999998,-0.0108771999999987,0.0008614,-0.0304017999999996,-0.0003321999999991,0.0230286000000001,0,sub_14
0.0021251999999998,-0.0089167999999986,-0.0012395999999999,-0.0317055999999996,-0.0009563999999991,0.0193798000000001,0,sub_14
0.0015689999999998,-0.0071911999999986,-0.0022367999999999,-0.0312615999999996,-0.0015789999999991,0.0148972000000001,0,sub_14
0.0027013999999998,-0.0070597999999986,-0.0028649999999999,-0.0286895999999996,-0.0039119999999991,0.0100044000000001,0,sub_14
0.0046581999999998,-0.0078705999999986,-0.0019537999999999,-0.0230729999999996,-0.0066991999999991,0.0064290000000001,0,sub_14
0.0071543999999998,-0.0089059999999986,-6.979999999990119e-05,-0.0166037999999996,-0.0088535999999991,0.0037132000000001,0,sub_14
0.0096625999999998,-0.0103703999999986,0.0024346,-0.0107797999999996,-0.010161199999999,0.0029146000000001,0,sub_14
0.0117087999999998,-0.0127913999999986,0.0047752,-0.0073045999999996,-0.010613599999999,0.0033802000000001,0,sub_14
0.0118701999999998,-0.0147769999999986,0.0071486,-0.0051097999999996,-0.010000399999999,0.0049038000000001,0,sub_14
0.0109571999999998,-0.0159097999999986,0.007182,-0.0053241999999996,-0.008939599999999,0.0061828000000001,0,sub_14
0.0088387999999998,-0.0167131999999986,0.007063,-0.0066035999999996,-0.007873399999999,0.0070270000000001,0,sub_14
0.0063957999999998,-0.0170405999999986,0.0057814,-0.0076617999999996,-0.0063765999999991,0.0065904000000001,0,sub_14
0.0043249999999998,-0.0159947999999986,0.003358,-0.0070129999999996,-0.0048857999999991,0.0061658000000001,0,sub_14
0.0026803999999998,-0.0140209999999987,0.0005178,-0.0049933999999996,-0.003850799999999,0.0058020000000001,0,sub_14
0.0006393999999998,-0.0115765999999987,-0.0011841999999999,-0.0023335999999996,-0.003242199999999,0.0050158000000001,0,sub_14
-0.0010352000000001,-0.0087077999999987,-0.0028199999999999,0.0003262000000003,-0.003057999999999,0.0038030000000001,0,sub_14
-0.0015866000000001,-0.0067313999999987,-0.0036137999999999,0.0025582000000003,-0.003721999999999,0.0019472000000001,0,sub_14
-0.0016452000000001,-0.0057207999999987,-0.0036941999999999,0.0050036000000003,-0.005235599999999,-0.0007603999999998,0,sub_14
-0.0006292000000001,-0.0064025999999987,-0.0032445999999999,0.0060792000000003,-0.0065047999999991,-0.0039559999999998,0,sub_14
0.0012117999999998,-0.0078145999999987,-0.0021975999999999,0.0067270000000003,-0.0077733999999991,-0.0069407999999998,0,sub_14
0.0036899999999998,-0.0098015999999987,-0.0007849999999999,0.0067290000000003,-0.0088327999999991,-0.0084349999999998,0,sub_14
0.0058699999999997,-0.0111405999999987,0.0006884,0.0057146000000003,-0.0088443999999991,-0.0075339999999998,0,sub_14
0.0080925999999997,-0.0118317999999987,0.0022516,0.0032054000000003,-0.0077907999999991,-0.0053631999999998,0,sub_14
0.0094631999999997,-0.0120013999999987,0.0034304,-0.0008011999999996,-0.0067351999999991,-0.0023481999999998,0,sub_14
0.0099057999999997,-0.0122649999999987,0.004315,-0.0043885999999996,-0.0056879999999991,0.0023788000000001,0,sub_14
0.0098199999999998,-0.0125467999999987,0.00484,-0.0056251999999996,-0.0046453999999991,0.0062678000000001,0,sub_14
0.0082879999999998,-0.0125031999999987,0.0035312,-0.0060587999999996,-0.0042255999999991,0.0081870000000001,0,sub_14
0.0062509999999998,-0.0132479999999987,0.0013376000000001,-0.0058425999999996,-0.0027381999999991,0.0090412000000001,0,sub_14
0.0041079999999998,-0.0131651999999987,0.0003376000000001,-0.0040911999999996,-0.0016815999999991,0.0094918000000001,0,sub_14
0.0026445999999998,-0.0129019999999987,-0.0002357999999999,-0.0019063999999996,-0.0010449999999991,0.0080232000000001,0,sub_14
0.0017999999999998,-0.0118077999999987,-0.0014921999999999,-0.0016361999999996,0.0004522000000008,0.0061128000000001,0,sub_14
0.0020833999999997,-0.0106969999999987,-0.0017823999999999,-0.0015801999999996,0.0015250000000008,0.0039878000000001,0,sub_14
0.0030951999999997,-0.0095179999999987,-0.0008097999999999,-0.0023891999999996,0.0006806000000008,0.0025002000000001,0,sub_14
0.0041293999999998,-0.0093211999999987,-0.0005507999999999,-0.0045199999999996,-0.0003703999999991,0.0007776000000001,0,sub_14
0.0051183999999998,-0.0089689999999987,-0.0009289999999998,-0.0062239999999996,-0.0005739999999991,-8.85999999998376e-05,0,sub_14
0.0061951999999998,-0.0094729999999987,-0.0007313999999998,-0.0077203999999996,-0.0014201999999991,-0.0003115999999998,0,sub_14
0.0071483999999998,-0.0100189999999987,3.760000000009902e-05,-0.0091435999999996,-0.0018343999999991,0.0002968000000001,0,sub_14
0.0071341999999998,-0.0102981999999987,0.000525,-0.0097093999999996,-0.0016115999999991,0.0006968000000001,0,sub_14
0.0071575999999998,-0.0101261999999987,0.0010478,-0.0085633999999996,-0.0007539999999991,0.0006806000000001,0,sub_14
0.0074895999999998,-0.0098895999999987,0.0017518,-0.0082691999999996,-0.0001037999999991,1.7800000000142355e-05,0,sub_14
0.0066897999999998,-0.0102509999999987,0.0018162,-0.0081823999999996,0.0009766000000008,-0.0015015999999998,0,sub_14
0.0054343999999997,-0.0110429999999987,0.0014452,-0.0077429999999996,0.0020472000000008,-0.0032089999999998,0,sub_14
0.0047563999999998,-0.0113915999999987,0.0013992,-0.0066645999999996,0.0029026000000008,-0.0049117999999998,0,sub_14
0.0041505999999998,-0.0114253999999987,0.0006296,-0.0058043999999996,0.0033300000000008,-0.0059745999999998,0,sub_14
0.0033205999999997,-0.0116421999999987,-0.0005133999999999,-0.0049449999999996,0.0039686000000008,-0.0066101999999998,0,sub_14
0.0026701999999997,-0.0106239999999987,-0.0010685999999999,-0.0035993999999996,0.0041998000000008,-0.0068433999999998,0,sub_14
0.0025035999999998,-0.0089859999999987,-0.0005047999999999,-0.0028959999999996,0.0040070000000008,-0.0070805999999998,0,sub_14
0.0026135999999998,-0.0083943999999987,-0.0011599999999999,-0.0028343999999996,0.0038146000000008,-0.0068947999999998,0,sub_14
0.0031769999999998,-0.0082885999999987,-0.0015417999999999,-0.0034139999999996,0.0031994000000008,-0.0069265999999998,0,sub_14
0.0036611999999998,-0.0084397999999987,-0.0009747999999999,-0.0035667999999996,0.0023706000000008,-0.0071689999999998,0,sub_14
0.0043171999999998,-0.0091205999999987,-0.0001471999999999,-0.0039973999999996,0.0019442000000008,-0.0067441999999998,0,sub_14
0.0047777999999998,-0.0104631999999987,-0.0006995999999999,-0.0033591999999996,0.0019402000000008,-0.0063123999999998,0,sub_14
0.0051655999999998,-0.0111143999999987,-0.0003451999999999,-0.0029003999999996,0.0017524000000008,-0.0058967999999998,0,sub_14
0.0049847999999998,-0.0112515999999987,0.0001622,-0.0024433999999996,0.0017750000000008,-0.0048405999999997,0,sub_14
0.0047529999999998,-0.0111297999999986,0.000304,-0.0026265999999996,0.0015876000000008,-0.0040021999999998,0,sub_14
0.0045279999999998,-0.0109841999999986,0.0001556,-0.0025973999999996,0.0007620000000008,-0.0035887999999997,0,sub_14
0.0047363999999998,-0.0106223999999986,0.00037,-0.0023527999999996,0.0005740000000008,-0.0029609999999997,0,sub_14
0.0043249999999998,-0.0102711999999987,9.2800000000099e-05,-0.0017165999999996,0.0001438000000008,-0.0025287999999997,0,sub_14
0.0044437999999998,-0.0098369999999987,-0.0001707999999999,-0.0008641999999996,-7.239999999910976e-05,-0.0025225999999997,0,sub_14
0.0047899999999998,-0.0094987999999987,-0.0003685999999999,-0.0008641999999996,0.0001398000000008,-0.0023091999999997,0,sub_14
0.0048799999999998,-0.0089705999999987,-0.0007809999999999,-0.0012929999999996,0.0005640000000008,-0.0014579999999997,0,sub_14
0.0044381999999998,-0.0084805999999987,-0.0005623999999999,-0.0025505999999996,0.0001652000000008,-0.0006311999999997,0,sub_14
0.0048865999999997,-0.0081761999999987,-0.0008159999999999,-0.0040175999999996,-1.7199999999109726e-05,-0.0004469999999997,0,sub_14
0.0051989999999997,-0.0084123999999987,-0.0007371999999999,-0.0048377999999996,0.0006530000000008,-0.0009001999999998,0,sub_14
0.0053019999999997,-0.0093233999999986,-0.0005549999999999,-0.0048055999999995,0.0006826000000008,-0.0017739999999998,0,sub_14
0.0059519999999997,-0.0102937999999987,-4.119999999992099e-05,-0.0041311999999995,0.0007118000000008,-0.0030707999999998,0,sub_14
0.0063187999999997,-0.0111013999999987,0.0002546,-0.0030575999999995,0.0007140000000008,-0.0045587999999998,0,sub_14
0.0062663999999998,-0.0116167999999987,0.000827,-0.0019839999999995,0.0009284000000008,-0.0058333999999998,0,sub_14
0.0055787999999997,-0.0123059999999987,0.000825,-0.0015571999999996,0.0005024000000008,-0.0062571999999998,0,sub_14
0.0044127999999998,-0.0115779999999987,0.001041,0.0003890000000003,0.0005104000000008,-0.0051917999999998,0,sub_14
0.0030465999999998,-0.0103781999999987,0.0010792,0.0031906000000003,0.0007292000000008,-0.0043341999999998,0,sub_14
0.0029093999999998,-0.0099785999999987,0.000456,0.0053588000000003,0.0020174000000008,-0.0039097999999998,0,sub_14
0.0026135999999998,-0.0099095999999987,-0.0003029999999999,0.0060362000000003,0.0041622000000008,-0.0032833999999998,0,sub_14
0.0023695999999998,-0.0095903999999987,-0.0002233999999999,0.0064954000000003,0.0052424000000008,-0.0026569999999998,0,sub_14
0.0027663999999998,-0.0094207999999987,-0.0001807999999999,0.0060724000000003,0.0058838000000008,-0.0028743999999998,0,sub_14
0.0036445999999998,-0.0098129999999987,-0.0007355999999999,0.0043720000000003,0.0071690000000008,-0.0031015999999998,0,sub_14
0.0040655999999998,-0.0090805999999987,-0.0010721999999999,0.0026940000000003,0.0069664000000008,-0.0024737999999998,0,sub_14
0.0047175999999998,-0.0076543999999987,-0.0005377999999999,0.0012238000000003,0.0052726000000008,-0.0020561999999998,0,sub_14
0.0062297999999997,-0.0063595999999986,-0.0004353999999999,-0.0002405999999996,0.0040084000000008,-0.0024937999999998,0,sub_14
0.0073369999999997,-0.0058609999999986,-0.0009437999999999,-0.0025507999999996,0.0036028000000008,-0.0037929999999998,0,sub_14
0.0079835999999998,-0.0062191999999987,-0.0009189999999999,-0.0044389999999996,0.0019182000000008,-0.0053011999999998,0,sub_14
0.0079347999999997,-0.0073001999999987,-0.0004257999999999,-0.0059305999999996,0.0010764000000008,-0.0065923999999998,0,sub_14
0.0078141999999997,-0.0095917999999987,-0.0001551999999999,-0.0057125999999996,0.0010800000000008,-0.0076591999999998,0,sub_14
0.0075867999999997,-0.0117749999999987,-0.0003431999999999,-0.0054993999999996,0.0015038000000008,-0.0072309999999998,0,sub_14
0.0070093999999997,-0.0132897999999987,9.640000000005911e-05,-0.0048383999999996,0.0012818000000008,-0.0057181999999997,0,sub_14
0.0059397999999997,-0.0141897999999987,0.000642,-0.0039649999999996,0.0014826000000008,-0.0035635999999998,0,sub_14
0.0050865999999997,-0.0145803999999987,0.000519,-0.0026619999999996,0.0016846000000008,-0.0020469999999998,0,sub_14
0.0040743999999998,-0.0139769999999987,-5.539999999994087e-05,-0.0011493999999996,0.0014580000000008,-0.0001009999999998,0,sub_14
0.0022063999999998,-0.0131093999999987,-0.0003243999999999,0.0016474000000003,0.0012302000000008,0.0009994000000001,0,sub_14
0.0011631999999998,-0.0124505999999987,-0.0009737999999999,0.0054824000000003,0.0009996000000008,0.0020946000000001,0,sub_14
0.0009831999999998,-0.0113013999999987,-0.0013981999999999,0.0084668000000003,0.0009866000000008,0.0027564000000001,0,sub_14
0.0014549999999998,-0.0098175999999987,-0.0012641999999999,0.0110196000000003,0.0003342000000008,0.0038434000000001,0,sub_14
0.0020883999999998,-0.0087535999999987,-0.0008801999999999,0.0116588000000003,0.0005432000000008,0.0042750000000001,0,sub_14
0.0038635999999998,-0.0068759999999987,-0.0003513999999999,0.0106162000000003,0.0005456000000008,0.0040678000000001,0,sub_14
0.0053653999999998,-0.0052745999999987,0.000221,0.0072294000000003,0.0005588000000008,0.0032034000000001,0,sub_14
0.0062259999999998,-0.0043627999999987,0.0001294,0.0034148000000003,0.0001484000000008,0.0021228000000001,0,sub_14
0.0064453999999998,-0.0048427999999987,-4.719999999992094e-05,-0.0006091999999996,-4.57999999991097e-05,0.0003996000000001,0,sub_14
0.0068139999999998,-0.0060323999999987,-0.0001247999999999,-0.0031443999999996,-0.001098199999999,-0.0010985999999998,0,sub_14
0.0068993999999998,-0.0078105999999987,1.7600000000079053e-05,-0.0048493999999996,-0.001302599999999,-0.0017511999999997,0,sub_14
0.0069737999999998,-0.0096011999999987,-1.0599999999920958e-05,-0.0052761999999996,-0.001513399999999,-0.0019675999999997,0,sub_14
0.0068065999999998,-0.0112657999999987,0.0004062,-0.0048289999999996,-0.001516599999999,-0.0023741999999998,0,sub_14
0.0067841999999998,-0.0120867999999987,0.0009274,-0.0035283999999996,-0.001098399999999,-0.0023481999999998,0,sub_14
0.0062719999999998,-0.0128725999999987,0.001106,-0.0024411999999996,-0.0002549999999991,-0.0018967999999998,0,sub_14
0.0048187999999998,-0.0135497999999987,0.0005518,-0.0007167999999996,-5.299999999910975e-05,-0.0014401999999998,0,sub_14
0.0032841999999998,-0.0139549999999987,0.000375,0.0012240000000003,0.0007874000000008,-0.0009829999999998,0,sub_14
0.0023933999999998,-0.0137733999999987,0.0002272,0.0039960000000003,0.0014126000000008,0.0001038000000001,0,sub_14
0.0016997999999998,-0.0127731999999987,0.0002756,0.0067680000000003,0.0020378000000008,0.0011906000000001,0,sub_14
0.0016131999999998,-0.0099785999999987,-0.0001115999999999,0.0095420000000003,0.0026646000000008,0.0018500000000001,0,sub_14
0.0025975999999998,-0.0076635999999987,-4.879999999994095e-05,0.0104006000000003,0.0032856000000008,0.0025150000000001,0,sub_14
0.0041395999999998,-0.0055227999999987,-0.0004745999999999,0.0097636000000003,0.0028492000000008,0.0025302000000001,0,sub_14
0.0055317999999997,-0.0033877999999987,-0.0004767999999999,0.0074206000000003,0.0022074000000008,0.0021062000000001,0,sub_14
0.0062713999999997,-0.0032561999999987,-0.0011705999999999,0.0037974000000003,0.0015700000000008,0.0016734000000001,0,sub_14
0.0069927999999997,-0.0045089999999986,-0.0010985999999999,-0.0004687999999996,0.0002958000000008,0.0012370000000001,0,sub_14
0.0068349999999997,-0.0059225999999986,-0.0005279999999999,-0.0030321999999996,-0.0009711999999991,0.0005798000000001,0,sub_14
0.0060701999999997,-0.0081069999999986,3.0200000000099115e-05,-0.0041009999999996,-0.002030199999999,-6.739999999987797e-05,0,sub_14
0.0051631999999998,-0.0111287999999986,0.0004872,-0.0040991999999996,-0.002028599999999,-0.0004945999999998,0,sub_14
0.0041677999999998,-0.0132493999999987,0.001179,-0.0017521999999996,-0.002036799999999,-0.0004781999999998,0,sub_14
0.0036375999999998,-0.0132975999999987,0.0019408,0.0025324000000003,-0.001421799999999,-0.0012809999999998,0,sub_14
0.0034759999999998,-0.0143859999999987,0.000766,0.0044768000000003,5.620000000091021e-05,-0.0027421999999997,0,sub_14
0.0037365999999998,-0.0143583999999986,-0.0005991999999999,0.0047160000000003,0.0026028000000008,-0.0035755999999997,0,sub_14
0.0037353999999998,-0.0128511999999986,-0.0003225999999999,0.0049428000000003,0.0032286000000008,-0.0035521999999998,0,sub_14
0.0041117999999998,-0.0106619999999986,-0.0003763999999999,0.0041038000000003,0.0038590000000008,-0.0037499999999998,0,sub_14
0.0039375999999998,-0.0107233999999987,-0.0013585999999999,0.0019730000000003,0.0051422000000008,-0.0031255999999998,0,sub_14
0.0046961999999998,-0.0089083999999986,-0.0016959999999999,0.0006850000000003,0.0049278000000008,-0.0016387999999998,0,sub_14
0.0051283999999998,-0.0073027999999987,-0.0005783999999999,2.9200000000347004e-05,0.0034250000000008,-0.0007759999999998,0,sub_14
0.0058815999999998,-0.0068349999999987,-0.0012883999999999,-0.0012571999999996,0.0029938000000008,-0.0009871999999998,0,sub_14
0.0058195999999998,-0.0072893999999987,-0.0022225999999999,-0.0027569999999996,0.0023512000000008,-0.0014131999999998,0,sub_14
0.0055885999999998,-0.0075547999999986,-0.0019609999999999,-0.0042605999999996,0.0006442000000008,-0.0020515999999998,0,sub_14
0.0047329999999998,-0.0089941999999986,-0.0011779999999999,-0.0049077999999996,-0.000214399999999,-0.0024713999999998,0,sub_14
0.0043053999999997,-0.0104029999999986,-0.0008127999999999,-0.0049097999999996,-0.000428399999999,-0.0022575999999998,0,sub_14
0.0037313999999998,-0.0116951999999986,-0.0006183999999999,-0.0042705999999996,-0.000431399999999,-0.0020393999999998,0,sub_14
0.0042123999999998,-0.0120343999999986,0.0002956,-0.0038467999999996,-0.000435399999999,-0.0013955999999998,0,sub_14
0.0044625999999998,-0.0124229999999986,0.000437,-0.0034229999999996,-1.9399999999110104e-05,-0.0005301999999998,0,sub_14
0.0049891999999998,-0.0124017999999986,0.0005836,-0.0036373999999996,0.0004004000000008,-9.6599999999818e-05,0,sub_14
0.0053421999999998,-0.0123237999999986,-0.0001883999999999,-0.0027857999999996,0.0006036000000008,0.0003448000000001,0,sub_14
0.0055341999999998,-0.0116717999999986,-0.0001081999999999,-0.0015093999999996,0.0005912000000008,0.0010030000000001,0,sub_14
0.0053693999999998,-0.0113613999999987,-0.0005709999999999,-0.0004453999999996,0.0005804000000008,0.0014462000000001,0,sub_14
0.0052977999999998,-0.0106513999999987,-0.0004347999999999,0.0001870000000003,-0.0002775999999991,0.0023062000000001,0,sub_14
0.0045455999999998,-0.0097157999999987,-0.0003025999999999,0.0008194000000003,-0.0011353999999991,0.0031664000000001,0,sub_14
0.0037927999999998,-0.0088211999999987,-2.9799999999920863e-05,0.0003898000000003,-0.0015609999999991,0.0033776000000001,0,sub_14
0.0032097999999998,-0.0086893999999987,-1.4399999999920856e-05,-0.0006809999999996,-0.002197199999999,0.0035844000000001,0,sub_14
0.0034317999999998,-0.0088935999999987,-0.0002509999999999,-0.0017627999999996,-0.002627999999999,0.0040084000000001,0,sub_14
0.0033423999999998,-0.0096149999999987,-0.0006075999999999,-0.0024101999999996,-0.002204599999999,0.0035798000000001,0,sub_14
0.0034807999999998,-0.0098021999999987,-0.0004019999999999,-0.0022077999999996,-0.002424199999999,0.0033714000000001,0,sub_14
0.0034329999999998,-0.0105007999999987,-0.0002689999999999,-0.0020093999999996,-0.002859399999999,0.0038044000000001,0,sub_14
0.0039529999999998,-0.0106033999999987,-0.0007431999999999,-0.0018089999999996,-0.0028685999999991,0.0042370000000001,0,sub_14
0.0034207999999998,-0.0105447999999987,-0.0002199999999999,-0.0018089999999996,-0.003080799999999,0.0040236000000001,0,sub_14
0.0035639999999998,-0.0098773999999987,-0.0002187999999999,-0.0013869999999996,-0.003510999999999,0.0046680000000001,0,sub_14
0.0040741999999998,-0.0102573999999987,-0.0006235999999999,-0.0009695999999996,-0.003304199999999,0.0048868000000001,0,sub_14
0.0045547999999998,-0.0104851999999987,-0.0006807999999999,-0.0003405999999996,-0.003523999999999,0.0051076000000001,0,sub_14
0.0049639999999998,-0.0107921999999987,-0.0002385999999999,0.0005026000000003,-0.003319399999999,0.0055430000000001,0,sub_14
0.0052509999999998,-0.0108297999999987,-0.0003179999999999,0.0007018000000003,-0.003328199999999,0.0066150000000001,0,sub_14
0.0053783999999998,-0.0105863999999987,-6.979999999992084e-05,0.0004792000000003,-0.003118999999999,0.0068294000000001,0,sub_14
0.0046951999999998,-0.0102505999999986,0.0002896,0.0002658000000003,-0.003118199999999,0.0068280000000001,0,sub_14
0.0044557999999998,-0.0095493999999987,0.0003962,0.0002706000000003,-0.002477399999999,0.0063998000000001,0,sub_14
0.0036509999999998,-0.0093215999999987,-2.339999999992088e-05,5.920000000032701e-05,-0.002474999999999,0.0059710000000001,0,sub_14
0.0038205999999998,-0.0091947999999987,-0.0002675999999999,0.0011222000000003,-0.002058599999999,0.0053434000000001,0,sub_14
0.0040401999999998,-0.0096861999999987,-0.0005769999999999,0.0026100000000003,-0.0018575999999991,0.0049326000000001,0,sub_14
0.0049791999999998,-0.0096055999999987,-0.0007241999999999,0.0036682000000003,-0.0016575999999991,0.0051598000000001,0,sub_14
0.0053035999999998,-0.0095545999999987,-0.0005707999999999,0.0038698000000003,-0.0023059999999991,0.0051684000000001,0,sub_14
0.0057581999999998,-0.0092983999999987,-6.199999999992092e-05,0.0038582000000003,-0.0025291999999991,0.0056022000000001,0,sub_14
0.0061169999999998,-0.0089807999999987,0.00077,0.0030066000000003,-0.0025243999999991,0.0051690000000001,0,sub_14
0.0061479999999998,-0.0088941999999987,0.0012678,0.0015178000000003,-0.0020903999999991,0.0045172000000001,0,sub_14
0.0055089999999998,-0.0094091999999987,0.001801,0.0004538000000003,-0.0018719999999991,0.0040822000000001,0,sub_14
0.0047777999999998,-0.0086901999999987,0.0019192,0.0019484000000003,-0.001027599999999,0.0047326000000001,0,sub_14
0.0043211999999998,-0.0096055999999987,0.001091,0.0032370000000003,-0.000607799999999,0.0036794000000001,0,sub_14
0.0034073999999998,-0.0102471999999986,-0.0006429999999999,0.0043114000000003,0.0004484000000009,0.0034784000000001,0,sub_14
0.0029091999999998,-0.0102861999999986,-0.0009263999999999,0.0051694000000003,0.0008662000000009,0.0032766000000001,0,sub_14
0.0030351999999998,-0.0095013999999987,-0.0007851999999999,0.0056046000000003,0.0012890000000009,0.0022172000000001,0,sub_14
0.0032905999999997,-0.0103787999999987,-0.0009725999999999,0.0047682000000003,0.0023604000000008,-0.0001335999999998,0,sub_14
0.0038721999999998,-0.0096371999999987,-0.0008401999999999,0.0034948000000003,0.0032196000000008,-0.0007845999999998,0,sub_14
0.0044313999999998,-0.0095673999999987,0.0003792,0.0020002000000003,0.0023752000000008,-0.0014349999999998,0,sub_14
0.0048931999999998,-0.0096831999999987,0.0006306,0.0005038000000003,0.0017412000000008,-0.0014445999999998,0,sub_14
0.0050073999999998,-0.0101515999999987,-0.0006067999999999,-0.0001367999999996,0.0015258000000008,-0.0008087999999998,0,sub_14
0.0053397999999998,-0.0105517999999987,-0.0006199999999999,-0.0012115999999996,0.0006686000000009,0.0008928000000001,0,sub_14
