userAcceleration.x,userAcceleration.y,userAcceleration.z,rotationRate.x,rotationRate.y,rotationRate.z,label,subject
0.0063149999999997,0.0052222000000012,-0.0114669999999999,-0.0033037999999995,0.0098396000000009,-0.0055637999999998,0,sub_23
0.0061335999999997,0.0048606000000012,-0.0118765999999999,-0.0045605999999995,0.0128316000000009,-0.0068629999999998,0,sub_23
0.0055771999999997,0.0047298000000012,-0.0117383999999999,-0.0060425999999995,0.0151814000000009,-0.0070899999999998,0,sub_23
0.0054445999999997,0.0047872000000012,-0.0112411999999999,-0.0071105999999995,0.0164576000000009,-0.0056035999999998,0,sub_23
0.0049373999999997,0.0041380000000012,-0.0111095999999999,-0.0084031999999995,0.0160266000000009,-0.0032619999999998,0,sub_23
0.0044415999999997,0.0041136000000012,-0.0102955999999999,-0.0088491999999995,0.0138852000000009,-0.0002757999999999,0,sub_23
0.0038995999999997,0.0042326000000012,-0.0093305999999999,-0.0095231999999995,0.0091854000000009,0.003353,0,sub_23
0.0032663999999997,0.0044458000000012,-0.0092243999999999,-0.0095561999999995,0.0040598000000009,0.0063458,0,sub_23
0.0034931999999997,0.0046878000000012,-0.0094087999999998,-0.0087257999999995,-0.000211599999999,0.0080616,0,sub_23
0.0033281999999997,0.0051224000000012,-0.0100177999999998,-0.0072449999999995,-0.003414599999999,0.0084988,0,sub_23
0.0029159999999997,0.0046850000000012,-0.0104671999999998,-0.0057629999999995,-0.005339799999999,0.0091526,0,sub_23
0.0025747999999997,0.0047880000000012,-0.0104069999999998,-0.0038483999999995,-0.006200399999999,0.0095942,0,sub_23
0.0025971999999997,0.0048036000000012,-0.0109271999999998,-0.0021461999999995,-0.006847399999999,0.0100342,0,sub_23
0.0026269999999997,0.0044542000000011,-0.0114117999999999,-0.0015089999999995,-0.007917599999999,0.0104622,0,sub_23
0.0029927999999997,0.0044246000000011,-0.0116297999999999,-0.0010811999999995,-0.008559399999999,0.0104608,0,sub_23
0.0031609999999997,0.0045468000000011,-0.0118025999999999,-0.0002257999999995,-0.009201799999999,0.0102486,0,sub_23
0.0036119999999997,0.0043096000000011,-0.0119491999999999,0.0002020000000004,-0.009631199999999,0.0104606,0,sub_23
0.0043343999999997,0.0038460000000011,-0.0115739999999999,0.0004154000000004,-0.010060599999999,0.0108848,0,sub_23
0.0055233999999997,0.0038926000000012,-0.0111005999999999,0.0008374000000004,-0.010914999999999,0.0111026,0,sub_23
0.0060285999999997,0.0035498000000012,-0.0106251999999999,0.0008250000000004,-0.013259999999999,0.011533,0,sub_23
0.0070759999999997,0.0037294000000012,-0.0103451999999999,0.0003840000000004,-0.016665999999999,0.011321,0,sub_23
0.0072531999999997,0.0041634000000012,-0.0103995999999999,0.0007978000000004,-0.021139399999999,0.0104706,0,sub_23
0.0070453999999997,0.0038956000000012,-0.0102243999999999,0.0007926000000003,-0.024543399999999,0.008975,0,sub_23
0.0060511999999997,0.0038670000000012,-0.0106839999999999,0.0010084000000003,-0.026455999999999,0.0072652,0,sub_23
0.0062595999999997,0.0041504000000011,-0.0109443999999999,0.0014490000000003,-0.026449399999999,0.0049136,0,sub_23
0.0055113999999997,0.0042442000000011,-0.0112817999999999,0.0018924000000003,-0.025167199999999,0.0032012,0,sub_23
0.0051209999999997,0.0037786000000011,-0.0108569999999999,0.0016972000000003,-0.023240199999999,0.001061,0,sub_23
0.0048607999999997,0.0040276000000012,-0.0114313999999998,0.0017174000000004,-0.021312399999999,-0.0015049999999999,0,sub_23
0.0048009999999997,0.0039160000000011,-0.0110683999999998,0.0019520000000004,-0.019384399999999,-0.0042831999999999,0,sub_23
0.0043649999999997,0.0039468000000012,-0.0112041999999998,0.0021892000000004,-0.017034799999999,-0.0064257999999999,0,sub_23
0.0043949999999997,0.0041662000000012,-0.0118043999999998,0.0026418000000004,-0.013835399999999,-0.0081407999999999,0,sub_23
0.0043171999999997,0.0046992000000011,-0.0121975999999998,0.0028770000000004,-0.010214399999999,-0.0085759999999999,0,sub_23
0.0042739999999997,0.0052746000000011,-0.0117117999999999,0.0026778000000004,-0.007447599999999,-0.0081585999999999,0,sub_23
0.0039037999999997,0.0058858000000012,-0.0113441999999999,0.0024726000000004,-0.004898199999999,-0.0066727999999999,0,sub_23
0.0038251999999997,0.0057574000000012,-0.0113901999999999,0.0020468000000004,-0.003198199999999,-0.0051825999999999,0,sub_23
0.0043033999999997,0.0052510000000012,-0.0104647999999999,0.0016208000000004,-0.002559199999999,-0.0047591999999999,0,sub_23
0.0049723999999997,0.0051198000000012,-0.0107869999999999,0.0016256000000004,-0.002130399999999,-0.0054005999999999,0,sub_23
0.0059023999999997,0.0049776000000012,-0.0107753999999999,0.0016352000000004,-0.001280399999999,-0.0058333999999999,0,sub_23
0.0064759999999997,0.0044990000000012,-0.0111755999999999,0.0014296000000004,-0.001067799999999,-0.0064803999999999,0,sub_23
0.0061341999999997,0.0045340000000012,-0.0109831999999999,0.0014372000000004,-0.000643999999999,-0.0069125999999999,0,sub_23
0.0055257999999997,0.0046008000000012,-0.0121433999999999,0.0005896000000004,-0.000218799999999,-0.0069233999999998,0,sub_23
0.0050553999999997,0.0045514000000012,-0.0124091999999998,-0.0006837999999995,-3.5999999990840667e-06,-0.0073643999999998,0,sub_23
0.0043975999999997,0.0043224000000012,-0.0127605999999998,-0.0006837999999995,-0.000639999999999,-0.0080045999999998,0,sub_23
0.0039259999999997,0.0044392000000012,-0.0128411999999998,-0.0002569999999995,-0.001490399999999,-0.0088549999999998,0,sub_23
0.0036813999999997,0.0043008000000012,-0.0127403999999998,-0.0006815999999995,-0.001911599999999,-0.0097119999999998,0,sub_23
0.0037375999999997,0.0046574000000012,-0.0119831999999998,-3.439999999955991e-05,-0.001914399999999,-0.0103529999999998,0,sub_23
0.0037547999999997,0.0048798000000012,-0.0115123999999998,0.0008270000000004,-0.001068199999999,-0.0103525999999998,0,sub_23
0.0033965999999997,0.0053580000000012,-0.0113803999999998,0.0010512000000004,0.0008438000000009,-0.0099305999999998,0,sub_23
0.0033439999999997,0.0058026000000012,-0.0111147999999999,0.0010582000000004,0.0029654000000009,-0.0084423999999998,0,sub_23
0.0035509999999997,0.0062152000000012,-0.0110313999999999,0.0006296000000004,0.0042322000000009,-0.0058877999999998,0,sub_23
0.0035959999999997,0.0057718000000012,-0.0108459999999999,-0.0004517999999995,0.0042232000000009,-0.0026907999999999,0,sub_23
0.0038557999999997,0.0053662000000012,-0.0108589999999999,-0.0017521999999995,0.0031488000000009,0.0007198,0,sub_23
0.0047291999999997,0.0049556000000012,-0.0109355999999999,-0.0024113999999995,0.0016488000000009,0.0034944,0,sub_23
0.0063295999999997,0.0045464000000011,-0.0115281999999998,-0.0032689999999995,0.0005818000000009,0.0043388,0,sub_23
0.0072625999999997,0.0042240000000011,-0.0110295999999998,-0.0026211999999995,-5.579999999908401e-05,0.0030568,0,sub_23
0.0079391999999997,0.0042818000000012,-0.0105331999999998,-0.0015399999999995,-0.000476399999999,0.0004958,0,sub_23
0.0079877999999997,0.0042686000000011,-0.0101795999999998,-0.0004589999999996,-0.000896999999999,-0.0020651999999998,0,sub_23
0.0072729999999997,0.0043570000000012,-0.0097295999999998,-0.0004505999999996,-0.001743599999999,-0.0037785999999998,0,sub_23
0.0055683999999997,0.0050508000000012,-0.0099221999999999,-0.0006715999999996,-0.003234799999999,-0.0035645999999998,0,sub_23
0.0044853999999997,0.0057648000000012,-0.0109569999999999,-0.0006851999999996,-0.004307599999999,-0.0016405999999998,0,sub_23
0.0034205999999997,0.0062980000000012,-0.0117463999999999,-0.0013397999999996,-0.004530599999999,0.0013460000000001,0,sub_23
0.0026291999999997,0.0061340000000012,-0.0120539999999999,-0.0015599999999995,-0.004754599999999,0.0036884,0,sub_23
0.0021917999999997,0.0058346000000011,-0.0121645999999999,-0.0013459999999995,-0.004336599999999,0.0049648,0,sub_23
0.0023907999999997,0.0051320000000011,-0.0114435999999999,-0.0011241999999995,-0.003487399999999,0.004959,0,sub_23
0.0032031999999997,0.0043786000000012,-0.0114795999999999,-0.0009013999999995,-0.003061599999999,0.0043128,0,sub_23
0.0038741999999997,0.0039292000000012,-0.0115799999999999,0.0001816000000004,-0.002208199999999,0.002604,0,sub_23
0.0048277999999997,0.0038490000000012,-0.0113627999999999,0.0008322000000004,-0.001139999999999,0.0013252,0,sub_23
0.0061343999999997,0.0039838000000012,-0.0118137999999998,0.0010534000000004,-0.000497199999999,0.0002578000000001,0,sub_23
0.0069593999999997,0.0038314000000012,-0.0121901999999998,0.0019164000000004,0.0007818000000009,-0.0005923999999998,0,sub_23
0.0066607999999997,0.0039220000000012,-0.0114321999999998,0.0023576000000004,0.0020632000000009,-0.0016617999999998,0,sub_23
0.0066441999999997,0.0040804000000012,-0.0111431999999998,0.0025758000000004,0.0020636000000009,-0.0018765999999998,0,sub_23
0.0066655999999997,0.0043014000000012,-0.0114773999999998,0.0023664000000004,0.0018526000000009,-0.0020939999999998,0,sub_23
0.0057955999999997,0.0044854000000012,-0.0105317999999999,0.0027950000000004,0.0016376000000009,-0.0018797999999998,0,sub_23
0.0053337999999997,0.0045696000000012,-0.0100257999999998,0.0027932000000004,0.0007840000000009,-0.0014539999999998,0,sub_23
0.0054573999999997,0.0042112000000012,-0.0100863999999998,0.0023628000000004,0.0003580000000009,-0.0010291999999999,0,sub_23
0.0060121999999997,0.0040184000000012,-0.0102637999999998,0.0019372000000004,0.0001484000000009,-0.0014591999999999,0,sub_23
0.0060123999999997,0.0041234000000011,-0.0104297999999998,0.0015134000000004,0.0001528000000009,-0.0021029999999999,0,sub_23
0.0056667999999997,0.0045244000000011,-0.0110601999999998,0.0013020000000004,0.0001556000000009,-0.0025315999999999,0,sub_23
0.0049935999999997,0.0049642000000011,-0.0109631999999999,0.0015140000000004,-0.000909199999999,-0.0023205999999999,0,sub_23
0.0041505999999997,0.0053980000000011,-0.0107775999999999,0.0012962000000004,-0.001975399999999,-0.0014717999999999,0,sub_23
0.0029395999999997,0.0057686000000012,-0.0101777999999999,0.0010774000000004,-0.002405799999999,0.0002308,0,sub_23
0.0024507999999997,0.0056180000000012,-0.0099287999999999,0.0012920000000004,-0.0019829999999991,0.0012944,0,sub_23
0.0028717999999997,0.0049800000000012,-0.0106989999999999,0.0017250000000004,-0.0011323999999991,0.0017178,0,sub_23
0.0034933999999997,0.0046492000000012,-0.0118343999999999,0.0008792000000004,0.0001506000000008,0.0012828,0,sub_23
0.0036031999999997,0.0045434000000012,-0.0117877999999999,0.0010964000000004,0.0001532000000008,0.0004298,0,sub_23
0.0037969999999997,0.0040608000000012,-0.0116387999999999,0.0011034000000004,0.0003708000000008,-0.0002147999999999,0,sub_23
0.0038007999999997,0.0044730000000012,-0.0117179999999999,0.0008904000000004,0.0001588000000009,0.0002078,0,sub_23
0.0040987999999997,0.0050950000000012,-0.0108907999999999,0.0004686000000004,0.0003762000000009,-1.2399999999936767e-05,0,sub_23
0.0044719999999997,0.0049534000000012,-0.0097359999999999,0.0009032000000004,0.0012298000000009,-0.0002273999999999,0,sub_23
0.0048867999999997,0.0048856000000012,-0.0100699999999998,0.0007026000000004,0.0031512000000009,-0.0004481999999999,0,sub_23
0.0049693999999997,0.0057400000000012,-0.0106743999999998,0.0002854000000004,0.0046468000000009,-0.0010939999999999,0,sub_23
0.0049859999999997,0.0060772000000012,-0.0109521999999998,0.0009264000000004,0.0048578000000009,-0.0010897999999999,0,sub_23
0.0041983999999997,0.0059422000000012,-0.0106783999999998,0.0007072000000004,0.0046414000000009,-2.279999999991681e-05,0,sub_23
0.0039749999999997,0.0059172000000012,-0.0107249999999998,0.0004904000000004,0.0042150000000009,0.0010412,0,sub_23
0.0038793999999997,0.0064138000000012,-0.0108519999999998,0.0009118000000004,0.0033602000000009,0.0021102,0,sub_23
0.0043801999999997,0.0060064000000012,-0.0107911999999999,0.0015438000000004,0.0018656000000009,0.0031816,0,sub_23
0.0044061999999997,0.0058604000000012,-0.0105645999999999,0.0017566000000004,0.0010158000000009,0.003181,0,sub_23
0.0052077999999997,0.0054086000000012,-0.0103085999999999,0.0026126000000004,0.0003786000000009,0.0027574,0,sub_23
0.0052561999999997,0.0055246000000012,-0.0104733999999999,0.0034680000000004,0.0008018000000009,0.0027628,0,sub_23
0.0052579999999997,0.0054818000000012,-0.0102635999999999,0.0041090000000004,0.0008006000000009,0.0025536,0,sub_23
0.0044587999999997,0.0052938000000012,-0.0102057999999999,0.0047528000000004,0.0008020000000009,0.0017036,0,sub_23
0.0043651999999997,0.0049974000000012,-0.0100955999999999,0.0045428000000004,0.0010186000000009,0.0019128,0,sub_23
0.0043613999999997,0.0052632000000012,-0.0109575999999999,0.0043298000000004,0.0008084000000009,0.0023362,0,sub_23
0.0044111999999997,0.0049578000000012,-0.0112411999999999,0.0041186000000004,0.0003876000000009,0.002119,0,sub_23
0.0051747999999997,0.0039944000000012,-0.0116531999999999,0.0036980000000004,0.0006074000000008,0.0016858,0,sub_23
0.0065905999999997,0.0031204000000011,-0.0123903999999998,0.0030690000000003,0.0016812000000008,0.0010364,0,sub_23
0.0067687999999997,0.0032090000000011,-0.0125839999999998,0.0024396000000003,0.0023298000000008,-0.0006777999999999,0,sub_23
0.0066563999999997,0.0029816000000011,-0.0121337999999998,0.0013806000000003,0.0027650000000008,-0.0019675999999999,0,sub_23
0.0056259999999997,0.0039280000000011,-0.0115771999999998,0.0005236000000004,0.0019160000000008,-0.0019723999999999,0,sub_23
0.0049143999999997,0.0043374000000011,-0.0114219999999998,-0.0007613999999995,0.0008566000000009,-0.0013411999999999,0,sub_23
0.0043987999999997,0.0050748000000012,-0.0106805999999998,-0.0022577999999995,0.0004360000000009,-0.0004985999999999,0,sub_23
0.0046113999999997,0.0053432000000012,-0.0110371999999998,-0.0026777999999995,0.0017178000000009,-7.819999999993648e-05,0,sub_23
0.0049703999999997,0.0051938000000012,-0.0112905999999998,-0.0022423999999995,0.0027862000000009,-0.0002923999999999,0,sub_23
0.0054667999999997,0.0046436000000012,-0.0115727999999998,-0.0024385999999995,0.0045012000000009,-0.0017935999999999,0,sub_23
0.0050141999999997,0.0045098000000012,-0.0117291999999998,-0.0019981999999995,0.0062094000000008,-0.0030743999999998,0,sub_23
0.0057125999999997,0.0045894000000012,-0.0122349999999998,-0.0017665999999995,0.0085592000000008,-0.0047849999999998,0,sub_23
0.0065045999999997,0.0040558000000012,-0.0121851999999998,-0.0021663999999995,0.0119800000000008,-0.0073557999999998,0,sub_23
0.0088613999999997,0.0047952000000012,-0.0123359999999998,-0.0033993999999995,0.0183942000000008,-0.0110059999999998,0,sub_23
0.0136599999999997,0.0060366000000012,-0.0134261999999998,-0.0050197999999995,0.0288774000000008,-0.0193641999999999,0,sub_23
0.0176065999999997,0.0085526000000012,-0.0154313999999998,-0.0100169999999995,0.0423766000000008,-0.0330909999999999,0,sub_23
0.0116937999999997,0.0109426000000012,-0.0163385999999999,-0.0170133999999995,0.0466874000000009,-0.0384881999999999,0,sub_23
0.0079473999999997,0.0123644000000011,-0.0148051999999999,-0.0226209999999995,0.0436848000000009,-0.0278433999999999,0,sub_23
0.0021587999999997,0.0133518000000011,-0.0116733999999999,-0.0252981999999995,0.0357390000000008,-0.0099063999999999,0,sub_23
-0.0041570000000002,0.0095478000000011,-0.0082661999999999,-0.0275879999999995,0.0241484000000008,0.013165,0,sub_23
-0.0080924000000002,0.0049800000000012,-0.0040891999999999,-0.0260685999999995,0.0084844000000008,0.0392594,0,sub_23
-0.0033346000000002,0.0006900000000012,-0.0016463999999999,-0.0208543999999995,-0.0020391999999991,0.0555458,0,sub_23
0.0008205999999997,-0.0013577999999987,-0.0045261999999999,-0.0155473999999995,-0.008659999999999,0.0555898,0,sub_23
0.0046481999999997,-0.0032289999999987,-0.0092677999999999,-0.0136071999999995,-0.012256199999999,0.048129,0,sub_23
0.0079671999999997,-0.0007515999999987,-0.0137799999999998,-0.0129375999999995,-0.014353799999999,0.0400166,0,sub_23
0.0083035999999997,0.0026060000000012,-0.0162697999999998,-0.0122679999999995,-0.014117199999999,0.0342512,0,sub_23
0.0071263999999997,0.0050586000000011,-0.0169179999999998,-0.0116071999999995,-0.011341999999999,0.032969,0,sub_23
0.0043919999999997,0.0062088000000012,-0.0146293999999998,-0.0130853999999995,-0.006866999999999,0.0340212,0,sub_23
0.0027361999999997,0.0073324000000012,-0.0117181999999998,-0.0135093999999995,-0.003892399999999,0.0363642,0,sub_23
0.0008541999999997,0.0079548000000012,-0.0083637999999998,-0.0103211999999995,-0.002853199999999,0.0404428,0,sub_23
0.0015187999999997,0.0079982000000012,-0.0064105999999998,-0.0067091999999995,-0.002666799999999,0.0443118,0,sub_23
0.0032941999999997,0.0064800000000012,-0.0066847999999999,-0.0047897999999995,-0.002248999999999,0.0451778,0,sub_23
0.0049291999999997,0.0038166000000012,-0.0072193999999999,-0.0030795999999995,-0.003100399999999,0.0439076,0,sub_23
0.0072847999999997,0.0004940000000012,-0.0086121999999999,-0.0017701999999995,-0.002229399999999,0.0385736,0,sub_23
0.0087625999999997,0.0005454000000012,-0.0111029999999999,0.0008386000000004,-0.000921799999999,0.0291902,0,sub_23
0.0086353999999997,-0.0004911999999987,-0.0133465999999999,0.0034332000000004,-0.001961199999999,0.0206644,0,sub_23
0.0080729999999997,-0.0005147999999987,-0.0134159999999999,0.0051630000000004,-0.004493599999999,0.0132026,0,sub_23
0.0057851999999997,0.0004630000000012,-0.0115031999999999,0.0062426000000004,-0.007878999999999,0.0072314,0,sub_23
0.0021795999999997,0.0027806000000012,-0.0089043999999999,0.0072972000000003,-0.012135599999999,0.005961,0,sub_23
0.0001791999999997,0.0015112000000012,-0.0062121999999999,0.0040804000000003,-0.015107799999999,0.0067956,0,sub_23
0.0021753999999997,0.0010756000000012,-0.0076719999999998,-0.0016651999999996,-0.014859799999999,0.0037628,0,sub_23
0.0049471999999997,0.0027342000000012,-0.0105315999999998,-0.0052597999999996,-0.013118399999999,-0.0016069999999999,0,sub_23
0.0092359999999997,0.0044776000000012,-0.0140311999999998,-0.0065033999999996,-0.009261599999999,-0.0058933999999999,0,sub_23
0.0120067999999997,0.0053570000000012,-0.0164277999999998,-0.0090127999999995,-0.002628799999999,-0.0106191999999999,0,sub_23
0.0126419999999997,0.0080568000000012,-0.0180577999999998,-0.0111099999999995,0.0042020000000009,-0.0119241999999999,0,sub_23
0.0097289999999997,0.0097450000000012,-0.0147547999999999,-0.0108845999999995,0.0105794000000009,-0.0080857999999999,0,sub_23
0.0063273999999997,0.0105630000000012,-0.0104911999999999,-0.0104567999999995,0.0163100000000009,-0.0025359999999999,0,sub_23
0.0030613999999997,0.0108686000000012,-0.0076965999999999,-0.0094005999999995,0.0190572000000009,0.0025944,0,sub_23
0.0012265999999997,0.0104126000000012,-0.0059549999999999,-0.0058077999999995,0.0173178000000009,0.0086026,0,sub_23
0.0007311999999997,0.0072632000000012,-0.0048205999999999,-0.0024263999999995,0.0136710000000008,0.0122618,0,sub_23
0.0013975999999997,0.0046442000000012,-0.0059427999999999,-0.0007475999999995,0.0076988000000008,0.0124946,0,sub_23
0.0025115999999997,0.0012332000000012,-0.0078159999999999,-0.0003409999999995,0.0015256000000008,0.0107962,0,sub_23
0.0045303999999997,-0.0015785999999987,-0.0100735999999999,-0.0024721999999995,-0.0031335999999991,0.0056602,0,sub_23
0.0062469999999997,-0.0023165999999987,-0.0125883999999999,-0.0060791999999995,-0.006713999999999,-0.0018379999999999,0,sub_23
0.0070589999999997,-0.0010805999999987,-0.0140919999999999,-0.0086221999999995,-0.011149399999999,-0.0095413999999998,0,sub_23
0.0068743999999997,0.0017400000000012,-0.0133817999999999,-0.0096671999999995,-0.013039399999999,-0.0157421999999998,0,sub_23
0.0064233999999997,0.0052632000000012,-0.0127457999999999,-0.0094321999999995,-0.012175199999999,-0.0191605999999998,0,sub_23
0.0054999999999997,0.0091952000000012,-0.0112289999999999,-0.0068449999999996,-0.006645799999999,-0.0191503999999998,0,sub_23
0.0048835999999997,0.0116726000000012,-0.0107107999999999,-0.0040519999999995,0.0012140000000009,-0.0157231999999998,0,sub_23
0.0038415999999997,0.0122588000000012,-0.0097311999999999,-0.0002007999999995,0.0092744000000009,-0.0101523999999998,0,sub_23
0.0035779999999997,0.0111012000000011,-0.0097617999999999,0.0032152000000004,0.0160554000000009,-0.0039419999999998,0,sub_23
0.0035411999999997,0.0086510000000012,-0.0104259999999999,0.0057730000000004,0.0200710000000009,0.0014096000000001,0,sub_23
0.0031847999999997,0.0068002000000012,-0.0115363999999999,0.0076776000000004,0.0198330000000009,0.0054804000000001,0,sub_23
0.0027629999999997,0.0044978000000012,-0.0119081999999999,0.0095796000000004,0.0168336000000009,0.0074184,0,sub_23
0.0029935999999997,0.0032740000000012,-0.0119345999999999,0.0106330000000004,0.0132050000000009,0.0076422,0,sub_23
0.0024157999999997,0.0024384000000012,-0.0114425999999999,0.0112626000000004,0.0091558000000009,0.0067952,0,sub_23
0.0019679999999997,0.0027188000000011,-0.0106689999999999,0.0112484000000004,0.0053232000000009,0.006159,0,sub_23
0.0030835999999997,0.0022534000000011,-0.0103843999999998,0.0110274000000004,0.0027706000000008,0.005306,0,sub_23
0.0045495999999997,0.0026600000000011,-0.0099079999999998,0.0108170000000004,0.0017130000000008,0.0035968,0,sub_23
0.0064699999999997,0.0028004000000011,-0.0111579999999998,0.0097660000000004,0.0017242000000008,0.001231,0,sub_23
0.0086495999999997,0.0030130000000011,-0.0120049999999998,0.0087178000000004,0.0019504000000008,-0.0015621999999998,0,sub_23
0.0104659999999997,0.0031914000000012,-0.0119065999999998,0.0074610000000004,0.0028184000000008,-0.0047847999999998,0,sub_23
0.0112229999999997,0.0036514000000012,-0.0109007999999999,0.0049270000000004,0.0043300000000008,-0.0080171999999998,0,sub_23
0.0108203999999997,0.0041344000000012,-0.0105963999999999,0.0025976000000004,0.0054090000000008,-0.0097521999999998,0,sub_23
0.0094225999999997,0.0047544000000012,-0.0096937999999999,0.0004696000000004,0.0062710000000008,-0.0101951999999998,0,sub_23
0.0075217999999997,0.0052780000000012,-0.0102727999999999,-0.0018783999999995,0.0071278000000008,-0.0091441999999999,0,sub_23
0.0054351999999997,0.0052442000000012,-0.0108481999999999,-0.0038121999999995,0.0064864000000008,-0.0068067999999999,0,sub_23
0.0024639999999997,0.0047798000000012,-0.0114275999999999,-0.0044819999999995,0.0034916000000009,-0.0031757999999999,0,sub_23
0.0009037999999997,0.0037492000000012,-0.0113927999999999,-0.0055755999999995,-0.000143799999999,0.0006554,0,sub_23
0.0002769999999997,0.0036700000000012,-0.0117569999999999,-0.0064489999999995,-0.003349599999999,0.0034192,0,sub_23
0.0002255999999997,0.0036840000000012,-0.0117533999999998,-0.0066727999999995,-0.005700399999999,0.0049046,0,sub_23
0.0001633999999997,0.0044046000000012,-0.0123485999999998,-0.0053893999999995,-0.006134799999999,0.00533,0,sub_23
0.0011919999999997,0.0046250000000011,-0.0122001999999998,-0.0038813999999995,-0.005074199999999,0.0046868,0,sub_23
0.0019091999999997,0.0051168000000011,-0.0118795999999998,-0.0017359999999995,-0.004222799999999,0.0029914,0,sub_23
0.0020817999999997,0.0049966000000011,-0.0109681999999998,0.0004082000000004,-0.003372199999999,0.0015098,0,sub_23
0.0022823999999997,0.0047476000000012,-0.0099191999999999,0.0027650000000004,-0.003591799999999,0.0004478,0,sub_23
0.0033967999999997,0.0042342000000012,-0.0088889999999999,0.0042616000000004,-0.004875399999999,-0.0001915999999999,0,sub_23
0.0038037999999997,0.0043514000000012,-0.0092327999999999,0.0057488000000004,-0.007864999999999,-0.0004013999999999,0,sub_23
0.0047827999999997,0.0040710000000012,-0.0098321999999999,0.0061690000000004,-0.010850799999999,-0.0006185999999999,0,sub_23
0.0065341999999997,0.0036536000000012,-0.0107573999999999,0.0061598000000004,-0.014686399999999,-0.0010513999999999,0,sub_23
0.0080331999999997,0.0040224000000012,-0.0111795999999999,0.0059342000000004,-0.018940599999999,-0.0025427999999999,0,sub_23
0.0094261999999997,0.0041534000000012,-0.0110795999999998,0.0059304000000004,-0.021914199999999,-0.0046751999999999,0,sub_23
0.0105493999999997,0.0047874000000012,-0.0107619999999998,0.0050912000000004,-0.021897799999999,-0.0078853999999999,0,sub_23
0.0109825999999997,0.0055822000000012,-0.0107277999999998,0.0049076000000004,-0.019545999999999,-0.0104659999999999,0,sub_23
0.0108395999999997,0.0062918000000012,-0.0106015999999998,0.0051536000000004,-0.016132199999999,-0.0126175999999999,0,sub_23
0.0089237999999997,0.0062294000000012,-0.0105905999999998,0.0045394000000004,-0.012084799999999,-0.0126397999999999,0,sub_23
