userAcceleration.x,userAcceleration.y,userAcceleration.z,rotationRate.x,rotationRate.y,rotationRate.z,label,subject
-0.0131244000000001,0.0227142000000011,-0.0093485999999998,0.0013004000000004,0.0007014000000008,-8.639999999991702e-05,0,sub_22
-0.0133096000000002,0.0224220000000012,-0.0089789999999999,0.0021504000000004,-0.0001609999999991,0.0007834,0,sub_22
-0.0135754000000002,0.0217902000000012,-0.0089439999999999,0.0027860000000004,-0.001023599999999,0.0018652,0,sub_22
-0.0130398000000002,0.0216112000000012,-0.0089055999999998,0.0027834000000004,-0.001669999999999,0.0027286,0,sub_22
-0.0121388000000002,0.0210298000000012,-0.0087573999999999,0.0023570000000003,-0.002099999999999,0.0031614,0,sub_22
-0.0118222000000002,0.0208124000000012,-0.0079761999999999,0.0015076000000004,-0.002100999999999,0.0031634,0,sub_22
-0.0118464000000002,0.0203934000000012,-0.0077897999999999,0.0010828000000004,-0.002097799999999,0.002733,0,sub_22
-0.0109172000000002,0.0200642000000011,-0.0074759999999998,0.0013000000000004,-0.002094999999999,0.00188,0,sub_22
-0.0111342000000002,0.0201518000000011,-0.0077177999999999,0.0008852000000004,-0.0018833999999991,0.0008162,0,sub_22
-0.0114312000000002,0.0200248000000011,-0.0075567999999999,0.0004686000000004,-0.0014615999999991,0.000393,0,sub_22
-0.0117678000000002,0.0194416000000012,-0.0080147999999999,0.0006958000000004,-0.0001895999999991,-2.679999999991706e-05,0,sub_22
-0.0115674000000002,0.0194444000000012,-0.0083759999999998,0.0009202000000004,0.0004432000000008,-0.0004457999999998,0,sub_22
-0.0121550000000002,0.0200394000000012,-0.0088855999999998,0.0002882000000004,0.0008642000000008,-0.0004431999999998,0,sub_22
-0.0124540000000002,0.0199456000000012,-0.0087503999999998,0.0005006000000004,0.0006504000000008,-0.0004413999999998,0,sub_22
-0.0128648000000001,0.0201528000000012,-0.0091451999999998,0.0007158000000004,0.0010758000000008,-0.0004403999999998,0,sub_22
-0.0128054000000002,0.0206080000000012,-0.0097375999999998,0.0005006000000004,0.0008626000000008,-0.0002279999999999,0,sub_22
-0.0129550000000001,0.0205560000000012,-0.0099803999999999,7.920000000042128e-05,0.0010646000000008,-7.599999999937106e-06,0,sub_22
-0.0132358000000001,0.0206808000000012,-0.0099969999999999,8.460000000042128e-05,0.0010530000000008,2.200000000062894e-06,0,sub_22
-0.0127804000000002,0.0210948000000012,-0.0100217999999999,-0.0003337999999995,0.0018942000000008,0.0002216,0,sub_22
-0.0124968000000002,0.0209482000000012,-0.0096363999999999,-0.0005427999999995,0.0016704000000008,0.0002302,0,sub_22
-0.0125328000000002,0.0210480000000012,-0.0091523999999999,-0.0005411999999995,0.0012310000000008,0.000668,0,sub_22
-0.0130370000000002,0.0212166000000012,-0.0088131999999999,-0.0005431999999995,0.0010172000000008,0.0008818,0,sub_22
-0.0130980000000002,0.0209108000000012,-0.0083825999999999,-0.0003305999999995,0.0008034000000008,0.0008836,0,sub_22
-0.0131624000000002,0.0205560000000012,-0.0083779999999998,0.0003066000000004,0.0001620000000009,0.000889,0,sub_22
-0.0130432000000002,0.0208336000000012,-0.0081913999999998,0.0003108000000004,-6.239999999906073e-05,0.000897,0,sub_22
-0.0129174000000002,0.0204698000000012,-0.0082487999999998,0.0003168000000004,-0.000284999999999,0.0004776,0,sub_22
-0.0120582000000002,0.0200448000000012,-0.0082923999999998,0.0003228000000004,-0.000507799999999,5.840000000008291e-05,0,sub_22
-0.0116618000000002,0.0197072000000012,-0.0085683999999998,0.0001182000000004,-9.059999999908074e-05,-0.0003631999999998,0,sub_22
-0.0112462000000002,0.0196334000000012,-0.0081407999999998,-0.0003015999999995,0.0003256000000008,-0.0003589999999998,0,sub_22
-0.0109564000000002,0.0192506000000011,-0.0082451999999998,-0.0003015999999995,0.0005378000000008,-0.0001455999999998,0,sub_22
-0.0107064000000002,0.0195612000000011,-0.0081497999999998,-8.919999999957872e-05,0.0005362000000008,6.960000000010292e-05,0,sub_22
-0.0110526000000002,0.0202802000000011,-0.0081899999999998,-8.819999999957871e-05,0.0005370000000008,-0.0001441999999998,0,sub_22
-0.0114398000000002,0.0213408000000011,-0.0081739999999999,-0.0003015999999995,0.0005376000000008,-0.0001455999999998,0,sub_22
-0.0125502000000002,0.0219272000000011,-0.0088893999999999,-8.67999999995787e-05,0.0005256000000008,7.440000000010294e-05,0,sub_22
-0.0137576000000002,0.0222910000000011,-0.0087411999999998,0.0001308000000004,0.0009404000000008,8.040000000010292e-05,0,sub_22
-0.0144072000000002,0.0227704000000011,-0.0090111999999999,0.0007722000000004,0.0007146000000009,9.020000000010291e-05,0,sub_22
-0.0143810000000002,0.0220402000000011,-0.0093561999999998,0.0011984000000004,0.0004880000000009,0.0005258000000001,0,sub_22
-0.0141974000000002,0.0211428000000011,-0.0096381999999998,0.0014122000000004,0.0004750000000009,0.0009596,0,sub_22
-0.0129820000000002,0.0200136000000011,-0.0095505999999998,0.0014102000000004,-0.000163399999999,0.0007468,0,sub_22
-0.0117884000000002,0.0196246000000012,-0.0097035999999998,0.0011940000000004,-0.000801799999999,0.0007462,0,sub_22
-0.0112098000000002,0.0187682000000012,-0.0094675999999998,0.0003424000000004,-0.0001619999999991,0.0005248,0,sub_22
-0.0111148000000002,0.0188774000000012,-0.0089485999999999,-0.0002995999999995,4.92000000008992e-05,0.0007328,0,sub_22
-0.0107616000000002,0.0186704000000011,-0.0087973999999999,-0.0005159999999995,0.0002582000000008,0.0011572,0,sub_22
-0.0108208000000002,0.0194754000000012,-0.0086269999999999,-0.0007293999999995,0.0008940000000008,0.0013676,0,sub_22
-0.0109642000000002,0.0196760000000012,-0.0086533999999999,-0.0009467999999995,0.0006776000000009,0.001579,0,sub_22
-0.0110878000000002,0.0198352000000011,-0.0083803999999998,-0.0011601999999995,0.0006782000000009,0.0015774,0,sub_22
-0.0112412000000002,0.0197472000000011,-0.0079477999999998,-0.0007315999999995,0.0011028000000008,0.0015798,0,sub_22
-0.0111548000000002,0.0199314000000012,-0.0077247999999998,-0.0003057999999995,0.0002516000000008,0.0009430000000001,0,sub_22
-0.0115420000000002,0.0196808000000012,-0.0074525999999998,-9.739999999957858e-05,-0.0006033999999991,0.0007310000000001,0,sub_22
-0.0112910000000001,0.0198010000000012,-0.0069681999999998,0.0003272000000004,-0.0008199999999991,0.0005196000000001,0,sub_22
-0.0109078000000001,0.0201222000000012,-0.0076319999999999,0.0007490000000004,-0.0014633999999991,0.0005224000000001,0,sub_22
-0.0110106000000002,0.0209670000000012,-0.0085981999999999,0.0009584000000004,-0.0018931999999991,0.0005234000000001,0,sub_22
-0.0116432000000001,0.0217358000000012,-0.0085883999999999,0.0009534000000004,-0.0018985999999991,0.0011634,0,sub_22
-0.0122696000000001,0.0221612000000012,-0.0085541999999998,0.0011648000000004,-0.0019009999999991,0.0015922,0,sub_22
-0.0132120000000002,0.0226524000000012,-0.0091297999999999,0.0018040000000004,-0.0019039999999991,0.0018104,0,sub_22
-0.0135864000000002,0.0227656000000012,-0.0088339999999999,0.0020144000000004,-0.0023317999999991,0.0020262,0,sub_22
-0.0137012000000002,0.0223552000000011,-0.0085361999999999,0.0022216000000004,-0.0036133999999991,0.0018134,0,sub_22
-0.0134404000000002,0.0216326000000012,-0.0087655999999999,0.0028596000000004,-0.0044687999999991,0.0011756,0,sub_22
-0.0128196000000002,0.0207244000000011,-0.0086569999999999,0.0032832000000004,-0.0051119999999991,0.0009634,0,sub_22
-0.0120076000000002,0.0200094000000011,-0.0081279999999999,0.0028532000000004,-0.0057523999999991,0.0007452,0,sub_22
-0.0116812000000002,0.0197522000000011,-0.0081251999999999,0.0024234000000004,-0.005968199999999,0.0009538,0,sub_22
-0.0111632000000002,0.0193570000000012,-0.0080485999999999,0.0015700000000004,-0.005328599999999,0.001588,0,sub_22
-0.0109466000000002,0.0189308000000012,-0.0078647999999999,0.0007184000000004,-0.004262799999999,0.0022216,0,sub_22
-0.0106260000000002,0.0191616000000012,-0.0081915999999999,-0.0001293999999995,-0.002981599999999,0.002214,0,sub_22
-0.0110720000000002,0.0193740000000012,-0.0085997999999998,-0.0007663999999995,-0.002131999999999,0.0024196,0,sub_22
-0.0116402000000002,0.0198982000000011,-0.0088929999999999,-0.0007643999999995,-0.001709999999999,0.0024166,0,sub_22
-0.0120482000000002,0.0203082000000012,-0.0091313999999999,-0.0005469999999995,-0.001287199999999,0.0019878,0,sub_22
-0.0122854000000002,0.0213192000000011,-0.0094779999999999,-0.0003305999999995,-0.001289599999999,0.001346,0,sub_22
-0.0132830000000002,0.0220468000000011,-0.0096237999999999,-0.0001139999999995,-0.001291799999999,0.0007042,0,sub_22
-0.0136344000000002,0.0224616000000011,-0.0094219999999999,0.0005300000000004,-0.0008661999999991,0.0002808,0,sub_22
-0.0136604000000002,0.0217490000000012,-0.0092781999999999,0.0009588000000004,-0.000653799999999,6.980000000008273e-05,0,sub_22
-0.0139650000000002,0.0211610000000011,-0.0087867999999999,0.0018084000000004,-0.001084599999999,0.0005036,0,sub_22
-0.0139888000000002,0.0207364000000011,-0.0084071999999999,0.0024464000000004,-0.000878799999999,0.0011454,0,sub_22
-0.0131048000000002,0.0195690000000011,-0.0082755999999999,0.0024404000000004,-0.001310999999999,0.0019972,0,sub_22
-0.0119492000000002,0.0188942000000011,-0.0086869999999999,0.0020096000000004,-0.001527799999999,0.0026322,0,sub_22
-0.0111586000000002,0.0186306000000011,-0.0086407999999999,0.0015846000000004,-0.0011027999999991,0.0026254,0,sub_22
-0.0108268000000002,0.0192536000000011,-0.0086757999999999,0.0005224000000004,-0.0004607999999991,0.0021866,0,sub_22
-0.0108570000000002,0.0194168000000012,-0.0082869999999999,-0.0003329999999995,-0.0006717999999991,0.0023946,0,sub_22
-0.0109260000000002,0.0202778000000012,-0.0078543999999999,-0.0003319999999995,-0.0004587999999991,0.0023942,0,sub_22
-0.0113514000000002,0.0208952000000012,-0.0076057999999999,-0.0001193999999995,-0.0008847999999991,0.0021826,0,sub_22
-0.0117460000000002,0.0215796000000012,-0.0073373999999998,-0.0003355999999995,-0.0015231999999991,0.002182,0,sub_22
-0.0120232000000002,0.0211802000000012,-0.0074371999999998,9.160000000042138e-05,-0.0015301999999991,0.0023956,0,sub_22
-0.0119380000000002,0.0209828000000012,-0.0078307999999998,0.0005218000000004,-0.0017469999999991,0.001755,0,sub_22
-0.0117186000000002,0.0209330000000012,-0.0084233999999998,0.0005224000000004,-0.0021769999999991,0.001539,0,sub_22
-0.0116926000000002,0.0202526000000012,-0.0081705999999999,0.0005266000000004,-0.0021791999999991,0.000895,0,sub_22
-0.0117444000000002,0.0199642000000012,-0.0079059999999999,0.0009586000000004,-0.0017577999999991,0.0004672,0,sub_22
-0.0112456000000002,0.0199968000000012,-0.0081875999999999,0.0005358000000004,-0.0017529999999991,-0.0003903999999999,0,sub_22
-0.0114904000000002,0.0199828000000012,-0.0083439999999998,0.0001120000000004,-0.0013245999999991,-0.0006075999999999,0,sub_22
-0.0117266000000002,0.0199628000000012,-0.0084277999999999,-9.879999999957864e-05,-0.0006789999999991,-0.0012561999999999,0,sub_22
-0.0120422000000002,0.0200774000000012,-0.0087593999999999,-0.0003093999999995,0.0001786000000008,-0.0016911999999999,0,sub_22
-0.0123150000000002,0.0202916000000012,-0.0091603999999999,-0.0005239999999995,0.0003964000000008,-0.0019119999999999,0,sub_22
-0.0125976000000002,0.0204082000000012,-0.0092531999999999,-0.0003157999999995,0.0003970000000008,-0.0014883999999999,0,sub_22
-0.0124214000000002,0.0204288000000012,-0.0088667999999999,-0.0001075999999995,0.0001854000000008,-0.0012781999999999,0,sub_22
-0.0126612000000002,0.0207270000000012,-0.0083185999999999,-0.0001113999999995,-3.0199999999120904e-05,-0.0006369999999999,0,sub_22
-0.0121508000000002,0.0209476000000012,-0.0082179999999999,-0.0003295999999995,-0.0006701999999991,-0.0002103999999999,0,sub_22
-0.0117292000000002,0.0208656000000012,-0.0081109999999998,-0.0001209999999995,-0.001099599999999,0.0004326,0,sub_22
-0.0116862000000002,0.0209660000000012,-0.0079011999999998,-0.0001227999999995,-0.001313399999999,0.0006464,0,sub_22
-0.0113400000000002,0.0207746000000011,-0.0080223999999998,-0.0005557999999995,-0.001301999999999,0.0008494,0,sub_22
-0.0110426000000001,0.0205424000000012,-0.0086053999999998,-0.0003457999999995,-0.0010781999999991,0.0006294,0,sub_22
-0.0110010000000002,0.0203944000000012,-0.0084983999999998,-0.0003501999999995,-0.0006421999999991,0.000835,0,sub_22
-0.0113070000000002,0.0204044000000012,-0.0082763999999999,-0.0005659999999995,-0.0002037999999991,0.0006118,0,sub_22
-0.0112226000000002,0.0203120000000012,-0.0086415999999998,-0.0009979999999995,-0.0001915999999991,0.0006014,0,sub_22
-0.0117750000000002,0.0206532000000012,-0.0086423999999999,-0.0005701999999995,-0.0001921999999991,0.0003908,0,sub_22
-0.0117506000000002,0.0206338000000012,-0.0084195999999999,-0.0005683999999995,-0.0001903999999991,-3.639999999991727e-05,0,sub_22
-0.0125876000000001,0.0209220000000012,-0.0084539999999999,-0.0005717999999995,3.400000000089911e-05,-0.0002573999999998,0,sub_22
-0.0129022000000002,0.0210824000000012,-0.0088011999999999,-0.0005751999999995,0.0002584000000008,-0.0004783999999998,0,sub_22
-0.0129412000000002,0.0212160000000012,-0.0082071999999999,6.240000000042132e-05,0.0006936000000008,-0.0006951999999998,0,sub_22
-0.0126952000000002,0.0213368000000012,-0.0082911999999999,0.0004858000000004,0.0011286000000008,-0.0006997999999998,0,sub_22
-0.0128936000000002,0.0209148000000012,-0.0081573999999999,0.0004786000000004,0.0009252000000008,-0.0004929999999998,0,sub_22
-0.0125404000000002,0.0202336000000011,-0.0085211999999998,0.0006910000000004,0.0009236000000008,-0.0002779999999999,0,sub_22
-0.0123998000000002,0.0196264000000011,-0.0082573999999999,0.0004748000000004,0.0007096000000008,0.0001482,0,sub_22
-0.0123378000000002,0.0195064000000011,-0.0083431999999999,0.0004710000000004,0.0002818000000008,0.000576,0,sub_22
-0.0118348000000002,0.0191936000000011,-0.0085153999999998,3.980000000042135e-05,0.0002906000000008,0.000991,0,sub_22
-0.0116908000000002,0.0193036000000011,-0.0086231999999999,-0.0003913999999995,0.0002994000000008,0.001406,0,sub_22
-0.0118362000000002,0.0193760000000011,-0.0082371999999999,-0.0003967999999995,9.360000000089915e-05,0.0018244,0,sub_22
-0.0116374000000002,0.0200782000000012,-0.0084173999999998,-0.0001869999999995,-0.000111199999999,0.0018168,0,sub_22
-0.0113470000000001,0.0203306000000012,-0.0087203999999998,-0.0006171999999995,-0.000525999999999,0.0015914,0,sub_22
-0.0118496000000001,0.0202894000000012,-0.0083649999999998,-0.0004067999999995,-0.000953599999999,0.001807,0,sub_22
-0.0119912000000001,0.0204506000000012,-0.0083107999999998,2.100000000044139e-05,-0.000742199999999,0.0018098,0,sub_22
-0.0118820000000002,0.0204040000000012,-0.0084075999999998,2.30000000004414e-05,-0.000740599999999,0.0013824,0,sub_22
-0.0118106000000001,0.0202446000000012,-0.0085663999999998,0.0002330000000004,-0.0011567999999991,0.0011638,0,sub_22
-0.0117868000000002,0.0196724000000012,-0.0081069999999998,0.0006620000000004,-0.000719799999999,0.0005184,0,sub_22
-0.0116860000000002,0.0195224000000012,-0.0083383999999999,0.0004520000000004,-0.000491999999999,-0.0005583999999999,0,sub_22
-0.0113996000000002,0.0192166000000012,-0.0085193999999999,0.0002410000000004,-0.000264999999999,-0.0014215999999999,0,sub_22
-0.0112878000000002,0.0193712000000012,-0.0088661999999999,3.080000000042142e-05,0.0001752000000009,-0.0022849999999999,0,sub_22
-0.0111080000000002,0.0195456000000012,-0.0090133999999998,-0.0001749999999995,0.0012438000000008,-0.0029285999999999,0,sub_22
-0.0113630000000002,0.0203650000000012,-0.0093555999999998,-0.0008103999999995,0.0020990000000008,-0.0031477999999999,0,sub_22
-0.0111826000000002,0.0207590000000012,-0.0093661999999998,-0.0012333999999995,0.0025284000000008,-0.0035785999999999,0,sub_22
-0.0115578000000001,0.0216154000000012,-0.0094763999999998,-0.0014467999999995,0.0025292000000008,-0.0035801999999999,0,sub_22
-0.0117370000000001,0.0223340000000011,-0.0090881999999998,-0.0012373999999995,0.0021100000000008,-0.0033679999999999,0,sub_22
-0.0122000000000001,0.0221772000000011,-0.0086673999999998,-0.0014545999999995,0.0016922000000008,-0.0031587999999998,0,sub_22
-0.0124478000000001,0.0218678000000011,-0.0080909999999999,-0.0014593999999995,0.0010608000000008,-0.0029475999999998,0,sub_22
-0.0128852000000001,0.0213888000000011,-0.0083601999999999,-0.0012517999999995,0.0004276000000008,-0.0025213999999998,0,sub_22
-0.0120630000000001,0.0207332000000011,-0.0077453999999999,-0.0010413999999995,0.0002216000000008,-0.0023091999999998,0,sub_22
-0.0121200000000001,0.0200990000000012,-0.0081835999999999,-0.0014689999999995,0.0002222000000008,-0.0020983999999998,0,sub_22
-0.0119366000000001,0.0196672000000012,-0.0083671999999999,-0.0012547999999995,0.0004346000000008,-0.0020971999999999,0,sub_22
-0.0116502000000001,0.0192096000000012,-0.0089461999999999,-0.0010385999999995,0.0008668000000008,-0.0020991999999999,0,sub_22
-0.0111400000000002,0.0196440000000012,-0.0087597999999999,-0.0012471999999995,0.0015144000000008,-0.0023179999999999,0,sub_22
-0.0122154000000002,0.0198704000000012,-0.0089365999999999,-0.0014557999999995,0.0019496000000008,-0.0027503999999999,0,sub_22
-0.0122442000000002,0.0195158000000012,-0.0083785999999999,-0.0012385999999995,0.0023826000000008,-0.0029659999999999,0,sub_22
-0.0122172000000002,0.0196502000000012,-0.0082461999999999,-0.0014489999999995,0.0023918000000008,-0.0033975999999999,0,sub_22
-0.0122760000000002,0.0200632000000012,-0.0080343999999999,-0.0014489999999995,0.0019674000000008,-0.0038243999999999,0,sub_22
-0.0125588000000002,0.0202880000000012,-0.0080271999999999,-0.0018737999999995,0.0019706000000008,-0.0042547999999999,0,sub_22
-0.0121388000000002,0.0202526000000012,-0.0080753999999998,-0.0016595999999995,0.0021830000000008,-0.0042535999999999,0,sub_22
-0.0121306000000002,0.0209020000000012,-0.0080643999999998,-0.0014451999999995,0.0023952000000008,-0.0042523999999999,0,sub_22
-0.0121068000000002,0.0211180000000012,-0.0079575999999998,-0.0008077999999995,0.0023942000000008,-0.0036089999999999,0,sub_22
-0.0121840000000002,0.0207312000000012,-0.0083567999999998,-0.0003837999999995,0.0023938000000008,-0.0029669999999999,0,sub_22
-0.0122722000000002,0.0200084000000011,-0.0082875999999998,3.740000000042138e-05,0.0023910000000008,-0.0016839999999999,0,sub_22
-0.0126748000000002,0.0194838000000012,-0.0085691999999998,-0.0003947999999995,0.0021790000000008,-0.0006203999999999,0,sub_22
-0.0122568000000002,0.0197960000000011,-0.0089873999999998,-0.0008271999999995,0.0017548000000008,0.0002298,0,sub_22
-0.0120268000000002,0.0198224000000011,-0.0094395999999998,-0.0018939999999995,0.0021830000000008,0.0006492,0,sub_22
-0.0121882000000002,0.0202138000000012,-0.0089677999999998,-0.0025329999999995,0.0028228000000008,0.0010712,0,sub_22
-0.0119504000000002,0.0208524000000012,-0.0088427999999998,-0.0023147999999995,0.0030408000000008,0.0004276,0,sub_22
-0.0114634000000002,0.0217536000000012,-0.0088525999999998,-0.0020995999999995,0.0028318000000008,-1.7999999999170589e-06,0,sub_22
-0.0115502000000002,0.0213776000000012,-0.0087897999999998,-0.0018841999999995,0.0026230000000008,-0.0004311999999999,0,sub_22
-0.0114064000000002,0.0207216000000012,-0.0083367999999998,-0.0012421999999995,0.0022002000000008,-0.0010709999999999,0,sub_22
-0.0113114000000002,0.0199286000000012,-0.0082527999999999,-0.0003857999999995,0.0015654000000008,-0.0021361999999999,0,sub_22
-0.0110338000000002,0.0191548000000012,-0.0083939999999999,4.000000000042143e-05,0.0009264000000008,-0.0025595999999999,0,sub_22
-0.0110876000000002,0.0181560000000011,-0.0080543999999999,0.0004668000000004,0.0007126000000008,-0.0027699999999999,0,sub_22
-0.0110138000000002,0.0171938000000011,-0.0076463999999999,0.0004676000000004,0.0009256000000008,-0.0027703999999999,0,sub_22
-0.0110052000000002,0.0176610000000011,-0.0074797999999999,0.0004714000000004,0.0011376000000008,-0.0027681999999999,0,sub_22
-0.0108630000000002,0.0183840000000011,-0.0080461999999999,4.560000000042143e-05,0.0013486000000008,-0.0021279999999999,0,sub_22
-0.0109478000000002,0.0187636000000012,-0.0082957999999999,-0.0008069999999995,0.0017732000000008,-0.0012773999999999,0,sub_22
-0.0114202000000002,0.0191750000000012,-0.0084575999999999,-0.0010163999999995,0.0024104000000008,-0.0008497999999999,0,sub_22
-0.0118558000000002,0.0200204000000012,-0.0086083999999999,-0.0012267999999995,0.0026222000000008,-0.0006351999999999,0,sub_22
-0.0122124000000002,0.0197624000000012,-0.0090713999999999,-0.0012295999999995,0.0024074000000008,-0.0002075999999999,0,sub_22
-0.0126270000000002,0.0198364000000012,-0.0088455999999999,-0.0010161999999995,0.0024066000000008,-0.0002061999999999,0,sub_22
-0.0134992000000002,0.0200048000000012,-0.0089551999999999,-0.0003789999999995,0.0017652000000008,-0.0002009999999999,0,sub_22
-0.0130152000000001,0.0202006000000012,-0.0087699999999999,-0.0001635999999995,0.0011230000000008,-0.0001909999999999,0,sub_22
-0.0125318000000002,0.0200732000000012,-0.0092927999999999,0.0006910000000003,0.0004778000000008,3.7000000000082906e-05,0,sub_22
-0.0124008000000002,0.0204304000000012,-0.0093079999999999,0.0009046000000003,-0.0001659999999991,0.0004742,0,sub_22
-0.0123706000000002,0.0201166000000012,-0.0091725999999998,0.0009018000000003,-0.0010237999999991,0.0013376,0,sub_22
-0.0116088000000002,0.0201126000000012,-0.0090941999999998,0.0009048000000003,-0.0008155999999991,0.001986,0,sub_22
-0.0115178000000002,0.0200192000000012,-0.0090845999999998,0.0006894000000004,-0.0008165999999991,0.0024118,0,sub_22
-0.0114258000000002,0.0199100000000012,-0.0085139999999998,0.0002616000000004,-0.0008159999999991,0.0026224,0,sub_22
-0.0114256000000002,0.0192904000000012,-0.0077359999999998,0.0004748000000004,-0.0006043999999991,0.0028372,0,sub_22
-0.0106050000000002,0.0193214000000012,-0.0077791999999999,0.0006948000000004,-0.0006107999999991,0.002636,0,sub_22
-0.0101654000000002,0.0193378000000012,-0.0075089999999998,0.0009120000000004,-0.0012561999999991,0.0024356,0,sub_22
-0.0102022000000002,0.0195730000000012,-0.0075365999999998,0.0011292000000004,-0.0021137999999991,0.002022,0,sub_22
-0.0107752000000002,0.0194868000000012,-0.0071799999999998,0.0013484000000004,-0.0023331999999991,0.0018214,0,sub_22
-0.0111294000000002,0.0198908000000012,-0.0072979999999998,0.0011428000000004,-0.0021251999999991,0.0016172,0,sub_22
-0.0117330000000002,0.0196960000000012,-0.0073547999999998,0.0011448000000004,-0.0019113999999991,0.0014034,0,sub_22
-0.0126960000000002,0.0193904000000012,-0.0077093999999998,0.0013564000000004,-0.0019139999999991,0.0018322,0,sub_22
-0.0130056000000002,0.0189068000000012,-0.0079829999999999,0.0017812000000004,-0.0014927999999991,0.0026892,0,sub_22
-0.0127534000000002,0.0190538000000011,-0.0086673999999999,0.0017870000000004,-0.0012889999999991,0.0031238,0,sub_22
-0.0123632000000002,0.0187928000000012,-0.0093551999999999,0.0015784000000004,-0.0015097999999991,0.0033438,0,sub_22
-0.0119554000000002,0.0193022000000012,-0.0097745999999998,0.0009440000000004,-0.0015159999999991,0.0035606,0,sub_22
-0.0114000000000002,0.0195834000000012,-0.0089291999999999,0.0005258000000004,-0.0015203999999991,0.003138,0,sub_22
-0.0113116000000002,0.0199422000000012,-0.0086451999999999,0.0001068000000004,-0.0017379999999991,0.0027156,0,sub_22
-0.0109418000000002,0.0200908000000012,-0.0082631999999998,0.0003210000000004,-0.0019501999999991,0.00229,0,sub_22
-0.0106780000000002,0.0204890000000011,-0.0084267999999998,0.0007458000000004,-0.002589999999999,0.0020802,0,sub_22
-0.0109978000000002,0.0201264000000012,-0.0075085999999998,0.0011726000000004,-0.002803599999999,0.0018698,0,sub_22
-0.0109128000000002,0.0195458000000011,-0.0075665999999998,0.0016068000000004,-0.002599199999999,0.0014554,0,sub_22
-0.0105854000000002,0.0190036000000011,-0.0074739999999998,0.0016124000000004,-0.002819399999999,0.0010384,0,sub_22
-0.0106966000000002,0.0185500000000011,-0.0079959999999999,0.0018296000000003,-0.003254399999999,0.0008368,0,sub_22
-0.0107732000000002,0.0181770000000012,-0.0076941999999998,0.0018372000000004,-0.003260799999999,0.000206,0,sub_22
-0.0103274000000002,0.0179744000000012,-0.0080445999999999,0.0020552000000004,-0.003270599999999,0.0002176,0,sub_22
-0.0108066000000002,0.0184586000000012,-0.0084069999999999,0.0016286000000004,-0.003056999999999,0.000428,0,sub_22
-0.0112220000000002,0.0190406000000012,-0.0087701999999999,0.0014172000000004,-0.002417999999999,0.0006394,0,sub_22
-0.0115018000000002,0.0197770000000012,-0.0085001999999998,0.0012048000000004,-0.001991999999999,0.000851,0,sub_22
