userAcceleration.x,userAcceleration.y,userAcceleration.z,rotationRate.x,rotationRate.y,rotationRate.z,label,subject
-0.0020692000000001,0.0166860000000012,0.00122,-0.0072023999999995,0.0034916000000008,-0.0057303999999999,0,sub_9
-0.0044964000000001,0.0185736000000012,-8.699999999991328e-05,-0.0061487999999995,0.0015660000000008,-0.0046521999999999,0,sub_9
-0.0063130000000001,0.0205784000000012,-0.0008569999999998,-0.0036075999999995,-0.0001575999999991,-0.0020683999999999,0,sub_9
-0.0076516000000001,0.0215078000000012,-0.0019337999999998,-0.0002175999999995,-0.0021007999999991,0.0013762,0,sub_9
-0.0090874000000001,0.0221270000000012,-0.0027027999999998,0.0042012000000004,-0.0038903999999991,0.0049758,0,sub_9
-0.0101162000000001,0.0217610000000012,-0.0040859999999998,0.0096870000000004,-0.0052593999999991,0.0090098,0,sub_9
-0.0101546000000001,0.0208720000000012,-0.0045821999999998,0.0143278000000004,-0.0057687999999991,0.0119684,0,sub_9
-0.0101262000000001,0.0195868000000012,-0.0046865999999999,0.0174828000000005,-0.0056295999999991,0.0138476,0,sub_9
-0.0090272000000001,0.0177314000000012,-0.0034895999999999,0.0189414000000005,-0.0042017999999991,0.014645,0,sub_9
-0.0076838000000001,0.0157734000000012,-0.0024683999999999,0.0189424000000004,-0.0035641999999991,0.0150716,0,sub_9
-0.0054374000000001,0.0136986000000012,-0.0015575999999999,0.0176688000000005,-0.0031291999999991,0.0139938,0,sub_9
-0.0035362000000001,0.0127378000000011,-0.0013099999999999,0.0149066000000005,-0.0024725999999991,0.0120508,0,sub_9
-0.0015890000000001,0.0118798000000011,-0.0010765999999999,0.0110502000000005,-0.0018477999999991,0.009417,0,sub_9
-0.0020648000000001,0.0120602000000011,-0.0009369999999999,0.0065546000000004,-0.0014321999999991,0.0063518,0,sub_9
-0.0028934000000001,0.0120616000000011,-0.0014263999999998,0.0027002000000005,-0.0005935999999991,0.003504,0,sub_9
-0.0043546000000001,0.0129682000000011,-0.0013697999999998,-0.0013723999999994,0.0002414000000008,0.001723,0,sub_9
-0.0054368000000001,0.0134864000000011,-0.0013329999999998,-0.0045925999999994,0.0010726000000008,0.0001616,0,sub_9
-0.0068606000000001,0.0148206000000011,-0.0019381999999998,-0.0071413999999994,0.0025772000000008,-0.0009263999999999,0,sub_9
-0.0078628000000001,0.0162552000000011,-0.0026317999999998,-0.0073469999999994,0.0040702000000008,-0.0011433999999999,0,sub_9
-0.0085636000000001,0.0180162000000012,-0.0026387999999998,-0.0064905999999995,0.0049186000000008,-0.0009247999999999,0,sub_9
-0.0085884000000001,0.0199026000000012,-0.0028463999999999,-0.0039491999999995,0.0046670000000008,-0.0002829999999999,0,sub_9
-0.0091920000000001,0.0207106000000012,-0.0027329999999999,-0.0003465999999995,0.0037700000000008,0.001008,0,sub_9
-0.0090620000000001,0.0204844000000012,-0.0021687999999999,0.0038922000000004,0.0026550000000008,0.0029446,0,sub_9
-0.0081916000000001,0.0195658000000011,-0.0018521999999999,0.0066394000000004,0.0017592000000008,0.0046568,0,sub_9
-0.0068740000000001,0.0181196000000011,-0.0016423999999998,0.0081100000000004,0.0012956000000008,0.0059322,0,sub_9
-0.0060892000000001,0.0166396000000011,-0.0011193999999998,0.0085358000000005,0.0015056000000008,0.0063622,0,sub_9
-0.0051784000000001,0.0157674000000011,-0.0006693999999998,0.0078966000000004,0.0015086000000008,0.006144,0,sub_9
-0.0046486000000001,0.0154800000000011,-0.0008501999999998,0.0066164000000004,0.0008764000000008,0.0054948,0,sub_9
-0.0045228000000001,0.0157098000000011,-0.0011107999999998,0.0055344000000004,-0.0002071999999991,0.004188,0,sub_9
-0.0050158000000001,0.0161240000000011,-0.0014471999999998,0.0044534000000004,-0.0010775999999991,0.002881,0,sub_9
-0.0055686000000001,0.0160788000000012,-0.0016979999999998,0.0033714000000004,-0.0019489999999991,0.0017876,0,sub_9
-0.0059162000000001,0.0166766000000012,-0.0018181999999999,0.0029294000000004,-0.0023981999999991,0.0011254,0,sub_9
-0.0062430000000001,0.0169134000000011,-0.0015857999999999,0.0031314000000004,-0.0019973999999991,0.0004668,0,sub_9
-0.0066578000000001,0.0167904000000011,-0.0018753999999998,0.0027064000000004,-0.0013575999999991,0.0006766,0,sub_9
-0.0066892000000001,0.0167674000000011,-0.0014801999999998,0.0027102000000004,-0.0002931999999991,0.0008888,0,sub_9
-0.0070874000000001,0.0174164000000011,-0.0013489999999998,0.0025006000000004,0.0005596000000008,0.0008862,0,sub_9
-0.0071926000000001,0.0174812000000011,-0.0016145999999998,0.0024936000000004,0.0007550000000008,0.000659,0,sub_9
-0.0072208000000001,0.0175804000000011,-0.0022377999999998,0.0024816000000004,-0.0001147999999991,0.000433,0,sub_9
-0.0068414000000001,0.0180108000000011,-0.0019773999999998,0.0028956000000004,-0.0007747999999991,0.0006372,0,sub_9
-0.0068140000000001,0.0181244000000011,-0.0025029999999998,0.0028818000000004,-0.0016463999999991,0.0008386,0,sub_9
-0.0063204000000001,0.0180428000000011,-0.0029397999999998,0.0035090000000004,-0.0020947999999991,0.0012576,0,sub_9
-0.0063492000000001,0.0178030000000012,-0.0029063999999998,0.0035080000000004,-0.0018833999999991,0.0016846,0,sub_9
-0.0060906000000001,0.0172280000000012,-0.0023189999999999,0.0032936000000004,-0.0014589999999991,0.0023236,0,sub_9
-0.0062588000000001,0.0167234000000012,-0.0022323999999999,0.0030850000000004,-0.0010295999999991,0.0016806,0,sub_9
-0.0064696000000001,0.0166044000000012,-0.0016103999999999,0.0030528000000004,-0.0006067999999991,0.0014334,0,sub_9
-0.0068976000000001,0.0163906000000012,-0.0014303999999998,0.0025940000000004,-0.0003947999999991,0.0009698,0,sub_9
-0.0069184000000001,0.0159642000000012,-0.0012631999999998,0.0019208000000004,-0.0003949999999991,0.000505,0,sub_9
-0.0072712000000001,0.0159838000000011,-0.0017971999999998,0.0010380000000005,3.320000000086127e-05,-0.0003891999999999,0,sub_9
-0.0070930000000001,0.0159828000000011,-0.0019945999999998,-0.0004819999999994,0.0011030000000008,-0.0012885999999999,0,sub_9
-0.0062724000000001,0.0165816000000011,-0.0026339999999998,-0.0023889999999994,0.0023948000000008,-0.0030127999999999,0,sub_9
-0.0058958000000001,0.0169606000000011,-0.0023311999999998,-0.0047207999999994,0.0039022000000008,-0.0049537999999998,0,sub_9
-0.0056418000000001,0.0173260000000011,-0.0022483999999998,-0.0064171999999994,0.0045542000000008,-0.0066755999999998,0,sub_9
-0.0051556000000001,0.0177520000000012,-0.0017675999999998,-0.0070705999999995,0.0041326000000008,-0.0086277999999998,0,sub_9
-0.0044250000000001,0.0176194000000012,-0.0012461999999998,-0.0070907999999995,0.0026416000000008,-0.0101469999999998,0,sub_9
-0.0049700000000001,0.0171204000000012,-0.0004699999999998,-0.0064717999999995,0.0015720000000008,-0.0110211999999998,0,sub_9
-0.0055962000000001,0.0170612000000012,-0.0009061999999998,-0.0060689999999995,0.0011370000000008,-0.0106159999999998,0,sub_9
-0.0068608000000001,0.0177910000000012,-0.0016163999999998,-0.0058805999999995,0.0015508000000008,-0.0091451999999999,0,sub_9
-0.0089940000000001,0.0185326000000012,-0.0018013999999999,-0.0056709999999995,0.0030320000000008,-0.0067955999999999,0,sub_9
-0.0111992000000001,0.0201628000000012,-0.0028149999999999,-0.0048251999999995,0.0045076000000008,-0.0035867999999999,0,sub_9
-0.0116840000000001,0.0206380000000012,-0.0035675999999999,-0.0029191999999995,0.0047004000000008,-0.0001553999999999,0,sub_9
-0.0112106000000001,0.0208122000000012,-0.0034141999999999,0.0006662000000004,0.0036058000000008,0.0026228,0,sub_9
-0.0101540000000001,0.0203036000000012,-0.0028749999999999,0.0053194000000004,0.0018718000000008,0.0045548,0,sub_9
-0.0081334000000001,0.0187404000000011,-0.0025077999999999,0.0084818000000004,0.0005698000000008,0.006262,0,sub_9
-0.0064074000000001,0.0167834000000011,-0.0016005999999999,0.0101584000000004,0.0003410000000008,0.0073166,0,sub_9
-0.0058818000000001,0.0161790000000011,-0.0008011999999999,0.0097090000000004,0.0016118000000008,0.0081408,0,sub_9
-0.0060730000000001,0.0158744000000011,-0.0009841999999999,0.0077904000000004,0.0028934000000008,0.0089804,0,sub_9
-0.0062834000000001,0.0159324000000011,-0.0013037999999999,0.0048060000000004,0.0037552000000008,0.009172,0,sub_9
-0.0061694000000001,0.0169904000000011,-0.0019151999999999,0.0024618000000004,0.0039782000000008,0.0087282,0,sub_9
-0.0062540000000001,0.0179556000000011,-0.0023845999999999,0.0013738000000004,0.0029196000000008,0.0074218,0,sub_9
-0.0052936000000001,0.0181786000000011,-0.0025425999999999,0.0017746000000004,-5.819999999911885e-05,0.0052738,0,sub_9
-0.0042172000000001,0.0178704000000011,-0.0021303999999999,0.0030270000000004,-0.0034649999999991,0.0031322,0,sub_9
-0.0033728000000001,0.0172678000000011,-0.0016021999999998,0.0032182000000004,-0.0047411999999991,0.0018352,0,sub_9
-0.0036180000000001,0.0168746000000012,-0.0011429999999998,0.0023502000000004,-0.0040969999999991,0.0007418,0,sub_9
-0.0040680000000001,0.0170700000000012,-0.0007679999999998,0.0006546000000004,-0.0021709999999991,8.660000000008296e-05,0,sub_9
-0.0054198000000001,0.0174632000000012,-0.0010015999999998,-0.0012533999999995,0.0006054000000008,6.960000000008297e-05,0,sub_9
-0.0062610000000001,0.0187966000000012,-0.0012429999999998,-0.0029467999999995,0.0033818000000008,-0.0001593999999999,0,sub_9
-0.0073266000000001,0.0199632000000012,-0.0014791999999998,-0.0025359999999995,0.0040226000000008,-0.0005981999999999,0,sub_9
-0.0078342000000001,0.0206092000000012,-0.0017353999999998,-0.0002173999999995,0.0020992000000008,-0.0008065999999999,0,sub_9
-0.0077246000000001,0.0201034000000012,-0.0016817999999998,0.0029508000000004,-0.0002549999999991,-0.0005811999999999,0,sub_9
-0.0078128000000001,0.0193550000000012,-0.0018085999999998,0.0052656000000004,-0.0026063999999991,-0.0003617999999999,0,sub_9
-0.0077584000000001,0.0179136000000012,-0.0016185999999998,0.0067296000000004,-0.0043153999999991,-0.0001491999999999,0,sub_9
-0.0076584000000001,0.0164336000000012,-0.0018225999999998,0.0063018000000004,-0.0043147999999991,6.140000000008292e-05,0,sub_9
-0.0074156000000001,0.0155476000000012,-0.0017525999999998,0.0046024000000004,-0.0028165999999991,-0.0001659999999999,0,sub_9
-0.0072832000000001,0.0151880000000011,-0.0020231999999998,0.0022630000000004,-0.0015283999999991,-0.0006113999999999,0,sub_9
-0.0072716000000001,0.0156476000000011,-0.0019915999999999,0.0003442000000004,-0.0002439999999991,-0.0012659999999999,0,sub_9
-0.0075426000000001,0.0161776000000011,-0.0022601999999999,-0.0013601999999995,0.0010404000000008,-0.0021327999999999,0,sub_9
-0.0071308000000001,0.0167122000000011,-0.0022579999999999,-0.0019985999999995,0.0018960000000008,-0.0032049999999998,0,sub_9
-0.0070372000000001,0.0174120000000011,-0.0023947999999999,-0.0024313999999994,0.0016830000000008,-0.0036335999999998,0,sub_9
-0.0072038000000001,0.0181902000000012,-0.0028195999999999,-0.0026497999999994,0.0018946000000008,-0.0038475999999998,0,sub_9
-0.0067852000000001,0.0184816000000011,-0.0024867999999999,-0.0030755999999994,0.0023214000000008,-0.0036373999999998,0,sub_9
-0.0066090000000001,0.0188034000000011,-0.0025001999999999,-0.0032889999999994,0.0029588000000008,-0.0029987999999998,0,sub_9
-0.0064376000000001,0.0194348000000011,-0.0022353999999998,-0.0026527999999994,0.0029532000000008,-0.0021397999999998,0,sub_9
-0.0063288000000001,0.0196512000000011,-0.0017235999999998,-0.0013759999999994,0.0025132000000008,-0.0014799999999998,0,sub_9
-0.0062436000000001,0.0191018000000011,-0.0011851999999998,-0.0001031999999994,0.0014332000000008,-0.0006055999999999,0,sub_9
-0.0059872000000001,0.0188982000000012,-0.0017947999999998,0.0018098000000005,-7.33999999991782e-05,-0.0001535999999999,0,sub_9
-0.0058446000000001,0.0183662000000011,-0.0016249999999998,0.0035104000000004,-0.0013661999999991,0.0002968,0,sub_9
-0.0058976000000001,0.0179278000000011,-0.0017541999999998,0.0037204000000004,-0.0024389999999991,0.0003092,0,sub_9
-0.0058066000000001,0.0174078000000011,-0.0020395999999998,0.0037194000000004,-0.0026519999999991,0.0003096,0,sub_9
-0.0057938000000001,0.0172318000000011,-0.0018537999999998,0.0032946000000004,-0.0024365999999991,9.260000000006276e-05,0,sub_9
-0.0062066000000001,0.0166320000000011,-0.0016987999999998,0.0022306000000004,-0.0020057999999991,-0.0001289999999999,0,sub_9
-0.0062936000000001,0.0164224000000012,-0.0015447999999999,0.0011598000000004,-0.0015807999999991,-0.0010007999999998,0,sub_9
-0.0069576000000001,0.0162984000000012,-0.0013915999999999,0.0005146000000004,-0.0013703999999991,-0.0018693999999998,0,sub_9
-0.0077662000000001,0.0161392000000011,-0.0013019999999999,-0.0005591999999995,-0.0015845999999991,-0.0027403999999998,0,sub_9
-0.0077108000000001,0.0165472000000011,-0.0016015999999999,-0.0012051999999995,-0.0013749999999991,-0.0033951999999998,0,sub_9
-0.0080650000000001,0.0172924000000011,-0.0014771999999999,-0.0018511999999995,-0.0007409999999991,-0.0036231999999998,0,sub_9
-0.0081426000000001,0.0178278000000011,-0.0014825999999999,-0.0020655999999995,-0.0005287999999991,-0.0031975999999998,0,sub_9
-0.0080304000000001,0.0184054000000011,-0.0019257999999999,-0.0018513999999994,0.0003202000000008,-0.0025561999999998,0,sub_9
-0.0076254000000001,0.0185442000000011,-0.0018207999999998,-0.0012121999999995,0.0009538000000008,-0.0016979999999998,0,sub_9
-0.0079138000000001,0.0187942000000011,-0.0016207999999998,-0.0005845999999995,0.0007318000000008,-0.0010601999999998,0,sub_9
-0.0074012000000001,0.0185108000000011,-0.0017713999999998,0.0004708000000004,0.0005092000000008,-0.0006329999999998,0,sub_9
-0.0071934000000001,0.0182552000000011,-0.0017813999999998,0.0011014000000004,0.0005020000000008,-0.0004225999999999,0,sub_9
-0.0071016000000001,0.0176264000000011,-0.0013059999999998,0.0015138000000004,-0.0003575999999991,8.000000000827441e-07,0,sub_9
-0.0073778000000001,0.0175162000000012,-0.0013851999999999,0.0015032000000004,-0.0005755999999991,0.000207,0,sub_9
-0.0072958000000001,0.0174254000000012,-0.0015581999999999,0.0015012000000004,-0.0005771999999991,0.0006344,0,sub_9
-0.0072532000000001,0.0174446000000012,-0.0020241999999999,0.0010734000000004,-0.0005765999999991,0.000845,0,sub_9
-0.0076230000000001,0.0176192000000012,-0.0022519999999999,0.0010714000000004,-0.0007905999999991,0.0010588,0,sub_9
-0.0074180000000001,0.0179786000000012,-0.0024009999999999,0.0010634000000004,-0.0001517999999991,0.0010544,0,sub_9
-0.0068698000000001,0.0183764000000012,-0.0023477999999999,0.0014792000000004,5.860000000084175e-05,0.001267,0,sub_9
-0.0063418000000001,0.0181962000000012,-0.0024227999999999,0.0021104000000004,5.760000000084173e-05,0.0008404,0,sub_9
-0.0067948000000001,0.0180104000000012,-0.0018273999999999,0.0027396000000004,0.0002672000000008,0.0010544,0,sub_9
-0.0067574000000001,0.0174278000000012,-0.0019249999999999,0.0023048000000004,0.0013320000000008,0.0014736,0,sub_9
-0.0064988000000001,0.0170534000000012,-0.0017983999999999,0.0014522000000004,0.0017602000000008,0.0016806,0,sub_9
-0.0066492000000001,0.0168102000000011,-0.0015963999999999,0.0003872000000004,0.0015534000000008,0.0010324,0,sub_9
-0.0073238000000001,0.0166256000000011,-0.0011825999999999,-0.0006825999999995,0.0007058000000008,0.0008124,0,sub_9
-0.0066094000000001,0.0165484000000011,-0.0015035999999999,-0.0013303999999995,-0.0003591999999991,0.0003844,0,sub_9
-0.0065312000000001,0.0175840000000011,-0.0017303999999998,-0.0015493999999995,-0.0014239999999991,-0.0004679999999999,0,sub_9
-0.0067704000000001,0.0182720000000011,-0.0022489999999998,-0.0011301999999995,-0.0018561999999991,-0.0002483999999999,0,sub_9
-0.0071056000000001,0.0185874000000012,-0.0031537999999998,-0.0002823999999995,-0.0012271999999991,0.0006136,0,sub_9
-0.0068476000000001,0.0190278000000012,-0.0031679999999998,0.0005682000000004,0.0004654000000008,0.0019016,0,sub_9
-0.0071304000000001,0.0190144000000012,-0.0025027999999998,0.0012094000000004,0.0017372000000008,0.0029726,0,sub_9
-0.0066030000000001,0.0187370000000012,-0.0018449999999998,0.0020590000000004,0.0019430000000008,0.0040466,0,sub_9
-0.0066532000000001,0.0180746000000012,-0.0014977999999998,0.0027000000000004,0.0017296000000008,0.003624,0,sub_9
-0.0064450000000001,0.0176742000000012,-0.0007653999999998,0.0024806000000004,0.0010942000000008,0.002772,0,sub_9
-0.0065472000000001,0.0172022000000012,-0.0014429999999998,0.0022602000000004,0.0002458000000008,0.0019202,0,sub_9
-0.0066948000000001,0.0176784000000012,-0.0020129999999998,0.0018282000000004,-0.0003879999999991,0.000853,0,sub_9
-0.0071828000000001,0.0175414000000012,-0.0020443999999998,0.0011848000000004,-0.0001705999999991,0.0002104,0,sub_9
-0.0072448000000001,0.0181424000000012,-0.0019561999999998,0.0009654000000004,-0.0001693999999991,-1.5999999999172493e-06,0,sub_9
-0.0071530000000001,0.0183474000000011,-0.0024531999999999,0.0011768000000004,-0.0003839999999991,0.0002138,0,sub_9
-0.0075248000000001,0.0183908000000011,-0.0018563999999999,0.0013902000000004,-0.0003847999999991,0.0002152,0,sub_9
-0.0074032000000001,0.0180792000000011,-0.0019097999999999,0.0018160000000004,-0.0001749999999991,0.0006452,0,sub_9
-0.0076052000000001,0.0178604000000011,-0.0024147999999999,0.0022406000000004,3.8400000000801854e-05,0.0004402,0,sub_9
-0.0077392000000001,0.0173796000000011,-0.0021309999999999,0.0018098000000004,0.0002530000000008,0.0006566,0,sub_9
-0.0078754000000001,0.0171750000000011,-0.0022163999999998,0.0013810000000004,0.0008938000000008,0.0008724,0,sub_9
-0.0074650000000001,0.0172960000000011,-0.0024343999999998,0.0009520000000004,0.0013224000000008,0.0008748,0,sub_9
-0.0072638000000001,0.0175062000000011,-0.0018555999999998,0.0007346000000004,0.0008998000000008,0.0004524,0,sub_9
-0.0074256000000001,0.0179570000000011,-0.0015883999999998,0.0003040000000004,0.0002614000000008,0.0006638,0,sub_9
-0.0068556000000001,0.0180574000000011,-0.0017243999999998,0.0003020000000004,-0.0003767999999991,0.0004508,0,sub_9
-0.0066684000000001,0.0185228000000012,-0.0015641999999998,0.0005134000000004,-0.0010157999999991,0.0002394,0,sub_9
-0.0065582000000001,0.0189110000000012,-0.0011663999999998,0.0005058000000004,-0.0012267999999991,0.0002422,0,sub_9
-0.0071496000000001,0.0188132000000012,-0.0015761999999998,0.0002866000000004,-0.0005865999999991,0.0006698,0,sub_9
-0.0069362000000001,0.0183046000000012,-0.0015275999999998,0.0004932000000004,-0.0003733999999991,0.0008872,0,sub_9
-0.0067902000000001,0.0184126000000011,-0.0016971999999998,0.0006998000000004,5.200000000084183e-05,0.001318,0,sub_9
-0.0071462000000001,0.0182170000000011,-0.0018405999999998,0.0006940000000004,0.0002670000000008,0.0013202,0,sub_9
-0.0071180000000001,0.0181786000000011,-0.0023343999999998,0.0004806000000004,5.540000000084184e-05,0.0011054,0,sub_9
-0.0071260000000001,0.0182132000000011,-0.0023127999999999,0.0002692000000004,-0.0001543999999991,0.0004632,0,sub_9
-0.0070142000000001,0.0185172000000011,-0.0022873999999999,0.0002720000000004,-0.0003639999999991,-0.0003909999999999,0,sub_9
-0.0076228000000001,0.0185930000000012,-0.0020683999999999,0.0004788000000004,-0.0005753999999991,-0.0006025999999999,0,sub_9
-0.0075398000000001,0.0181602000000012,-0.0013519999999999,0.0004732000000004,-0.0003607999999991,-0.0006025999999999,0,sub_9
-0.0075244000000001,0.0178532000000012,-0.0008277999999999,0.0008924000000004,-0.0003615999999991,-0.0003857999999999,0,sub_9
-0.0068612000000001,0.0178110000000012,-0.0009705999999999,0.0008838000000004,-0.0005739999999991,-0.0001715999999999,0,sub_9
-0.0068060000000001,0.0178714000000011,-0.0009617999999999,0.0008744000000004,-0.0007871999999991,0.000256,0,sub_9
-0.0066672000000001,0.0178122000000011,-0.0011749999999999,0.0004466000000004,-0.0009985999999991,0.0002532,0,sub_9
-0.0066550000000001,0.0180534000000011,-0.0018113999999999,0.0006580000000004,-0.0012133999999991,0.0004686,0,sub_9
-0.0069030000000001,0.0180318000000011,-0.0020589999999998,0.0006590000000004,-0.0010001999999991,0.0004682,0,sub_9
-0.0074186000000001,0.0180918000000011,-0.0015801999999998,0.0010794000000004,-0.0007881999999991,0.0004666,0,sub_9
-0.0075380000000001,0.0178154000000012,-0.0021341999999998,0.0010730000000004,-0.0003625999999991,0.0006756,0,sub_9
-0.0074870000000001,0.0174248000000012,-0.0023353999999998,0.0012810000000004,6.300000000084182e-05,0.0006724,0,sub_9
-0.0073416000000001,0.0174410000000012,-0.0024431999999998,0.0012746000000004,0.0002764000000008,0.000668,0,sub_9
-0.0073316000000001,0.0172296000000012,-0.0025737999999999,0.0010520000000004,6.36000000008418e-05,0.0008764,0,sub_9
-0.0068422000000001,0.0173106000000012,-0.0029825999999999,0.0004128000000004,6.660000000084178e-05,0.0006584000000001,0,sub_9
-0.0067024000000001,0.0177446000000012,-0.0026729999999999,-9.99999999952172e-06,0.0004960000000008,0.0002276000000001,0,sub_9
-0.0068004000000001,0.0178378000000011,-0.0022263999999999,-0.0002203999999995,0.0011360000000008,0.0002254,0,sub_9
-0.0069058000000001,0.0180648000000011,-0.0016419999999999,-0.0006527999999995,0.0017752000000008,0.0002176,0,sub_9
-0.0068246000000001,0.0183680000000011,-0.0020617999999999,-0.0006613999999995,0.0015614000000008,2.000000000827078e-07,0,sub_9
-0.0071636000000001,0.0182970000000011,-0.0020393999999999,-0.0004583999999995,0.0015574000000008,0.000425,0,sub_9
-0.0066630000000001,0.0184268000000011,-0.0021231999999999,-0.0002545999999995,0.0013420000000008,0.0004228,0,sub_9
-0.0064308000000001,0.0183466000000011,-0.0021057999999999,-5.1799999999501727e-05,0.0002770000000008,-0.0002193999999999,0,sub_9
-0.0067548000000001,0.0177232000000011,-0.0019445999999999,-5.559999999950171e-05,-0.0012117999999991,-0.0008585999999998,0,sub_9
-0.0071062000000001,0.0171174000000011,-0.0018821999999999,-0.0002707999999995,-0.0018493999999991,-0.0010729999999998,0,sub_9
-0.0067790000000001,0.0170724000000011,-0.0024573999999999,-0.0009119999999995,-0.0018479999999991,-0.0008637999999998,0,sub_9
-0.0072002000000001,0.0170572000000012,-0.0020833999999999,-0.0015583999999995,-0.0012085999999991,-0.0004455999999998,0,sub_9
-0.0073988000000001,0.0174964000000012,-0.0021619999999999,-0.0022007999999995,0.0007072000000008,0.0003984000000001,0,sub_9
-0.0070560000000001,0.0181752000000012,-0.0022615999999999,-0.0019869999999995,0.0032594000000008,0.0012476,0,sub_9
-0.0068252000000001,0.0185968000000012,-0.0017179999999999,-0.0019855999999995,0.0056010000000008,0.0016682,0,sub_9
-0.0067454000000001,0.0184204000000012,-0.0008947999999999,-0.0011353999999995,0.0062376000000008,0.0014558,0,sub_9
-0.0064530000000001,0.0177040000000012,-0.0007151999999999,-0.0004951999999995,0.0060230000000008,0.001247,0,sub_9
-0.0061496000000001,0.0175906000000011,-0.0006367999999999,-0.0002837999999995,0.0051718000000008,0.0008222000000001,0,sub_9
-0.0059482000000001,0.0172614000000011,-0.0007479999999999,-0.0007153999999995,0.0034714000000008,0.0001804000000001,0,sub_9
-0.0059600000000001,0.0172730000000011,-0.0006961999999999,-0.0007251999999995,0.0019830000000008,-0.0004617999999998,0,sub_9
-0.0058860000000001,0.0175316000000011,-0.0006231999999999,-0.0005215999999995,0.0007062000000008,-0.0008889999999998,0,sub_9
-0.0060994000000001,0.0178874000000011,-0.0009337999999999,-0.0003189999999995,-0.0001471999999991,-0.0006759999999998,0,sub_9
-0.0063064000000001,0.0178630000000012,-0.0010591999999998,0.0003124000000004,-0.0010003999999991,-0.0008871999999999,0,sub_9
-0.0067034000000001,0.0178422000000012,-0.0009645999999998,0.0011582000000004,-0.0014291999999991,-0.0008837999999999,0,sub_9
-0.0067056000000001,0.0177248000000012,-0.0011951999999998,0.0015868000000004,-0.0010045999999991,-0.0008811999999998,0,sub_9
-0.0078048000000001,0.0174098000000012,-0.0016769999999998,0.0013754000000004,-0.0007899999999991,-0.0010965999999998,0,sub_9
-0.0079196000000001,0.0168560000000012,-0.0016963999999998,0.0013774000000004,-0.0007881999999991,-0.0015237999999998,0,sub_9
-0.0078758000000001,0.0167394000000012,-0.0021657999999999,0.0007330000000004,-0.0007817999999991,-0.0019571999999998,0,sub_9
-0.0076022000000001,0.0164418000000012,-0.0026663999999999,8.960000000049831e-05,-0.0003501999999991,-0.0021773999999998,0,sub_9
-0.0075658000000001,0.0165272000000012,-0.0028487999999998,-0.0007689999999995,-0.0005561999999991,-0.0026121999999998,0,sub_9
-0.0069104000000001,0.0167264000000011,-0.0025213999999998,-0.0009857999999995,-0.0001259999999991,-0.0028295999999999,0,sub_9
