userAcceleration.x,userAcceleration.y,userAcceleration.z,rotationRate.x,rotationRate.y,rotationRate.z,label,subject
0.0205347999999998,-0.0010129999999987,0.0091942,-0.0017933999999994,0.0004416000000009,-0.0043817999999998,0,sub_10
0.0215767999999998,-0.0007947999999987,0.0097938,-0.0015847999999994,-0.001048799999999,-0.0048055999999998,0,sub_10
0.0220065999999998,-0.0007935999999987,0.0101512,-0.0009483999999994,-0.002327799999999,-0.0052267999999998,0,sub_10
0.0224847999999998,-0.0011245999999987,0.009828,0.0001072000000005,-0.002540399999999,-0.0050101999999998,0,sub_10
0.0227239999999998,-0.0018341999999987,0.0097936,-0.0001147999999994,-0.002533799999999,-0.0052301999999998,0,sub_10
0.0229261999999998,-0.0022751999999987,0.0096908,-0.0001251999999994,-0.002953999999999,-0.0054481999999998,0,sub_10
0.0226525999999998,-0.0024683999999987,0.009473,-0.0005575999999994,-0.001883199999999,-0.0052437999999998,0,sub_10
0.0228891999999998,-0.0023569999999987,0.0097348,-0.0012109999999994,-0.002515999999999,-0.0050387999999998,0,sub_10
0.0226349999999998,-0.0023325999999987,0.0093232,-0.0018539999999994,-0.003789399999999,-0.0056825999999998,0,sub_10
0.0224809999999998,-0.0016755999999987,0.0094156,-0.0012157999999994,-0.005490799999999,-0.0069577999999998,0,sub_10
0.0227813999999998,-0.0009633999999987,0.0093352,-0.0014243999999994,-0.005061399999999,-0.0076007999999998,0,sub_10
0.0234139999999998,-0.0004483999999987,0.0086476,-0.0003545999999995,-0.004850399999999,-0.0080207999999998,0,sub_10
0.0231103999999998,-9.9599999998755e-05,0.00839,-0.0001423999999995,-0.003783399999999,-0.0078063999999998,0,sub_10
0.0225227999999998,0.0001426000000012,0.00891,6.800000000048584e-05,-0.003354799999999,-0.0078049999999998,0,sub_10
0.0219691999999998,-2.2199999998754988e-05,0.008321,-0.0005787999999995,-0.002502199999999,-0.0065281999999998,0,sub_10
0.0209881999999998,-0.0004715999999987,0.008094,-0.0007969999999995,-0.002073799999999,-0.0061021999999998,0,sub_10
0.0203611999999998,-0.0008299999999987,0.0083928,-0.0014409999999994,-0.001855199999999,-0.0061063999999998,0,sub_10
0.0207653999999998,-0.0014407999999987,0.0077616,-0.0010159999999994,-0.002919399999999,-0.0067429999999998,0,sub_10
0.0207303999999998,-0.0021605999999987,0.0079216,-0.0010159999999994,-0.002919399999999,-0.0067429999999998,0,sub_10
0.0214735999999998,-0.0026315999999987,0.0076856,0.0002708000000005,-0.001644799999999,-0.0069491999999998,0,sub_10
0.0225761999999998,-0.0022457999999987,0.0080914,0.0004842000000005,-0.002069999999999,-0.0073745999999998,0,sub_10
0.0230679999999998,-0.0023887999999987,0.0086896,-0.0001519999999994,-0.000991999999999,-0.0077941999999998,0,sub_10
0.0220889999999998,-0.0020693999999987,0.0093232,-0.0012119999999994,0.0013632000000009,-0.0075775999999998,0,sub_10
0.0221269999999998,-0.0020735999999987,0.0087224,-0.0014203999999994,0.0022282000000009,-0.0084211999999998,0,sub_10
0.0223687999999998,-0.0027037999999986,0.0092376,-0.0018525999999995,0.0009626000000009,-0.0090501999999998,0,sub_10
0.0212509999999998,-0.0027941999999986,0.0083882,-0.0005703999999995,0.0033054000000009,-0.0077487999999998,0,sub_10
0.0213065999999998,-0.0019437999999987,0.0076876,0.0013452000000004,0.0035066000000009,-0.0064539999999998,0,sub_10
0.0221609999999998,-0.0016285999999987,0.0089704,0.0013314000000004,0.0026546000000009,-0.0047183999999998,0,sub_10
0.0218847999999998,-0.0008793999999987,0.0093888,0.0011110000000004,0.0049922000000009,-0.0012793999999998,0,sub_10
0.0203723999999998,0.0011284000000012,0.009287,0.0010982000000004,0.0052020000000009,0.0013094000000001,0,sub_10
0.0203355999999998,0.0010630000000012,0.0095624,0.0004444000000005,0.0037154000000009,0.0024002000000001,0,sub_10
0.0194465999999998,0.0002036000000012,0.01033,0.0004306000000004,0.0020146000000009,0.0032822000000001,0,sub_10
0.0191009999999998,0.0003560000000012,0.0087246,0.0029834000000004,0.0009378000000009,0.0039422000000001,0,sub_10
0.0203777999999998,0.0004322000000012,0.0076938,0.0040416000000004,-0.000558999999999,0.0043788000000001,0,sub_10
0.0219669999999998,-0.0015539999999987,0.0080402,0.0053190000000004,-0.000990399999999,0.0046018000000001,0,sub_10
0.0231873999999998,-0.0022893999999987,0.0091122,0.0063744000000004,-0.003550599999999,0.0046124000000001,0,sub_10
0.0248699999999998,-0.0019223999999987,0.0080272,0.0055158000000004,-0.003971399999999,0.0057036000000001,0,sub_10
0.0257369999999998,-0.0029559999999987,0.0080232,0.0036028000000004,-0.002255399999999,0.0061438000000001,0,sub_10
0.0256835999999998,-0.0035429999999987,0.0092964,0.0025414000000005,-0.002029399999999,0.0055236000000001,0,sub_10
0.0249819999999998,-0.0021703999999987,0.010036,0.0006302000000005,-0.000311599999999,0.0055366000000001,0,sub_10
0.0237835999999998,-0.0019421999999987,0.0089274,-0.0004265999999994,0.0011918000000009,0.0051284000000001,0,sub_10
0.0220399999999998,-0.0024697999999987,0.0097466,0.0002270000000005,0.0018380000000009,0.0027822000000001,0,sub_10
0.0205677999999998,-0.0016437999999987,0.010236,0.0019416000000005,0.0007778000000009,1.820000000017745e-05,0,sub_10
0.0204487999999998,-0.0004997999999987,0.010005,0.0036476000000005,-0.001350999999999,-0.0018897999999998,0,sub_10
0.0210121999999998,-7.939999999875485e-05,0.0090802,0.0049292000000004,-0.002618999999999,-0.0026997999999998,0,sub_10
0.0215685999999998,0.0002596000000012,0.0098586,0.0047152000000004,-0.002185999999999,-0.0013857999999998,0,sub_10
0.0220027999999998,0.0008590000000012,0.0096322,0.0038552000000005,-0.001543599999999,0.0014188000000001,0,sub_10
0.0222063999999998,0.0005612000000012,0.0088608,0.0025590000000005,-0.002817999999999,0.0044366000000001,0,sub_10
0.0217095999999998,-0.0003307999999987,0.0084342,0.0014866000000005,-0.002386199999999,0.0068126000000001,0,sub_10
0.0218299999999998,-0.0003571999999987,0.0088162,0.0012750000000005,-0.001747199999999,0.0070240000000001,0,sub_10
0.0218359999999998,8.02000000012452e-05,0.0081674,0.0021352000000005,-0.001744199999999,0.0055346000000001,0,sub_10
0.0222579999999998,-0.0003127999999987,0.0078426,0.0025674000000005,-0.003004399999999,0.0038670000000001,0,sub_10
0.0227661999999998,-0.0007631999999987,0.008956,0.0030138000000005,-0.000644599999999,0.0026222000000001,0,sub_10
0.0231879999999998,-0.0007861999999987,0.0089798,0.0032422000000005,0.0012874000000009,0.0020174000000001,0,sub_10
0.0233417999999998,-0.0013893999999987,0.0086806,0.0017588000000005,0.0032210000000009,0.0024688000000001,0,sub_10
0.0228669999999998,-0.0019097999999987,0.0095426,0.0002754000000005,0.0057912000000009,0.0035602000000001,0,sub_10
0.0221249999999998,-0.0018077999999987,0.0095032,-0.0007809999999994,0.0089872000000009,0.0044034000000001,0,sub_10
0.0211955999999998,-0.0010705999999987,0.0081212,-0.0020669999999994,0.0077134000000009,0.0043960000000001,0,sub_10
0.0210037999999998,0.0002704000000012,0.008392,-0.0025023999999994,0.0055852000000009,0.0041822000000001,0,sub_10
0.0203159999999998,0.0005566000000012,0.0090518,-0.0018641999999994,0.0040958000000009,0.0031204000000001,0,sub_10
0.0201473999999998,0.0006402000000012,0.0083682,-0.0012167999999994,0.0034646000000009,0.0014528000000001,0,sub_10
0.0209019999999998,-0.0003445999999987,0.0084466,0.0004898000000005,0.0011252000000009,-0.0002053999999998,0,sub_10
0.0225095999999998,-0.0010963999999987,0.0090866,0.0022050000000005,0.0013400000000009,-0.0012257999999998,0,sub_10
0.0229555999999998,-0.0017925999999987,0.0097824,0.0039154000000005,0.0013382000000009,-0.0013913999999998,0,sub_10
0.0230457999999998,-0.0013969999999987,0.0092988,0.0045426000000005,-0.000159599999999,0.0005738000000001,0,sub_10
0.0244007999999998,-0.0003629999999987,0.0090118,0.0043042000000005,-0.003151799999999,0.0031396000000001,0,sub_10
0.0242551999999998,0.0011086000000012,0.0096206,0.0027904000000005,-0.004861999999999,0.0059086000000001,0,sub_10
0.0232959999999998,0.0021594000000012,0.0095794,0.0019302000000005,-0.003591799999999,0.0086784000000001,0,sub_10
0.0222047999999998,0.0013378000000012,0.0093142,0.0006444000000005,-0.002524199999999,0.0097518000000001,0,sub_10
0.0218511999999998,0.0007236000000012,0.0090634,0.0017114000000005,-0.002520599999999,0.0084930000000001,0,sub_10
0.0214763999999998,0.0003418000000012,0.009184,0.0027812000000005,-0.002938799999999,0.0061666000000001,0,sub_10
0.0219851999999998,2.000000012452219e-07,0.0081438,0.0034282000000005,-0.001866799999999,0.0044762000000001,0,sub_10
0.0226495999999998,-0.0010257999999987,0.0082792,0.0029968000000005,-0.002710999999999,0.0034216000000001,0,sub_10
0.0227639999999998,-0.0004641999999987,0.0086316,0.0032072000000005,-0.004836199999999,0.0019302000000001,0,sub_10
0.0224383999999998,-0.0003901999999987,0.008282,0.0021462000000005,-0.003554199999999,0.0019210000000001,0,sub_10
0.0217539999999998,-0.0004707999999987,0.0076926,0.0017056000000005,-0.003766599999999,0.0027772000000001,0,sub_10
0.0220219999999998,-0.0004283999999987,0.0086984,0.0019118000000005,-0.003550799999999,0.0025692000000001,0,sub_10
0.0219257999999998,-0.0004701999999987,0.0090086,0.0019114000000005,-0.003116199999999,0.0010776000000001,0,sub_10
0.0219625999999998,-0.0008883999999987,0.0073636,0.0008442000000005,-0.002041199999999,0.0002188000000001,0,sub_10
0.0224331999999998,-0.0001385999999987,0.0079308,0.0008322000000005,-0.003950999999999,-0.0010561999999998,0,sub_10
0.0231805999999998,0.0005012000000012,0.0099112,0.0008400000000005,-0.002458799999999,-0.0012715999999998,0,sub_10
0.0224249999999998,0.0008406000000012,0.0098578,-0.0004421999999994,-0.001395199999999,0.0002136000000001,0,sub_10
0.0226365999999998,0.0018808000000012,0.0091526,-0.0006651999999994,-0.001615199999999,0.0021350000000001,0,sub_10
0.0234339999999998,0.0026900000000012,0.0096348,0.0004026000000004,7.940000000093914e-05,0.0036358000000001,0,sub_10
0.0237701999999998,0.0021194000000012,0.0101026,0.0006090000000004,0.0022096000000009,0.0046972000000001,0,sub_10
0.0227339999999998,0.0009476000000012,0.0087042,0.0003876000000004,0.0034916000000009,0.0051156000000001,0,sub_10
0.0218489999999998,9.58000000012454e-05,0.0084804,0.0018752000000004,0.0037084000000009,0.0040518000000001,0,sub_10
0.0205281999999998,-0.0006031999999987,0.008867,0.0033598000000004,0.0030738000000009,0.0027756000000001,0,sub_10
0.0204675999999998,-0.0009099999999987,0.0093764,0.0037680000000005,0.0015856000000009,0.0027746000000001,0,sub_10
0.0202885999999998,-0.0010237999999987,0.009059,0.0037650000000005,0.0011586000000009,0.0029888000000001,0,sub_10
0.0204295999999998,-0.0012113999999987,0.0092106,0.0035506000000005,0.0013706000000009,0.0034142000000001,0,sub_10
0.0211221999999997,-0.0013015999999987,0.008849,0.0031172000000005,0.0003052000000009,0.0038398000000001,0,sub_10
0.0225443999999998,-0.0011461999999987,0.008963,0.0022570000000005,9.000000000097897e-05,0.0051158000000001,0,sub_10
0.0227659999999998,-0.0018163999999987,0.0093248,0.0009674000000005,0.0002982000000009,0.0057372000000001,0,sub_10
0.0220321999999998,-0.0020959999999987,0.0092152,-0.0007595999999994,-0.001623599999999,0.0065718000000001,0,sub_10
0.0220451999999998,-0.0015487999999987,0.0091666,-0.0016271999999994,-0.003330999999999,0.0063440000000001,0,sub_10
0.0214005999999998,-0.0010433999999987,0.0090062,-0.0016309999999994,-0.003546799999999,0.0052658000000001,0,sub_10
0.0206859999999998,-0.0007255999999987,0.0091826,-0.0016249999999994,-0.002268599999999,0.0035448000000001,0,sub_10
0.0203961999999998,0.0001022000000012,0.0084708,-0.0009733999999994,-0.000987399999999,0.0022658000000001,0,sub_10
0.0217727999999998,0.0006802000000012,0.0087276,0.0007326000000005,-0.000136799999999,0.0009788000000001,0,sub_10
0.0223783999999998,0.0001248000000012,0.0092866,0.0020060000000004,7.360000000097903e-05,0.0003306000000001,0,sub_10
0.0231525999999998,0.0003604000000012,0.0098222,0.0017810000000005,0.0002850000000009,0.0007400000000001,0,sub_10
0.0231173999999998,0.0004582000000012,0.0096542,0.0017646000000005,-0.000357599999999,0.0013656000000001,0,sub_10
0.0230427999999998,4.14000000012453e-05,0.0098998,0.0019624000000005,-0.000999999999999,0.0017792000000001,0,sub_10
0.0224049999999998,-0.0004457999999987,0.010022,0.0017500000000005,-0.000786199999999,0.0017774000000001,0,sub_10
0.0224007999999998,-0.0001443999999987,0.0094378,0.0021796000000005,-0.000572999999999,0.0013528000000001,0,sub_10
0.0227951999999998,-0.0002205999999987,0.0092082,0.0026064000000005,-0.000998999999999,0.0009292000000001,0,sub_10
0.0228755999999998,-0.0010823999999987,0.0095246,0.0028158000000005,-0.002063999999999,0.0007184000000001,0,sub_10
0.0226041999999998,-0.0011777999999987,0.0091552,0.0019478000000005,-0.002482199999999,0.0009086000000001,0,sub_10
0.0223003999999998,-0.0006691999999987,0.008077,0.0015056000000005,-0.003114799999999,0.0011022000000001,0,sub_10
0.0221837999999998,0.0001228000000012,0.0086186,0.0006404000000005,-0.003317999999999,0.0008648000000001,0,sub_10
0.0213279999999998,-0.0001347999999987,0.008854,-0.0006475999999994,-0.001606599999999,0.0016902000000001,0,sub_10
0.0208493999999998,-0.0002369999999987,0.0080748,-0.0021507999999994,0.0001038000000009,0.0029416000000001,0,sub_10
0.0211561999999998,2.0600000001245294e-05,0.0081072,-0.0012933999999994,0.0007408000000009,0.0027332000000001,0,sub_10
0.0215303999999998,-1.039999999875472e-05,0.0092084,-0.0010685999999994,0.0032966000000009,0.0027314000000001,0,sub_10
0.0212149999999998,4.300000000124534e-05,0.00905,-0.0017037999999994,0.0056372000000009,0.0040060000000001,0,sub_10
0.0211925999999998,-0.0003581999999987,0.0081074,-0.0012871999999994,0.0058532000000009,0.0044204000000001,0,sub_10
0.0221491999999998,0.0002446000000012,0.0081428,0.0006240000000005,0.0050036000000009,0.0035648000000001,0,sub_10
0.0212411999999998,0.0005958000000012,0.009029,0.0003832000000005,0.0005380000000009,0.0031260000000001,0,sub_10
0.0210245999999998,0.0004514000000012,0.0085356,0.0001588000000005,0.0007552000000009,0.0037496000000001,0,sub_10
0.0208301999999998,-0.0003723999999987,0.0081032,0.0014232000000005,-0.001158999999999,0.0033180000000001,0,sub_10
0.0211391999999998,0.0002662000000012,0.0088394,0.0022728000000005,-0.003075199999999,0.0022582000000001,0,sub_10
0.0210803999999998,9.440000000124526e-05,0.0094656,0.0018470000000005,-0.003072799999999,0.0020416000000001,0,sub_10
0.0220501999999998,-0.0005661999999987,0.009478,0.0016462000000005,0.0009708000000009,0.0033168000000001,0,sub_10
0.0223361999999998,-0.0012225999999987,0.0091836,0.0012008000000005,-0.000518199999999,0.0035104000000001,0,sub_10
0.0228455999999998,-0.0013909999999987,0.0091886,0.0003332000000005,-0.000728199999999,0.0039130000000001,0,sub_10
0.0232235999999998,-0.0012133999999987,0.0095964,0.0001118000000005,0.0001256000000009,0.0041052000000001,0,sub_10
0.0232317999999998,-0.0012639999999987,0.0093192,-0.0001097999999994,0.0005550000000009,0.0038704000000001,0,sub_10
0.0222941999999998,-0.0007089999999987,0.0086792,-0.0005505999999994,-0.001354199999999,0.0025690000000001,0,sub_10
0.0217595999999998,4.140000000124517e-05,0.0086898,0.0007286000000005,-0.002632599999999,0.0015114000000001,0,sub_10
0.0216371999999998,0.0003076000000012,0.0092368,0.0013746000000005,-0.002629799999999,0.0002340000000001,0,sub_10
0.0210095999999998,0.0003854000000012,0.0091152,0.0013784000000005,-0.002838599999999,-0.0008339999999998,0,sub_10
0.0201457999999998,0.0006282000000012,0.0089716,0.0015876000000005,-0.003469599999999,-0.0021333999999998,0,sub_10
0.0211099999999998,0.0006210000000012,0.0090578,0.0015910000000005,-0.002183199999999,-0.0032229999999998,0,sub_10
0.0213045999999998,0.0007948000000012,0.0091516,0.0005238000000005,-0.001533199999999,-0.0041057999999998,0,sub_10
0.0213767999999998,0.0009228000000012,0.0092196,-0.0007625999999994,-0.001524199999999,-0.0043481999999998,0,sub_10
0.0217701999999998,0.0005028000000012,0.0090598,-0.0020479999999994,-0.001089799999999,-0.0043775999999998,0,sub_10
0.0223979999999998,0.0003114000000012,0.0088592,-0.0026871999999994,-0.000874399999999,-0.0043821999999998,0,sub_10
0.0214061999999998,-0.0005109999999987,0.0093812,-0.0026871999999994,-0.000662199999999,-0.0041687999999998,0,sub_10
0.0211985999999998,-0.0006709999999987,0.0092564,-0.0026891999999994,-0.001724999999999,-0.0048083999999998,0,sub_10
0.0217311999999998,-6.019999999873488e-05,0.0088836,-0.0018327999999994,-0.002786399999999,-0.0065101999999998,0,sub_10
0.0219837999999998,-0.0004215999999987,0.0090184,-0.0011975999999994,-0.002567999999999,-0.0071623999999998,0,sub_10
0.0219855999999998,-0.0009159999999987,0.0094882,-0.0020539999999994,-0.001069399999999,-0.0069721999999998,0,sub_10
0.0222181999999998,-0.0002343999999987,0.0085962,-0.0022721999999994,-0.000211199999999,-0.0069901999999998,0,sub_10
0.0220571999999998,-0.0001891999999987,0.0094148,-0.0022751999999994,0.0014968000000009,-0.0065803999999998,0,sub_10
0.0209473999999998,-0.0004769999999987,0.0091636,-0.0024983999999994,0.0029874000000009,-0.0048899999999998,0,sub_10
0.0201067999999998,-0.0003095999999987,0.008806,-0.0027147999999994,0.0029856000000009,-0.0042503999999998,0,sub_10
0.0200287999999998,0.0006888000000012,0.0083688,-0.0014445999999994,0.0014906000000009,-0.0044685999999998,0,sub_10
0.0203963999999998,0.0010750000000012,0.0092084,-0.0008105999999994,0.0006380000000009,-0.0049057999999998,0,sub_10
0.0205249999999998,0.0009876000000012,0.0087046,-0.0008157999999994,-0.000423799999999,-0.0057745999999998,0,sub_10
0.0212029999999998,0.0008564000000012,0.0088932,-0.0006085999999994,-0.002548199999999,-0.0074949999999998,0,sub_10
0.0214607999999998,0.0008782000000012,0.0090592,-0.0001841999999994,-0.003396599999999,-0.0087883999999998,0,sub_10
0.0211123999999998,0.0006126000000012,0.0096192,-0.0006051999999994,-0.002753199999999,-0.0094329999999998,0,sub_10
0.0206009999999998,-0.0002213999999987,0.008906,-0.0014607999999994,-0.002751999999999,-0.0090115999999998,0,sub_10
0.0204621999999998,-0.0010507999999987,0.0092524,-0.0018885999999994,-0.002114799999999,-0.0081607999999998,0,sub_10
0.0204521999999998,-0.0012173999999987,0.0094164,-0.0023153999999994,-0.000840199999999,-0.0068835999999998,0,sub_10
0.0209927999999998,-0.0009693999999987,0.009507,-0.0021125999999994,-0.000845599999999,-0.0056175999999998,0,sub_10
0.0215177999999998,-0.0007783999999987,0.0094044,-0.0021241999999994,-0.001487799999999,-0.0047797999999998,0,sub_10
0.0220325999999998,-8.499999999875477e-05,0.0097598,-0.0016983999999994,-0.000424399999999,-0.0045819999999998,0,sub_10
0.0221879999999998,0.0007072000000012,0.009047,-0.0012763999999994,-0.000425399999999,-0.0045963999999998,0,sub_10
0.0217579999999998,0.0009802000000012,0.008823,-0.0006409999999994,-0.000851599999999,-0.0050359999999998,0,sub_10
0.0214497999999998,0.0010372000000012,0.0092338,-0.0008503999999994,-0.000847399999999,-0.0058919999999998,0,sub_10
0.0210053999999998,0.0006574000000012,0.0089514,-0.0006331999999994,-0.000420399999999,-0.0063181999999998,0,sub_10
0.0202835999999998,0.0005946000000012,0.0087372,-0.0002101999999994,-0.001274199999999,-0.0063141999999998,0,sub_10
0.0205329999999998,0.0002886000000012,0.0089736,0.0002090000000005,-0.001486599999999,-0.0058965999999998,0,sub_10
0.0209241999999998,-8.039999999871488e-05,0.0090222,-0.0002261999999994,-0.001696799999999,-0.0052713999999998,0,sub_10
0.0218341999999998,-2.4599999998694876e-05,0.008535,-2.239999999949397e-05,-0.001697999999999,-0.0042145999999998,0,sub_10
0.0217915999999998,4.200000001285164e-06,0.0086502,0.0001816000000005,-0.002335599999999,-0.0037979999999998,0,sub_10
0.0224757999999998,-0.0001921999999987,0.0089592,-0.0004621999999994,-0.001479799999999,-0.0031753999999998,0,sub_10
0.0229105999999998,0.0004642000000012,0.0089832,-0.0010955999999994,-0.000410599999999,-0.0036083999999998,0,sub_10
0.0232981999999998,0.0006636000000012,0.0087436,-0.0010869999999994,0.0008704000000009,-0.0042507999999998,0,sub_10
0.0224757999999998,0.0004812000000012,0.0088744,-0.0015059999999994,0.0013032000000009,-0.0055361999999998,0,sub_10
0.0220543999999998,0.0003224000000012,0.0081184,-0.0019209999999994,0.0034428000000009,-0.0059671999999998,0,sub_10
0.0216263999999998,0.0007526000000012,0.0074632,-0.0010673999999994,0.0023848000000009,-0.0070263999999998,0,sub_10
0.0213981999999998,0.0007252000000012,0.0068762,-0.0002203999999994,0.0011086000000009,-0.0068033999999998,0,sub_10
0.0211477999999998,0.0007808000000012,0.0077014,-0.0004335999999994,0.0021762000000009,-0.0057361999999998,0,sub_10
0.0216433999999998,0.0003454000000012,0.0072964,-0.0002151999999994,0.0049442000000009,-0.0040271999999998,0,sub_10
0.0219315999999998,0.0005724000000012,0.0076702,-0.0004411999999994,0.0023874000000009,-0.0038119999999998,0,sub_10
0.0216911999999998,0.0004466000000012,0.0084168,-0.0010801999999994,0.0019662000000009,-0.0044567999999998,0,sub_10
0.0207505999999998,-0.0002653999999987,0.0092156,-0.0012859999999994,0.0026104000000009,-0.0055271999999998,0,sub_10
0.0207731999999998,-0.0007189999999987,0.007965,-1.599999999493673e-06,0.0017602000000009,-0.0063575999999998,0,sub_10
0.0202773999999998,-0.0002461999999987,0.0082492,0.0004158000000005,-0.002281999999999,-0.0074033999999998,0,sub_10
0.0206615999999998,9.200000000124527e-05,0.0090112,0.0010620000000005,-0.001642799999999,-0.0071715999999998,0,sub_10
0.0214763999999998,-9.439999999873478e-05,0.0086346,0.0012766000000005,-0.001006399999999,-0.0058747999999998,0,sub_10
0.0225095999999998,0.0001310000000012,0.0085542,0.0004188000000005,-0.001644599999999,-0.0045837999999998,0,sub_10
0.0219833999999998,-3.3199999998734764e-05,0.0093882,-0.0006527999999994,-0.002705999999999,-0.0045897999999998,0,sub_10
0.0224079999999998,0.0002826000000012,0.0092318,-0.0006489999999994,-0.002065999999999,-0.0048041999999998,0,sub_10
0.0229513999999998,0.0004518000000012,0.0090074,-0.0004335999999994,-0.002277199999999,-0.0054433999999998,0,sub_10
0.0234735999999998,0.0003638000000012,0.0097052,1.0400000000506228e-05,-0.000353199999999,-0.0060581999999998,0,sub_10
0.0225663999999998,0.0009168000000012,0.0091864,0.0008754000000005,0.0007156000000009,-0.0062417999999998,0,sub_10
0.0218447999999998,0.0013212000000012,0.0088208,0.0017318000000005,0.0007156000000009,-0.0055693999999998,0,sub_10
0.0208917999999998,0.0014228000000012,0.0089112,0.0021644000000005,0.0002954000000009,-0.0059677999999998,0,sub_10
0.0200237999999998,0.0013548000000012,0.0088028,0.0023798000000005,-0.000764199999999,-0.0061531999999998,0,sub_10
0.0196839999999998,0.0016072000000012,0.0078098,0.0023702000000005,-0.002682399999999,-0.0059369999999998,0,sub_10
0.0200673999999998,0.0002392000000012,0.007969,0.0012956000000005,-0.003746399999999,-0.0053021999999998,0,sub_10
0.0205909999999998,-0.0006127999999987,0.0081528,-0.0006179999999994,-0.002671799999999,-0.0044333999999998,0,sub_10
0.0211345999999998,-0.0017141999999987,0.0085072,-0.0014705999999994,-0.001393999999999,-0.0020617999999998,0,sub_10
0.0211037999999998,-0.0031217999999987,0.0088518,-0.0014695999999994,9.320000000095911e-05,0.0005292000000001,0,sub_10
0.0205083999999998,-0.0041067999999987,0.0092454,-0.0006169999999994,0.0005146000000009,0.0024864000000001,0,sub_10
0.0211169999999998,-0.0029147999999987,0.0090326,0.0019540000000005,0.0013646000000009,0.0023188000000001,0,sub_10
