userAcceleration.x,userAcceleration.y,userAcceleration.z,rotationRate.x,rotationRate.y,rotationRate.z,label,subject
0.0222035999999997,0.0243226000000012,0.0021814,-0.0055281999999995,-0.0098685999999991,-0.0125371999999998,0,sub_2
0.0161821999999997,0.0207128000000012,-0.0010843999999999,-0.0040497999999995,-0.0086141999999991,-0.0078281999999999,0,sub_2
0.0129893999999997,0.0190038000000012,-0.0012799999999999,-0.0070473999999995,-0.0045811999999991,-0.0014449999999999,0,sub_2
0.0112697999999998,0.0197196000000012,-0.0008327999999999,-0.0079113999999995,-0.0009801999999991,0.0045264,0,sub_2
0.0107299999999997,0.0193884000000012,-0.0005815999999999,-0.0070645999999995,0.0024060000000008,0.0094418,0,sub_2
0.0101993999999997,0.0201198000000012,5.740000000007059e-05,-0.0068491999999995,0.0053776000000008,0.0120032,0,sub_2
0.0103731999999997,0.0229808000000012,8.220000000007056e-05,-0.0064177999999995,0.0064414000000008,0.0120048,0,sub_2
0.0100055999999997,0.0240970000000012,0.0002868,-0.0040707999999995,0.0045234000000008,0.0101008,0,sub_2
0.0098959999999997,0.0241276000000012,0.0007232,-0.0021437999999995,0.0017640000000008,0.005845,0,sub_2
0.0096171999999998,0.0241160000000012,0.0008912,-0.0016987999999995,0.0009300000000008,0.0009354,0,sub_2
0.0108661999999998,0.0238446000000011,0.0003006,-0.0004061999999995,0.0003000000000008,-0.0024729999999999,0,sub_2
0.0121041999999998,0.0225290000000011,0.000346,0.0017352000000004,0.0002994000000008,-0.0041671999999999,0,sub_2
0.0135665999999998,0.0209304000000012,0.0002696,0.0028020000000004,0.0007200000000008,-0.0037329999999999,0,sub_2
0.0159635999999998,0.0201686000000012,-6.859999999990948e-05,0.0032288000000004,0.0024162000000008,-0.0020231999999999,0,sub_2
0.0174963999999998,0.0195182000000012,-0.0002505999999999,0.0030096000000004,0.0032606000000008,0.0001106,0,sub_2
0.0183687999999998,0.0200304000000012,-0.0001083999999999,0.0023638000000004,0.0032578000000008,0.001388,0,sub_2
0.0184337999999998,0.0206040000000012,-4.759999999992956e-05,0.0015046000000004,0.0026190000000008,0.0020238,0,sub_2
0.0186793999999998,0.0213808000000012,-0.0001315999999999,0.0010760000000004,0.0019822000000008,0.001808,0,sub_2
0.0172495999999998,0.0212176000000012,-0.0002273999999999,0.0008578000000004,0.0007054000000008,0.0015946,0,sub_2
0.0160539999999998,0.0210576000000012,-4.079999999992958e-05,0.0010692000000004,-0.0003579999999991,0.0009566,0,sub_2
0.0145673999999998,0.0209776000000012,-0.0003317999999999,0.0012992000000004,-0.0009921999999991,0.0001246000000001,0,sub_2
0.0136309999999998,0.0210872000000012,-0.0005237999999999,0.0017416000000004,-0.0012035999999991,-6.539999999988909e-05,0,sub_2
0.0124823999999998,0.0212970000000012,-0.0003319999999999,0.0017582000000004,-0.0005637999999991,0.0003814000000001,0,sub_2
0.0130217999999997,0.0215876000000012,0.000268,0.0022016000000004,7.460000000088771e-05,0.0008310000000001,0,sub_2
0.0135277999999997,0.0219438000000012,0.0003974,0.0028612000000004,0.0011392000000008,0.0010680000000001,0,sub_2
0.0141779999999997,0.0213954000000012,0.0007462,0.0026496000000004,0.0019906000000008,0.0014928,0,sub_2
0.0147965999999997,0.0213856000000012,0.0002872,0.0022256000000004,0.0024192000000008,0.0012756,0,sub_2
0.0157105999999997,0.0209026000000012,-0.0003617999999999,0.0020142000000004,0.0024216000000008,0.0008468,0,sub_2
0.0160387999999997,0.0213146000000012,-0.0007255999999999,0.0009492000000004,0.0024270000000008,0.0004122,0,sub_2
0.0158423999999997,0.0212920000000012,-0.0008199999999999,0.0007616000000004,0.0017640000000008,0.0001926,0,sub_2
0.0154839999999997,0.0212140000000012,-0.0014295999999998,0.0007894000000004,0.0015264000000008,-2.619999999990909e-05,0,sub_2
0.0155415999999997,0.0204794000000012,-0.0015415999999998,-0.0002467999999995,0.0019316000000008,-0.0002531999999999,0,sub_2
0.0158011999999997,0.0212104000000012,-0.0010131999999999,-0.0014965999999995,0.0021256000000008,-0.0006949999999999,0,sub_2
0.0152515999999998,0.0209206000000012,-0.0007637999999999,-0.0010431999999995,0.0020978000000008,-0.0004837999999999,0,sub_2
0.0149951999999998,0.0201696000000012,-0.0004099999999998,-0.0010421999999995,0.0027352000000008,-5.739999999990909e-05,0,sub_2
0.0145619999999997,0.0201836000000012,-0.0003691999999999,-0.0016841999999995,0.0027358000000008,0.0003654,0,sub_2
0.0140789999999997,0.0204310000000012,0.0002988,-0.0012621999999995,0.0018814000000008,0.000583,0,sub_2
0.0132677999999997,0.0202320000000012,0.0007768,5.640000000047007e-05,0.0016416000000008,0.0005892,0,sub_2
0.0129883999999997,0.0203986000000012,0.0010002,0.0001006000000004,0.0024724000000008,0.0003716,0,sub_2
0.0130127999999997,0.0215968000000012,0.0002756,-7.439999999952996e-05,0.0018134000000008,-5.9199999999889095e-05,0,sub_2
0.0138681999999997,0.0220198000000012,0.00061,0.0010298000000004,0.0007246000000008,-0.0006941999999998,0,sub_2
0.0144489999999997,0.0220336000000012,0.0006774,0.0019226000000004,0.0004870000000008,-0.0009043999999998,0,sub_2
0.0152253999999998,0.0210822000000012,0.0002408,0.0023464000000004,5.840000000088772e-05,-0.0006871999999998,0,sub_2
0.0156757999999998,0.0207752000000012,-0.0001815999999999,0.0017024000000004,-0.0007915999999991,-0.0006905999999998,0,sub_2
0.0158773999999997,0.0204986000000012,9.28000000000906e-05,0.0010894000000004,-0.000808799999999,-0.0007007999999998,0,sub_2
0.0155083999999997,0.0207678000000012,0.0002224,-0.0001617999999995,-0.000185599999999,-0.0005025999999998,0,sub_2
0.0147947999999997,0.0216066000000012,0.00036,-0.0009881999999995,0.0004346000000008,0.0001258,0,sub_2
0.0139163999999997,0.0226082000000012,0.0001618,-0.0016001999999995,0.0010548000000008,0.0005422,0,sub_2
0.0132459999999997,0.0229306000000012,0.0001632,-0.0011481999999995,0.0006078000000008,0.00054,0,sub_2
0.0128391999999997,0.0226348000000012,-0.0001841999999999,-0.0007205999999995,0.0006072000000008,0.0003294,0,sub_2
0.0132527999999997,0.0225130000000012,-0.0005045999999999,0.0003492000000004,0.0008182000000008,-9.05999999999291e-05,0,sub_2
0.0133979999999997,0.0218036000000012,-0.0007473999999999,0.0007768000000004,0.0006052000000008,-0.0005145999999999,0,sub_2
0.0141727999999998,0.0211258000000012,-0.0004247999999999,0.0005654000000004,0.0003956000000008,-0.0011567999999999,0,sub_2
0.0146833999999998,0.0204350000000012,0.0001266,0.0005818000000004,0.0008062000000008,-0.0013765999999999,0,sub_2
0.0155741999999998,0.0204030000000012,0.0001684,0.0003812000000004,0.0010018000000008,-0.0009567999999999,0,sub_2
0.0153503999999998,0.0201284000000012,0.000137,-3.579999999952984e-05,0.0009836000000008,-0.0001109999999999,0,sub_2
0.0156809999999998,0.0207702000000012,-0.0005473999999999,-2.499999999952984e-05,0.0007526000000008,0.0003108,0,sub_2
0.0150211999999998,0.0210644000000012,-0.0008103999999999,0.0001972000000004,9.46000000008878e-05,0.0007346,0,sub_2
0.0147687999999997,0.0212356000000012,-0.0010541999999999,0.0004096000000004,9.30000000008878e-05,0.0009498,0,sub_2
0.0139205999999997,0.0211342000000012,-0.0006993999999999,0.0004104000000004,9.400000000088782e-05,0.000736,0,sub_2
0.0133387999999997,0.0212572000000012,-0.0005057999999999,0.0006312000000004,8.140000000088781e-05,9.040000000009084e-05,0,sub_2
0.0130609999999997,0.0205586000000012,0.0004818,0.0006398000000004,7.020000000088781e-05,-0.0007703999999999,0,sub_2
0.0134113999999997,0.0200852000000012,0.00067,0.0006484000000004,0.0004834000000008,-0.0012043999999998,0,sub_2
0.0135919999999998,0.0199864000000012,0.0001276,0.0004416000000004,0.0008958000000008,-0.0012127999999998,0,sub_2
0.0141569999999998,0.0204386000000012,-0.0001803999999999,0.0006588000000004,0.0008796000000008,-0.0010037999999998,0,sub_2
0.0145869999999998,0.0205438000000012,-0.0003991999999999,0.0010856000000004,0.0013024000000008,-0.0005741999999998,0,sub_2
0.0146725999999998,0.0209030000000012,-0.0008741999999998,0.0019390000000004,0.0021482000000008,0.0002854000000001,0,sub_2
0.0144415999999998,0.0212082000000012,-0.0006569999999998,0.0027914000000004,0.0025688000000008,0.0009318,0,sub_2
0.0143065999999998,0.0212822000000012,-0.0007239999999999,0.0030094000000004,0.0023432000000008,0.000502,0,sub_2
0.0140173999999998,0.0204320000000012,-0.0008643999999999,0.0025920000000004,0.0029730000000008,-0.0001471999999999,0,sub_2
0.0142685999999998,0.0199186000000012,-0.0014009999999999,0.0011078000000004,0.0036066000000008,-0.0008037999999999,0,sub_2
0.0148277999999998,0.0194802000000012,-0.0007875999999999,0.0002608000000004,0.0033866000000008,-0.0016685999999999,0,sub_2
0.0156099999999998,0.0191302000000012,-0.0004611999999999,0.0002646000000004,0.0027366000000008,-0.0023131999999999,0,sub_2
0.0162157999999998,0.0186182000000012,0.0003712,-0.0001659999999995,0.0020982000000008,-0.0021017999999999,0,sub_2
0.0161577999999997,0.0191088000000012,0.0003634,-0.0001707999999995,0.0014574000000009,-0.0016735999999999,0,sub_2
0.0156775999999997,0.0195402000000012,0.0009538,0.0006732000000004,0.0001726000000009,-0.0008113999999999,0,sub_2
0.0149865999999997,0.0203238000000012,0.0007166,0.0008848000000004,0.0003824000000009,-0.0001691999999999,0,sub_2
0.0138231999999997,0.0206746000000012,0.0003804,0.0004570000000004,0.0005852000000008,0.0004664,0,sub_2
0.0131451999999997,0.0212170000000012,-0.0005411999999999,0.0008868000000004,0.0005762000000008,4.000000000009083e-05,0,sub_2
0.0131255999999998,0.0211956000000012,-7.059999999990926e-05,0.0015288000000004,-7.099999999911206e-05,-0.0008113999999999,0,sub_2
0.0136067999999998,0.0206068000000012,-0.0003133999999999,0.0023860000000004,-0.0005049999999991,-0.0018751999999999,0,sub_2
0.0141423999999998,0.0196442000000012,-0.0008313999999998,0.0023868000000004,-0.0015751999999991,-0.0029441999999999,0,sub_2
0.0149423999999998,0.0189396000000012,-0.0012979999999998,0.0017486000000004,-0.0017833999999991,-0.0035893999999998,0,sub_2
0.0154425999999998,0.0195020000000012,-0.0008573999999998,0.0006826000000004,-0.0013543999999991,-0.0033837999999998,0,sub_2
0.0155255999999998,0.0197750000000012,-0.0010383999999998,-0.0001715999999995,-0.0009353999999991,-0.0025359999999998,0,sub_2
0.0150057999999998,0.0202608000000012,-0.0006473999999998,-0.0016639999999995,-0.0003001999999991,-0.0019065999999998,0,sub_2
0.0144825999999998,0.0206630000000012,-0.0001775999999998,-0.0023065999999995,-0.0005201999999991,-0.0012699999999998,0,sub_2
0.0141763999999998,0.0211164000000012,-0.0001395999999999,-0.0025177999999995,-0.0007373999999991,-0.0016985999999999,0,sub_2
0.0136987999999998,0.0206170000000012,7.400000000009068e-05,-0.0023011999999995,-0.0009551999999991,-0.0023379999999999,0,sub_2
0.0139441999999997,0.0206424000000012,-9.379999999990932e-05,-0.0025105999999995,-0.0007387999999991,-0.0029805999999999,0,sub_2
0.0147093999999997,0.0207794000000012,-0.0004293999999999,-0.0025105999999995,-0.0011631999999991,-0.0034071999999999,0,sub_2
0.0145205999999997,0.0209192000000012,-0.0010907999999999,-0.0022971999999995,-0.0011639999999991,-0.0034057999999999,0,sub_2
0.0146747999999997,0.0213390000000012,-0.0008833999999999,-0.0018743999999995,-0.0011745999999991,-0.0025483999999999,0,sub_2
0.0147087999999997,0.0213024000000012,-0.0011771999999998,-0.0012401999999995,-0.0011877999999991,-0.0012619999999999,0,sub_2
0.0141117999999998,0.0214536000000012,-0.0007965999999998,-0.0006059999999995,-0.0016251999999991,-0.0004025999999999,0,sub_2
0.0133687999999998,0.0210546000000012,-0.0005749999999998,3.220000000047006e-05,-0.0016347999999991,2.9000000000050903e-05,0,sub_2
0.0133941999999997,0.0211576000000012,-6.799999999869367e-06,0.0006722000000004,-0.0012181999999991,0.0004602,0,sub_2
0.0131025999999997,0.0209258000000012,-0.0003017999999998,0.0008856000000004,-0.0010067999999991,0.0006752,0,sub_2
0.0135579999999997,0.0203554000000012,-0.0001971999999998,0.0008866000000004,-0.0012181999999991,0.0002482,0,sub_2
0.0138767999999997,0.0202548000000012,-3.819999999984934e-05,0.0006752000000004,-0.0010035999999991,3.2800000000090854e-05,0,sub_2
0.0139639999999997,0.0203176000000012,-0.0001945999999998,0.0006742000000004,-0.0010043999999991,0.0002464,0,sub_2
0.0143357999999997,0.0206960000000012,-0.0001623999999998,0.0004582000000004,-0.0010113999999991,0.0002452,0,sub_2
0.0144647999999997,0.0211294000000012,0.000579,0.0010968000000004,-0.0008081999999991,0.0002498,0,sub_2
0.0139213999999997,0.0216994000000012,0.0008684,0.0017344000000004,-0.0006057999999991,0.000468,0,sub_2
0.0137535999999997,0.0211022000000012,0.0007618,0.0021596000000004,-0.0001895999999991,0.0006846,0,sub_2
0.0140309999999997,0.0209692000000012,0.0008354,0.0023724000000004,1.5800000000847885e-05,0.0004726,0,sub_2
0.0142525999999997,0.0197844000000012,-7.639999999994942e-05,0.0023734000000004,1.660000000084788e-05,0.000259,0,sub_2
0.0147317999999997,0.0192636000000012,-0.0010787999999999,0.0006692000000004,0.0004496000000008,3.2800000000090894e-05,0,sub_2
0.0154493999999997,0.0199958000000012,-0.0021683999999999,-0.0018897999999995,0.0013024000000008,-0.0001977999999999,0,sub_2
0.0165629999999997,0.0208572000000012,-0.0020043999999999,-0.0027475999999995,0.0010830000000008,-0.0002013999999999,0,sub_2
0.0165137999999997,0.0210464000000012,-0.0018365999999999,-0.0023241999999995,0.0010724000000008,-0.0001961999999999,0,sub_2
0.0162513999999997,0.0216580000000012,-0.0010543999999999,-0.0023275999999995,0.0014876000000008,0.0002326,0,sub_2
0.0150489999999997,0.0217550000000012,-0.0007875999999998,-0.0010525999999995,0.0012600000000008,0.0004576,0,sub_2
0.0139235999999997,0.0212632000000012,0.0002518000000001,0.0017174000000004,0.0008224000000008,0.0009048,0,sub_2
0.0123879999999998,0.0209166000000012,0.0001318000000001,0.0034272000000004,0.0016678000000008,0.0011292,0,sub_2
0.0117623999999998,0.0208876000000012,-0.0005441999999998,0.0032178000000004,0.0027330000000008,0.00134,0,sub_2
0.0121073999999998,0.0207622000000012,-0.0007699999999998,0.0034300000000004,0.0027298000000008,0.00092,0,sub_2
0.0132725999999998,0.0205958000000012,-0.0005801999999998,0.0034296000000004,0.0025158000000008,7.14000000000708e-05,0,sub_2
0.0144687999999998,0.0199674000000012,-0.0007845999999998,0.0027882000000004,0.0023034000000008,-0.0005679999999999,0,sub_2
0.0155417999999998,0.0193678000000012,-0.0009439999999998,0.0015018000000004,0.0012402000000008,-0.0009971999999999,0,sub_2
0.0163923999999998,0.0188344000000012,-0.0003713999999999,0.0010660000000004,-4.0999999999132185e-05,-0.0009929999999999,0,sub_2
0.0163623999999998,0.0189344000000012,-0.0006611999999999,-2.799999999550298e-06,-0.0002511999999991,-0.0007865999999999,0,sub_2
0.0161551999999998,0.0192804000000012,-0.0007471999999999,-0.0006475999999995,-0.0004653999999991,6.380000000007083e-05,0,sub_2
0.0159493999999998,0.0202276000000012,-0.0008015999999998,-0.0010773999999995,-0.0004663999999991,0.0007018,0,sub_2
0.0151781999999998,0.0205836000000012,-0.0013133999999998,-0.0008657999999995,-0.0006827999999991,0.0011394,0,sub_2
0.0148303999999998,0.0209544000000012,-0.0017725999999998,-0.0006505999999995,-0.0008955999999991,0.0007226,0,sub_2
0.0146183999999998,0.0208362000000012,-0.0012041999999998,-8.599999999550262e-06,-0.0013221999999991,9.54000000000909e-05,0,sub_2
0.0142793999999998,0.0205114000000012,-0.0009973999999998,-0.0002181999999995,-0.0011075999999991,-0.0003251999999999,0,sub_2
0.0137649999999997,0.0200744000000012,-0.0014661999999998,-0.0004295999999995,-0.0013191999999991,-0.0007451999999999,0,sub_2
0.0139663999999997,0.0201244000000012,-0.0008527999999998,-0.0008535999999995,-0.0008907999999991,-0.0009621999999998,0,sub_2
0.0139055999999997,0.0202968000000012,-0.0001979999999998,-0.0010669999999995,-0.0004657999999991,-0.0005369999999999,0,sub_2
0.0135765999999997,0.0203880000000012,-0.0003397999999998,-0.0008583999999995,-0.0006829999999991,0.0003192,0,sub_2
0.0136231999999997,0.0203836000000012,-0.0002805999999998,-6.799999999530272e-06,-0.0008997999999991,0.0005392,0,sub_2
0.0133113999999997,0.0202568000000012,2.720000000009056e-05,0.0004200000000004,-0.0004741999999991,0.0007614,0,sub_2
0.0133219999999997,0.0208098000000012,-0.0001757999999999,0.0010582000000004,-0.0008997999999991,0.0005588,0,sub_2
0.0131027999999997,0.0208510000000012,-0.0001451999999999,0.0012696000000004,-0.0008995999999991,0.00078,0,sub_2
0.0132525999999997,0.0208368000000012,-0.0002159999999999,0.0012734000000004,-4.479999999911217e-05,0.0005714,0,sub_2
0.0135509999999997,0.0204832000000012,-0.0003407999999999,0.0008476000000004,0.0001724000000008,0.0003606,0,sub_2
0.0142397999999997,0.0202660000000012,-0.0001237999999999,0.0002074000000004,-0.0006741999999991,-0.0004973999999998,0,sub_2
0.0149353999999997,0.0199740000000012,-0.0004305999999999,-0.0006441999999995,-0.0006695999999991,-0.0009305999999998,0,sub_2
0.0157295999999997,0.0200788000000012,-0.0006235999999999,-0.0010679999999995,-0.0006641999999991,-0.0017831999999998,0,sub_2
0.0157249999999997,0.0205974000000012,-0.0006133999999998,-0.0014965999999995,-0.0010875999999991,-0.0019941999999998,0,sub_2
0.0156797999999997,0.0215624000000012,-0.0006085999999998,-0.0012899999999995,-0.0017297999999991,-0.0013459999999998,0,sub_2
0.0152599999999997,0.0217160000000012,-0.0007097999999998,-0.0006535999999995,-0.0010975999999991,-5.539999999990926e-05,0,sub_2
0.0148759999999998,0.0218714000000012,-0.0004703999999998,0.0001962000000004,-0.0006783999999991,0.0010232,0,sub_2
0.0141705999999998,0.0221658000000012,-0.0002501999999998,0.0010498000000004,-0.0002569999999991,0.001456,0,sub_2
0.0134145999999997,0.0215202000000012,-0.0007041999999999,0.0019042000000004,-0.0002591999999991,0.0012482000000001,0,sub_2
0.0129041999999997,0.0205480000000012,-0.0010275999999999,0.0010604000000004,0.0003890000000008,-0.0002539999999998,0,sub_2
0.0136943999999997,0.0214628000000012,-0.0012537999999999,1.200000000469749e-06,0.0008240000000008,-0.0015437999999998,0,sub_2
0.0139633999999997,0.0202626000000012,-0.0010605999999999,5.400000000469699e-06,0.0014632000000008,-0.0023973999999998,0,sub_2
0.0146593999999997,0.0190308000000012,-0.0008641999999999,-0.0012811999999995,0.0012486000000008,-0.0017633999999998,0,sub_2
0.0158687999999998,0.0193600000000012,-0.0003675999999999,-0.0019293999999995,0.0008180000000008,-0.0009109999999998,0,sub_2
0.0165631999999998,0.0194358000000012,-0.0007117999999999,-0.0012993999999995,0.0003810000000009,0.0003776000000001,0,sub_2
0.0165213999999997,0.0187952000000012,0.0005694,-0.0006655999999995,-5.2599999999092216e-05,0.0008116,0,sub_2
0.0159537999999997,0.0201898000000012,0.0006154,-0.0006693999999995,-0.000692599999999,0.001026,0,sub_2
0.0155481999999997,0.0214228000000012,-9.639999999990954e-05,0.0001860000000004,-0.000693999999999,0.0006046,0,sub_2
0.0145575999999997,0.0217508000000012,-0.0005705999999998,0.0010398000000004,-0.000485999999999,0.0003968,0,sub_2
0.0139503999999997,0.0220180000000012,0.0002704000000001,0.0021062000000004,-0.0002795999999991,0.000404,0,sub_2
0.0139719999999998,0.0213354000000012,-0.0009091999999998,0.0025296000000004,-0.0004977999999991,0.000621,0,sub_2
0.0142653999999998,0.0203568000000012,-0.0010173999999998,0.0018870000000004,-0.0009237999999991,0.0004034,0,sub_2
0.0145223999999998,0.0198534000000012,-0.0008843999999998,0.0016732000000004,-0.0011371999999991,-2.4999999999909335e-05,0,sub_2
0.0152439999999998,0.0198222000000012,-0.0006753999999999,0.0006102000000004,-0.0002811999999991,-3.359999999990935e-05,0,sub_2
0.0155913999999998,0.0198636000000012,-0.0009233999999999,-0.0004557999999995,-6.439999999915223e-05,-4.139999999992934e-05,0,sub_2
0.0146307999999998,0.0206300000000012,-0.0005815999999999,-0.0006691999999995,-6.359999999915224e-05,-4.299999999992935e-05,0,sub_2
0.0140803999999998,0.0211994000000012,-0.0011165999999999,-0.0004551999999995,0.0005710000000008,0.000384,0,sub_2
0.0137321999999998,0.0225296000000012,-0.0007023999999999,0.0001836000000004,0.0007780000000008,0.0008144,0,sub_2
0.0125991999999998,0.0232404000000012,0.0006044,0.0027456000000004,0.0018296000000008,0.0014708,0,sub_2
0.0109903999999998,0.0224590000000012,0.002174,0.0046752000000004,0.0045880000000008,0.0021206,0,sub_2
0.0097559999999998,0.0209326000000012,0.0029596,0.0044692000000004,0.0062910000000008,0.0021158,0,sub_2
0.0109689999999998,0.0179388000000012,0.001688,0.0021222000000004,0.0048138000000008,0.0006056,0,sub_2
0.0140173999999998,0.0145260000000012,-0.0009485999999999,-0.0019395999999995,0.0012138000000008,-0.0013409999999999,0,sub_2
0.0185835999999998,0.0116472000000012,-0.0042487999999999,-0.0077149999999995,-0.003234999999999,-0.0026575999999999,0,sub_2
0.0227201999999998,0.0135990000000012,-0.0057887999999998,-0.0124273999999995,-0.007478799999999,-0.0028987999999999,0,sub_2
0.0252571999999997,0.0185108000000012,-0.0057257999999998,-0.0137189999999995,-0.009395599999999,-0.0020513999999999,0,sub_2
0.0240971999999997,0.0254576000000012,-0.0017835999999998,-0.0107325999999995,-0.007710599999999,0.0001032,0,sub_2
0.0176149999999997,0.0313880000000012,0.0022078000000001,-0.0049587999999995,-0.002840399999999,0.0024866,0,sub_2
0.0107793999999997,0.0326192000000012,0.0034580000000001,0.0014560000000004,0.0003308000000009,0.002954,0,sub_2
0.0063075999999997,0.0290890000000012,0.0013946,0.0063676000000004,0.0001036000000008,0.0021334,0,sub_2
0.0050321999999998,0.0213156000000012,-0.0007469999999999,0.0091454000000004,-0.0005393999999991,0.000658,0,sub_2
0.0067579999999998,0.0131836000000012,-0.0038913999999999,0.0085206000000004,0.0005374000000008,-0.0016979999999999,0,sub_2
0.0110917999999998,0.0059656000000012,-0.0061145999999999,0.0038466000000004,0.0016326000000008,-0.0051503999999999,0,sub_2
0.0148759999999998,0.0067796000000012,-0.0051515999999999,-0.0029607999999995,0.0025216000000008,-0.0084053999999998,0,sub_2
0.0171287999999998,0.0111494000000012,-0.0038017999999999,-0.0086945999999995,0.0053226000000008,-0.0112279999999998,0,sub_2
0.0166615999999998,0.0182290000000012,-0.0026657999999999,-0.0123053999999995,0.0078948000000008,-0.0118989999999998,0,sub_2
0.0141017999999998,0.0244478000000012,-0.0013405999999999,-0.0129479999999995,0.0081052000000008,-0.0106233999999998,0,sub_2
0.0129891999999998,0.0291998000000012,-0.0001789999999999,-0.0104063999999995,0.0065924000000008,-0.0074005999999998,0,sub_2
0.0126813999999997,0.0292730000000012,0.0003044,-0.0061533999999995,0.0063526000000008,-0.0043795999999999,0,sub_2
0.0127219999999997,0.0267662000000012,0.0005006,-0.0025299999999995,0.0076098000000008,-0.0022195999999999,0,sub_2
0.0140783999999997,0.0238434000000012,-0.0005783999999999,-0.0001715999999995,0.0105820000000008,-0.0015671999999999,0,sub_2
0.0153979999999997,0.0216824000000012,-0.0021455999999999,0.0011246000000004,0.0135622000000008,-0.0019905999999999,0,sub_2
0.0146303999999997,0.0201036000000012,-0.0020761999999999,0.0017884000000004,0.0178246000000008,-0.0028471999999999,0,sub_2
0.0129351999999998,0.0188280000000012,-0.0026883999999999,0.0015988000000004,0.0231510000000008,-0.0026429999999999,0,sub_2
0.0116595999999998,0.0189218000000012,-0.0019883999999999,0.0003404000000004,0.0284794000000008,-0.0020189999999999,0,sub_2
0.0110599999999998,0.0181850000000012,-0.0006049999999999,-0.0013531999999995,0.0323168000000008,-0.0011811999999999,0,sub_2
0.0104973999999998,0.0187150000000012,-0.0008871999999999,-0.0030475999999995,0.0376390000000008,0.0013638,0,sub_2
0.0122267999999998,0.0207996000000012,-0.0032557999999999,-0.0049583999999995,0.0433838000000008,0.004975,0,sub_2
0.0153351999999998,0.0249680000000012,-0.0039157999999999,-0.0064601999999995,0.0476278000000008,0.0105128,0,sub_2
0.0179751999999998,0.0279742000000012,-0.0041843999999999,-0.0067007999999995,0.0503648000000008,0.0188386,0,sub_2
0.0202001999999998,0.0309800000000012,-0.0040761999999999,-0.0073795999999995,0.0513956000000008,0.028018,0,sub_2
0.0236295999999997,0.0334322000000012,-0.0020669999999999,-0.0093473999999995,0.0498766000000008,0.036551,0,sub_2
