userAcceleration.x,userAcceleration.y,userAcceleration.z,rotationRate.x,rotationRate.y,rotationRate.z,label,subject
-0.0490110000000002,0.0325444000000012,0.0023612,0.0284048000000004,-0.077049999999999,0.0268430000000001,0,sub_18
-0.0422202000000002,0.0347064000000012,0.007499,0.0381988000000004,-0.070312599999999,0.0384396000000001,0,sub_18
-0.0266182000000002,0.0332176000000012,0.0130926,0.0588538000000004,-0.077637199999999,0.0407298000000001,0,sub_18
-0.0101292000000002,0.0317940000000012,0.0120994,0.0788724000000004,-0.092595599999999,0.0344794,0,sub_18
0.0072425999999997,0.0314688000000012,0.0121946,0.0901686000000004,-0.102407399999999,0.0275206,0,sub_18
0.0181187999999997,0.0308050000000012,0.015541,0.0940160000000004,-0.105173399999999,0.023278,0,sub_18
0.0163591999999997,0.0286560000000012,0.0145172,0.0978394000000004,-0.113053599999999,0.0192556,0,sub_18
0.0118845999999998,0.0269142000000012,0.0125888,0.1011946000000004,-0.131169399999999,0.0158822,0,sub_18
0.0052039999999998,0.0246724000000012,0.0110818,0.1011464000000004,-0.144171199999999,0.015256,0,sub_18
-0.0057340000000001,0.0232372000000012,0.00689,0.0977112000000004,-0.146527199999999,0.0192926000000001,0,sub_18
-0.0134088000000001,0.0198244000000012,0.0011846,0.0913042000000004,-0.145039599999999,0.0237310000000001,0,sub_18
-0.0131474000000001,0.0187112000000011,-0.0001387999999999,0.0766082000000004,-0.138613199999999,0.0257550000000001,0,sub_18
-0.0113732000000002,0.0199606000000011,0.0012726,0.0574920000000004,-0.122341399999999,0.0223960000000001,0,sub_18
-0.0104412000000002,0.0211744000000011,0.0037348,0.0415754000000004,-0.112447399999999,0.0128718000000001,0,sub_18
-0.0077196000000002,0.0217438000000011,0.00605,0.0326492000000004,-0.115991999999999,0.0012772000000001,0,sub_18
-0.0064284000000001,0.0262170000000011,0.0079694,0.0262776000000004,-0.118489599999999,-0.0079509999999998,0,sub_18
-0.0071448000000001,0.0331078000000011,0.0091516,0.0229010000000004,-0.115473599999999,-0.0133195999999998,0,sub_18
-0.0085824000000001,0.0365210000000012,0.0089416,0.0233450000000004,-0.109517999999999,-0.0111877999999998,0,sub_18
-0.0070380000000001,0.0386522000000012,0.0090128,0.0285110000000004,-0.094641799999999,-0.0062569999999998,0,sub_18
-0.0060054000000001,0.0387262000000012,0.010274,0.0322036000000004,-0.074649599999999,-0.0007021999999998,0,sub_18
-0.0046086000000002,0.0372064000000012,0.0111578,0.0335414000000004,-0.058051199999999,0.0031316000000001,0,sub_18
-0.0039694000000002,0.0336212000000012,0.0098914,0.0333530000000004,-0.050389199999999,0.0052568,0,sub_18
-0.0028942000000002,0.0313362000000012,0.0092998,0.0321398000000004,-0.037593199999999,0.0030956,0,sub_18
-0.0040008000000001,0.0288320000000012,0.0085632,0.0279088000000004,-0.031392199999999,0.0011354000000001,0,sub_18
-0.0051378000000001,0.0282444000000012,0.0070376,0.0228320000000004,-0.024756799999999,-0.0021131999999998,0,sub_18
-0.0052500000000001,0.0283430000000012,0.0053518,0.0177714000000004,-0.015348399999999,-0.0062197999999998,0,sub_18
-0.0044136000000001,0.0283420000000012,0.0059398,0.0125242000000004,0.0002386000000009,-0.0101219999999998,0,sub_18
-0.0020452000000002,0.0267914000000012,0.005355,0.0070044000000004,0.0064366000000009,-0.0101685999999998,0,sub_18
-0.0016030000000002,0.0271334000000012,0.005655,0.0008740000000004,0.0177560000000009,-0.0117215999999998,0,sub_18
-0.0004186000000002,0.0278076000000012,0.00665,-0.0054801999999995,0.0280056000000009,-0.0119927999999998,0,sub_18
-0.0012030000000002,0.0286258000000012,0.0073358,-0.0112047999999995,0.0367584000000009,-0.0114031999999998,0,sub_18
-0.0024140000000002,0.0290270000000012,0.0073026,-0.0148061999999995,0.0433722000000009,-0.0105821999999998,0,sub_18
-0.0054376000000002,0.0305850000000012,0.009034,-0.0162605999999995,0.0516882000000009,-0.0110301999999998,0,sub_18
-0.0071442000000002,0.0311454000000012,0.009819,-0.0171215999999995,0.0525332000000009,-0.0084733999999998,0,sub_18
-0.0087168000000002,0.0316326000000012,0.0097476,-0.0175647999999995,0.0512470000000008,-0.0061245999999998,0,sub_18
-0.0093910000000002,0.0314760000000012,0.0100166,-0.0169417999999995,0.0497440000000009,-0.0037681999999998,0,sub_18
-0.0095136000000002,0.0319182000000012,0.0107738,-0.0163111999999995,0.0495210000000009,-0.0018407999999998,0,sub_18
-0.0093702000000002,0.0324246000000012,0.010435,-0.0156797999999995,0.0486622000000009,-0.0007671999999998,0,sub_18
-0.0084674000000002,0.0327718000000012,0.0105812,-0.0148311999999995,0.0480184000000009,-0.0003331999999998,0,sub_18
-0.0083086000000002,0.0326660000000012,0.0104298,-0.0131241999999995,0.0484370000000009,0.0001054000000001,0,sub_18
-0.0076390000000002,0.0326510000000012,0.0100626,-0.0118565999999995,0.0469360000000009,0.0013980000000001,0,sub_18
-0.0058466000000002,0.0336636000000012,0.0095318,-0.0112261999999995,0.0467132000000009,0.0033256000000001,0,sub_18
-0.0053620000000002,0.0340516000000012,0.0094622,-0.0097401999999995,0.0460646000000009,0.0044052000000001,0,sub_18
-0.0052208000000002,0.0330910000000012,0.0101856,-0.0067855999999995,0.0392348000000009,0.0048618,0,sub_18
-0.0051990000000002,0.0326312000000012,0.0109322,-0.0032071999999995,0.0283564000000009,0.0049008,0,sub_18
-0.0061176000000002,0.0340448000000012,0.0118482,0.0018650000000004,0.0172606000000009,0.0047368,0,sub_18
-0.0069104000000002,0.0334428000000012,0.0131874,0.0088450000000004,0.0029640000000009,0.0041628,0,sub_18
-0.0066480000000002,0.0327886000000012,0.0139684,0.0156184000000004,-0.010052599999999,0.0033722,0,sub_18
-0.0068912000000001,0.0329620000000012,0.012525,0.0204992000000004,-0.015822999999999,0.0036274000000001,0,sub_18
-0.0068842000000001,0.0325208000000012,0.0104866,0.0230512000000004,-0.016900599999999,0.0045012000000001,0,sub_18
-0.0060078000000001,0.0306876000000012,0.0091352,0.0226340000000004,-0.014980799999999,0.0042822000000001,0,sub_18
-0.0055918000000001,0.0288572000000012,0.007566,0.0188268000000004,-0.008783799999999,0.0029658000000001,0,sub_18
-0.0057442000000001,0.0284436000000012,0.0069898,0.0122486000000004,-0.001937999999999,0.0016292000000001,0,sub_18
-0.0059288000000001,0.0291160000000012,0.007172,0.0056714000000004,0.0044842000000009,-0.0003477999999998,0,sub_18
-0.0058824000000001,0.0298632000000012,0.0080454,-0.0006923999999995,0.0111180000000009,-0.0021099999999998,0,sub_18
-0.0061430000000001,0.0311222000000012,0.0085862,-0.0064199999999995,0.0173218000000009,-0.0034397999999998,0,sub_18
-0.0068348000000001,0.0330098000000012,0.0094598,-0.0096051999999995,0.0209540000000009,-0.0032529999999998,0,sub_18
-0.0072230000000001,0.0337102000000012,0.010268,-0.0100309999999995,0.0224418000000009,-0.0019759999999998,0,sub_18
-0.0065448000000001,0.0341738000000012,0.0104806,-0.0096079999999995,0.0234980000000009,-5.1599999999883855e-05,0,sub_18
-0.0059270000000001,0.0348834000000012,0.0104096,-0.0087495999999995,0.0249730000000009,0.0018726000000001,0,sub_18
-0.0055966000000001,0.0350660000000012,0.0106388,-0.0063983999999995,0.0264420000000009,0.0040208000000001,0,sub_18
-0.0060746000000001,0.0356138000000012,0.0116382,-0.0034137999999995,0.0253564000000009,0.0051086,0,sub_18
-0.0068400000000001,0.0360104000000012,0.0111252,0.0006242000000004,0.0210720000000009,0.005994,0,sub_18
-0.0076598000000001,0.0357114000000012,0.011208,0.0050812000000004,0.0146574000000009,0.0064578,0,sub_18
-0.0086382000000001,0.0352922000000012,0.0119428,0.0103752000000004,0.0061148000000009,0.006933,0,sub_18
-0.0086328000000001,0.0343988000000012,0.0126526,0.0154444000000004,-0.004771399999999,0.0076234,0,sub_18
-0.0078936000000001,0.0338096000000012,0.0119918,0.0203068000000004,-0.014589799999999,0.0078836000000001,0,sub_18
-0.0068820000000001,0.0336164000000012,0.0118894,0.0247560000000004,-0.022060599999999,0.0074970000000001,0,sub_18
-0.0060216000000001,0.0335150000000012,0.011988,0.0279296000000004,-0.028461799999999,0.0071002000000001,0,sub_18
-0.0058918000000001,0.0332040000000012,0.011359,0.0298280000000004,-0.034005199999999,0.0064796000000001,0,sub_18
-0.0059050000000002,0.0332470000000012,0.0104766,0.0306796000000004,-0.035919799999999,0.0049924000000001,0,sub_18
-0.0055374000000002,0.0335218000000012,0.01056,0.0296176000000004,-0.036123999999999,0.0037034000000001,0,sub_18
-0.0052908000000002,0.0327512000000012,0.011144,0.0272876000000004,-0.033766199999999,0.0021886000000001,0,sub_18
-0.0055166000000002,0.0325962000000012,0.0096176,0.0236804000000004,-0.031189199999999,0.0002372000000001,0,sub_18
-0.0047448000000002,0.0330150000000012,0.0090848,0.0200750000000004,-0.028398399999999,-0.0019279999999998,0,sub_18
-0.0045864000000002,0.0345574000000012,0.0098318,0.0162620000000004,-0.023479599999999,-0.0032427999999998,0,sub_18
-0.0061360000000002,0.0355802000000012,0.0103788,0.0139330000000004,-0.019635599999999,-0.0034777999999998,0,sub_18
-0.0081076000000002,0.0368434000000012,0.0106598,0.0118032000000004,-0.017502799999999,-0.0022135999999999,0,sub_18
-0.0107606000000002,0.0373840000000012,0.0124372,0.0128730000000004,-0.013896599999999,0.0007804,0,sub_18
-0.0135732000000001,0.0365146000000012,0.0136546,0.0169310000000004,-0.009238999999999,0.0046484,0,sub_18
-0.0160536000000001,0.0339006000000012,0.0123156,0.0218242000000004,-0.008420199999999,0.0087408,0,sub_18
-0.0154008000000001,0.0316724000000012,0.0102944,0.0243810000000004,-0.005673999999999,0.0123872,0,sub_18
-0.0114638000000001,0.0306354000000011,0.0089922,0.0256660000000004,-0.003127799999999,0.0138886000000001,0,sub_18
-0.0061420000000001,0.0301474000000011,0.0085412,0.0243906000000004,-0.003543399999999,0.0123846000000001,0,sub_18
-0.0009914000000002,0.0312544000000012,0.0077788,0.0188362000000004,-0.006709399999999,0.0093570000000001,0,sub_18
0.0031931999999997,0.0338824000000012,0.0100666,0.0115786000000004,-0.009865999999999,0.0054628000000001,0,sub_18
0.0051425999999997,0.0366382000000011,0.0131684,0.0073044000000004,-0.013673199999999,0.0018040000000001,0,sub_18
0.0029265999999997,0.0382696000000012,0.0150402,0.0062338000000004,-0.015366799999999,-0.0003397999999998,0,sub_18
-0.0009214000000002,0.0387188000000012,0.0145074,0.0077226000000004,-0.014736199999999,9.520000000011656e-05,0,sub_18
-0.0056874000000002,0.0376976000000012,0.0145114,0.0115642000000004,-0.013899999999999,0.0007618000000001,0,sub_18
-0.0088476000000002,0.0351388000000012,0.0117022,0.0143390000000004,-0.013272199999999,0.0012078000000001,0,sub_18
-0.0116638000000002,0.0329700000000012,0.0084438,0.0143466000000004,-0.012416599999999,0.0003522000000001,0,sub_18
-0.0127076000000002,0.0322046000000012,0.0065124,0.0108938000000004,-0.011354599999999,-0.0011769999999998,0,sub_18
-0.0131144000000002,0.0327098000000012,0.0072164,0.0057400000000004,-0.009856999999999,-0.0035731999999998,0,sub_18
-0.0119982000000001,0.0341690000000012,0.008308,0.0008082000000004,-0.005169599999999,-0.0046899999999998,0,sub_18
-0.0116076000000001,0.0363234000000012,0.010739,0.0003544000000004,0.0001362000000009,-0.0044945999999998,0,sub_18
-0.0108954000000001,0.0374634000000012,0.0126156,0.0035134000000004,0.0039312000000009,-0.0025627999999999,0,sub_18
-0.0098096000000001,0.0370740000000012,0.0126632,0.0088420000000004,0.0051806000000009,3.660000000009663e-05,0,sub_18
-0.0085020000000001,0.0361950000000012,0.01191,0.0135246000000004,0.0057904000000009,0.0032732,0,sub_18
-0.0073324000000001,0.0347854000000012,0.0107998,0.0160658000000004,0.0038546000000009,0.0056434,0,sub_18
-0.0059504000000001,0.0342914000000012,0.0094458,0.0155506000000004,-0.000195999999999,0.0062664,0,sub_18
-0.0051736000000001,0.0343628000000012,0.0096522,0.0124904000000004,-0.002950799999999,0.0047336000000001,0,sub_18
-0.0049968000000001,0.0353006000000012,0.0110002,0.0083768000000004,-0.003355599999999,0.0025494000000001,0,sub_18
-0.0050192000000001,0.0368868000000012,0.012316,0.0057586000000004,-0.003339399999999,0.0003752000000001,0,sub_18
-0.0055422000000001,0.0381422000000012,0.0127068,0.0050638000000004,-0.002266399999999,-0.0013595999999998,0,sub_18
-0.0059616000000001,0.0386520000000012,0.0130356,0.0057202000000004,0.0005046000000009,-0.0022129999999998,0,sub_18
-0.0057692000000001,0.0383360000000012,0.0124004,0.0072186000000004,0.0017770000000009,-0.0019905999999998,0,sub_18
-0.0061074000000001,0.0368824000000012,0.01243,0.0089226000000004,0.0015562000000009,-0.0015509999999998,0,sub_18
-0.0067606000000001,0.0352842000000012,0.0107616,0.0088290000000004,0.0007646000000009,-0.0022065999999998,0,sub_18
-0.0080610000000001,0.0351590000000012,0.010535,0.0070282000000004,-0.000445399999999,-0.0033007999999998,0,sub_18
-0.0091590000000001,0.0352128000000012,0.0104098,0.0045922000000004,-0.000163599999999,-0.0039741999999998,0,sub_18
-0.0115628000000001,0.0358550000000012,0.0108156,0.0030184000000004,0.0020328000000009,-0.0046439999999998,0,sub_18
-0.0126378000000002,0.0366776000000012,0.0099468,0.0022798000000004,0.0012392000000009,-0.0042357999999998,0,sub_18
-0.0126630000000002,0.0368990000000012,0.0103856,0.0018424000000004,0.0008070000000009,-0.0023153999999998,0,sub_18
-0.0111814000000002,0.0377184000000012,0.0109138,0.0024788000000004,0.0022868000000009,3.720000000009705e-05,0,sub_18
-0.0096684000000002,0.0378468000000012,0.0116112,0.0036482000000004,0.0021224000000009,0.0017304,0,sub_18
-0.0072760000000002,0.0380860000000012,0.0113384,0.0046032000000004,0.0019576000000009,0.0036358,0,sub_18
-0.0054862000000001,0.0384670000000012,0.010991,0.0045154000000004,0.0058498000000009,0.0042468,0,sub_18
-0.0043264000000001,0.0389760000000012,0.0120562,0.0046448000000004,0.0093202000000009,0.003578,0,sub_18
-0.0037288000000001,0.0382572000000012,0.0128248,0.0054056000000004,0.0104464000000009,0.0024894,0,sub_18
-0.0040022000000001,0.0376786000000012,0.013347,0.0064734000000004,0.0098068000000009,0.0016432,0,sub_18
-0.0043332000000001,0.0359246000000012,0.0136862,0.0068886000000004,0.0061878000000009,0.0005826000000001,0,sub_18
-0.0049482000000001,0.0348130000000012,0.0140492,0.0068724000000004,0.0015050000000009,-0.0004797999999998,0,sub_18
-0.0060462000000001,0.0346098000000012,0.0130218,0.0063496000000004,-0.000555799999999,-0.0011395999999998,0,sub_18
-0.0085184000000001,0.0345192000000012,0.0115752,0.0054038000000004,-0.001550399999999,-0.0015899999999998,0,sub_18
-0.0100414000000001,0.0349748000000012,0.0105242,0.0036150000000004,-0.000198599999999,-0.0020491999999998,0,sub_18
-0.0108798000000001,0.0360914000000012,0.0109874,0.0018330000000004,0.0032812000000009,-0.0018701999999998,0,sub_18
-0.0109520000000001,0.0367958000000012,0.0113482,0.0015444000000004,0.0067556000000009,-0.0016807999999998,0,sub_18
-0.0107812000000002,0.0370418000000012,0.0117804,0.0028236000000004,0.0069626000000009,-0.0012447999999998,0,sub_18
-0.0088470000000002,0.0374674000000012,0.0116086,0.0038866000000004,0.0067432000000009,-0.0005961999999999,0,sub_18
-0.0074714000000002,0.0372010000000012,0.0117184,0.0051602000000004,0.0058840000000009,5.460000000007726e-05,0,sub_18
-0.0066842000000002,0.0365150000000012,0.0112472,0.0055850000000003,0.0054564000000009,5.800000000007726e-05,0,sub_18
-0.0066420000000002,0.0367640000000011,0.011196,0.0052900000000003,0.0048610000000009,0.0002576,0,sub_18
-0.0060844000000002,0.0365938000000011,0.011456,0.0052092000000004,0.0044778000000009,0.0004584,0,sub_18
-0.0062670000000002,0.0363002000000011,0.011986,0.0055514000000004,0.0034532000000009,0.0008766,0,sub_18
-0.0063954000000002,0.0360260000000011,0.0118264,0.0052554000000004,0.0026448000000009,0.0010764000000001,0,sub_18
-0.0067238000000002,0.0365216000000012,0.0124746,0.0058128000000004,0.0014088000000009,0.0008554000000001,0,sub_18
-0.0079210000000002,0.0361834000000012,0.0128898,0.0068748000000004,0.0005520000000009,0.0010776000000001,0,sub_18
-0.0090186000000002,0.0363888000000012,0.012768,0.0072986000000004,-8.859999999907817e-05,0.0010814000000001,0,sub_18
-0.0096050000000002,0.0360476000000012,0.0129626,0.0065946000000004,0.0001576000000009,0.0006424000000001,0,sub_18
-0.0096838000000002,0.0362154000000012,0.0131206,0.0063192000000004,0.0004038000000009,-0.0002209999999998,0,sub_18
-0.0096496000000002,0.0366284000000012,0.012347,0.0054018000000004,0.0008630000000009,-0.0004479999999998,0,sub_18
-0.0087956000000002,0.0372928000000012,0.0116762,0.0042710000000004,0.0011108000000009,-0.0008899999999998,0,sub_18
-0.0081268000000002,0.0371736000000012,0.012074,0.0031432000000004,0.0019976000000009,-0.0013327999999998,0,sub_18
-0.0078932000000002,0.0376094000000012,0.0126444,0.0035728000000004,0.0028474000000008,-0.0011171999999998,0,sub_18
-0.0079526000000002,0.0377118000000012,0.0119404,0.0039996000000004,0.0036948000000008,-0.0002605999999998,0,sub_18
-0.0078116000000002,0.0376610000000012,0.0112322,0.0044254000000004,0.0039046000000008,0.0001692000000001,0,sub_18
-0.0077168000000002,0.0375184000000012,0.0114442,0.0048084000000004,0.0058324000000009,0.0003808000000001,0,sub_18
-0.0080382000000002,0.0375682000000012,0.01095,0.0049826000000004,0.0088262000000009,0.0005896000000001,0,sub_18
-0.0084340000000002,0.0367836000000012,0.0106664,0.0051386000000004,0.0075598000000009,0.0005900000000001,0,sub_18
-0.0086704000000002,0.0362170000000012,0.0120996,0.0052888000000004,0.0052272000000009,0.0008054000000001,0,sub_18
-0.0087540000000002,0.0358432000000012,0.0128506,0.0056582000000004,0.0039600000000009,0.0008076,0,sub_18
-0.0090522000000001,0.0355640000000012,0.0126188,0.0060782000000004,0.0024670000000009,0.0008124,0,sub_18
-0.0090316000000001,0.0351610000000012,0.0125884,0.0062802000000004,0.0003340000000009,0.0012438,0,sub_18
-0.0089046000000001,0.0355814000000012,0.0126718,0.0054392000000004,0.0031066000000009,0.0012344,0,sub_18
-0.0092360000000001,0.0357362000000012,0.0120422,0.0043896000000004,0.0067332000000009,0.0010088,0,sub_18
-0.0096660000000001,0.0358798000000012,0.012261,0.0039272000000004,0.0084378000000009,0.0007874000000001,0,sub_18
-0.0094018000000002,0.0360004000000011,0.012812,0.0034522000000004,0.0075848000000009,0.0007828000000001,0,sub_18
-0.0092462000000001,0.0358906000000012,0.0131654,0.0038288000000004,0.0056662000000009,0.0001446000000001,0,sub_18
-0.0091064000000001,0.0359342000000011,0.0123954,0.0035634000000004,0.0035358000000009,-0.0002841999999998,0,sub_18
-0.0085436000000001,0.0369722000000011,0.012237,0.0033008000000004,0.0018324000000009,-0.0009269999999998,0,sub_18
-0.0080562000000001,0.0377352000000011,0.0115234,0.0033016000000004,0.0018332000000009,-0.0011405999999998,0,sub_18
-0.0078988000000001,0.0377372000000012,0.0114408,0.0033102000000004,0.0031140000000009,-0.0017829999999998,0,sub_18
-0.0080778000000001,0.0381272000000012,0.0119376,0.0028892000000004,0.0046060000000009,-0.0015741999999998,0,sub_18
-0.0082340000000001,0.0382440000000012,0.012513,0.0032794000000004,0.0045928000000009,-0.0017849999999998,0,sub_18
-0.0082338000000001,0.0381310000000012,0.0126864,0.0038792000000004,0.0039388000000009,-0.0017801999999998,0,sub_18
-0.0084986000000002,0.0379654000000012,0.0127676,0.0046906000000004,0.0028580000000009,-0.0017733999999998,0,sub_18
-0.0089832000000002,0.0380202000000012,0.0127364,0.0054990000000004,0.0017746000000009,-0.0011255999999998,0,sub_18
-0.0092462000000002,0.0380830000000012,0.0121272,0.0058826000000004,0.0004822000000009,-0.0011211999999998,0,sub_18
-0.0092310000000002,0.0382908000000012,0.0114576,0.0065160000000004,-0.000374799999999,-0.0004747999999998,0,sub_18
-0.0098156000000002,0.0375418000000012,0.0112562,0.0071542000000004,-0.000590999999999,-0.0002563999999998,0,sub_18
-0.0103040000000002,0.0367860000000012,0.0114758,0.0069428000000004,-0.000164199999999,-0.0002583999999998,0,sub_18
-0.0105910000000001,0.0369458000000012,0.0113372,0.0060546000000004,4.040000000092225e-05,-0.0004793999999998,0,sub_18
-0.0105400000000001,0.0371062000000012,0.0110966,0.0051662000000004,0.0004572000000009,-0.0004871999999998,0,sub_18
-0.0106148000000001,0.0369016000000012,0.0117902,0.0042828000000004,0.0019392000000009,-0.0004961999999998,0,sub_18
-0.0104574000000001,0.0365508000000012,0.012241,0.0029718000000004,0.0032096000000009,-0.0005077999999998,0,sub_18
-0.0101476000000001,0.0370548000000012,0.012433,0.0016528000000004,0.0032000000000009,-9.059999999988264e-05,0,sub_18
-0.0094716000000002,0.0367216000000012,0.012543,0.0014452000000004,0.0038426000000009,-0.0007337999999998,0,sub_18
-0.0085918000000002,0.0370286000000012,0.0120912,0.0008070000000004,0.0034220000000009,-0.0015921999999998,0,sub_18
-0.0087048000000002,0.0377634000000012,0.011879,0.0001660000000004,0.0025746000000009,-0.0022365999999998,0,sub_18
-0.0085206000000002,0.0380486000000012,0.0119678,0.0007762000000004,0.0029834000000009,-0.0026603999999998,0,sub_18
-0.0084208000000002,0.0384142000000012,0.0111502,0.0003264000000004,0.0042506000000009,-0.0037335999999998,0,sub_18
-0.0087394000000002,0.0385714000000012,0.0112478,-0.0003349999999995,0.0074300000000009,-0.0033151999999998,0,sub_18
-0.0097490000000002,0.0380866000000012,0.0118264,7.540000000048625e-05,0.0114588000000009,-0.0031039999999998,0,sub_18
-0.0101612000000002,0.0372482000000012,0.0115764,-0.0005821999999995,0.0150660000000009,-0.0031133999999998,0,sub_18
-0.0101536000000002,0.0372314000000012,0.0101744,-0.0029043999999995,0.0206134000000009,-0.0031365999999998,0,sub_18
-0.0105238000000002,0.0370520000000012,0.0107964,-0.0035165999999995,0.0278552000000009,-0.0020817999999998,0,sub_18
-0.0104698000000002,0.0362736000000012,0.01158,-0.0046111999999995,0.0295394000000009,-0.0014523999999998,0,sub_18
-0.0096682000000002,0.0354850000000012,0.0123734,-0.0059211999999995,0.0310106000000008,-0.0006107999999998,0,sub_18
-0.0090522000000002,0.0355710000000012,0.012787,-0.0070101999999995,0.0333366000000008,-0.0006231999999998,0,sub_18
-0.0095104000000002,0.0358200000000012,0.0129762,-0.0083163999999995,0.0343868000000008,-0.0010627999999998,0,sub_18
-0.0090984000000002,0.0351250000000012,0.012334,-0.0115363999999995,0.0365106000000008,-0.0019443999999998,0,sub_18
-0.0092820000000002,0.0362876000000012,0.0110658,-0.0151301999999995,0.0431314000000008,-0.0028325999999998,0,sub_18
-0.0095600000000001,0.0373404000000012,0.0102338,-0.0191507999999995,0.0497536000000008,-0.0037235999999998,0,sub_18
-0.0093336000000001,0.0374980000000012,0.0102398,-0.0223283999999995,0.0544538000000009,-0.0041789999999998,0,sub_18
-0.0083410000000001,0.0373252000000011,0.0108128,-0.0242707999999995,0.0561416000000009,-0.0039801999999998,0,sub_18
-0.0080524000000001,0.0371814000000012,0.0113442,-0.0240947999999995,0.0535644000000009,-0.0046157999999998,0,sub_18
-0.0077950000000001,0.0369042000000012,0.0114338,-0.0237123999999995,0.0492828000000009,-0.0054613999999998,0,sub_18
-0.0081294000000001,0.0366786000000012,0.0117646,-0.0222513999999995,0.0477662000000009,-0.0060893999999998,0,sub_18
-0.0091566000000001,0.0369570000000012,0.0109188,-0.0220697999999995,0.0468916000000009,-0.0062997999999998,0,sub_18
