userAcceleration.x,userAcceleration.y,userAcceleration.z,rotationRate.x,rotationRate.y,rotationRate.z,label,subject
0.0001653999999997,0.0181338000000012,0.008773,0.0193106000000003,0.0031794000000008,0.0071126,0,sub_18
0.0006623999999997,0.0169692000000012,0.008915,0.0169686000000003,0.0053208000000008,0.006009,0,sub_18
0.0020519999999997,0.0144248000000012,0.0077646,0.0133406000000003,0.0055518000000008,0.0042578,0,sub_18
0.0032943999999997,0.0124744000000012,0.005562,0.0075786000000003,0.0028124000000008,0.0016572,0,sub_18
0.0037121999999998,0.0100924000000012,0.0023402,0.0005334000000003,-0.0011981999999991,-0.0015915999999999,0,sub_18
0.0039509999999998,0.0074714000000012,-0.0013763999999999,-0.0073707999999996,-0.0062717999999991,-0.0046313999999998,0,sub_18
0.0039013999999998,0.0062858000000012,-0.0048769999999999,-0.0161423999999996,-0.0098531999999991,-0.0070557999999998,0,sub_18
0.0023321999999998,0.0065094000000012,-0.0058521999999999,-0.0246911999999996,-0.0102437999999991,-0.0084143999999998,0,sub_18
-0.0007020000000001,0.0086192000000012,-0.0046277999999999,-0.0321681999999996,-0.0082995999999991,-0.0084865999999998,0,sub_18
-0.0031552000000001,0.0118416000000012,-0.0014069999999999,-0.0372911999999996,-0.0038113999999991,-0.0074775999999998,0,sub_18
-0.0048852000000001,0.0161556000000012,0.004287,-0.0385785999999996,0.0006590000000008,-0.0053733999999998,0,sub_18
-0.0063436000000001,0.0209536000000012,0.0100342,-0.0358009999999996,0.0036236000000008,-0.0032213999999998,0,sub_18
-0.0060594000000001,0.0242502000000012,0.0147756,-0.0298311999999996,0.0046596000000008,-0.0010445999999998,0,sub_18
-0.0038612000000001,0.0262158000000012,0.0175486,-0.0208763999999996,0.0041978000000008,8.660000000008366e-05,0,sub_18
-0.0012668000000001,0.0267920000000012,0.0185036,-0.0104109999999996,0.0026684000000008,0.0012258,0,sub_18
0.0007003999999997,0.0254226000000012,0.0166896,-0.0001577999999996,0.0011406000000008,0.0021498,0,sub_18
0.0025119999999997,0.0227872000000012,0.0136262,0.0079644000000003,-0.0001649999999991,0.0026314,0,sub_18
0.0034637999999997,0.0202258000000012,0.0097846,0.0143844000000003,-0.0010361999999991,0.0024596,0,sub_18
0.0037961999999997,0.0172262000000012,0.0055652,0.0186718000000003,-0.0010499999999991,0.0029128,0,sub_18
0.0042347999999997,0.0147546000000012,0.0020802,0.0203768000000003,-0.0008453999999991,0.0035654,0,sub_18
0.0040627999999997,0.0128408000000012,0.000104,0.0193098000000003,-0.0004171999999991,0.0039846,0,sub_18
0.0037975999999997,0.0118754000000012,-0.0005641999999999,0.0167494000000003,-0.0004083999999991,0.0039668,0,sub_18
0.0034357999999997,0.0113480000000012,-0.0006233999999999,0.0125160000000003,-0.0008253999999991,0.0041466,0,sub_18
0.0029131999999997,0.0107474000000012,6.240000000008808e-05,0.0070052000000003,-0.0016599999999991,0.0032498,0,sub_18
0.0019113999999997,0.0107782000000012,0.0013738,0.0006430000000003,-0.0027021999999991,0.0017064,0,sub_18
0.0014539999999997,0.0113588000000012,0.0022298,-0.0055037999999996,-0.0039555999999991,-0.0004759999999999,0,sub_18
0.0005511999999997,0.0117466000000012,0.002814,-0.0116477999999996,-0.004569599999999,-0.0026593999999999,0,sub_18
-3.280000000021467e-05,0.0127370000000012,0.003493,-0.0169715999999996,-0.004541599999999,-0.0050465999999999,0,sub_18
-0.0008990000000001,0.0140522000000012,0.0043244,-0.0214437999999996,-0.0036693999999991,-0.0061471999999999,0,sub_18
-0.0013608000000001,0.0149270000000012,0.004611,-0.0237821999999996,-0.0021679999999991,-0.0065927999999998,0,sub_18
-0.0024284000000001,0.0163822000000012,0.004976,-0.0237803999999996,-4.919999999910621e-05,-0.0057581999999998,0,sub_18
-0.0024436000000001,0.0172084000000012,0.0060568,-0.0216497999999996,0.0020578000000008,-0.0038403999999998,0,sub_18
-0.0026582000000001,0.0177656000000012,0.0080248,-0.0180243999999996,0.0039482000000008,-0.0023393999999998,0,sub_18
-0.0018244000000001,0.0191316000000012,0.0087986,-0.0129081999999996,0.0054064000000008,-0.0006135999999998,0,sub_18
-0.0009406000000001,0.0203074000000012,0.0089596,-0.0077911999999996,0.0077142000000008,0.0017520000000001,0,sub_18
0.0003903999999998,0.0202784000000012,0.0093626,-0.0030931999999996,0.0102476000000008,0.0034906000000001,0,sub_18
0.0008043999999998,0.0203182000000012,0.0092468,0.0020172000000003,0.0091592000000008,0.0048094000000001,0,sub_18
0.0024151999999998,0.0186186000000012,0.008008,0.0062664000000003,0.0067938000000008,0.0065514,0,sub_18
0.0032147999999998,0.0163524000000012,0.0072224,0.0092374000000003,0.0042224000000008,0.0069924,0,sub_18
0.0025327999999998,0.0144866000000012,0.0062418,0.0109292000000003,0.0008076000000008,0.0063574,0,sub_18
0.0019719999999998,0.0134222000000012,0.0052944,0.0111284000000003,-0.0023889999999991,0.0057116,0,sub_18
0.0023353999999998,0.0126752000000012,0.0046196,0.0098484000000003,-0.0021723999999991,0.0052648,0,sub_18
0.0015503999999998,0.0129194000000012,0.0040356,0.0083608000000003,-0.0013133999999991,0.0041746,0,sub_18
0.0005899999999998,0.0129002000000012,0.0037868,0.0062328000000002,-0.0010885999999991,0.0030912,0,sub_18
0.0010677999999998,0.0128414000000012,0.0035244,0.0043154000000002,-0.0019281999999991,0.0015834,0,sub_18
0.0015583999999998,0.0123010000000012,0.0032452,0.0026074000000003,-0.0036207999999991,7.820000000008368e-05,0,sub_18
0.0012561999999997,0.0114048000000012,0.0023584,-0.0001215999999996,-0.0055229999999991,-0.0016489999999999,0,sub_18
0.0007535999999997,0.0110344000000012,0.0013394,-0.0039135999999996,-0.0063569999999991,-0.0031711999999999,0,sub_18
0.0005419999999997,0.0111168000000012,0.0002814,-0.0079131999999996,-0.0052753999999991,-0.0040563999999999,0,sub_18
-0.0001600000000002,0.0121110000000012,0.0005658,-0.0108365999999995,-0.0007937999999991,-0.0036567999999999,0,sub_18
-0.0009854000000002,0.0131814000000012,0.0025168,-0.0131215999999995,0.0034718000000008,-0.0030385999999999,0,sub_18
-0.0008724000000001,0.0148928000000012,0.004293,-0.0137473999999995,0.0075186000000008,-0.0021935999999999,0,sub_18
-0.0004724000000001,0.0163646000000012,0.0060674,-0.0124623999999995,0.0094282000000008,-0.0013325999999999,0,sub_18
4.199999999785322e-06,0.0169326000000012,0.0073792,-0.0096895999999995,0.0098420000000008,-0.0006727999999999,0,sub_18
0.0003179999999997,0.0162686000000012,0.0078252,-0.0069169999999996,0.0083422000000008,-0.0006583999999999,0,sub_18
0.0012479999999997,0.0156458000000012,0.0062698,-0.0047777999999996,0.0079116000000008,-0.0010773999999999,0,sub_18
0.0020351999999997,0.0148828000000012,0.0049094,-0.0026357999999996,0.0081204000000008,-0.0014969999999999,0,sub_18
0.0020777999999997,0.0137388000000012,0.0035448,-0.0015567999999996,0.0096094000000008,-0.0014983999999999,0,sub_18
0.0020521999999998,0.0132178000000012,0.0024622,-0.0021837999999996,0.0115296000000008,-0.0012987999999999,0,sub_18
0.0023707999999998,0.0133520000000012,0.0022136,-0.0032399999999996,0.0136648000000008,-0.0015225999999998,0,sub_18
0.0021029999999998,0.0138458000000012,0.0020404,-0.0038733999999996,0.0151584000000008,-0.0015287999999998,0,sub_18
0.0013617999999998,0.0140360000000012,0.0025456,-0.0047199999999996,0.0164404000000008,-0.0017499999999998,0,sub_18
0.0009857999999998,0.0146086000000012,0.0034264,-0.0057467999999996,0.0181530000000008,-0.0017575999999998,0,sub_18
0.0010233999999998,0.0147938000000012,0.0043376,-0.0057027999999996,0.0205020000000008,-0.0019721999999998,0,sub_18
0.0010241999999998,0.0146244000000012,0.0043898,-0.0058769999999996,0.0219986000000008,-0.0019735999999999,0,sub_18
0.0011517999999998,0.0135470000000012,0.004476,-0.0069027999999996,0.0235000000000008,-0.0024083999999999,0,sub_18
0.0009033999999998,0.0127652000000012,0.0031928,-0.0089953999999996,0.0245808000000008,-0.0032771999999999,0,sub_18
0.0009703999999998,0.0121796000000012,0.0021378,-0.0113365999999996,0.0243820000000008,-0.0047887999999999,0,sub_18
0.0008791999999998,0.0114138000000012,0.0004974,-0.0143275999999996,0.0222670000000008,-0.0060887999999999,0,sub_18
-0.0002118000000001,0.0099898000000012,-0.0009249999999998,-0.0183863999999996,0.0201550000000008,-0.0071827999999999,0,sub_18
-0.0015890000000001,0.0103240000000012,-0.0016007999999998,-0.0256305999999996,0.0178230000000008,-0.0059517999999999,0,sub_18
-0.0033864000000001,0.0112452000000012,-0.0016559999999998,-0.0329123999999996,0.0097284000000008,-0.0021501999999999,0,sub_18
-0.0021404000000001,0.0098124000000012,-0.0008519999999998,-0.0399777999999996,0.0041820000000008,0.0035724,0,sub_18
-0.0014292000000001,0.0088890000000012,0.0004444,-0.0484983999999996,0.0054654000000008,0.007567,0,sub_18
0.0005647999999997,0.0090278000000012,0.0012316,-0.0595469999999996,0.0116672000000008,0.0091876,0,sub_18
0.0018333999999997,0.0104960000000012,0.002237,-0.0658945999999996,0.0219230000000008,0.0074208,0,sub_18
0.0022655999999997,0.0113912000000012,0.004136,-0.0675275999999996,0.0362120000000008,0.0052546,0,sub_18
-0.0003648000000002,0.0147146000000012,0.0050732,-0.0653401999999996,0.0455892000000008,0.0026942,0,sub_18
-0.0004030000000002,0.0180366000000012,0.0063958,-0.0567953999999996,0.0447108000000008,0.00168,0,sub_18
-0.0006352000000001,0.0208656000000012,0.008186,-0.0408285999999996,0.0350652000000008,0.0022244,0,sub_18
0.0006555999999998,0.0208288000000012,0.0087248,-0.0238177999999996,0.0211514000000008,0.003636,0,sub_18
0.0018427999999998,0.0217146000000012,0.0088972,-0.0089293999999996,0.0087406000000008,0.0039628,0,sub_18
0.0030413999999998,0.0201838000000012,0.0088322,0.0034034000000003,-0.0034447999999991,0.0034168,0,sub_18
0.0032133999999997,0.0177576000000012,0.0077404,0.0125362000000003,-0.0128511999999991,0.0034926,0,sub_18
0.0027691999999997,0.0158190000000012,0.006335,0.0178466000000003,-0.0175593999999991,0.0041766,0,sub_18
0.0012967999999997,0.0148900000000012,0.0051558,0.0210260000000003,-0.0211967999999991,0.0052718,0,sub_18
0.0011457999999997,0.0126054000000012,0.0038528,0.0223238000000003,-0.0222801999999991,0.0059226,0,sub_18
0.0010341999999997,0.0130050000000012,0.002812,0.0225710000000003,-0.0195257999999991,0.0067748,0,sub_18
-0.0001734000000001,0.0151300000000012,0.0032844,0.0230354000000003,-0.0165565999999991,0.0069874,0,sub_18
-0.0001804000000001,0.0165116000000012,0.0028794,0.0243428000000003,-0.0159339999999991,0.0072088,0,sub_18
6.419999999980551e-05,0.0165386000000012,0.0038422,0.0271380000000003,-0.0161705999999991,0.007869,0,sub_18
7.159999999980558e-05,0.0166440000000012,0.0048458,0.0305442000000003,-0.0183113999999991,0.0074682,0,sub_18
0.0002427999999998,0.0148936000000012,0.0043064,0.0339486000000003,-0.0219393999999991,0.006001,0,sub_18
0.0012925999999998,0.0127722000000012,0.0035348,0.0352212000000003,-0.0247093999999991,0.0049452,0,sub_18
0.0015819999999998,0.0111278000000012,0.0033102,0.0344012000000003,-0.0241003999999991,0.0036612,0,sub_18
0.0020385999999997,0.0107304000000012,0.0024202,0.0316686000000003,-0.0217801999999991,0.0023616,0,sub_18
0.0032585999999997,0.0106484000000012,0.0013204,0.0280806000000003,-0.0190343999999991,0.00191,0,sub_18
0.0035189999999997,0.0118804000000012,0.0013836,0.0242800000000003,-0.0156501999999991,0.0018834,0,sub_18
0.0031169999999997,0.0124728000000012,0.0017002,0.0211206000000003,-0.0122675999999991,0.0016476,0,sub_18
0.0030233999999997,0.0130430000000012,0.0016068,0.0183514000000003,-0.0107683999999991,0.0020536,0,sub_18
0.0026425999999998,0.0129248000000012,0.001963,0.0166464000000003,-0.0105485999999991,0.0018278,0,sub_18
0.0022525999999998,0.0122542000000012,0.0023866,0.0147280000000003,-0.0105401999999991,0.0013872,0,sub_18
0.0021281999999997,0.0124706000000012,0.0022472,0.0126490000000003,-0.0105977999999991,0.000954,0,sub_18
0.0015883999999997,0.0130470000000012,0.0021742,0.0107880000000003,-0.0098029999999991,0.0003076000000001,0,sub_18
0.0011233999999997,0.0134588000000012,0.0026736,0.0093578000000003,-0.0081573999999991,-0.0003369999999998,0,sub_18
0.0013573999999997,0.0139604000000012,0.0027256,0.0077102000000003,-0.0069387999999991,-0.0005553999999998,0,sub_18
0.0011329999999997,0.0150564000000012,0.0025438,0.0064864000000003,-0.0061487999999991,-0.0005565999999999,0,sub_18
0.0014851999999998,0.0145662000000012,0.0033788,0.0054204000000003,-0.0057197999999991,-0.0003509999999999,0,sub_18
0.0021061999999998,0.0136938000000012,0.0028254,0.0043536000000003,-0.0055037999999991,-0.0001451999999999,0,sub_18
0.0025669999999998,0.0132278000000012,0.0026388,0.0034982000000003,-0.006139199999999,-0.0003639999999999,0,sub_18
0.0026247999999998,0.0130726000000012,0.002074,0.0025764000000003,-0.006445199999999,-0.0008001999999999,0,sub_18
0.0027499999999998,0.0125384000000012,0.001517,0.0012288000000003,-0.0063243999999991,-0.0010261999999999,0,sub_18
0.0024465999999997,0.0131910000000012,0.000703,0.0003100000000003,-0.0059911999999991,-0.0014631999999999,0,sub_18
0.0023133999999997,0.0138270000000012,0.0010622,-0.0003945999999996,-0.005445799999999,-0.0018989999999998,0,sub_18
0.0017819999999997,0.0143312000000012,0.0016986,-0.0004629999999996,-0.0051181999999991,-0.0016891999999998,0,sub_18
0.0016059999999997,0.0136820000000012,0.0023554,-0.0006773999999996,-0.0053305999999991,-0.0016903999999998,0,sub_18
0.0015223999999997,0.0138214000000012,0.0029752,-0.0004667999999996,-0.0061827999999991,-0.0019015999999998,0,sub_18
0.0011735999999998,0.0134070000000012,0.003521,-0.0002525999999996,-0.0059705999999991,-0.0019003999999998,0,sub_18
0.0008391999999998,0.0134736000000012,0.003354,-0.0003775999999996,-0.0058113999999991,-0.0017009999999998,0,sub_18
0.0010141999999998,0.0132670000000012,0.0029836,-0.0007109999999995,-0.0052227999999991,-0.0021443999999998,0,sub_18
0.0011057999999998,0.0141128000000012,0.0026344,-0.0006177999999996,-0.0042111999999991,-0.0021581999999998,0,sub_18
0.0016503999999997,0.0146880000000012,0.0020958,-0.0003111999999996,-0.002775999999999,-0.0017437999999999,0,sub_18
0.0027477999999997,0.0144292000000012,0.001909,-0.0006465999999996,-0.001764599999999,-0.0013331999999999,0,sub_18
0.0031375999999997,0.0141882000000012,0.0022084,-0.0010723999999996,-0.0011255999999991,-0.0009095999999999,0,sub_18
0.0033825999999997,0.0147860000000012,0.0014566,-0.0012829999999996,0.0003632000000008,-5.839999999995601e-05,0,sub_18
0.0034015999999997,0.0147388000000012,0.0007046,-0.0021239999999996,0.0037724000000008,0.0005724,0,sub_18
0.0027687999999998,0.0140756000000012,0.0015578,-0.0029809999999996,0.0052682000000008,0.001826,0,sub_18
0.0033561999999998,0.0145322000000012,0.0016568,-0.0025701999999996,0.0039898000000008,0.003092,0,sub_18
0.0041747999999997,0.0143530000000012,0.0018306,-0.0008771999999996,0.0024966000000008,0.0037262,0,sub_18
0.0034503999999997,0.0130010000000012,0.0031934,-0.0002529999999996,0.0003688000000008,0.0041402,0,sub_18
0.0022045999999997,0.0126150000000012,0.0035214,-0.0002755999999996,-0.0034603999999991,0.0043382,0,sub_18
0.0022433999999997,0.0127576000000012,0.0035534,0.0003634000000003,-0.0045243999999991,0.0034896,0,sub_18
0.0007021999999997,0.0126876000000012,0.0037602,0.0012292000000003,-0.0030307999999991,0.0022118,0,sub_18
-0.0004096000000001,0.0126462000000012,0.0037984,0.0016674000000003,-0.0011123999999991,0.0015714,0,sub_18
0.0002627999999998,0.0130084000000012,0.0037588,0.0020522000000003,-0.0004387999999991,0.0013428,0,sub_18
0.0017575999999998,0.0130360000000012,0.0039496,0.0035010000000003,-0.0004079999999991,0.0011226,0,sub_18
0.0019343999999998,0.0131760000000012,0.0037842,0.0047356000000003,-0.0012261999999991,0.000261,0,sub_18
0.0029497999999997,0.0122228000000012,0.0034168,0.0051140000000003,-0.0022561999999991,-0.0001789999999999,0,sub_18
0.0040163999999997,0.0117504000000012,0.002726,0.0044224000000003,-0.0034969999999991,-0.0001987999999999,0,sub_18
0.0048931999999997,0.0116774000000012,0.0015938,0.0042110000000003,-0.0032823999999991,-0.0004141999999999,0,sub_18
0.0045369999999997,0.0116060000000012,0.0014274,0.0035738000000003,-0.0024287999999991,-0.0002061999999999,0,sub_18
0.0044259999999997,0.0116510000000012,0.0012052,0.0018650000000003,-0.0022121999999991,0.0004226,0,sub_18
0.0039707999999998,0.0127130000000012,0.0014086,0.0010104000000003,-0.0022099999999991,0.0006304,0,sub_18
0.0033297999999998,0.0135524000000012,0.0014208,0.0005838000000003,-0.0022085999999991,0.0006274,0,sub_18
0.0025349999999998,0.0135502000000012,0.0024964,0.0003686000000003,-0.0028459999999991,0.0004132,0,sub_18
0.0026655999999998,0.0131644000000012,0.0029812,0.0010078000000003,-0.0039099999999991,-0.0004355999999999,0,sub_18
0.0025135999999997,0.0128910000000012,0.0028956,0.0022890000000003,-0.0043379999999991,-0.0010671999999999,0,sub_18
0.0023595999999997,0.0130252000000012,0.0027162,0.0022920000000003,-0.0039109999999991,-0.0012813999999999,0,sub_18
0.0017445999999997,0.0129186000000012,0.003209,0.0022938000000003,-0.0039091999999991,-0.0017085999999999,0,sub_18
0.0014723999999997,0.0135844000000012,0.002775,0.0022928000000003,-0.0043345999999991,-0.0019217999999999,0,sub_18
0.0018759999999997,0.0139582000000012,0.0028044,0.0022658000000003,-0.0047293999999991,-0.0017125999999999,0,sub_18
0.0025897999999998,0.0144922000000012,0.0028114,0.0022388000000003,-0.0046997999999991,-0.0010767999999999,0,sub_18
0.0027941999999997,0.0145316000000012,0.0031296,0.0034900000000003,-0.0048885999999991,-0.0002181999999999,0,sub_18
0.0034539999999997,0.0148748000000012,0.0031546,0.0045346000000003,-0.0037973999999991,0.0004236,0,sub_18
0.0038493999999997,0.0143768000000012,0.0037212,0.0055840000000003,-0.0020651999999991,0.0006374,0,sub_18
0.0035735999999997,0.0137442000000012,0.0035744,0.0058088000000003,0.0002786000000008,0.0004222,0,sub_18
0.0031961999999997,0.0126114000000012,0.0037726,0.0049716000000003,0.0028426000000008,-0.0006551999999999,0,sub_18
0.0034159999999997,0.0119698000000012,0.0027868,0.0024322000000003,0.0060534000000008,-0.0021725999999999,0,sub_18
0.0037745999999997,0.0114554000000012,0.0017696,-0.0003399999999996,0.0090814000000008,-0.0039063999999999,0,sub_18
0.0043981999999998,0.0103582000000012,0.000398,-0.0037571999999996,0.0112586000000008,-0.0054297999999999,0,sub_18
0.0047671999999997,0.0098278000000012,-0.0005101999999998,-0.0084603999999996,0.0119496000000008,-0.0071739999999999,0,sub_18
0.0056689999999997,0.0093698000000012,-0.0022703999999998,-0.0131645999999996,0.0126398000000008,-0.0087045999999999,0,sub_18
0.0053975999999997,0.0088170000000012,-0.0020733999999998,-0.0178667999999996,0.0141806000000008,-0.0098089999999999,0,sub_18
0.0045969999999997,0.0087196000000012,-0.0018439999999998,-0.0225533999999996,0.0156892000000008,-0.0100571999999999,0,sub_18
0.0034967999999997,0.0102866000000012,-0.0012351999999998,-0.0270255999999996,0.0176224000000008,-0.0100909999999999,0,sub_18
0.0026279999999998,0.0124942000000012,0.0001622000000001,-0.0287239999999996,0.0195460000000008,-0.0101053999999999,0,sub_18
0.0011893999999998,0.0147832000000012,0.0024344,-0.0278791999999996,0.0210552000000008,-0.0098931999999999,0,sub_18
0.0002727999999998,0.0164294000000012,0.004154,-0.0261865999999996,0.0221318000000008,-0.0088199999999999,0,sub_18
-5.780000000019432e-05,0.0177446000000012,0.005853,-0.0238565999999996,0.0223548000000008,-0.0079549999999999,0,sub_18
0.0002497999999998,0.0185976000000012,0.0065216,-0.0198197999999996,0.0225718000000008,-0.0070779999999999,0,sub_18
0.0008445999999998,0.0182990000000012,0.0061436,-0.0168401999999996,0.0255596000000008,-0.0055709999999999,0,sub_18
0.0017205999999998,0.0170220000000012,0.0049294,-0.0149159999999996,0.0276782000000008,-0.0042783999999999,0,sub_18
0.0027735999999997,0.0160194000000012,0.0032968,-0.0134299999999996,0.0263930000000008,-0.0038391999999998,0,sub_18
0.0034519999999997,0.0137274000000012,0.002218,-0.0113059999999996,0.0244674000000008,-0.0036081999999998,0,sub_18
0.0038237999999997,0.0122786000000012,0.0013264,-0.0094087999999996,0.0227762000000008,-0.0035975999999998,0,sub_18
0.0038193999999997,0.0110658000000012,0.0006034,-0.0083717999999996,0.0198088000000008,-0.0033777999999998,0,sub_18
0.0036717999999997,0.0109426000000012,0.0009814,-0.0088253999999996,0.0179102000000008,-0.0027425999999998,0,sub_18
0.0033741999999998,0.0111402000000012,0.001821,-0.0088417999999996,0.0179292000000008,-0.0025339999999999,0,sub_18
0.0037107999999998,0.0128478000000012,0.0020392,-0.0090723999999996,0.0179482000000008,-0.0021131999999999,0,sub_18
0.0033945999999998,0.0130196000000012,0.0032946,-0.0099363999999996,0.0158198000000008,-0.0019029999999999,0,sub_18
0.0027367999999998,0.0139194000000012,0.0045502,-0.0099525999999996,0.0119858000000008,-0.0021117999999999,0,sub_18
0.0021007999999998,0.0149240000000012,0.0050122,-0.0080561999999996,0.0064406000000008,-0.0023049999999999,0,sub_18
0.0023235999999998,0.0148316000000012,0.005074,-0.0048987999999996,-0.0001533999999991,-0.0022759999999999,0,sub_18
0.0016637999999998,0.0141484000000012,0.0053788,-0.0013193999999996,-0.0078141999999991,-0.0022429999999999,0,sub_18
0.0014987999999998,0.0146782000000012,0.0047202,0.0033308000000003,-0.0146263999999991,-0.0022033999999999,0,sub_18
0.0017583999999997,0.0150444000000012,0.0037394,0.0092630000000003,-0.020380399999999,-0.0015153999999999,0,sub_18
0.0025893999999997,0.0136890000000012,0.0039766,0.0149790000000003,-0.026348399999999,-0.0004013999999999,0,sub_18
0.0029225999999997,0.0132884000000012,0.0037352,0.0190044000000003,-0.032117399999999,0.000275,0,sub_18
0.0040773999999997,0.0129092000000012,0.003028,0.0217638000000003,-0.035322999999999,0.0002984,0,sub_18
0.0049231999999997,0.0122066000000012,0.0020058,0.0223982000000003,-0.0361791999999991,0.0007312,0,sub_18
0.0057925999999998,0.0115640000000012,0.0016198,0.0211068000000003,-0.0351043999999991,0.001578,0,sub_18
0.0056415999999998,0.0114112000000012,0.0008272,0.0200420000000003,-0.0316841999999991,0.0017824,0,sub_18
0.0058629999999998,0.0123398000000012,0.0026532,0.0153508000000003,-0.0284627999999991,0.0015344,0,sub_18
0.0057949999999998,0.0137254000000012,0.0018234,0.0134306000000003,-0.0252533999999991,0.0019468,0,sub_18
0.0059327999999998,0.0140148000000012,0.0030492,0.0136402000000003,-0.0229037999999991,0.0023752,0,sub_18
0.0062019999999998,0.0126850000000012,0.0033822,0.0130038000000003,-0.0216249999999991,0.0027964,0,sub_18
0.0064015999999997,0.0131998000000012,0.0032244,0.0098052000000003,-0.0207633999999991,0.0032004,0,sub_18
0.0052571999999997,0.0128610000000012,0.0012146,0.0098206000000003,-0.017142399999999,0.0034096,0,sub_18
0.0040911999999997,0.0121674000000011,0.0024034,0.0073188000000003,-0.012475199999999,0.002979,0,sub_18
0.0037693999999997,0.0114784000000011,0.0022304,0.0039626000000003,-0.008018199999999,0.0025428,0,sub_18
