userAcceleration.x,userAcceleration.y,userAcceleration.z,rotationRate.x,rotationRate.y,rotationRate.z,label,subject
0.0013617999999997,0.0009680000000012,-0.0050241999999999,0.0001220000000004,0.0005440000000009,-0.0007379999999998,0,sub_6
0.0011115999999998,0.0014032000000012,-0.0054137999999999,-0.0003061999999995,0.0003244000000009,-0.0001019999999998,0,sub_6
0.0007535999999998,0.0009300000000012,-0.0060609999999999,-0.0007275999999995,0.0009596000000009,-0.0001079999999998,0,sub_6
0.0007999999999998,0.0005590000000012,-0.0067111999999999,-0.0007259999999995,0.0007412000000009,-0.0001099999999998,0,sub_6
0.0005595999999998,0.0008676000000012,-0.0063623999999999,-0.0002967999999995,0.0007342000000009,-0.0001091999999999,0,sub_6
0.0013045999999998,0.0009240000000012,-0.0065947999999999,-0.0005115999999995,0.0003018000000009,0.0003148,0,sub_6
0.0021477999999997,0.0008268000000012,-0.0068011999999998,-0.0009363999999995,9.280000000094192e-05,-0.0003287999999999,0,sub_6
0.0024805999999998,0.0010842000000012,-0.0067401999999998,-0.0013591999999995,9.7800000000942e-05,-0.0011861999999999,0,sub_6
0.0020377999999998,0.0010234000000012,-0.0066733999999998,-0.0015687999999995,0.0005264000000009,-0.0016155999999999,0,sub_6
0.0021497999999998,0.0013048000000012,-0.0070029999999998,-0.0013499999999995,0.0009484000000009,-0.0020453999999999,0,sub_6
0.0015481999999997,0.0015558000000012,-0.0067013999999998,-0.0007031999999995,0.0017942000000009,-0.0022589999999999,0,sub_6
0.0005749999999997,0.0018366000000012,-0.0063263999999998,-0.0002783999999995,0.0017844000000009,-0.0014047999999999,0,sub_6
0.0005241999999997,0.0014788000000012,-0.0060045999999998,0.0001432000000004,0.0015598000000009,-0.0001231999999999,0,sub_6
0.0002433999999997,0.0016152000000012,-0.0055815999999998,0.0001420000000004,0.0017644000000009,0.0007278,0,sub_6
6.619999999979978e-05,0.0018092000000012,-0.0057567999999999,-0.0005017999999995,0.0017634000000009,0.0015778,0,sub_6
-7.860000000020021e-05,0.0017132000000011,-0.0064129999999999,-0.0011467999999995,0.0011248000000009,0.0020014,0,sub_6
8.619999999977978e-05,0.0012252000000011,-0.0063289999999999,-0.0011459999999995,0.0011256000000009,0.0017878,0,sub_6
0.0003725999999997,0.0010828000000011,-0.0057501999999999,-0.0007199999999995,0.0002696000000009,0.0013632,0,sub_6
0.0009507999999997,0.0007172000000012,-0.0051991999999999,-0.0002911999999995,-0.000159399999999,0.0007244,0,sub_6
0.0015277999999997,0.0003898000000012,-0.0049199999999999,0.0005652000000004,-0.000376999999999,8.840000000008222e-05,0,sub_6
0.0019797999999997,1.7800000001238646e-05,-0.0047541999999999,0.0009958000000004,-0.000167799999999,-0.0003375999999999,0,sub_6
0.0022707999999997,-0.0001159999999987,-0.0053059999999998,0.0005730000000004,4.440000000092196e-05,-0.0007695999999999,0,sub_6
0.0020765999999997,-0.0004025999999987,-0.0054085999999998,0.0001520000000004,0.0011120000000009,-0.0009875999999999,0,sub_6
0.0017659999999997,0.0003982000000012,-0.0063015999999998,0.0001490000000004,0.0006850000000009,-0.0007735999999999,0,sub_6
0.0014337999999997,0.0010050000000012,-0.0063369999999998,-0.0002795999999995,4.500000000092213e-05,-0.0007779999999999,0,sub_6
0.0009689999999997,0.0017914000000012,-0.0064137999999998,-0.0007051999999995,4.420000000092208e-05,-0.0007831999999999,0,sub_6
0.0004233999999997,0.0022850000000012,-0.0059285999999999,-0.0007069999999995,3.920000000092213e-05,-0.0001445999999999,0,sub_6
0.0003997999999997,0.0028176000000012,-0.0065347999999999,-7.159999999957573e-05,-0.000607199999999,0.0004994,0,sub_6
0.0008403999999997,0.0027966000000012,-0.0064413999999999,0.0001420000000004,-0.000611199999999,0.0007124,0,sub_6
0.0008293999999997,0.0019068000000012,-0.0066589999999999,0.0007850000000004,2.560000000096205e-05,0.000716,0,sub_6
0.0013775999999997,0.0007800000000012,-0.0062989999999999,0.0018518000000004,2.1800000000982048e-05,0.0007234,0,sub_6
0.0017953999999998,0.0002734000000012,-0.0065309999999999,0.0027052000000004,-0.0004053999999989,0.0003026,0,sub_6
0.0016483999999997,0.0006014000000012,-0.0063727999999999,0.0022770000000004,-0.000832199999999,0.0002992,0,sub_6
0.0012357999999997,0.0004680000000012,-0.0062579999999998,0.0018488000000004,-0.000834599999999,0.0007226,0,sub_6
0.0013617999999997,0.0009022000000012,-0.0059605999999998,0.0009880000000004,-0.001689399999999,0.0015714,0,sub_6
0.0012423999999997,0.0015574000000011,-0.0060019999999998,-8.319999999959566e-05,-0.002328799999999,0.0019912,0,sub_6
0.0012273999999997,0.0017194000000011,-0.0057251999999998,-0.0005121999999995,-0.002544399999999,0.002415,0,sub_6
0.0016001999999997,0.0014082000000011,-0.0066529999999998,-0.0005083999999995,-0.002116599999999,0.0019872,0,sub_6
0.0019273999999997,0.0009214000000011,-0.0069063999999999,-0.0002901999999995,-0.001900999999999,0.0011338,0,sub_6
0.0012215999999997,0.0004924000000011,-0.0066821999999999,-6.81999999995757e-05,-0.001257399999999,-0.0001473999999999,0,sub_6
0.0010199999999998,0.0002030000000012,-0.0068099999999999,0.0007924000000004,-0.000409199999999,-0.0005685999999999,0,sub_6
0.0008879999999997,-3.179999999878135e-05,-0.0071527999999998,0.0010098000000004,1.4400000000921947e-05,-0.0007801999999999,0,sub_6
0.0004105999999997,-0.0002009999999987,-0.0064195999999998,0.0012264000000004,0.0004370000000009,-0.0007779999999999,0,sub_6
0.0003175999999997,0.0001686000000012,-0.0068167999999998,0.0008010000000004,0.0006480000000009,-0.0005663999999999,0,sub_6
0.0008113999999997,0.0004016000000012,-0.0068861999999998,0.0003698000000004,5.000000000921976e-06,7.360000000006225e-05,0,sub_6
0.0008205999999997,0.0007602000000012,-0.0065605999999998,-6.079999999957564e-05,-0.000845599999999,7.180000000008226e-05,0,sub_6
0.0009947999999997,0.0012622000000012,-0.0063719999999998,-0.0002731999999995,-0.001056199999999,-0.0003565999999999,0,sub_6
0.0011897999999997,0.0014836000000012,-0.0061183999999998,-0.0004875999999995,-0.001480599999999,-0.0005711999999999,0,sub_6
0.0015395999999997,0.0014784000000012,-0.0052823999999998,0.0001536000000004,-0.001699199999999,-0.0007805999999999,0,sub_6
0.0019877999999997,0.0016478000000012,-0.0055415999999999,0.0012264000000004,-0.001278599999999,-0.0014151999999998,0,sub_6
0.0017489999999997,0.0017104000000011,-0.0052103999999998,0.0018704000000004,-0.000858199999999,-0.0016253999999999,0,sub_6
0.0019861999999998,0.0010978000000011,-0.0057849999999998,0.0025088000000004,-0.001291799999999,-0.0014073999999999,0,sub_6
0.0023573999999998,0.0007496000000011,-0.0065771999999998,0.0025090000000004,-0.001296999999999,-0.0011943999999999,0,sub_6
0.0023741999999997,0.0009886000000011,-0.0074909999999998,0.0018708000000004,-0.000868799999999,-0.0011993999999998,0,sub_6
0.0019323999999997,0.0006962000000011,-0.0074853999999998,0.0005926000000004,-0.000862599999999,-0.0016355999999998,0,sub_6
0.0019415999999998,0.0008156000000011,-0.0076979999999999,-0.0008969999999995,-0.000641799999999,-0.0022873999999998,0,sub_6
0.0013129999999997,0.0013980000000011,-0.0070465999999999,-0.0015299999999995,-3.999999990580603e-07,-0.0031461999999998,0,sub_6
0.0010599999999997,0.0017996000000011,-0.0067107999999999,-0.0008873999999995,-4.399999999058044e-06,-0.0035679999999998,0,sub_6
0.0011939999999997,0.0010684000000012,-0.0057991999999999,-0.0004631999999996,-0.000223999999999,-0.0031365999999999,0,sub_6
0.0015157999999997,0.0008342000000012,-0.0054279999999999,-0.0002541999999996,-2.0199999999058004e-05,-0.0018525999999999,0,sub_6
0.0017601999999997,0.0002288000000012,-0.0063013999999999,0.0001634000000003,-0.000457999999999,-0.0001389999999999,0,sub_6
0.0017721999999997,0.0004548000000012,-0.0072623999999999,-0.0002719999999996,-0.000888599999999,0.001354,0,sub_6
0.0011847999999997,0.0004906000000012,-0.0076779999999999,-0.0015571999999995,-0.001100599999999,0.0021998,0,sub_6
0.0006437999999997,0.0008680000000012,-0.0081451999999999,-0.0017695999999995,-0.001523399999999,0.001558,0,sub_6
0.0001099999999997,0.0010694000000012,-0.0079933999999999,-0.0009103999999995,-0.001521199999999,0.0002822,0,sub_6
0.0003969999999997,0.0008878000000012,-0.0069691999999999,0.0005922000000004,-0.001094999999999,-0.0014163999999999,0,sub_6
0.0017279999999997,0.0007336000000012,-0.0065553999999999,0.0018776000000004,-0.000883599999999,-0.0024753999999999,0,sub_6
0.0027473999999998,0.0006124000000012,-0.0066049999999999,0.0029468000000004,-0.000673999999999,-0.0028949999999999,0,sub_6
0.0024743999999997,-2.279999999878135e-05,-0.0066307999999999,0.0029404000000004,-0.001104999999999,-0.0020393999999999,0,sub_6
0.0023291999999997,-0.0005179999999987,-0.0070701999999998,0.0018662000000004,-0.001745399999999,-0.0011909999999998,0,sub_6
0.0017339999999997,-0.0003461999999987,-0.0079461999999998,0.0005830000000004,-0.001743599999999,-0.0005591999999998,0,sub_6
7.199999999979974e-05,-2.87999999988014e-05,-0.0069433999999998,-0.0006913999999995,-0.000885199999999,-0.0009965999999998,0,sub_6
-0.0006840000000002,0.0006218000000011,-0.0057561999999998,-0.0011123999999995,-0.000241999999999,-0.0016411999999998,0,sub_6
-0.0004324000000002,0.0017594000000011,-0.0055403999999998,-0.0004677999999995,0.0003974000000009,-0.0020661999999998,0,sub_6
6.499999999979981e-05,0.0029594000000011,-0.0054603999999999,0.0005998000000004,0.0008198000000009,-0.0018471999999998,0,sub_6
0.0006891999999997,0.0029346000000011,-0.0050849999999999,0.0010252000000004,0.0010306000000009,-0.0014185999999998,0,sub_6
0.0014899999999997,0.0014612000000011,-0.0056775999999999,0.0012306000000004,0.0003872000000009,-0.0003493999999999,0,sub_6
0.0014749999999997,-0.0001133999999988,-0.0061589999999998,0.0010122000000004,-3.999999999905808e-05,0.0002892,0,sub_6
0.0011551999999997,-0.0010573999999988,-0.0059431999999998,0.0003732000000003,0.0001754000000009,0.0002844,0,sub_6
0.0012417999999997,-0.0019727999999987,-0.0058999999999998,-5.359999999961565e-05,-3.539999999905806e-05,6.820000000010222e-05,0,sub_6
0.0012565999999997,-0.0020191999999987,-0.0054497999999998,-5.639999999959566e-05,-0.000460399999999,0.0002830000000001,0,sub_6
0.0013109999999997,-0.0006319999999987,-0.0052943999999998,0.0005828000000004,-0.000461399999999,0.0005016000000001,0,sub_6
0.0013379999999997,0.0005118000000012,-0.0048837999999998,0.0005798000000004,-0.000673999999999,0.0009296000000001,0,sub_6
0.0019391999999997,0.0010108000000012,-0.0051579999999998,0.0003634000000004,-0.000673799999999,0.0015696000000001,0,sub_6
0.0014661999999997,0.0021040000000012,-0.0052387999999998,0.0001500000000004,-3.4399999999058055e-05,0.0022086,0,sub_6
0.0005149999999997,0.0025464000000011,-0.0060181999999998,0.0003644000000004,0.0003902000000009,0.0024232,0,sub_6
-4.860000000020028e-05,0.0021548000000011,-0.0067485999999998,0.0005720000000004,-0.000464599999999,0.002853,0,sub_6
1.6599999999799718e-05,0.0017400000000011,-0.0075859999999998,0.0007844000000004,-0.000678399999999,0.0028546,0,sub_6
-0.0002672000000002,0.0010528000000011,-0.0076057999999998,0.0005714000000004,-0.000886799999999,0.0024308,0,sub_6
0.0004867999999997,-0.0005923999999987,-0.0076141999999998,0.0005688000000004,-0.001734999999999,0.0020094,0,sub_6
0.0018183999999998,-0.0018005999999987,-0.0071939999999998,-0.0009245999999995,-0.002150999999999,0.0013634,0,sub_6
0.0019577999999997,-0.0014349999999987,-0.0060827999999998,-0.0024083999999995,-0.000436399999999,0.0007148,0,sub_6
0.0025503999999997,-0.0007283999999988,-0.0050621999999998,-0.0026147999999995,0.0008466000000009,0.0002894,0,sub_6
0.0023507999999997,0.0005292000000011,-0.0043777999999998,-0.0017555999999995,0.0014854000000009,-0.0003463999999999,0,sub_6
0.0015995999999997,0.0021910000000011,-0.0039385999999998,-0.0008933999999995,0.0027632000000009,-0.0009827999999999,0,sub_6
0.0008759999999997,0.0034010000000011,-0.0047665999999998,0.0012452000000004,0.0033966000000009,-0.0013959999999999,0,sub_6
0.0004951999999997,0.0030852000000011,-0.0057745999999998,0.0025248000000004,0.0025452000000009,-0.0020223999999999,0,sub_6
-0.0005192000000002,0.0023350000000012,-0.0065833999999998,0.0025222000000004,0.0014844000000009,-0.0024437999999999,0,sub_6
-0.0008704000000001,0.0010072000000012,-0.0072859999999998,0.0012412000000004,0.0017030000000009,-0.0020209999999999,0,sub_6
-0.0009396000000001,-0.0003053999999987,-0.0080563999999998,0.0001678000000004,0.0012792000000009,-0.0009551999999999,0,sub_6
-0.0005724000000001,-0.0008277999999987,-0.0074313999999998,-0.0009055999999995,0.0010674000000009,0.000324,0,sub_6
0.0007675999999998,-0.0011221999999987,-0.0071841999999998,-0.0015495999999995,0.0017028000000009,0.0018142,0,sub_6
0.0014313999999998,-0.0014323999999987,-0.0069091999999998,-0.0021933999999995,0.0027626000000009,0.0037312,0,sub_6
0.0016909999999997,-0.0011271999999987,-0.0069137999999998,-0.0017741999999995,0.0021176000000009,0.0048032,0,sub_6
0.0020799999999998,-0.0003307999999987,-0.0064311999999999,-0.0022033999999995,0.0021220000000009,0.0050196,0,sub_6
0.0018173999999997,0.0005334000000011,-0.0063629999999999,-0.0024145999999995,0.0023422000000009,0.0043828,0,sub_6
0.0008871999999997,0.0010244000000011,-0.0058787999999999,-0.0019903999999995,0.0017070000000009,0.0039652,0,sub_6
0.0007351999999997,0.0016482000000011,-0.0053037999999998,-0.0007127999999995,0.0006444000000009,0.0031268,0,sub_6
0.0012043999999997,0.0017430000000011,-0.0048297999999998,0.0001420000000004,0.0008600000000009,0.002711,0,sub_6
0.0014805999999997,0.0014846000000011,-0.0049823999999998,0.0007840000000004,0.0006472000000009,0.002075,0,sub_6
0.0017433999999997,0.0010680000000011,-0.0049763999999998,0.0005688000000004,0.0002218000000009,0.002074,0,sub_6
0.0023203999999997,0.0006606000000012,-0.0055053999999998,0.0005726000000004,0.0006496000000009,0.0016462,0,sub_6
0.0019833999999997,0.0007198000000012,-0.0060975999999998,0.0001526000000004,0.0015060000000008,0.0010012,0,sub_6
0.0010235999999997,0.0009228000000012,-0.0065055999999998,0.0003640000000004,0.0015094000000009,0.0007926,0,sub_6
0.0006137999999997,0.0013356000000012,-0.0067033999999998,0.0007860000000004,0.0010852000000009,0.0007996,0,sub_6
0.0003017999999997,0.0015052000000012,-0.0069305999999998,0.0009956000000004,0.0010870000000009,0.0010182,0,sub_6
-0.0003430000000002,0.0018544000000011,-0.0067463999999998,0.0003478000000004,0.0006640000000009,0.0016586,0,sub_6
-2.720000000020013e-05,0.0019222000000011,-0.0067975999999998,-0.0003019999999995,-0.000397399999999,0.0020862,0,sub_6
0.0009157999999997,0.0023238000000011,-0.0067617999999998,-0.0011573999999995,-0.000820599999999,0.0020808,0,sub_6
0.0011117999999997,0.0019200000000011,-0.0063149999999999,-0.0011555999999995,-0.000394599999999,0.0020802,0,sub_6
0.0015071999999997,0.0016766000000011,-0.0054529999999999,-0.0005165999999995,-0.000604199999999,0.0014428,0,sub_6
0.0025159999999998,0.0011120000000011,-0.0053081999999999,0.0005532000000004,-0.000387399999999,0.0003806,0,sub_6
0.0029291999999998,0.0005464000000011,-0.0046977999999999,0.0016230000000004,0.0002538000000009,-0.0002549999999999,0,sub_6
0.0030787999999998,0.0004406000000011,-0.0043223999999999,0.0018354000000004,4.580000000096222e-05,-0.0008955999999999,0,sub_6
0.0032175999999998,0.0008920000000011,-0.0046641999999998,0.0014028000000004,-0.000588599999999,-0.0008991999999999,0,sub_6
0.0027023999999998,0.0011764000000011,-0.0050969999999998,0.0009704000000004,-0.000804399999999,0.0001662,0,sub_6
0.0019571999999997,0.0018572000000011,-0.0053877999999998,-0.0003165999999995,-0.001230199999999,0.0012258,0,sub_6
0.0010301999999997,0.0019716000000011,-0.0061795999999998,-0.0009625999999995,-0.002081999999999,0.0016496,0,sub_6
0.0002667999999997,0.0019648000000012,-0.0067899999999998,-0.0007501999999995,-0.002295799999999,0.0016514,0,sub_6
0.0003105999999997,0.0020210000000012,-0.0063981999999998,-0.0003197999999995,-0.002081199999999,0.0008002,0,sub_6
0.0004491999999997,0.0020780000000011,-0.0062601999999998,-0.0001001999999995,-0.001650999999999,-0.0004799999999999,0,sub_6
0.0005931999999997,0.0019892000000011,-0.0059935999999998,0.0007596000000004,-0.001435399999999,-0.0019689999999999,0,sub_6
0.0014867999999997,0.0027316000000011,-0.0058111999999998,0.0014024000000004,-0.001010199999999,-0.0023915999999999,0,sub_6
0.0022215999999997,0.0026628000000011,-0.0056587999999999,0.0016164000000004,-0.000585199999999,-0.0023899999999999,0,sub_6
0.0021913999999998,0.0018536000000011,-0.0059553999999999,0.0014020000000004,-0.000372999999999,-0.0019643999999999,0,sub_6
0.0022393999999998,0.0015832000000011,-0.0063251999999999,0.0009734000000004,-0.000373199999999,-0.0015399999999999,0,sub_6
0.0019241999999998,0.0015102000000011,-0.0063975999999999,0.0007578000000004,-0.000591399999999,-0.0011173999999999,0,sub_6
0.0011043999999997,0.0012304000000011,-0.0061843999999999,0.0001192000000004,-0.000167999999999,-0.0009121999999999,0,sub_6
0.0003375999999998,0.0010866000000011,-0.0062445999999999,-0.0007355999999995,-0.000170799999999,-0.0004941999999999,0,sub_6
0.0004611999999998,0.0014188000000011,-0.0064303999999998,-0.0005273999999995,-0.000817599999999,0.0001456,0,sub_6
0.0009637999999998,0.0012788000000011,-0.0063361999999998,0.0001134000000004,-0.001036399999999,-6.679999999991775e-05,0,sub_6
0.0009935999999998,0.0006774000000012,-0.0063347999999998,0.0005440000000004,-0.000610199999999,-0.0004915999999998,0,sub_6
0.0013005999999998,0.0002858000000011,-0.0068055999999998,0.0003334000000004,-0.000819199999999,-0.0013473999999998,0,sub_6
0.0017873999999997,0.0003904000000011,-0.0068579999999998,0.0001276000000004,3.7000000000942095e-05,-0.0022045999999998,0,sub_6
0.0017989999999998,0.0010118000000012,-0.0065413999999999,-0.0002889999999995,0.0017404000000009,-0.0026431999999998,0,sub_6
0.0016173999999997,0.0015956000000012,-0.0060589999999998,-0.0005057999999995,0.0015212000000009,-0.0020095999999998,0,sub_6
0.0018381999999997,0.0018162000000011,-0.0054749999999998,-0.0009397999999995,0.0010872000000009,-0.0007363999999998,0,sub_6
0.0015313999999997,0.0020676000000012,-0.0044215999999998,-0.0003047999999995,0.0012878000000009,0.0007572000000001,0,sub_6
0.0016287999999997,0.0024216000000012,-0.0043423999999998,0.0001148000000004,0.0006386000000009,0.0018230000000001,0,sub_6
0.0013681999999997,0.0026246000000012,-0.0049885999999998,0.0001120000000004,-5.999999990577779e-07,0.0018238,0,sub_6
0.0004431999999997,0.0021758000000012,-0.0053267999999998,-0.0003107999999995,0.0004288000000009,0.001393,0,sub_6
2.75999999997998e-05,0.0024358000000012,-0.0058393999999998,0.0001170000000004,3.8000000009222495e-06,0.0007556,0,sub_6
0.0004245999999997,0.0023990000000012,-0.0059635999999998,0.0003314000000004,-0.000422999999999,-0.0001037999999999,0,sub_6
0.0006863999999997,0.0017726000000012,-0.0058771999999998,0.0011868000000004,-0.000426599999999,-0.0007455999999999,0,sub_6
0.0011173999999997,0.0010660000000012,-0.0052561999999998,0.0020374000000004,-0.000858999999999,-0.0007459999999999,0,sub_6
0.0022977999999998,0.0007898000000012,-0.0044325999999998,0.0022508000000004,-0.000862199999999,-0.0009651999999999,0,sub_6
0.0028185999999997,0.0003472000000012,-0.0043311999999998,0.0014020000000004,0.0004158000000009,-0.0009795999999999,0,sub_6
0.0029709999999997,1.900000000123849e-05,-0.0045397999999998,0.0007628000000004,0.0008434000000009,-0.0007709999999999,0,sub_6
0.0026229999999997,0.0005198000000012,-0.0047085999999998,0.0001218000000004,0.0008448000000009,-0.0005619999999999,0,sub_6
0.0018541999999997,0.0008946000000012,-0.0045751999999998,-0.0005163999999995,0.0010610000000009,-0.0007803999999999,0,sub_6
0.0014829999999997,0.0013612000000012,-0.0054775999999998,-0.0007327999999995,0.0008484000000009,-0.0005723999999999,0,sub_6
0.0010697999999998,0.0019188000000012,-0.0055603999999998,-9.639999999957564e-05,0.0002076000000009,-0.0005715999999999,0,sub_6
0.0009975999999997,0.0023592000000011,-0.0059805999999998,-0.0003135999999995,-0.000217999999999,-0.0003633999999999,0,sub_6
0.0010745999999997,0.0022672000000011,-0.0063271999999998,-0.0005279999999995,-4.399999999037726e-06,-0.0001557999999999,0,sub_6
0.0013317999999997,0.0020510000000011,-0.0069303999999998,-0.0005309999999995,-5.399999999017747e-06,0.0002672,0,sub_6
0.0016589999999998,0.0017738000000012,-0.0069449999999998,-0.0003145999999995,0.0006330000000009,0.000268,0,sub_6
0.0018759999999998,0.0019286000000012,-0.0066765999999998,-0.0007383999999995,0.0010614000000009,5.080000000008233e-05,0,sub_6
0.0019881999999998,0.0015186000000012,-0.0060849999999998,0.0001188000000004,0.0016984000000009,-0.0001575999999999,0,sub_6
0.0019817999999997,0.0015432000000012,-0.0055583999999999,0.0005446000000004,0.0012716000000009,-0.0003677999999999,0,sub_6
0.0023965999999998,0.0016162000000012,-0.0048841999999999,0.0005402000000004,0.0010598000000009,-0.0001539999999999,0,sub_6
0.0016489999999998,0.0018694000000012,-0.0044555999999999,0.0001090000000004,0.0008496000000009,5.700000000008239e-05,0,sub_6
0.0011649999999997,0.0012116000000012,-0.0046175999999999,0.0003168000000004,0.0006364000000009,0.0004862,0,sub_6
0.0009401999999997,0.0012258000000012,-0.0053465999999999,0.0003124000000004,0.0004246000000009,0.0007,0,sub_6
0.0011227999999997,0.0011552000000012,-0.0055867999999999,0.0003118000000004,0.0008528000000009,0.0006996,0,sub_6
0.0006073999999997,0.0011606000000012,-0.0058749999999999,-0.0001101999999995,0.0014952000000009,0.0002686,0,sub_6
0.0007255999999997,0.0009540000000012,-0.0065245999999999,0.0003146000000004,0.0012798000000009,0.0004854,0,sub_6
0.0011117999999997,0.0013522000000011,-0.0067731999999999,0.0003146000000004,0.0012798000000009,0.0004854,0,sub_6
0.0010837999999997,0.0017914000000011,-0.0066133999999998,0.0005244000000004,0.0008544000000009,0.000489,0,sub_6
0.0009817999999997,0.0016124000000011,-0.0063715999999998,0.0005218000000004,0.0004306000000009,0.0002772,0,sub_6
0.0010729999999997,0.0008610000000011,-0.0066309999999998,0.0007346000000004,0.0006442000000009,0.0002798,0,sub_6
0.0010843999999997,0.0011820000000011,-0.0064117999999998,9.860000000044434e-05,0.0017140000000009,6.180000000008234e-05,0,sub_6
0.0009099999999997,0.0010742000000012,-0.0061421999999998,-0.0007505999999995,0.0027844000000009,-0.0001577999999999,0,sub_6
0.0009811999999997,0.0011064000000012,-0.0061545999999999,-0.0022383999999995,0.0038558000000009,-0.0003831999999999,0,sub_6
0.0004085999999997,0.0017886000000012,-0.0059849999999999,-0.0032965999999995,0.0055648000000009,-0.0006063999999999,0,sub_6
0.0004635999999997,0.0024604000000012,-0.0053457999999999,-0.0028671999999995,0.0059920000000009,-0.0012451999999999,0,sub_6
0.0007007999999997,0.0023558000000012,-0.0055603999999999,-0.0015851999999995,0.0062032000000009,-0.0018777999999999,0,sub_6
0.0010069999999998,0.0026728000000012,-0.0060579999999998,-8.799999999959578e-05,0.0068398000000009,-0.0025095999999999,0,sub_6
0.0002569999999997,0.0033918000000012,-0.0063133999999998,0.0014150000000004,0.0081180000000009,-0.0037829999999999,0,sub_6
-0.0001782000000002,0.0025946000000012,-0.0066727999999998,0.0033324000000004,0.0072616000000009,-0.0044097999999999,0,sub_6
0.0013085999999998,0.0014754000000012,-0.0077985999999998,0.0050472000000004,0.0087478000000009,-0.0046133999999999,0,sub_6
0.0015399999999997,0.0050510000000011,-0.0106745999999998,0.0082554000000004,0.0102288000000009,-0.0048065999999999,0,sub_6
0.0011665999999998,0.0067174000000011,-0.0133847999999999,0.0099384000000004,0.0078672000000009,-0.0018007999999999,0,sub_6
0.0040573999999998,0.0061848000000011,-0.0140705999999999,0.0080500000000004,0.0199980000000009,0.0028718,0,sub_6
0.0054561999999997,0.0024574000000011,-0.0115261999999999,0.0098156000000004,0.0348988000000009,0.0043618,0,sub_6
0.0052921999999998,0.0056384000000011,-0.0109737999999999,0.0166828000000004,0.0436108000000009,0.0039726,0,sub_6
0.0066885999999998,0.0073812000000011,-0.0100399999999999,0.0229388000000004,0.0623240000000009,0.0071982,0,sub_6
0.0072343999999998,0.0075758000000011,-0.0063421999999999,0.0321724000000004,0.0808060000000009,0.0123678,0,sub_6
0.0058691999999997,0.0072224000000011,-0.0029125999999999,0.0481062000000004,0.0726252000000009,0.0197534,0,sub_6
0.0072905999999998,0.0101962000000012,-0.0052251999999999,0.0648754000000004,0.0648494000000009,0.031631,0,sub_6
0.0074299999999998,0.0062564000000012,-0.0042843999999999,0.0778404000000004,0.0630612000000009,0.0413378,0,sub_6
