userAcceleration.x,userAcceleration.y,userAcceleration.z,rotationRate.x,rotationRate.y,rotationRate.z,label,subject
0.0040807999999997,0.0037816000000012,-0.0028513999999998,-0.0048325999999995,-0.0009421999999991,-0.0135189999999998,0,sub_2
0.0035537999999997,0.0021948000000012,-0.0027001999999998,-0.0071769999999995,0.0033370000000008,-0.0130905999999998,0,sub_2
0.0004803999999997,0.0015038000000012,-0.0050011999999998,-0.0122549999999995,0.0157254000000008,-0.0135461999999999,0,sub_2
-0.0028540000000002,0.0014162000000012,-0.0051025999999998,-0.0196357999999995,0.0338662000000008,-0.0149027999999999,0,sub_2
-0.0075934000000002,0.0008100000000011,-0.0012485999999998,-0.0252855999999995,0.0552052000000008,-0.0183877999999999,0,sub_2
-0.0130030000000001,0.0008582000000011,0.0021286,-0.0285565999999995,0.0808082000000008,-0.0246389999999999,0,sub_2
-0.0197048000000001,-0.0023885999999987,0.0031252,-0.0278261999999995,0.0974592000000009,-0.0310455999999999,0,sub_2
-0.0138576000000001,-0.0137627999999987,-0.0001623999999999,-0.0213969999999995,0.0996050000000009,-0.0380347999999999,0,sub_2
-0.0101100000000001,-0.0211445999999987,-0.0050825999999999,-0.0171419999999995,0.0911124000000009,-0.0467345999999999,0,sub_2
0.0093261999999998,-0.0328281999999987,-0.0157417999999999,-0.0238071999999995,0.0707408000000009,-0.0589137999999999,0,sub_2
0.0294321999999998,-0.0324071999999987,-0.0146199999999999,-0.0356681999999995,0.0371640000000009,-0.0676941999999998,0,sub_2
0.0488555999999998,-0.0242237999999987,-0.0103283999999999,-0.0471013999999995,0.0039896000000009,-0.0732861999999998,0,sub_2
0.0458775999999997,-0.0045029999999987,-0.0022085999999999,-0.0583213999999995,-0.024092799999999,-0.0737557999999999,0,sub_2
0.0368271999999997,0.0135930000000012,0.0034736,-0.0608035999999995,-0.045636999999999,-0.0651997999999998,0,sub_2
0.0101677999999997,0.0352238000000012,0.008936,-0.0494195999999995,-0.054275599999999,-0.0441583999999998,0,sub_2
-0.0185392000000002,0.0424752000000012,0.0028866,-0.0324235999999995,-0.046112599999999,-0.0205353999999999,0,sub_2
-0.0431688000000001,0.0442352000000012,-0.0031745999999999,-0.0160169999999995,-0.025806799999999,0.0039224,0,sub_2
-0.0517200000000001,0.0392386000000012,-0.0053595999999999,0.0008712000000004,0.0047318000000009,0.0264476,0,sub_2
-0.0460430000000001,0.0287434000000012,-0.0038903999999999,0.0150574000000004,0.0421344000000009,0.0397584,0,sub_2
-0.0338226000000001,0.0169630000000012,-0.0008751999999999,0.0254412000000004,0.0763890000000008,0.0425644,0,sub_2
-0.0141020000000001,0.0035272000000012,0.0017826,0.0328148000000004,0.0998114000000008,0.0395948,0,sub_2
0.0032131999999998,-0.0060889999999987,0.0033816,0.0348158000000003,0.1106984000000008,0.0325446,0,sub_2
0.0160889999999998,-0.0133577999999987,0.0037906,0.0346474000000004,0.1086170000000008,0.0203684,0,sub_2
0.0222925999999998,-0.0172253999999987,0.0013516,0.0324766000000004,0.0920458000000009,0.0105596,0,sub_2
0.0244863999999998,-0.0171553999999987,-0.0005001999999998,0.0266334000000004,0.0695056000000009,0.004792,0,sub_2
0.0205567999999998,-0.0142091999999987,-0.0018569999999998,0.0186440000000004,0.0473862000000009,0.0022136,0,sub_2
0.0167419999999998,-0.0099439999999987,-0.0037789999999998,0.0123806000000004,0.0305830000000008,0.0007086,0,sub_2
0.0122563999999998,-0.0052467999999987,-0.0052283999999998,0.0052456000000004,0.0144032000000009,0.0038968,0,sub_2
0.0089041999999997,-0.0003355999999987,-0.0048703999999998,-0.0010141999999995,0.0029020000000009,0.0083544,0,sub_2
0.0069615999999997,0.0024530000000012,-0.0039267999999999,-0.0034101999999995,-0.004772399999999,0.0115522,0,sub_2
0.0058471999999997,0.0055992000000012,-0.0022191999999999,-0.0028035999999995,-0.010740799999999,0.0120134,0,sub_2
0.0047475999999997,0.0063136000000012,-0.0004873999999999,-0.0017653999999995,-0.017130799999999,0.0109826,0,sub_2
0.0037055999999997,0.0069786000000012,0.0005896,-0.0002785999999995,-0.020107399999999,0.0084552,0,sub_2
0.0015527999999997,0.0078234000000012,0.00111,0.0018696000000004,-0.018823399999999,0.0054996,0,sub_2
-0.0007476000000002,0.0087472000000012,0.0015018,0.0040234000000004,-0.014563599999999,0.0042494,0,sub_2
-0.0029594000000001,0.0085908000000012,0.0003502,0.0063964000000004,-0.0075459999999991,0.005539,0,sub_2
-0.0030648000000001,0.0078676000000012,-0.0016527999999999,0.0077034000000004,0.0013858000000008,0.0085278,0,sub_2
-0.0012022000000002,0.0084194000000012,-0.0035269999999999,0.0077246000000004,0.0107414000000008,0.0132162,0,sub_2
0.0030081999999997,0.0086086000000012,-0.0032723999999999,0.0077584000000004,0.0159360000000008,0.019046,0,sub_2
0.0071177999999997,0.0077734000000012,-0.0027025999999999,0.0088362000000004,0.0170744000000008,0.0259564,0,sub_2
0.0110019999999997,0.0066278000000012,-0.0023947999999999,0.0092554000000004,0.0133182000000008,0.0320138,0,sub_2
0.0135987999999997,0.0049426000000012,-0.0012325999999999,0.0109396000000004,0.0044512000000008,0.0363776,0,sub_2
0.0128881999999998,-9.839999999879668e-05,-0.0002277999999998,0.0126314000000004,-0.005682199999999,0.0377520000000001,0,sub_2
0.0080665999999998,-0.0028393999999987,-0.0024783999999998,0.0124006000000004,-0.011001999999999,0.0362616,0,sub_2
0.0030549999999998,-0.0041153999999987,-0.0050849999999998,0.0083502000000004,-0.014591799999999,0.0317514,0,sub_2
-0.0019914000000001,-0.0045709999999987,-0.0065197999999998,0.0030304000000004,-0.017531199999999,0.0255224,0,sub_2
-0.0053456000000001,-0.0020963999999987,-0.0051233999999998,-0.0038677999999995,-0.016712399999999,0.0181444,0,sub_2
-0.0060684000000001,0.0025042000000012,-0.0034241999999999,-0.0092741999999995,-0.015900599999999,0.0112042,0,sub_2
-0.0064186000000001,0.0047098000000012,-0.0019161999999998,-0.0125641999999995,-0.018718799999999,0.0044972,0,sub_2
-0.0049100000000001,0.0083632000000012,0.0022740000000001,-0.0105275999999995,-0.024321199999999,-0.0032373999999999,0,sub_2
-0.0061558000000001,0.0125304000000012,0.0029464000000001,-0.0072165999999995,-0.025689199999999,-0.0054137999999999,0,sub_2
-0.0077576000000001,0.0145898000000012,-0.0022399999999998,-0.0041545999999995,-0.013113399999999,-0.0094677999999999,0,sub_2
-0.0090522000000001,0.0230578000000012,-0.0030705999999998,-0.0115459999999995,-0.0087751999999991,-0.0223435999999999,0,sub_2
-0.0047424000000001,0.0274430000000012,-0.0005991999999999,-0.0071691999999995,-0.0118759999999991,-0.0498691999999999,0,sub_2
-0.0063260000000001,0.0238644000000012,-0.0031065999999999,-0.0056217999999995,-0.0167141999999991,-0.0667299999999999,0,sub_2
0.0016791999999998,0.0137974000000012,0.0014254,0.0004738000000004,-0.0162103999999991,-0.0856469999999999,0,sub_2
0.0115523999999998,0.0082258000000012,0.0026462000000001,0.0032700000000004,-0.0208759999999991,-0.0877023999999998,0,sub_2
0.0182075999999997,-0.0043581999999987,0.0027766000000001,0.0200826000000004,-0.0220421999999991,-0.0712911999999999,0,sub_2
0.0237105999999997,-0.0113741999999987,0.0034098000000001,0.0210222000000004,-0.0172857999999991,-0.0304291999999999,0,sub_2
0.0288711999999997,-0.0088813999999987,0.0018252000000001,0.0228584000000004,-0.0037937999999991,0.0095732,0,sub_2
0.0260963999999997,0.0010830000000012,-0.0057473999999998,0.0210018000000004,-0.0028597999999991,0.0439558,0,sub_2
0.0204473999999997,0.0055360000000012,-0.0045477999999999,0.0247150000000004,-0.0140209999999991,0.0613012,0,sub_2
0.0166153999999997,0.0099088000000012,-0.0044487999999999,0.0214474000000004,-0.0202233999999991,0.0700458,0,sub_2
0.0107819999999998,0.0102762000000012,-0.0051229999999999,0.0190748000000004,-0.0269829999999991,0.0706980000000001,0,sub_2
0.0085965999999998,0.0067290000000012,-0.0026129999999999,0.0156526000000004,-0.0398771999999991,0.0613096,0,sub_2
0.0069915999999998,0.0020036000000012,0.0016092,0.0124744000000004,-0.0470155999999991,0.0508472,0,sub_2
0.0029289999999998,4.2000000001244255e-05,0.0028448,0.0091040000000004,-0.0486171999999991,0.041231,0,sub_2
-0.0012326000000001,-0.0008257999999987,0.0017956,0.0083064000000004,-0.047882399999999,0.0312026,0,sub_2
-0.0054984000000001,0.0005428000000012,6.340000000006887e-05,0.0098644000000004,-0.044010799999999,0.02074,0,sub_2
-0.0087236000000001,0.0017644000000012,-0.0007945999999999,0.0116396000000004,-0.037590199999999,0.0119848,0,sub_2
-0.0094780000000001,0.0029940000000012,-0.0015831999999998,0.0125380000000004,-0.031069599999999,0.0064066,0,sub_2
-0.0073086000000001,0.0028864000000012,-0.0013397999999998,0.0121408000000004,-0.025831399999999,0.0029574,0,sub_2
-0.0038226000000001,0.0026636000000012,-0.0010641999999998,0.0117312000000004,-0.021665199999999,0.0012186,0,sub_2
-0.0011728000000001,0.0029376000000012,-0.0014581999999998,0.0115300000000004,-0.0185651999999991,-0.0005173999999999,0,sub_2
0.0012779999999998,0.0034748000000012,-0.0020511999999998,0.0106858000000004,-0.016314199999999,-0.0024703999999999,0,sub_2
0.0029273999999998,0.0048312000000012,-0.0020761999999999,0.0087838000000004,-0.014169199999999,-0.0044091999999999,0,sub_2
0.0041725999999998,0.0058552000000012,-0.0022463999999999,0.0072998000000004,-0.013518799999999,-0.0059159999999999,0,sub_2
0.0036147999999998,0.0064212000000012,-0.0020709999999999,0.0066684000000004,-0.014145599999999,-0.0084833999999999,0,sub_2
0.0033299999999998,0.0071580000000012,-0.0022523999999999,0.0062382000000004,-0.014394599999999,-0.0113321999999999,0,sub_2
0.0030301999999998,0.0070376000000012,-0.0023785999999999,0.0064452000000004,-0.014436199999999,-0.0133223999999999,0,sub_2
0.0025773999999998,0.0057258000000012,-0.0027097999999999,0.0068598000000004,-0.014907999999999,-0.0144559999999999,0,sub_2
0.0023801999999998,0.0053670000000012,-0.0028339999999999,0.0068496000000004,-0.014952199999999,-0.0155929999999999,0,sub_2
0.0037169999999998,0.0053844000000011,-0.0032479999999999,0.0059858000000004,-0.0145689999999991,-0.0163091999999999,0,sub_2
0.0049055999999998,0.0045118000000011,-0.0029287999999999,0.0051362000000004,-0.013925999999999,-0.0165295999999999,0,sub_2
0.0061997999999998,0.0051054000000011,-0.0026457999999999,0.0042818000000004,-0.013499399999999,-0.0158951999999999,0,sub_2
0.0058571999999998,0.0049498000000011,-0.0023745999999999,0.0040608000000004,-0.013717799999999,-0.0144009999999999,0,sub_2
0.0053027999999998,0.0044822000000011,-0.0021153999999999,0.0038340000000004,-0.014142999999999,-0.0122439999999999,0,sub_2
0.0041093999999998,0.0036380000000012,-0.0018283999999999,0.0036072000000004,-0.014143599999999,-0.0096601999999999,0,sub_2
0.0037009999999998,0.0031250000000012,-0.0014525999999998,0.0035936000000004,-0.014144999999999,-0.0070749999999999,0,sub_2
0.0030401999999998,0.0026062000000012,-0.0008907999999998,0.0035830000000004,-0.014355999999999,-0.0053439999999999,0,sub_2
0.0030593999999998,0.0024934000000012,-0.0011919999999998,0.0027226000000004,-0.014348399999999,-0.0042599999999999,0,sub_2
0.0028775999999998,0.0033744000000012,-0.0009615999999998,0.0016518000000004,-0.014772399999999,-0.0038395999999999,0,sub_2
0.0028077999999998,0.0042182000000012,-0.0005533999999998,0.0010098000000004,-0.0151961999999991,-0.0038435999999998,0,sub_2
0.0021745999999998,0.0058982000000012,-0.0006329999999999,0.0003698000000004,-0.0147693999999991,-0.0034211999999998,0,sub_2
0.0008869999999998,0.0066190000000012,-0.0016459999999999,-0.0009381999999995,-0.0115239999999991,-0.0025957999999999,0,sub_2
-8.980000000019181e-05,0.0080200000000012,-0.0020943999999999,-0.0028709999999995,-0.0046553999999991,-0.0015657999999999,0,sub_2
-0.0006406000000001,0.0076574000000012,-0.0032437999999999,-0.0060705999999995,0.0054128000000008,-0.0003349999999999,0,sub_2
-0.0007226000000001,0.0061814000000012,-0.0034523999999999,-0.0099045999999995,0.0163370000000008,0.0004628,0,sub_2
-2.1200000000191897e-05,0.0039316000000012,-0.0025365999999999,-0.0139539999999995,0.0251382000000008,-0.0004473999999999,0,sub_2
0.0010085999999998,0.0021068000000012,-0.0007983999999999,-0.0164799999999995,0.0302706000000008,-0.0030353999999999,0,sub_2
0.0016535999999998,0.0015564000000012,0.0005982,-0.0168827999999995,0.0322032000000008,-0.0064589999999999,0,sub_2
0.0018213999999997,0.0013414000000012,0.0017924,-0.0153853999999995,0.0296548000000008,-0.0098635999999999,0,sub_2
0.0022669999999997,0.0029714000000012,0.001261,-0.0130995999999995,0.0261436000000008,-0.0114037999999999,0,sub_2
0.0044195999999998,0.0068026000000012,-0.0012895999999999,-0.0101897999999995,0.0221914000000008,-0.0097343999999999,0,sub_2
0.0060897999999998,0.0096336000000012,-0.0015161999999999,-0.0072945999999995,0.0173776000000008,-0.0057139999999999,0,sub_2
0.0076087999999998,0.0101130000000012,-0.0010335999999999,-0.0033371999999995,0.0125560000000008,-0.0006179999999999,0,sub_2
0.0084539999999998,0.0090090000000012,-0.0017217999999999,-0.0002207999999995,0.0094460000000008,0.0034018,0,sub_2
0.0073313999999998,0.0076408000000012,-0.0023403999999999,0.0001906000000004,0.0068846000000008,0.0042626,0,sub_2
0.0044083999999998,0.0051954000000012,-0.0003823999999999,-0.0008677999999995,0.0066838000000008,0.002119,0,sub_2
0.0030287999999997,0.0041386000000012,-0.0008685999999999,-0.0019143999999995,0.0084030000000008,-0.0006677999999999,0,sub_2
0.0029605999999997,0.0045044000000012,-0.0022381999999999,-0.0048853999999995,0.0084278000000008,-0.0043205999999999,0,sub_2
0.0039015999999997,0.0065288000000012,-0.0019881999999998,-0.0068507999999995,0.0079180000000008,-0.0067131999999999,0,sub_2
0.0057537999999997,0.0084654000000012,-0.0017193999999998,-0.0062689999999995,0.0067508000000008,-0.0067369999999999,0,sub_2
0.0057149999999997,0.0092062000000012,-0.0028797999999998,-0.0046201999999995,0.0068530000000008,-0.0054731999999999,0,sub_2
0.0046663999999998,0.0088742000000012,-0.0030955999999998,-0.0036039999999995,0.0086620000000008,-0.0042159999999999,0,sub_2
0.0031595999999998,0.0079232000000012,-0.0022239999999998,-0.0023647999999995,0.0130252000000008,-0.0025331999999999,0,sub_2
0.0022899999999998,0.0071770000000012,-0.0016235999999999,-0.0008557999999995,0.0177020000000008,-0.0012467999999999,0,sub_2
0.0027329999999998,0.0055506000000012,-0.0016033999999999,0.0010838000000004,0.0236540000000008,0.0004682,0,sub_2
0.0048823999999998,0.0053180000000012,-0.0020475999999998,0.0027956000000004,0.0278964000000008,0.0036794,0,sub_2
0.0079153999999997,0.0059312000000012,-0.0023295999999998,0.0044432000000004,0.0296834000000008,0.008398,0,sub_2
0.0091767999999997,0.0069074000000012,-0.0034001999999998,0.0056354000000004,0.0274146000000008,0.0154688,0,sub_2
0.0089327999999997,0.0063946000000012,-0.0037465999999998,0.0055340000000004,0.0225920000000008,0.022961,0,sub_2
0.0058695999999997,0.0048060000000012,-0.0020799999999998,0.0058612000000004,0.0162840000000008,0.0285354,0,sub_2
0.0013133999999997,0.0021960000000012,-0.0005885999999998,0.0049426000000004,0.0121332000000008,0.0285436,0,sub_2
-0.0035066000000002,-8.379999999873566e-05,-0.0011417999999998,0.0019650000000004,0.0085448000000008,0.0227590000000001,0,sub_2
-0.0059152000000002,-0.0018585999999987,-0.0008335999999998,-0.0014095999999995,0.0060452000000008,0.0114156000000001,0,sub_2
-0.0057380000000001,-0.0022303999999987,-0.0011661999999998,-0.0047987999999995,0.0064098000000009,-0.0005575999999998,0,sub_2
-0.0034040000000001,0.0006508000000012,-0.0019139999999998,-0.0088243999999995,0.0080534000000008,-0.0121095999999998,0,sub_2
0.0016741999999998,0.0037326000000012,-0.0013317999999999,-0.0109409999999995,0.0090434000000008,-0.0217245999999998,0,sub_2
0.0081809999999998,0.0052446000000012,-0.0007869999999999,-0.0098637999999995,0.0112894000000008,-0.0285413999999998,0,sub_2
0.0145019999999998,0.0051540000000012,-0.0016119999999999,-0.0081589999999995,0.0150076000000008,-0.0310829999999998,0,sub_2
0.0183169999999998,0.0050374000000012,-0.0017773999999999,-0.0068777999999995,0.0164894000000008,-0.0297939999999998,0,sub_2
0.0209669999999998,0.0037682000000012,-0.0013301999999999,-0.0058425999999995,0.0151842000000008,-0.0240167999999998,0,sub_2
0.0215075999999998,0.0021400000000012,-0.0027319999999999,-0.0048475999999995,0.0106604000000008,-0.0124671999999998,0,sub_2
0.0203469999999998,0.0019498000000012,-0.0037951999999999,-0.0057987999999995,0.0037860000000009,0.00249,0,sub_2
0.0173935999999998,0.0023162000000012,-0.0034559999999999,-0.0078219999999995,-0.0047765999999991,0.018103,0,sub_2
0.0129105999999997,0.0038302000000012,-0.0028709999999999,-0.0091839999999995,-0.0112003999999991,0.031154,0,sub_2
0.0083043999999997,0.0064922000000012,-0.0026799999999999,-0.0098693999999995,-0.0154719999999991,0.038225,0,sub_2
0.0035905999999997,0.0104828000000012,-0.0023937999999999,-0.0088171999999995,-0.0171759999999991,0.041032,0,sub_2
-0.0033932000000002,0.0141920000000012,-0.0004491999999999,-0.0058311999999995,-0.0180259999999991,0.0417150000000001,0,sub_2
-0.0093126000000001,0.0177560000000012,0.0010436,-0.0021827999999995,-0.0154733999999991,0.0396006,0,sub_2
-0.0127354000000001,0.0196500000000012,0.000682,0.0025450000000004,-0.0120647999999991,0.03557,0,sub_2
-0.0145858000000001,0.0188514000000012,0.000339,0.0077136000000004,-0.0078203999999991,0.0319868,0,sub_2
-0.0148060000000001,0.0175602000000012,0.0008248,0.0094796000000004,-0.0035537999999991,0.025816,0,sub_2
-0.0121226000000001,0.0157734000000012,0.0004908,0.0097626000000004,-0.0001213999999991,0.0164312,0,sub_2
-0.0066150000000001,0.0127294000000011,-2.4799999999931197e-05,0.0119556000000004,-0.0005245999999991,0.0055694,0,sub_2
-0.0010588000000001,0.0094332000000012,0.0008594,0.0130834000000004,-0.0009223999999991,-0.0057271999999998,0,sub_2
0.0037867999999998,0.0071728000000012,0.0003704,0.0129102000000004,-0.0023711999999991,-0.0161949999999998,0,sub_2
0.0069771999999998,0.0029230000000012,-2.6199999999931228e-05,0.0135714000000004,-0.0055375999999991,-0.0240911999999998,0,sub_2
0.0092279999999997,-0.0007639999999987,-0.0008375999999999,0.0140116000000004,-0.0070123999999991,-0.0285727999999998,0,sub_2
0.0090881999999997,-0.0021193999999987,-0.0017825999999999,0.0120988000000004,-0.0059379999999991,-0.0292285999999998,0,sub_2
0.0102639999999997,-0.0028293999999987,-0.0030253999999999,0.0103866000000004,-0.0072677999999991,-0.0270933999999998,0,sub_2
0.0119443999999997,-0.0037503999999987,-0.0031061999999999,0.0086562000000004,-0.0100989999999991,-0.0223927999999998,0,sub_2
0.0145795999999997,-0.0033215999999987,-0.0029439999999999,0.0075572000000004,-0.0127279999999991,-0.0155513999999998,0,sub_2
0.0175031999999997,-0.0023157999999987,-0.0026971999999999,0.0062380000000004,-0.0157867999999991,-0.0076427999999999,0,sub_2
0.0170605999999997,-0.0010805999999987,-0.0028147999999999,0.0053496000000004,-0.0186311999999991,-0.0003723999999999,0,sub_2
0.0141075999999997,-0.0001045999999987,-0.0025251999999999,0.0044616000000003,-0.020568599999999,0.0053922,0,sub_2
0.0102881999999997,0.0017128000000012,-0.0024757999999998,0.0033764000000003,-0.0212177999999991,0.0088038,0,sub_2
0.0060809999999997,0.0033754000000012,-0.0023457999999998,0.0016744000000003,-0.020851799999999,0.0096316,0,sub_2
0.0015233999999997,0.0045212000000012,-0.0017821999999998,0.0010574000000003,-0.0185633999999991,0.0083282,0,sub_2
-0.0002006000000002,0.0055440000000012,-0.0014179999999998,0.0010872000000004,-0.015846999999999,0.0059606,0,sub_2
-0.0011276000000002,0.0065842000000011,-0.0016463999999998,0.0006940000000003,-0.012701199999999,0.0031622,0,sub_2
-0.0007688000000001,0.0064480000000012,-0.0016281999999998,0.0007268000000004,-0.0104065999999991,-0.0002729999999999,0,sub_2
0.0007073999999998,0.0069600000000012,-0.0017389999999998,0.0011756000000004,-0.0093275999999991,-0.0041167999999998,0,sub_2
0.0023385999999997,0.0072516000000011,-0.0016027999999998,0.0009766000000004,-0.0097383999999991,-0.0077495999999998,0,sub_2
0.0037321999999997,0.0066194000000011,-0.0014173999999999,0.0009842000000004,-0.0105803999999991,-0.0103121999999998,0,sub_2
0.0046227999999997,0.0064274000000012,-0.0015921999999999,0.0016292000000004,-0.0112149999999991,-0.0120159999999998,0,sub_2
0.0044977999999997,0.0067492000000012,-0.0018159999999999,0.0016510000000004,-0.011483999999999,-0.0124333999999998,0,sub_2
0.0034249999999997,0.0064634000000012,-0.0019269999999999,0.0018832000000004,-0.010907399999999,-0.0113547999999998,0,sub_2
0.0033657999999997,0.0060208000000012,-0.0022247999999999,0.0025376000000004,-0.010548999999999,-0.0094183999999998,0,sub_2
0.0034093999999997,0.0057018000000012,-0.0018975999999999,0.0027652000000004,-0.010188999999999,-0.0074849999999999,0,sub_2
0.0042207999999998,0.0060682000000012,-0.0016773999999999,0.0027802000000004,-0.009827399999999,-0.0057665999999999,0,sub_2
0.0044945999999998,0.0064490000000012,-0.0012319999999999,0.0032078000000004,-0.008342599999999,-0.0044835999999999,0,sub_2
0.0048721999999998,0.0070752000000011,-0.0013395999999999,0.0030012000000004,-0.005789599999999,-0.0034199999999999,0,sub_2
0.0035841999999998,0.0079658000000011,-0.0015579999999999,0.0030230000000004,-0.002616999999999,-0.0019869999999999,0,sub_2
0.0028107999999998,0.0084862000000011,-0.0011915999999999,0.0034714000000004,0.0001298000000009,-0.0009777999999999,0,sub_2
0.0019823999999998,0.0068462000000011,-0.0009213999999998,0.0045592000000004,0.0026612000000008,3.6000000000077074e-05,0,sub_2
0.0027489999999998,0.0050700000000011,-0.0015619999999998,0.0054336000000004,0.0045566000000008,0.0004084,0,sub_2
0.0042711999999998,0.0028540000000012,-0.0013887999999998,0.0058802000000004,0.0056040000000008,0.0001378,0,sub_2
0.0066253999999998,-4.979999999879594e-05,-0.0008951999999998,0.0058850000000004,0.0053960000000008,-0.0011437999999999,0,sub_2
0.0096083999999998,-0.0016469999999987,-0.0027803999999998,0.0039618000000004,0.0032780000000008,-0.0026499999999999,0,sub_2
0.0125555999999998,-0.0007769999999987,-0.0028981999999998,0.0003306000000004,0.0007408000000008,-0.0043811999999998,0,sub_2
0.0145273999999998,0.0004954000000012,-0.0019017999999999,-0.0022553999999995,-0.0015903999999991,-0.0046227999999999,0,sub_2
0.0137211999999998,0.0024782000000012,-0.0018951999999999,-0.0033621999999995,-0.0054249999999991,-0.0031429999999999,0,sub_2
0.0118135999999998,0.0048060000000012,-0.0025543999999999,-0.0049043999999995,-0.0105389999999991,-0.0010235999999999,0,sub_2
0.0089501999999998,0.0067794000000012,-0.0012437999999999,-0.0051557999999995,-0.0126771999999991,0.0017418,0,sub_2
0.0056013999999997,0.0077018000000012,-0.0006601999999999,-0.0034819999999995,-0.0131203999999991,0.0051594,0,sub_2
0.0023439999999997,0.0077818000000012,-0.0008347999999999,-0.0019999999999995,-0.0131357999999991,0.0077334,0,sub_2
0.0009333999999997,0.0076750000000012,-0.0007903999999999,-0.0015675999999995,-0.0112223999999991,0.008375,0,sub_2
0.0007489999999997,0.0079052000000012,-0.0006713999999999,-0.0009063999999995,-0.0067495999999991,0.0081602,0,sub_2
0.0009493999999997,0.0078740000000012,-7.819999999993106e-05,0.0007990000000004,-0.0035149999999991,0.0068802,0,sub_2
0.0018153999999998,0.0073498000000012,-0.0002281999999999,0.0014336000000004,-0.0017653999999991,0.0049536,0,sub_2
0.0026811999999998,0.0070310000000012,-0.0004519999999999,0.0012148000000004,-0.0006493999999991,0.002381,0,sub_2
0.0037119999999998,0.0066334000000012,-0.0008471999999999,0.0016342000000004,3.820000000089863e-05,-0.0001865999999999,0,sub_2
0.0046201999999998,0.0061540000000012,-0.0009739999999999,0.0022592000000004,-0.000342799999999,-0.0021103999999999,0,sub_2
0.0049197999999998,0.0055630000000012,-0.0017933999999999,0.0020496000000004,-0.000762999999999,-0.0033931999999999,0,sub_2
0.0049829999999998,0.0051104000000012,-0.0019897999999999,0.0018362000000004,-0.001610999999999,-0.0042479999999999,0,sub_2
0.0049905999999998,0.0056312000000012,-0.0021033999999999,0.0014094000000004,-0.001609399999999,-0.0042509999999999,0,sub_2
0.0054437999999998,0.0056304000000012,-0.0018471999999999,0.0001368000000004,0.0007362000000009,-0.0036219999999998,0,sub_2
0.0040851999999998,0.0048166000000012,-0.0031435999999999,-0.0032563999999995,0.0093234000000009,-0.0036497999999998,0,sub_2
