userAcceleration.x,userAcceleration.y,userAcceleration.z,rotationRate.x,rotationRate.y,rotationRate.z,label,subject
0.0010811999999997,0.0049700000000011,-0.0052279999999999,-0.0009391999999994,-0.003291799999999,0.0012134,0,sub_9
0.0005413999999997,0.0052674000000011,-0.0051477999999999,-0.0011469999999994,-0.003078399999999,0.000356,0,sub_9
0.0005841999999997,0.0060120000000011,-0.0053939999999999,-0.0011383999999994,-0.002226599999999,-0.0005005999999999,0,sub_9
0.0004207999999997,0.0065884000000011,-0.0057803999999999,-0.0009173999999994,-0.001164199999999,-0.0009287999999999,0,sub_9
-0.0001348000000002,0.0059154000000011,-0.0055963999999999,-0.0002725999999995,-0.000105799999999,-0.0007131999999999,0,sub_9
-0.0003962000000002,0.0062646000000011,-0.0055431999999999,0.0005818000000004,0.0005240000000009,-6.81999999999126e-05,0,sub_9
-0.0005936000000002,0.0064750000000011,-0.0049325999999999,0.0014324000000004,0.0009428000000009,0.0010056,0,sub_9
-0.0013740000000002,0.0065202000000011,-0.0048455999999999,0.0020676000000004,0.0011484000000009,0.0022916,0,sub_9
-0.0019806000000002,0.0059808000000011,-0.0049683999999999,0.0018500000000004,0.0009310000000009,0.0033562,0,sub_9
-0.0013874000000002,0.0063874000000011,-0.0054329999999999,0.0014210000000004,0.0007160000000009,0.0039922,0,sub_9
-0.0008556000000002,0.0063694000000011,-0.0057483999999999,0.0005692000000004,0.0007182000000009,0.0039838,0,sub_9
-0.0005226000000002,0.0058472000000011,-0.0060813999999999,-6.919999999950916e-05,0.0005074000000009,0.0037636,0,sub_9
0.0002815999999997,0.0055640000000011,-0.0059323999999999,-6.559999999950911e-05,8.380000000092419e-05,0.0029072,0,sub_9
0.0003595999999997,0.0051564000000011,-0.0056059999999999,0.0001516000000004,-0.000337999999999,0.0016274,0,sub_9
0.0001953999999997,0.0051604000000011,-0.0052889999999999,0.0003718000000004,-0.000332799999999,0.0001334,0,sub_9
-3.2400000000212444e-05,0.0049466000000011,-0.0053309999999999,0.0005880000000004,-0.000330999999999,-0.0005059999999999,0,sub_9
0.0003165999999997,0.0054504000000011,-0.0055879999999999,0.0001702000000004,9.62000000009641e-05,-0.0013625999999998,0,sub_9
0.0003645999999997,0.0054682000000011,-0.0054531999999998,-0.0004627999999995,0.0007346000000009,-0.0015799999999998,0,sub_9
0.0008511999999997,0.0063678000000011,-0.0056413999999998,-0.0004603999999994,0.0009422000000009,-0.0011513999999998,0,sub_9
0.0002467999999997,0.0065378000000011,-0.0055117999999998,-0.0004611999999994,0.0007228000000009,-0.0005087999999999,0,sub_9
0.0001843999999997,0.0069580000000011,-0.0055213999999998,-0.0004617999999994,0.0002912000000009,-7.93999999999127e-05,0,sub_9
-0.0001088000000002,0.0071804000000011,-0.0052125999999998,-0.0002513999999994,7.560000000096418e-05,0.0003496,0,sub_9
-0.0009828000000002,0.0077992000000011,-0.0055617999999999,-0.0002533999999994,-0.000350399999999,0.0003502,0,sub_9
-0.0009804000000002,0.0075026000000011,-0.0052753999999998,-4.2999999999509177e-05,-0.000990399999999,0.0003524,0,sub_9
-0.0004010000000001,0.0070518000000011,-0.0056981999999998,0.0003820000000004,-0.001417999999999,0.000356,0,sub_9
0.0003805999999998,0.0064848000000011,-0.0058759999999998,0.0005916000000004,-0.002274599999999,0.0005718,0,sub_9
0.0005559999999998,0.0061984000000011,-0.0058131999999998,0.0008002000000004,-0.003344199999999,0.000788,0,sub_9
0.0008821999999998,0.0051858000000011,-0.0056073999999998,0.0010108000000004,-0.003987799999999,0.0010036,0,sub_9
0.0004125999999998,0.0047166000000011,-0.0057957999999999,0.0012270000000004,-0.003352999999999,0.0012178,0,sub_9
0.0006839999999997,0.0044376000000011,-0.0055653999999999,0.0005898000000004,-0.002715199999999,0.001426,0,sub_9
0.0001545999999997,0.0046178000000011,-0.0055997999999999,0.0005974000000004,-0.001435199999999,0.0009972,0,sub_9
-0.0001834000000001,0.0046504000000011,-0.0062277999999999,0.0003908000000004,-0.000155399999999,0.0007806,0,sub_9
-0.0003120000000001,0.0050734000000011,-0.0067365999999999,0.0006064000000004,0.0009080000000009,0.0009932,0,sub_9
-0.0006020000000001,0.0057490000000011,-0.0065503999999999,0.0006076000000004,0.0013346000000009,0.0007778,0,sub_9
-0.0009864000000001,0.0058450000000011,-0.0066523999999999,0.0008202000000004,0.0013344000000009,0.0005644,0,sub_9
-0.0008528000000001,0.0066268000000011,-0.0058395999999998,0.0010290000000004,0.0011186000000009,0.0009922,0,sub_9
-0.0004320000000002,0.0066908000000011,-0.0050937999999998,0.0023056000000004,0.0009000000000009,0.0012136,0,sub_9
-0.0004694000000002,0.0072456000000011,-0.0044307999999998,0.0048622000000004,-0.000173399999999,0.0010192,0,sub_9
0.0009451999999997,0.0070916000000011,-0.0045121999999998,0.0074142000000004,-0.002099799999999,0.0010394,0,sub_9
0.0015095999999997,0.0070262000000011,-0.0046503999999998,0.0099718000000004,-0.003384599999999,0.0004178,0,sub_9
0.0019281999999997,0.0057344000000011,-0.0052089999999998,0.0121060000000004,-0.003177199999999,4.000000000471725e-07,0,sub_9
0.0017167999999997,0.0047068000000011,-0.0050069999999998,0.0106034000000005,-0.004663199999999,-1.2799999999952825e-05,0,sub_9
0.0018019999999997,0.0033704000000011,-0.0055389999999998,0.0071908000000005,-0.003586599999999,0.0001708,0,sub_9
0.0004443999999997,0.0031226000000011,-0.0058637999999999,0.0035678000000005,-0.001233599999999,0.0009924,0,sub_9
-0.0004938000000002,0.0037366000000011,-0.0058819999999999,-0.0007019999999994,0.0002670000000009,0.0024516,0,sub_9
-0.0015714000000002,0.0046588000000011,-0.0061171999999999,-0.0041225999999994,-0.000151399999999,0.0034964,0,sub_9
-0.0018638000000002,0.0057946000000011,-0.0071581999999999,-0.0045455999999995,0.0007024000000009,0.0034924,0,sub_9
-0.0021528000000002,0.0062706000000011,-0.0068823999999999,-0.0041187999999995,0.0004886000000009,0.003282,0,sub_9
-0.0024114000000002,0.0067006000000011,-0.0064567999999999,-0.0036891999999995,6.520000000096396e-05,0.0022172,0,sub_9
-0.0016260000000002,0.0056514000000011,-0.0060967999999999,-0.0021933999999995,6.360000000096397e-05,0.0013676,0,sub_9
-0.0007860000000002,0.0051378000000011,-0.0060103999999999,-0.0011203999999995,0.0004914000000009,8.740000000008709e-05,0,sub_9
8.319999999978778e-05,0.0049984000000011,-0.0057785999999999,0.0001632000000004,0.0011280000000009,-0.0003371999999999,0,sub_9
0.0007805999999997,0.0052192000000011,-0.0059235999999998,0.0010134000000004,0.0004870000000009,-0.0005493999999998,0,sub_9
0.0018809999999997,0.0054040000000011,-0.0061789999999998,0.0018624000000004,5.740000000094396e-05,-0.0003345999999999,0,sub_9
0.0017119999999997,0.0059956000000011,-0.0063195999999998,0.0016482000000004,5.740000000094393e-05,-0.0001223999999999,0,sub_9
0.0015593999999997,0.0058626000000011,-0.0064741999999998,0.0012186000000004,0.0002686000000009,0.000729,0,sub_9
0.0008293999999998,0.0060936000000011,-0.0062617999999998,0.0001488000000004,0.0002698000000009,0.0013626,0,sub_9
0.0008337999999998,0.0068082000000011,-0.0061249999999998,-0.0013475999999995,0.0009120000000009,0.002203,0,sub_9
-8.220000000019232e-05,0.0067384000000011,-0.0058659999999998,-0.0022025999999995,0.0007040000000009,0.0019808,0,sub_9
-0.0009504000000001,0.0069668000000011,-0.0055385999999998,-0.0019909999999995,-0.000356599999999,0.0009126,0,sub_9
-0.0018766000000001,0.0070662000000011,-0.0060343999999998,-0.0011381999999995,-0.001630799999999,-0.0005783999999999,0,sub_9
-0.0010858000000002,0.0064882000000011,-0.0065051999999998,-0.0004977999999995,-0.002054599999999,-0.0014309999999999,0,sub_9
-0.0008486000000002,0.0057214000000011,-0.0069115999999999,0.0001462000000004,-0.002053399999999,-0.0022809999999999,0,sub_9
-0.0005776000000002,0.0051228000000011,-0.0069071999999999,0.0005738000000004,-0.001629599999999,-0.0020647999999999,0,sub_9
0.0001553999999998,0.0047404000000011,-0.0071671999999999,0.0005712000000004,-0.000352199999999,-0.0007891999999999,0,sub_9
0.0009081999999998,0.0046252000000011,-0.0064897999999999,-7.539999999950917e-05,0.0004996000000009,0.0009098,0,sub_9
0.0006209999999998,0.0046402000000011,-0.0059503999999999,-0.0002951999999995,0.0007134000000009,0.0019716,0,sub_9
0.0003469999999998,0.0049744000000011,-0.0053821999999999,-8.91999999995492e-05,0.0005004000000009,0.0028232,0,sub_9
-0.0002044000000001,0.0052820000000011,-0.0056695999999999,-0.0003061999999995,0.0007168000000009,0.003244,0,sub_9
-0.0004576000000002,0.0053128000000011,-0.0056899999999999,-0.0005195999999995,0.0007176000000009,0.0032424,0,sub_9
-0.0005994000000001,0.0055070000000011,-0.0059089999999999,-0.0007301999999995,0.000933200000001,0.0028134,0,sub_9
-0.0008914000000001,0.0060054000000011,-0.0056497999999999,-0.0005149999999995,0.0009342000000009,0.0023876,0,sub_9
-0.0013954000000001,0.0056440000000011,-0.0057065999999999,-0.0005261999999995,0.0007284000000009,0.0017426,0,sub_9
-0.0008968000000001,0.0052306000000011,-0.0057483999999999,-0.0001115999999995,9.5800000000964e-05,0.0008874,0,sub_9
-0.0010602000000001,0.0050086000000011,-0.0058521999999999,0.0005164000000004,-0.000537599999999,3.380000000008689e-05,0,sub_9
-0.0011382000000001,0.0050538000000011,-0.0056279999999999,0.0007186000000004,-0.000744199999999,-0.0006097999999999,0,sub_9
-0.0009182000000001,0.0047660000000011,-0.0063857999999999,0.0004960000000004,-0.000310999999999,-0.0010433999999998,0,sub_9
-0.0004278000000001,0.0048358000000011,-0.0069185999999999,0.0004988000000004,0.0003282000000009,-0.0010441999999998,0,sub_9
-0.0001254000000001,0.0045230000000011,-0.0066293999999999,0.0005008000000004,0.0011788000000009,-0.0006179999999998,0,sub_9
-0.0002368000000001,0.0047498000000011,-0.0063375999999999,0.0002874000000004,0.0016040000000009,-0.0001927999999998,0,sub_9
-0.0003092000000002,0.0048178000000011,-0.0061059999999999,7.800000000049087e-05,0.0022448000000009,-0.0004087999999998,0,sub_9
-0.0009856000000002,0.0053902000000011,-0.0059335999999999,-0.0003555999999995,0.0024640000000009,-0.0004193999999999,0,sub_9
-0.0012134000000002,0.0060434000000011,-0.0052477999999999,-0.0003613999999995,0.0024704000000009,-0.0008539999999998,0,sub_9
-0.0014150000000002,0.0068298000000011,-0.0053581999999999,-0.0007987999999994,0.0018372000000009,-0.0008635999999999,0,sub_9
-0.0009186000000002,0.0069528000000011,-0.0054127999999999,-0.0008073999999994,0.0014166000000009,-0.0010839999999999,0,sub_9
-0.0006124000000002,0.0071006000000011,-0.0059677999999999,-0.0006075999999994,0.0005666000000009,-0.0006613999999999,0,sub_9
-0.0001772000000002,0.0060126000000011,-0.0052505999999999,-0.0003989999999994,-0.000287199999999,-0.0004451999999999,0,sub_9
-0.0002946000000002,0.0053666000000011,-0.0057251999999999,-0.0004027999999994,-0.000714999999999,-1.7399999999933077e-05,0,sub_9
-0.0004120000000002,0.0049550000000011,-0.0058507999999999,-0.0004063999999994,-0.000498799999999,-0.0002375999999999,0,sub_9
-0.0001190000000002,0.0047066000000011,-0.0057493999999999,-0.0008367999999994,-6.89999999990561e-05,-0.0002473999999999,0,sub_9
-0.0002864000000001,0.0044258000000011,-0.0055027999999999,-0.0010537999999994,0.0001478000000009,-0.0004691999999999,0,sub_9
-0.0004952000000001,0.0051900000000011,-0.0061479999999999,-0.0008419999999994,0.0007892000000009,-0.0006883999999998,0,sub_9
-0.0006442000000001,0.0058296000000011,-0.0060431999999998,-0.0008445999999994,0.0012182000000009,-0.0009087999999998,0,sub_9
-0.0007862000000001,0.0064006000000011,-0.0057507999999998,-0.0006301999999994,0.0012182000000009,-0.0011207999999998,0,sub_9
-0.0012568000000001,0.0068640000000011,-0.0061767999999998,-0.0004187999999994,0.0007912000000009,-0.0011187999999998,0,sub_9
-0.0009768000000002,0.0071002000000011,-0.0061377999999998,-0.0004187999999994,0.0007912000000009,-0.0011187999999998,0,sub_9
-0.0006886000000002,0.0070682000000011,-0.0058485999999998,-0.0004219999999994,0.0003698000000009,-0.0015505999999998,0,sub_9
-0.0001440000000002,0.0067764000000011,-0.0060933999999998,-0.0004269999999994,-5.339999999903605e-05,-0.0015549999999999,0,sub_9
0.0002495999999997,0.0067054000000011,-0.0061915999999998,-0.0004319999999994,-0.000476599999999,-0.0015593999999999,0,sub_9
0.0005275999999997,0.0062794000000011,-0.0057419999999998,-8.19999999948917e-06,-0.000899399999999,-0.0019879999999999,0,sub_9
0.0003957999999997,0.0060906000000011,-0.0054603999999999,-1.1199999999509173e-05,-0.001745399999999,-0.0028461999999999,0,sub_9
-5.420000000021228e-05,0.0058534000000011,-0.0057199999999999,0.0004186000000004,-0.002380999999999,-0.0041241999999999,0,sub_9
-0.0006744000000002,0.0056826000000011,-0.0055359999999999,0.0006338000000004,-0.003653199999999,-0.0058301999999999,0,sub_9
-0.0012980000000002,0.0062430000000011,-0.0063633999999999,0.0006356000000004,-0.004500199999999,-0.0071109999999998,0,sub_9
-0.0009410000000002,0.0070044000000011,-0.0070327999999999,0.0008470000000004,-0.004499799999999,-0.0073315999999998,0,sub_9
-0.0017182000000002,0.0069694000000011,-0.0070367999999999,0.0004202000000004,-0.003646599999999,-0.0071305999999998,0,sub_9
-0.0027746000000002,0.0065238000000011,-0.0074513999999999,-0.0006487999999995,-0.001731799999999,-0.0054397999999998,0,sub_9
-0.0028248000000001,0.0062692000000011,-0.0081117999999998,-0.0008649999999995,0.0006036000000009,-0.0031025999999998,0,sub_9
-0.0028788000000001,0.0052126000000011,-0.0074443999999998,-0.0017279999999995,0.0012376000000009,-0.0009813999999999,0,sub_9
-0.0034488000000001,0.0045632000000011,-0.0068661999999998,-0.0032235999999995,0.0020900000000009,0.0002888,0,sub_9
-0.0027426000000001,0.0045980000000011,-0.0066883999999998,-0.0036533999999995,0.0027256000000009,0.001567,0,sub_9
-0.0010678000000001,0.0050534000000011,-0.0058523999999998,-0.0038723999999995,0.0016602000000009,0.0017806,0,sub_9
-0.0004228000000002,0.0055718000000011,-0.0053661999999999,-0.0043075999999995,0.0001674000000009,0.001561,0,sub_9
0.0004211999999997,0.0057506000000011,-0.0058501999999999,-0.0034519999999995,0.0008014000000009,0.0011342,0,sub_9
0.0003241999999997,0.0058674000000011,-0.0064375999999999,-0.0025943999999995,0.0016494000000009,0.0004934,0,sub_9
0.0006651999999997,0.0064324000000011,-0.0068215999999999,-0.0025931999999995,0.0018612000000009,-0.0001525999999999,0,sub_9
0.0001773999999997,0.0063564000000011,-0.0061827999999999,-0.0028053999999995,0.0018616000000009,-0.0010133999999999,0,sub_9
-0.0007366000000001,0.0063098000000011,-0.0052067999999999,-0.0030111999999995,0.0018690000000009,-0.0027239999999999,0,sub_9
-0.0016276000000001,0.0068026000000011,-0.0049149999999998,-0.0027977999999995,0.0008072000000009,-0.0037893999999999,0,sub_9
-0.0011712000000001,0.0082156000000011,-0.0059325999999998,-0.0019491999999995,-0.000685599999999,-0.0042087999999999,0,sub_9
-0.0010710000000002,0.0083018000000011,-0.0063803999999998,-0.0008857999999995,-0.001542999999999,-0.0044167999999999,0,sub_9
-0.0013608000000002,0.0078594000000011,-0.0068339999999998,-3.199999999950916e-05,-0.000274399999999,-0.0033471999999999,0,sub_9
-0.0013830000000002,0.0063986000000011,-0.0075935999999998,0.0010334000000004,0.0016284000000009,-0.0012085999999999,0,sub_9
-0.0002764000000002,0.0052742000000011,-0.0074957999999998,0.0016662000000004,0.0016178000000009,0.0002884,0,sub_9
-0.0005134000000002,0.0034244000000011,-0.0054933999999998,0.0005930000000004,0.0005530000000009,0.000493,0,sub_9
-0.0011350000000001,0.0029860000000011,-0.0053287999999998,0.0008046000000004,0.0003382000000009,0.0007084,0,sub_9
-0.0009220000000001,0.0041106000000011,-0.0068823999999998,0.0012284000000004,-0.000514599999999,0.0004988,0,sub_9
-0.0008914000000002,0.0056544000000011,-0.0072577999999998,0.0007968000000004,-0.001365999999999,0.0007104,0,sub_9
-0.0014214000000002,0.0065044000000011,-0.0073627999999998,0.0003738000000004,0.0003366000000009,0.0015598,0,sub_9
-0.0008626000000002,0.0063064000000011,-0.0078833999999998,0.0014416000000004,0.0020270000000009,0.003275,0,sub_9
-0.0005266000000002,0.0047252000000011,-0.0072219999999999,0.0016540000000004,0.0018088000000009,0.0034912,0,sub_9
-0.0007462000000002,0.0026442000000011,-0.0054399999999999,0.0012254000000004,0.0005310000000009,0.0028496,0,sub_9
-0.0006784000000002,0.0017260000000011,-0.0047673999999999,0.0010130000000004,-0.001169599999999,0.001142,0,sub_9
-0.0004628000000002,0.0024884000000011,-0.0057427999999999,-5.17999999995091e-05,-0.002653999999999,-0.0005717999999999,0,sub_9
-0.0006532000000002,0.0041202000000011,-0.0068675999999999,-0.0013271999999994,-0.003281999999999,-0.0022889999999999,0,sub_9
-0.0004994000000002,0.0059072000000011,-0.0066113999999999,-0.0017461999999994,-0.001575999999999,-0.0022941999999999,0,sub_9
1.1399999999787795e-05,0.0077062000000011,-0.0074555999999999,-0.0015289999999994,0.0003376000000009,-0.0012163999999999,0,sub_9
-2.3800000000212194e-05,0.0079682000000011,-0.0077441999999999,-0.0002485999999994,0.0011832000000009,-0.0003433999999999,0,sub_9
-0.0003614000000002,0.0067296000000011,-0.0059599999999999,0.0008182000000005,0.0007562000000009,-0.0007521999999999,0,sub_9
-0.0008500000000002,0.0058446000000011,-0.0051525999999999,0.0020986000000004,0.0001164000000009,-0.0013727999999999,0,sub_9
-0.0017824000000001,0.0058342000000011,-0.0062013999999999,0.0027320000000004,-0.002436999999999,-0.0024227999999999,0,sub_9
-0.0017536000000001,0.0059948000000011,-0.0065125999999999,0.0029398000000004,-0.004776999999999,-0.0034863999999999,0,sub_9
-0.0011074000000001,0.0062446000000011,-0.0065249999999999,0.0025092000000004,-0.005415599999999,-0.0032749999999999,0,sub_9
-0.0009094000000001,0.0063764000000011,-0.0073427999999999,0.0027178000000004,-0.004783999999999,-0.0015651999999999,0,sub_9
-0.0006664000000001,0.0060922000000011,-0.0071777999999999,0.0025032000000004,-0.003728999999999,0.0007902,0,sub_9
-0.0003404000000002,0.0049244000000011,-0.0064867999999999,0.0020762000000004,-0.002672399999999,0.0029304,0,sub_9
-0.0005328000000002,0.0035084000000011,-0.0059155999999999,0.0020778000000004,-0.002039999999999,0.0042196,0,sub_9
-0.0007176000000002,0.0034044000000011,-0.0058401999999999,0.0014450000000004,-0.001612399999999,0.0040092,0,sub_9
-0.0008606000000002,0.0036584000000011,-0.0060089999999999,0.0003894000000004,-0.001604199999999,0.0025144,0,sub_9
-0.0013968000000002,0.0039670000000011,-0.0059963999999999,-0.0004573999999995,-0.002019599999999,0.0005862,0,sub_9
-0.0009952000000002,0.0050282000000011,-0.0065879999999999,-0.0008783999999995,-0.002437399999999,-0.0011253999999999,0,sub_9
-0.0010386000000002,0.0060650000000011,-0.0069487999999999,-0.0012993999999995,-0.002430799999999,-0.0024103999999999,0,sub_9
-0.0012620000000002,0.0060284000000011,-0.0067599999999999,-0.0015029999999995,-0.002005599999999,-0.0028309999999998,0,sub_9
-0.0012600000000002,0.0058416000000011,-0.0061815999999999,-0.0010693999999995,-0.001373199999999,-0.0023925999999998,0,sub_9
-0.0011914000000002,0.0056352000000011,-0.0066097999999999,-0.0002099999999995,-0.000955399999999,-0.0019509999999998,0,sub_9
-0.0011892000000002,0.0053016000000011,-0.0066605999999999,-0.0002021999999995,0.0001038000000009,-0.0013023999999998,0,sub_9
-0.0009630000000002,0.0055178000000011,-0.0067155999999999,0.0002304000000004,0.0005232000000009,-0.0008635999999998,0,sub_9
-0.0004958000000002,0.0058898000000011,-0.0069841999999999,0.0006542000000004,0.0003068000000009,-0.0004329999999999,0,sub_9
-0.0006886000000002,0.0062434000000011,-0.0072713999999998,0.0008676000000004,0.0003060000000009,-0.0004315999999999,0,sub_9
-0.0004362000000002,0.0065316000000011,-0.0069989999999998,0.0008666000000004,9.300000000096364e-05,-0.0004313999999999,0,sub_9
-0.0008512000000002,0.0068084000000011,-0.0064367999999998,0.0010722000000004,-0.001187799999999,-9.999999999127894e-07,0,sub_9
-0.0008906000000002,0.0063224000000011,-0.0066843999999998,0.0006446000000004,-0.001615399999999,0.0002126,0,sub_9
-0.0010904000000002,0.0059566000000011,-0.0064879999999998,6.600000000490676e-06,-0.001615199999999,0.0002106,0,sub_9
-0.0007642000000002,0.0052762000000011,-0.0064285999999998,-0.0006353999999995,-0.002255199999999,0.000423,0,sub_9
-0.0005190000000002,0.0044488000000011,-0.0061601999999998,-0.0014877999999995,-0.002255199999999,0.0006332,0,sub_9
-0.0001220000000002,0.0038410000000011,-0.0066905999999998,-0.0016943999999995,-0.001615799999999,0.000206,0,sub_9
-6.240000000021226e-05,0.0035328000000011,-0.0069803999999998,-0.0014791999999995,-0.001614999999999,-0.0002197999999999,0,sub_9
-0.0001412000000002,0.0033302000000011,-0.0071587999999998,-0.0010485999999995,-0.001188799999999,-0.0006445999999999,0,sub_9
-0.0007024000000002,0.0038516000000011,-0.0072533999999998,-0.0010409999999995,9.120000000096367e-05,-0.0010733999999999,0,sub_9
-0.0018024000000002,0.0048702000000011,-0.0070933999999998,-0.0012449999999995,0.0009496000000009,-0.0021421999999999,0,sub_9
-0.0030800000000002,0.0048180000000011,-0.0063189999999998,-0.0012401999999995,0.0011664000000009,-0.0027813999999998,0,sub_9
-0.0035538000000002,0.0051580000000011,-0.0060027999999999,-0.0012393999999995,0.0015922000000009,-0.0023525999999998,0,sub_9
-0.0032084000000002,0.0054518000000011,-0.0065659999999999,-0.0010319999999995,0.0009502000000009,-0.0014937999999998,0,sub_9
-0.0023770000000002,0.0049466000000011,-0.0061897999999999,-0.0010377999999995,9.68000000009636e-05,-0.0008497999999999,0,sub_9
-0.0017228000000002,0.0038482000000011,-0.0059681999999999,-0.0010415999999995,0.0003056000000009,0.0002182,0,sub_9
-0.0007554000000002,0.0036964000000011,-0.0064823999999999,-0.0006187999999995,0.0005130000000009,0.0012892,0,sub_9
-0.0001326000000002,0.0036240000000011,-0.0060487999999998,-0.0008365999999995,9.420000000096364e-05,0.0010774,0,sub_9
-0.0001784000000002,0.0038236000000011,-0.0051529999999998,-0.0016879999999995,0.0003202000000009,5.800000000087333e-06,0,sub_9
-0.0002550000000002,0.0044388000000011,-0.0046677999999998,-0.0016887999999995,0.0005408000000009,-0.0004187999999999,0,sub_9
0.0002915999999997,0.0055326000000011,-0.0054137999999998,-0.0012685999999994,-9.39999999990562e-05,-0.0004121999999999,0,sub_9
0.0006255999999997,0.0060462000000011,-0.0055229999999998,-0.0012711999999994,-0.000299599999999,-0.0008363999999999,0,sub_9
0.0001399999999997,0.0066350000000011,-0.0056761999999998,0.0002232000000005,0.0007570000000009,2.720000000008731e-05,0,sub_9
-0.0008648000000002,0.0070282000000011,-0.0066405999999999,0.0017140000000005,0.0018102000000009,0.0017454,0,sub_9
-0.0019332000000002,0.0069208000000011,-0.0081603999999999,0.0012786000000005,0.0013796000000009,0.0032384,0,sub_9
-0.0026312000000002,0.0056856000000011,-0.0075119999999999,-1.2799999999509555e-05,0.0009610000000009,0.0045122,0,sub_9
-0.0034806000000002,0.0046696000000011,-0.0065195999999999,-0.0021499999999995,0.0016134000000009,0.0051378,0,sub_9
-0.0033510000000002,0.0033652000000011,-0.0064697999999999,-0.0051375999999995,0.0016348000000009,0.0044766,0,sub_9
-0.0024364000000002,0.0023614000000011,-0.0057175999999999,-0.0068421999999995,0.0010176000000009,0.0025432,0,sub_9
-0.0007852000000002,0.0023056000000011,-0.0045463999999999,-0.0059843999999995,0.0001808000000009,-1.2999999999913082e-05,0,sub_9
0.0001423999999997,0.0031954000000011,-0.0051973999999998,-0.0036313999999995,-0.000883199999999,-0.0023451999999998,0,sub_9
0.0013059999999997,0.0038028000000011,-0.0063713999999998,-0.0010689999999995,-0.001951399999999,-0.0038213999999998,0,sub_9
0.0020441999999997,0.0042092000000011,-0.0062931999999998,0.0002170000000004,-0.001526399999999,-0.0046675999999998,0,sub_9
0.0019785999999997,0.0044252000000011,-0.0059555999999998,0.0006440000000005,-0.000244199999999,-0.0042367999999998,0,sub_9
0.0011229999999997,0.0045560000000011,-0.0065863999999998,0.0004338000000005,0.0021038000000009,-0.0033845999999998,0,sub_9
0.0010633999999997,0.0045172000000011,-0.0063183999999999,-0.0002051999999994,0.0036028000000009,-0.0029615999999999,0,sub_9
7.739999999978779e-05,0.0050276000000011,-0.0058247999999999,-0.0004229999999994,0.0038218000000009,-0.0025339999999998,0,sub_9
-0.0010482000000002,0.0050838000000011,-0.0058397999999999,-8.599999999489416e-06,0.0023342000000009,-0.0020997999999998,0,sub_9
-0.0016748000000002,0.0050548000000011,-0.0062167999999999,0.0008324000000004,-1.4199999999036335e-05,-0.0016635999999998,0,sub_9
-0.0018478000000002,0.0043572000000011,-0.0071561999999999,0.0008238000000004,-0.001719599999999,-0.0014477999999998,0,sub_9
-0.0023532000000002,0.0039338000000011,-0.0071033999999999,0.0003972000000004,-0.001505999999999,-0.0012373999999998,0,sub_9
