userAcceleration.x,userAcceleration.y,userAcceleration.z,rotationRate.x,rotationRate.y,rotationRate.z,label,subject
0.0086465999999997,-0.0220593999999987,-0.0236027999999998,0.0305730000000004,-0.026714999999999,0.016163,0,sub_8
0.0067827999999997,-0.0199093999999987,-0.0247397999999998,0.0231348000000004,-0.025813799999999,0.0103414,0,sub_8
0.0047367999999997,-0.0183307999999987,-0.0252467999999998,0.0140166000000004,-0.022339599999999,0.0051324,0,sub_8
0.0038961999999997,-0.0173361999999987,-0.0263175999999998,0.0066074000000004,-0.017808799999999,0.0005748000000001,0,sub_8
0.0039121999999997,-0.0171435999999987,-0.0258561999999998,-0.0008055999999995,-0.015191199999999,-0.0050485999999998,0,sub_8
0.0038467999999997,-0.0175621999999987,-0.0252231999999998,-0.0065239999999995,-0.013014999999999,-0.0083095999999998,0,sub_8
0.0050151999999997,-0.0185231999999987,-0.0240047999999998,-0.0126683999999995,-0.009350999999999,-0.0102933999999998,0,sub_8
0.0063271999999997,-0.0184529999999987,-0.0230181999999998,-0.0181901999999995,-0.005913399999999,-0.0126865999999998,0,sub_8
0.0076921999999997,-0.0175841999999987,-0.0217711999999998,-0.0232861999999995,-0.002902599999999,-0.0152897999999998,0,sub_8
0.0088893999999997,-0.0170733999999987,-0.0205881999999998,-0.0258237999999995,0.0005220000000009,-0.0170209999999998,0,sub_8
0.0104335999999997,-0.0166763999999987,-0.0198709999999998,-0.0281483999999995,0.0059208000000009,-0.0187177999999998,0,sub_8
0.0095367999999997,-0.0148829999999987,-0.0184493999999998,-0.0272951999999995,0.0083172000000009,-0.0182521999999998,0,sub_8
0.0079721999999997,-0.0133285999999987,-0.0176153999999999,-0.0253865999999995,0.0085776000000009,-0.0173489999999998,0,sub_8
0.0069175999999997,-0.0126645999999987,-0.0176427999999998,-0.0234865999999995,0.0079816000000009,-0.0153765999999999,0,sub_8
0.0058491999999997,-0.0118659999999987,-0.0180031999999998,-0.0213779999999995,0.0078048000000009,-0.0119077999999999,0,sub_8
0.0048391999999997,-0.0101731999999987,-0.0183629999999998,-0.0162779999999995,0.0077682000000009,-0.0071717999999999,0,sub_8
0.0038927999999997,-0.0097881999999987,-0.0187625999999998,-0.0092683999999995,0.0055934000000009,-0.0022061999999999,0,sub_8
0.0030877999999997,-0.0090983999999987,-0.0185787999999998,-0.0009823999999995,0.0023498000000009,0.002556,0,sub_8
0.0017485999999998,-0.0080927999999987,-0.0179735999999998,0.0083686000000004,-0.001323599999999,0.0073262,0,sub_8
0.0023553999999998,-0.0074351999999987,-0.0172041999999998,0.0181622000000004,-0.007523199999999,0.0117456,0,sub_8
0.0034245999999998,-0.0082635999999987,-0.0165635999999998,0.0279712000000004,-0.012436199999999,0.014027,0,sub_8
0.0035561999999998,-0.0099403999999987,-0.0160373999999998,0.0360830000000004,-0.016061399999999,0.0154404,0,sub_8
0.0064727999999997,-0.0118727999999987,-0.0168865999999998,0.0441956000000004,-0.017988199999999,0.018347,0,sub_8
0.0094059999999997,-0.0137823999999987,-0.0185745999999998,0.0499688000000004,-0.018626799999999,0.0208084,0,sub_8
0.0096837999999997,-0.0153753999999987,-0.0192669999999998,0.0535924000000004,-0.017369599999999,0.0229684,0,sub_8
0.0093561999999997,-0.0164791999999987,-0.0196289999999998,0.0546526000000004,-0.017803599999999,0.0240446,0,sub_8
0.0095297999999997,-0.0176505999999987,-0.0208855999999998,0.0557108000000004,-0.018663799999999,0.0251214,0,sub_8
0.0090765999999997,-0.0186275999999987,-0.0225925999999998,0.0535944000000004,-0.019515999999999,0.0236056,0,sub_8
0.0081031999999997,-0.0185999999999987,-0.0229675999999998,0.0495690000000004,-0.020351399999999,0.0195128,0,sub_8
0.0077501999999997,-0.0187909999999987,-0.0245433999999998,0.0432062000000004,-0.019896999999999,0.0145474,0,sub_8
0.0075681999999997,-0.0188325999999987,-0.0259685999999998,0.0340772000000004,-0.016879599999999,0.0104138,0,sub_8
0.0082127999999997,-0.0177535999999987,-0.0272847999999998,0.0230384000000004,-0.012360599999999,0.0054104,0,sub_8
0.0072725999999997,-0.0172619999999987,-0.0272049999999998,0.0117738000000004,-0.007189199999999,0.000625,0,sub_8
0.0069053999999997,-0.0180023999999987,-0.0276339999999998,0.0017876000000004,-0.000962799999999,-0.0026573999999999,0,sub_8
0.0066931999999997,-0.0185985999999987,-0.0269617999999998,-0.0060593999999995,0.0054734000000009,-0.0069933999999999,0,sub_8
0.0067105999999997,-0.0179305999999987,-0.0261365999999998,-0.0120343999999995,0.0095950000000009,-0.0119879999999999,0,sub_8
0.0071421999999997,-0.0172451999999987,-0.0240465999999998,-0.0169435999999995,0.0130754000000009,-0.0174017999999999,0,sub_8
0.0076375999999997,-0.0164931999999987,-0.0222525999999998,-0.0197267999999995,0.0156928000000009,-0.0219449999999999,0,sub_8
0.0085205999999997,-0.0155055999999987,-0.0205323999999998,-0.0205981999999995,0.0174470000000009,-0.0254055999999998,0,sub_8
0.0088975999999997,-0.0136871999999987,-0.0189015999999998,-0.0210551999999995,0.0179154000000009,-0.0273659999999998,0,sub_8
0.0084615999999997,-0.0127365999999987,-0.0177471999999998,-0.0202017999999995,0.0185490000000009,-0.0267199999999998,0,sub_8
0.0075335999999997,-0.0118935999999987,-0.0175785999999998,-0.0193655999999995,0.0174696000000009,-0.0239353999999998,0,sub_8
0.0066511999999997,-0.0111005999999987,-0.0170453999999998,-0.0178929999999995,0.0157480000000009,-0.0209317999999998,0,sub_8
0.0054883999999997,-0.0102689999999987,-0.0169269999999998,-0.0164133999999995,0.0138388000000009,-0.0174967999999998,0,sub_8
0.0045811999999997,-0.0109727999999987,-0.0179997999999998,-0.0132305999999995,0.0117082000000009,-0.0134087999999999,0,sub_8
0.0044367999999997,-0.0119255999999987,-0.0191387999999998,-0.0102591999999995,0.0091556000000009,-0.0101761999999999,0,sub_8
0.0045381999999997,-0.0128177999999987,-0.0202073999999998,-0.0068493999999995,0.0085216000000009,-0.0075839999999999,0,sub_8
0.0047003999999997,-0.0138191999999987,-0.0213531999999998,-0.0038617999999995,0.0087422000000009,-0.0052095999999999,0,sub_8
0.0051999999999997,-0.0151317999999987,-0.0220061999999998,-0.0013049999999995,0.0097910000000009,-0.0032703999999998,0,sub_8
0.0054833999999997,-0.0156295999999987,-0.0218097999999998,-0.0006627999999995,0.0112758000000009,-0.0021995999999998,0,sub_8
0.0053901999999997,-0.0155987999999987,-0.0216861999999998,0.0008504000000004,0.0125600000000009,-0.0017567999999998,0,sub_8
0.0057181999999997,-0.0155317999999987,-0.0210373999999998,0.0019340000000004,0.0132064000000009,-0.0013161999999998,0,sub_8
0.0058461999999997,-0.0158013999999987,-0.0208953999999998,0.0017404000000004,0.0140720000000009,-0.0013119999999998,0,sub_8
0.0063309999999997,-0.0162505999999987,-0.0215089999999998,-0.0005833999999995,0.0151606000000009,-0.0019637999999998,0,sub_8
0.0068385999999997,-0.0165889999999987,-0.0222993999999998,-0.0041815999999995,0.0168956000000009,-0.0032663999999998,0,sub_8
0.0077245999999997,-0.0167797999999987,-0.0228761999999998,-0.0090755999999995,0.0192588000000009,-0.0039445999999999,0,sub_8
0.0087691999999997,-0.0165093999999987,-0.0224575999999998,-0.0133363999999995,0.0205530000000009,-0.0041895999999999,0,sub_8
0.0097423999999997,-0.0160437999999987,-0.0215345999999998,-0.0165369999999995,0.0205642000000009,-0.0042119999999998,0,sub_8
0.0099659999999997,-0.0158349999999987,-0.0204035999999998,-0.0173999999999995,0.0186488000000009,-0.0040019999999998,0,sub_8
0.0091501999999997,-0.0154409999999987,-0.0198177999999998,-0.0164335999999995,0.0165574000000009,-0.0033891999999998,0,sub_8
0.0082765999999997,-0.0153021999999987,-0.0191177999999998,-0.0139783999999995,0.0123346000000009,-0.0038313999999998,0,sub_8
0.0073083999999997,-0.0154163999999987,-0.0198979999999998,-0.0113087999999995,0.0068386000000009,-0.0057659999999998,0,sub_8
0.0062785999999997,-0.0155993999999987,-0.0209893999999998,-0.0099109999999995,0.0034768000000009,-0.0074985999999998,0,sub_8
0.0051257999999997,-0.0151377999999987,-0.0221235999999998,-0.0097817999999995,0.0026762000000009,-0.0092433999999998,0,sub_8
0.0057689999999997,-0.0152879999999987,-0.0220919999999998,-0.0097845999999995,0.0009760000000009,-0.0103093999999998,0,sub_8
0.0061479999999997,-0.0150605999999987,-0.0221879999999998,-0.0099989999999995,0.0005514000000009,-0.0105239999999998,0,sub_8
0.0053983999999997,-0.0156457999999987,-0.0211457999999999,-0.0099961999999995,0.0020394000000009,-0.0096713999999999,0,sub_8
0.0050261999999997,-0.0157325999999987,-0.0204989999999998,-0.0088137999999995,0.0014354000000009,-0.0090491999999999,0,sub_8
0.0053507999999997,-0.0155759999999987,-0.0198937999999998,-0.0057235999999995,-0.001732799999999,-0.0081965999999999,0,sub_8
0.0056401999999997,-0.0153103999999987,-0.0195689999999998,-0.0017769999999995,-0.0044769999999989,-0.0075521999999999,0,sub_8
0.0059111999999997,-0.0143749999999987,-0.0191813999999998,0.0008960000000004,-0.0055131999999989,-0.0067051999999999,0,sub_8
0.0064905999999997,-0.0133671999999987,-0.0193811999999998,0.0012248000000004,-0.0061143999999989,-0.0060887999999999,0,sub_8
0.0070349999999997,-0.0128787999999987,-0.0187255999999998,0.0012190000000004,-0.0063317999999989,-0.0050201999999998,0,sub_8
0.0081161999999997,-0.0128867999999987,-0.0183233999999998,0.0022764000000004,-0.0054951999999989,-0.0020227999999998,0,sub_8
0.0083859999999997,-0.0130019999999987,-0.0178185999999998,0.0041606000000004,-0.0044549999999989,0.0014338000000001,0,sub_8
0.0074585999999997,-0.0144887999999987,-0.0177171999999998,0.0051896000000004,-0.005959799999999,0.0027512000000001,0,sub_8
0.0069761999999997,-0.0152221999999987,-0.0185267999999998,0.0062166000000004,-0.008527399999999,0.0034292000000001,0,sub_8
0.0068961999999997,-0.0155219999999987,-0.0201557999999998,0.0087420000000004,-0.010034999999999,0.0041162,0,sub_8
0.0059907999999997,-0.0157657999999987,-0.0207573999999998,0.0117036000000004,-0.010474599999999,0.0037366,0,sub_8
0.0049603999999997,-0.0158943999999987,-0.0216895999999998,0.0125620000000004,-0.010685399999999,0.002461,0,sub_8
0.0052699999999997,-0.0148235999999987,-0.0222701999999998,0.0134222000000004,-0.009621399999999,0.0020384,0,sub_8
0.0052435999999997,-0.0143255999999987,-0.0220557999999998,0.0147102000000004,-0.007709199999999,0.0022586,0,sub_8
0.0043859999999997,-0.0140629999999987,-0.0211555999999998,0.0145016000000004,-0.006430999999999,0.0024692,0,sub_8
0.0033531999999997,-0.0135113999999987,-0.0204291999999998,0.0127900000000004,-0.006451999999999,0.0018464,0,sub_8
0.0035457999999997,-0.0129043999999987,-0.0195845999999998,0.0121384000000004,-0.007331599999999,0.001873,0,sub_8
0.0042693999999997,-0.0135647999999987,-0.0191827999999998,0.0114848000000004,-0.008000799999999,0.0025402,0,sub_8
0.0052237999999997,-0.0141291999999987,-0.0189563999999998,0.0114676000000004,-0.009736399999999,0.0029996,0,sub_8
0.0063717999999997,-0.0145133999999987,-0.0194669999999998,0.0108162000000004,-0.010403599999999,0.0032394,0,sub_8
0.0078599999999997,-0.0153345999999987,-0.0204907999999998,0.0091100000000004,-0.010396799999999,0.0030138,0,sub_8
0.0084647999999997,-0.0160153999999987,-0.0219079999999998,0.0061342000000004,-0.009315199999999,0.0014962,0,sub_8
0.0082487999999997,-0.0162771999999987,-0.0220931999999998,0.0044398000000004,-0.007600399999999,0.000414,0,sub_8
0.0081131999999997,-0.0159491999999987,-0.0211605999999998,0.0023404000000004,-0.004664999999999,-0.0002167999999999,0,sub_8
0.0077859999999997,-0.0158221999999987,-0.0193465999999998,0.0010878000000004,-0.002587399999999,-0.0001993999999999,0,sub_8
0.0071059999999997,-0.0150873999999987,-0.0175507999999998,4.200000000044416e-05,-0.001789599999999,3.46000000000922e-05,0,sub_8
0.0068017999999997,-0.0142647999999987,-0.0172337999999998,-0.0001579999999995,-0.002911399999999,6.320000000009226e-05,0,sub_8
0.0066329999999997,-0.0136147999999987,-0.0184467999999998,-0.0003591999999995,-0.004034199999999,0.0003056,0,sub_8
0.0059215999999997,-0.0132271999999987,-0.0198973999999998,6.560000000044417e-05,-0.003400799999999,0.001376,0,sub_8
0.0054499999999997,-0.0137239999999987,-0.0214023999999998,-0.0005745999999995,-0.003398599999999,0.0013714,0,sub_8
0.0047601999999997,-0.0142279999999987,-0.0232981999999998,-0.0009635999999995,-0.002801799999999,0.0011908,0,sub_8
0.0040733999999997,-0.0143967999999987,-0.0233645999999998,-0.0002857999999995,-0.000935599999999,0.002298,0,sub_8
0.0035239999999997,-0.0143547999999987,-0.0225267999999998,0.0001788000000004,0.0005070000000009,0.0029768,0,sub_8
0.0040623999999997,-0.0146129999999987,-0.0219825999999998,0.0004308000000004,0.0013146000000009,0.0028004,0,sub_8
0.0045533999999997,-0.0135189999999987,-0.0214779999999998,0.0011114000000004,0.0025468000000009,0.0026266,0,sub_8
0.0057449999999997,-0.0124853999999987,-0.0202287999999998,0.0017534000000004,0.0031828000000009,0.002844,0,sub_8
0.0071549999999997,-0.0118231999999987,-0.0190515999999998,0.0008970000000004,0.0029710000000009,0.0032656,0,sub_8
0.0084745999999997,-0.0125263999999987,-0.0179729999999998,0.0002530000000004,0.0029698000000009,0.0041156,0,sub_8
0.0086619999999997,-0.0130787999999987,-0.0177495999999998,5.500000000040416e-05,0.0020982000000009,0.0045756,0,sub_8
0.0091653999999997,-0.0136403999999987,-0.0182171999999998,6.760000000040417e-05,0.0007988000000009,0.0052512,0,sub_8
0.0091921999999997,-0.0146863999999987,-0.0186419999999998,0.0009306000000004,-0.000930599999999,0.006147,0,sub_8
0.0083655999999997,-0.0156219999999987,-0.0195289999999998,0.0018014000000004,-0.001379799999999,0.006614,0,sub_8
0.0076195999999997,-0.0157493999999987,-0.0208919999999998,0.0026760000000004,-0.001401199999999,0.0066532,0,sub_8
0.0070775999999997,-0.0153603999999987,-0.0219367999999998,0.0031038000000004,-0.001401999999999,0.0064426,0,sub_8
0.0058701999999997,-0.0149727999999987,-0.0222961999999998,0.0035354000000004,-0.000762599999999,0.0060176,0,sub_8
0.0049991999999997,-0.0143237999999987,-0.0223063999999998,0.0026926000000004,0.0009474000000009,0.0053686,0,sub_8
0.0044519999999997,-0.0139307999999987,-0.0220027999999998,0.0016344000000004,0.0020198000000009,0.0045052,0,sub_8
0.0045705999999997,-0.0128981999999987,-0.0214489999999998,0.0003472000000004,0.0022470000000009,0.003658,0,sub_8
0.0054113999999997,-0.0128057999999987,-0.0205403999999998,-9.219999999955592e-05,0.0018296000000009,0.0034584,0,sub_8
0.0063735999999997,-0.0132823999999987,-0.0198957999999998,-0.0001059999999995,0.0014098000000009,0.0034754,0,sub_8
0.0068313999999997,-0.0139753999999987,-0.0194071999999998,-0.0001225999999995,0.0003508000000009,0.0034932,0,sub_8
0.0078849999999997,-0.0143149999999987,-0.0188633999999999,0.0005000000000004,-0.000923399999999,0.0035158,0,sub_8
0.0075359999999997,-0.0148395999999987,-0.0188821999999998,0.0019878000000004,-0.001994799999999,0.0037412,0,sub_8
0.0070955999999997,-0.0147801999999987,-0.0190491999999998,0.0026240000000004,-0.0024247999999989,0.0041736,0,sub_8
0.0069191999999997,-0.0144865999999987,-0.0192191999999998,0.0025976000000004,-0.0030409999999989,0.0037532,0,sub_8
0.0067947999999997,-0.0140773999999987,-0.0196665999999998,0.0019350000000004,-0.0023781999999989,0.003754,0,sub_8
0.0063927999999997,-0.0133709999999987,-0.0206257999999998,0.0006380000000004,-0.0004349999999989,0.0037486,0,sub_8
0.0061539999999997,-0.0134041999999987,-0.0214109999999998,-0.0019371999999995,0.0017268000000009,0.0035204,0,sub_8
0.0056337999999997,-0.0140735999999987,-0.0216563999999998,-0.0040819999999995,0.0041024000000009,0.002654,0,sub_8
0.0045457999999997,-0.0147439999999987,-0.0214995999999998,-0.0055669999999995,0.0064496000000009,0.0030678,0,sub_8
0.0039285999999997,-0.0148431999999987,-0.0215691999999998,-0.0057747999999995,0.0077286000000009,0.0030646,0,sub_8
0.0031709999999997,-0.0155781999999987,-0.0212873999999998,-0.0047127999999995,0.0062352000000009,0.0026466,0,sub_8
0.0035105999999997,-0.0154497999999987,-0.0202781999999998,-0.0036705999999995,0.0045506000000009,0.002017,0,sub_8
0.0044183999999997,-0.0146071999999987,-0.0206955999999998,-0.0036951999999995,0.0032944000000009,0.0018068,0,sub_8
0.0053233999999997,-0.0140407999999987,-0.0208621999999998,-0.0032909999999995,0.0024626000000009,0.001599,0,sub_8
0.0066105999999997,-0.0139439999999987,-0.0196495999999998,-0.0024601999999995,0.0014172000000009,0.001181,0,sub_8
0.0075317999999997,-0.0144215999999987,-0.0185865999999998,-0.0026905999999995,0.0018660000000009,0.0009672,0,sub_8
0.0071809999999997,-0.0148817999999987,-0.0186733999999998,-0.0031135999999995,0.0022954000000009,0.0005364,0,sub_8
0.0067887999999997,-0.0152997999999987,-0.0181767999999998,-0.0024695999999995,0.0020842000000009,-0.0005271999999998,0,sub_8
0.0069191999999997,-0.0153083999999987,-0.0183415999999998,-0.0009721999999995,0.0018702000000009,-0.0015845999999998,0,sub_8
0.0063021999999997,-0.0146927999999987,-0.0197267999999998,-0.0005415999999995,0.0022966000000009,-0.0020095999999998,0,sub_8
0.0063719999999997,-0.0136057999999987,-0.0207527999999998,-0.0011901999999995,0.0033778000000009,-0.0024507999999998,0,sub_8
0.0069217999999997,-0.0132971999999987,-0.0211711999999998,-0.0014129999999995,0.0048810000000009,-0.0022485999999998,0,sub_8
0.0071037999999997,-0.0135121999999987,-0.0213755999999998,-0.0014233999999995,0.0072316000000009,-0.0009777999999998,0,sub_8
0.0062897999999997,-0.0131699999999987,-0.0211379999999998,-0.0033521999999995,0.0091662000000009,-0.0005743999999998,0,sub_8
0.0063851999999997,-0.0132643999999987,-0.0209911999999998,-0.0050685999999995,0.0102502000000009,-0.0008093999999999,0,sub_8
0.0062245999999997,-0.0133793999999987,-0.0213993999999998,-0.0052809999999995,0.0106762000000009,-0.0005977999999999,0,sub_8
0.0061503999999997,-0.0132589999999987,-0.0213493999999998,-0.0046389999999995,0.0111000000000009,-0.0005937999999999,0,sub_8
0.0057501999999997,-0.0131173999999987,-0.0215375999999998,-0.0046497999999995,0.0113236000000009,-0.0012529999999999,0,sub_8
0.0059063999999997,-0.0136705999999987,-0.0216965999999998,-0.0044481999999995,0.0113334000000009,-0.0019105999999999,0,sub_8
0.0057465999999997,-0.0139231999999987,-0.0215615999999998,-0.0042453999999995,0.0121930000000009,-0.0019281999999999,0,sub_8
0.0057847999999997,-0.0142355999999987,-0.0210481999999998,-0.0040397999999995,0.0136918000000009,-0.0019465999999999,0,sub_8
0.0053181999999997,-0.0144425999999987,-0.0206213999999998,-0.0042627999999995,0.0145538000000009,-0.0021809999999999,0,sub_8
0.0052465999999997,-0.0141141999999987,-0.0201005999999998,-0.0049017999999995,0.0147692000000009,-0.0021857999999999,0,sub_8
0.0056565999999997,-0.0140321999999987,-0.0196837999999998,-0.0053283999999995,0.0156196000000009,-0.0013353999999999,0,sub_8
0.0059753999999997,-0.0144057999999987,-0.0192107999999998,-0.0055399999999995,0.0164708000000009,-0.0009107999999999,0,sub_8
0.0059083999999997,-0.0153897999999987,-0.0182987999999998,-0.0053413999999995,0.0160482000000009,-0.0007151999999998,0,sub_8
0.0058817999999997,-0.0152783999999987,-0.0173997999999998,-0.0036509999999995,0.0145578000000009,-0.0011485999999998,0,sub_8
0.0054687999999997,-0.0154697999999987,-0.0167397999999998,-0.0002603999999995,0.0126310000000009,-0.0005013999999998,0,sub_8
0.0047379999999997,-0.0150229999999987,-0.0172041999999998,0.0029158000000004,0.0117650000000009,0.0014248000000001,0,sub_8
0.0021501999999997,-0.0135431999999987,-0.0180767999999998,0.0056626000000004,0.0113224000000009,0.0044158000000001,0,sub_8
0.0009789999999997,-0.0114309999999987,-0.0197005999999998,0.0079934000000004,0.0104510000000009,0.0072106,0,sub_8
-0.0010166000000002,-0.0117579999999987,-0.0210221999999998,0.0094688000000004,0.0110662000000009,0.0119202,0,sub_8
-0.0040530000000001,-0.0115391999999987,-0.0237719999999998,0.0064498000000004,0.0110486000000009,0.0189494,0,sub_8
-0.0044778000000001,-0.0136769999999987,-0.0263277999999998,-0.0035833999999995,0.0123526000000009,0.0212278,0,sub_8
-0.0016870000000002,-0.0154151999999987,-0.0297675999999998,-0.0172331999999995,0.0124026000000009,0.0196172,0,sub_8
0.0031815999999997,-0.0183961999999987,-0.0303477999999998,-0.0285183999999995,0.0133084000000009,0.015031,0,sub_8
0.0096643999999997,-0.0200547999999987,-0.0306427999999998,-0.0391455999999995,0.0157136000000009,0.0078838,0,sub_8
0.0171445999999997,-0.0220867999999987,-0.0268985999999998,-0.0475965999999995,0.0245148000000009,-0.0022475999999999,0,sub_8
0.0215465999999997,-0.0208797999999987,-0.0207291999999998,-0.0477569999999995,0.0300768000000009,-0.0086849999999999,0,sub_8
0.0230069999999997,-0.0195127999999987,-0.0122995999999998,-0.0394143999999995,0.0311276000000009,-0.0122601999999999,0,sub_8
0.0194025999999997,-0.0148169999999988,-0.0070825999999998,-0.0291917999999995,0.0276796000000009,-0.0113297999999999,0,sub_8
0.0139973999999997,-0.0085595999999988,-0.0040743999999998,-0.0181425999999995,0.0201594000000009,-0.0076239999999999,0,sub_8
0.0077391999999997,-0.0025299999999988,-0.0039789999999998,-0.0054181999999995,0.0056026000000009,-0.0038971999999999,0,sub_8
0.0013311999999997,0.0013492000000011,-0.0089215999999998,0.0058156000000004,-0.008946399999999,-0.0008217999999999,0,sub_8
-0.0034154000000002,0.0022540000000011,-0.0159819999999998,0.0108884000000004,-0.017508399999999,0.0022028,0,sub_8
-0.0064210000000002,0.0004412000000011,-0.0230783999999998,0.0104480000000004,-0.020290799999999,0.0032586,0,sub_8
-0.0067096000000002,-0.0056285999999987,-0.0280505999999998,0.0072504000000004,-0.020064799999999,0.0028088,0,sub_8
-0.0047856000000002,-0.0122393999999987,-0.0317539999999998,0.0049234000000004,-0.016431199999999,0.0019332,0,sub_8
-0.0012662000000002,-0.0181967999999987,-0.0315879999999998,0.0030328000000004,-0.011305399999999,0.0004178,0,sub_8
0.0040763999999997,-0.0220429999999987,-0.0286759999999998,0.0030654000000004,-0.007244599999999,-0.0027917999999999,0,sub_8
0.0100195999999997,-0.0244995999999987,-0.0243033999999999,0.0045960000000004,-0.004920399999999,-0.0064225999999999,0,sub_8
0.0148559999999997,-0.0239427999999987,-0.0201907999999998,0.0071924000000004,-0.001964199999999,-0.0091921999999999,0,sub_8
0.0166153999999997,-0.0205597999999987,-0.0161407999999998,0.0076436000000004,-0.000496199999999,-0.0109065999999999,0,sub_8
0.0166479999999997,-0.0163609999999987,-0.0130663999999998,0.0067992000000004,-0.000946999999999,-0.0111319999999999,0,sub_8
0.0143191999999997,-0.0126599999999987,-0.0119295999999998,0.0046602000000004,-0.003528199999999,-0.0102955999999999,0,sub_8
0.0102321999999997,-0.0098227999999987,-0.0118235999999998,0.0029264000000004,-0.007577999999999,-0.0083797999999999,0,sub_8
0.0056255999999997,-0.0077575999999987,-0.0129511999999998,0.0018222000000004,-0.014397799999999,-0.0068833999999999,0,sub_8
0.0028641999999997,-0.0089967999999987,-0.0162797999999998,0.0026422000000004,-0.021645399999999,-0.0066547999999999,0,sub_8
0.0007065999999997,-0.0111353999999987,-0.0200113999999998,0.0056228000000004,-0.027030799999999,-0.0070561999999999,0,sub_8
-0.0010168000000002,-0.0136515999999987,-0.0240423999999998,0.0101152000000004,-0.028373599999999,-0.0074519999999999,0,sub_8
-0.0014674000000002,-0.0160045999999987,-0.0270631999999998,0.0135560000000004,-0.026091399999999,-0.0076461999999999,0,sub_8
-0.0016066000000002,-0.0171883999999987,-0.0287399999999998,0.0159442000000004,-0.020609799999999,-0.0078517999999999,0,sub_8
-0.0006632000000002,-0.0164193999999987,-0.0269305999999998,0.0172704000000004,-0.014059199999999,-0.0080661999999999,0,sub_8
0.0011435999999997,-0.0155335999999987,-0.0238905999999998,0.0177192000000004,-0.0095849999999989,-0.0084959999999998,0,sub_8
0.0036751999999997,-0.0148881999999987,-0.0203787999999998,0.0175126000000004,-0.0083049999999989,-0.0087127999999998,0,sub_8
0.0060683999999997,-0.0136481999999987,-0.0182631999999998,0.0162508000000004,-0.007511599999999,-0.0083179999999998,0,sub_8
0.0081785999999997,-0.0136771999999987,-0.0162995999999998,0.0132736000000004,-0.006719799999999,-0.0060123999999998,0,sub_8
0.0087117999999997,-0.0147443999999987,-0.0166441999999998,0.0098668000000004,-0.005929199999999,-0.0030689999999999,0,sub_8
0.0088805999999997,-0.0159743999999987,-0.0174595999999998,0.0077372000000004,-0.006206599999999,-0.0005423999999999,0,sub_8
0.0082213999999997,-0.0166475999999987,-0.0185211999999998,0.0062458000000004,-0.006700199999999,0.0022024,0,sub_8
0.0063231999999997,-0.0168085999999987,-0.0202135999999998,0.0068736000000004,-0.006713599999999,0.0049842,0,sub_8
