userAcceleration.x,userAcceleration.y,userAcceleration.z,rotationRate.x,rotationRate.y,rotationRate.z,label,subject
-0.0100974000000001,0.0022432000000012,-0.0104509999999999,0.0018580000000004,-0.0564963999999991,-0.0056399999999999,0,sub_8
-0.0130842000000001,0.0011492000000012,-0.0114845999999999,0.0028770000000004,-0.0582065999999991,-5.099999999991084e-05,0,sub_8
-0.0153588000000001,0.0002514000000012,-0.0119957999999999,-0.0015931999999995,-0.0456279999999991,0.0067632,0,sub_8
-0.0170316000000001,0.0023780000000012,-0.0139267999999999,-0.0053831999999995,-0.0272863999999991,0.01037,0,sub_8
-0.0212594000000001,0.0026414000000012,-0.0157999999999999,-0.0089453999999995,-0.0110885999999991,0.0120336,0,sub_8
-0.0210062000000001,0.0020452000000012,-0.0168967999999999,-0.0154705999999995,0.0100216000000008,0.0132428,0,sub_8
-0.0178130000000001,0.0017324000000012,-0.0152501999999999,-0.0215451999999995,0.0343348000000008,0.0123146,0,sub_8
-0.0148456000000001,0.0027880000000012,-0.0156123999999999,-0.0217451999999995,0.0495296000000008,0.011435,0,sub_8
-0.0117560000000001,0.0021278000000012,-0.0139883999999999,-0.0173121999999995,0.0508606000000008,0.010392,0,sub_8
-0.0086704000000001,0.0012066000000012,-0.0123511999999998,-0.0129051999999995,0.0453780000000008,0.0082892,0,sub_8
-0.0073476000000001,0.0005230000000012,-0.0113647999999998,-0.0115093999999995,0.0358528000000008,0.0074526,0,sub_8
-0.0064560000000001,0.0024634000000012,-0.0105561999999998,-0.0082239999999995,0.0220494000000008,0.0091982,0,sub_8
-0.0070862000000001,0.0027604000000012,-0.0102045999999998,-0.0044523999999995,0.0075450000000008,0.0100978,0,sub_8
-0.0090670000000001,0.0022610000000012,-0.0099451999999998,-0.0034239999999995,-0.0020419999999991,0.009049,0,sub_8
-0.0102832000000001,0.0017598000000012,-0.0099579999999999,-0.0042851999999995,-0.0048043999999991,0.0079784,0,sub_8
-0.0104600000000001,0.0033098000000012,-0.0098731999999999,-0.0007139999999995,-0.0047489999999991,0.0075732,0,sub_8
-0.0124014000000001,0.0024136000000012,-0.0107527999999999,0.0017914000000004,-0.0049011999999991,0.0067336,0,sub_8
-0.0126708000000001,0.0011172000000012,-0.0113563999999999,0.0021690000000004,-0.0041919999999991,0.0054506,0,sub_8
-0.0130498000000001,0.0005378000000012,-0.0123213999999998,0.0038316000000004,-0.0019975999999991,0.004602,0,sub_8
-0.0141864000000001,0.0008964000000012,-0.0131163999999998,0.0050674000000004,-0.0002261999999991,0.0033236,0,sub_8
-0.0158130000000001,0.0003428000000012,-0.0145421999999998,0.0035796000000004,-0.0002159999999991,0.0020312,0,sub_8
-0.0155828000000001,0.0004628000000012,-0.0144725999999998,0.0008154000000004,0.0002266000000008,0.0003022,0,sub_8
-0.0156622000000001,0.0016516000000012,-0.0142507999999998,-0.0013173999999995,0.0006592000000008,0.0005004,0,sub_8
-0.0141930000000001,0.0017704000000011,-0.0138213999999998,-0.0036689999999995,0.0004542000000008,0.0015772,0,sub_8
-0.0122622000000001,0.0015822000000011,-0.0131537999999999,-0.0055955999999995,0.0004582000000008,0.0032976,0,sub_8
-0.0094976000000001,0.0011924000000011,-0.0117103999999999,-0.0066573999999995,0.0013182000000008,0.0033138,0,sub_8
-0.0071204000000001,0.0020898000000011,-0.0096437999999999,-0.0070827999999995,0.0011116000000008,0.0031222,0,sub_8
-0.0060746000000001,0.0024192000000012,-0.0074145999999999,-0.0075091999999995,-0.0007933999999991,0.0014372,0,sub_8
-0.0071732000000001,0.0011344000000012,-0.0073747999999999,-0.0083579999999995,-0.0018471999999991,-0.0007037999999999,0,sub_8
-0.0092844000000001,0.0004918000000012,-0.0089513999999999,-0.0081359999999995,-0.0024769999999991,-0.0032651999999999,0,sub_8
-0.0118124000000001,0.0015558000000012,-0.0106935999999999,-0.0081415999999995,-0.0052405999999991,-0.0047571999999998,0,sub_8
-0.0133610000000001,0.0025408000000012,-0.0133117999999999,-0.0079379999999995,-0.0073717999999991,-0.0047531999999998,0,sub_8
-0.0140148000000001,0.0012998000000012,-0.0142295999999999,-0.0070867999999995,-0.0064847999999991,-0.0021279999999998,0,sub_8
-0.0136286000000001,0.0017944000000012,-0.0137533999999999,-0.0060201999999995,-0.0047479999999991,0.0009248,0,sub_8
-0.0136208000000001,0.0020990000000012,-0.0121753999999998,-0.0040963999999995,-0.0040717999999991,0.0020624,0,sub_8
-0.0128280000000001,0.0022574000000012,-0.0106445999999998,-0.0010923999999995,-0.0023263999999991,0.0012832,0,sub_8
-0.0130004000000001,0.0002660000000012,-0.0094985999999998,0.0014918000000004,-0.0005735999999991,-0.0009943999999999,0,sub_8
-0.0134768000000001,-0.0006205999999987,-0.0106611999999998,0.0025874000000004,0.0030556000000008,-0.0037687999999999,0,sub_8
-0.0142886000000001,-0.0001581999999987,-0.0120225999999998,0.0041048000000004,0.0058302000000008,-0.0063253999999998,0,sub_8
-0.0138176000000001,0.0006420000000012,-0.0129597999999999,0.0034684000000004,0.0060482000000008,-0.0069711999999998,0,sub_8
-0.0136732000000001,0.0003974000000012,-0.0140373999999999,0.0026374000000004,0.0058552000000008,-0.0058891999999998,0,sub_8
-0.0131838000000001,0.0016274000000012,-0.0139647999999999,0.0015910000000004,0.0065100000000008,-0.0035279999999998,0,sub_8
-0.0137670000000002,0.0038750000000012,-0.0132113999999999,0.0005388000000004,0.0048254000000008,-0.0022319999999998,0,sub_8
-0.0144052000000001,0.0043986000000012,-0.0113431999999999,-0.0005083999999995,0.0031452000000008,-0.0020041999999999,0,sub_8
-0.0136558000000001,0.0037590000000012,-0.0107279999999999,0.0005952000000004,0.0035948000000008,-0.0034731999999999,0,sub_8
-0.0131624000000001,0.0039062000000012,-0.0099839999999999,0.0016802000000004,0.0059414000000008,-0.0051777999999999,0,sub_8
-0.0113632000000001,0.0043552000000012,-0.0101019999999999,0.0044646000000004,0.0074264000000008,-0.0060147999999999,0,sub_8
-0.0101608000000001,0.0034190000000012,-0.0109489999999999,0.0074556000000004,0.0082682000000008,-0.0059949999999999,0,sub_8
-0.0086016000000001,0.0018848000000012,-0.0120331999999999,0.0093980000000004,0.0078210000000008,-0.0047035999999999,0,sub_8
-0.0090032000000001,0.0016254000000012,-0.0118823999999999,0.0098412000000004,0.0080104000000008,-0.0015005999999999,0,sub_8
-0.0097588000000001,0.0010632000000012,-0.0115701999999999,0.0083620000000004,0.0073560000000008,0.0012628,0,sub_8
-0.0114980000000001,-6.819999999875897e-05,-0.0117097999999999,0.0045424000000004,0.0062916000000008,0.0020876,0,sub_8
-0.0115088000000001,0.0003086000000012,-0.0117285999999999,0.0015784000000004,0.0050136000000008,0.0022778,0,sub_8
-0.0114424000000001,0.0012520000000012,-0.0123999999999999,-0.0001313999999995,0.0045926000000008,0.0024802,0,sub_8
-0.0115910000000001,0.0014882000000012,-0.0131635999999998,-0.0009897999999995,0.0035304000000008,0.0024756,0,sub_8
-0.0117292000000001,0.0015850000000012,-0.0130585999999999,-0.0007639999999995,0.0013940000000008,0.0022562,0,sub_8
-0.0120758000000001,0.0015142000000012,-0.0119361999999998,-0.0005391999999995,-0.0005311999999991,0.0024638,0,sub_8
-0.0121964000000001,0.0009238000000012,-0.0117341999999998,-0.0007315999999995,0.0001002000000008,0.0030924,0,sub_8
-0.0121464000000001,0.0002390000000012,-0.0114401999999998,-0.0026241999999995,0.0011678000000008,0.0026404,0,sub_8
-0.0127294000000001,0.0004068000000012,-0.0111957999999998,-0.0034537999999995,0.0011674000000008,0.0019836,0,sub_8
-0.0135630000000001,0.0007026000000012,-0.0126995999999998,-0.0011019999999995,0.0026490000000008,0.0024254,0,sub_8
-0.0146566000000001,0.0012596000000012,-0.0140055999999998,0.0029712000000004,0.0060472000000008,0.001595,0,sub_8
-0.0152466000000001,0.0015122000000012,-0.0122359999999998,0.0038524000000004,0.0094642000000008,-0.0011805999999999,0,sub_8
-0.0163884000000001,0.0020900000000012,-0.0102247999999998,0.0045490000000004,0.0139446000000008,-0.0026831999999999,0,sub_8
-0.0170752000000001,0.0022816000000012,-0.0108027999999998,0.0013954000000004,0.0184296000000008,-0.0020761999999999,0,sub_8
-0.0146978000000001,-0.0001419999999987,-0.0110609999999998,-0.0075365999999995,0.0193120000000008,-0.0012911999999999,0,sub_8
-0.0123444000000001,-0.0034395999999987,-0.0120601999999999,-0.0164905999999995,0.0161430000000008,0.0003532,0,sub_8
-0.0109576000000001,-0.0056435999999987,-0.0154609999999999,-0.0218297999999995,0.0114648000000008,0.0033068,0,sub_8
-0.0071158000000001,-0.0067405999999987,-0.0172013999999999,-0.0256993999999995,0.0074208000000008,0.005635,0,sub_8
-0.0032638000000001,-0.0052203999999987,-0.0144135999999999,-0.0252841999999995,0.0050750000000008,0.0058546,0,sub_8
-0.0025764000000001,-8.719999999877922e-05,-0.0109083999999999,-0.0201707999999995,0.0020796000000008,0.0046122,0,sub_8
-0.0040708000000001,0.0059306000000012,-0.0076191999999999,-0.0133291999999995,-7.239999999915265e-05,0.0035976,0,sub_8
-0.0059196000000001,0.0117482000000012,-0.0038427999999999,-0.0030563999999995,0.0020230000000008,0.0030288,0,sub_8
-0.0114154000000001,0.0169254000000012,-0.0031703999999999,0.0119136000000004,0.0038922000000008,0.0016386,0,sub_8
-0.0174624000000001,0.0166350000000012,-0.0056503999999999,0.0251736000000004,0.0038550000000008,-0.0010431999999999,0,sub_8
-0.0222550000000001,0.0135238000000012,-0.0087513999999999,0.0346226000000004,0.0102238000000008,-0.0039733999999998,0,sub_8
-0.0236614000000001,0.0081606000000012,-0.0118419999999999,0.0404382000000004,0.0204380000000008,-0.0058685999999998,0,sub_8
-0.0222422000000001,0.0011150000000012,-0.0172019999999999,0.0413128000000004,0.0249100000000008,-0.0060819999999998,0,sub_8
-0.0184032000000001,-0.0066149999999987,-0.0206049999999999,0.0340504000000004,0.0262018000000008,-0.0031433999999998,0,sub_8
-0.0132214000000001,-0.0111405999999987,-0.0219497999999999,0.0216570000000004,0.0279092000000008,0.0034018000000001,0,sub_8
-0.0074146000000001,-0.0125765999999987,-0.0193475999999999,0.0075248000000004,0.0236526000000008,0.0110108,0,sub_8
-0.0032396000000001,-0.0115083999999987,-0.0157511999999999,-0.0079017999999995,0.0147194000000008,0.017121,0,sub_8
3.3399999999803555e-05,-0.0097197999999987,-0.0103249999999999,-0.0243791999999995,0.0049558000000008,0.0187384,0,sub_8
0.0025881999999998,-0.0060487999999987,-0.0057397999999998,-0.0357057999999994,-0.0039505999999991,0.0146222,0,sub_8
0.0040369999999998,-0.0015899999999987,-0.0027159999999999,-0.0410593999999995,-0.0149833999999991,0.0077622,0,sub_8
0.0011545999999998,0.0033830000000012,-0.0053017999999999,-0.0402183999999994,-0.0239097999999991,0.0015838,0,sub_8
-0.0040566000000001,0.0090656000000012,-0.0094075999999999,-0.0353157999999994,-0.0288117999999991,-0.0022211999999999,0,sub_8
-0.0136880000000001,0.0154792000000011,-0.0121959999999999,-0.0233705999999995,-0.0303423999999991,-0.0027765999999999,0,sub_8
-0.0241320000000002,0.0182468000000011,-0.0131317999999999,-0.0077935999999995,-0.0278679999999991,-0.0005299999999999,0,sub_8
-0.0312386000000001,0.0173786000000012,-0.0132761999999999,0.0099528000000004,-0.0194279999999991,-0.0001985999999999,0,sub_8
-0.0321736000000002,0.0127836000000012,-0.0116449999999999,0.0253712000000004,-0.0109627999999991,-0.0041565999999999,0,sub_8
-0.0299942000000001,0.0066964000000012,-0.0088585999999999,0.0373786000000004,-0.0052417999999991,-0.0115531999999999,0,sub_8
-0.0248348000000001,1.0200000001218956e-05,-0.0075403999999999,0.0423436000000004,-0.0001335999999991,-0.0194253999999999,0,sub_8
-0.0187020000000001,-0.0064963999999987,-0.0091697999999999,0.0389690000000004,0.0022474000000008,-0.0258611999999999,0,sub_8
-0.0130134000000001,-0.0100287999999987,-0.0123215999999999,0.0285136000000004,0.0014352000000008,-0.0267877999999999,0,sub_8
-0.0099250000000001,-0.0097241999999987,-0.0143363999999999,0.0135392000000004,-6.399999999915328e-05,-0.0194113999999999,0,sub_8
-0.0086632000000001,-0.0077309999999987,-0.0153095999999999,-0.0025163999999995,-0.0002989999999991,-0.0075575999999999,0,sub_8
-0.0075912000000001,-0.0053993999999987,-0.0153875999999999,-0.0175013999999995,-0.0003221999999991,0.0036624,0,sub_8
-0.0063930000000001,-0.0007545999999987,-0.0141813999999998,-0.0288493999999995,0.0007116000000008,0.0138382,0,sub_8
-0.0080552000000001,0.0030396000000012,-0.0112401999999998,-0.0341979999999995,0.0038684000000008,0.0206348,0,sub_8
-0.0094872000000001,0.0043010000000011,-0.0096875999999998,-0.0331051999999995,0.0091928000000008,0.0202084,0,sub_8
-0.0081368000000001,0.0048490000000011,-0.0092165999999998,-0.0270895999999995,0.0123916000000008,0.0142642,0,sub_8
-0.0070050000000001,0.0051382000000011,-0.0098807999999998,-0.0172379999999995,0.0140874000000008,0.0079214000000001,0,sub_8
-0.0065662000000001,0.0055152000000011,-0.0092371999999999,-0.0048373999999995,0.0121564000000008,0.0005328000000001,0,sub_8
-0.0065054000000001,0.0059010000000011,-0.0095685999999999,0.0054578000000004,0.0108358000000008,-0.0068765999999998,0,sub_8
-0.0085214000000001,0.0064574000000012,-0.0083665999999999,0.0142498000000004,0.0099362000000008,-0.0117335999999998,0,sub_8
-0.0119690000000001,0.0080186000000012,-0.0085037999999999,0.0232466000000004,0.0090282000000008,-0.0146661999999998,0,sub_8
-0.0169610000000001,0.0118776000000012,-0.0075177999999998,0.0309410000000004,0.0064074000000008,-0.0144009999999998,0,sub_8
-0.0227068000000001,0.0143968000000012,-0.0098953999999998,0.0324388000000004,0.0084690000000008,-0.0075619999999998,0,sub_8
-0.0261876000000001,0.0144886000000012,-0.0134559999999998,0.0311288000000004,0.0092958000000008,-9.479999999985197e-05,0,sub_8
-0.0255472000000001,0.0091774000000012,-0.0178183999999998,0.0281138000000004,0.0080082000000008,0.0047996000000001,0,sub_8
-0.0239850000000001,0.0013714000000012,-0.0201519999999998,0.0214580000000004,0.0100798000000008,0.0102992000000001,0,sub_8
-0.0195728000000001,-0.0094821999999987,-0.0221335999999999,0.0127060000000004,0.0187704000000008,0.0140664,0,sub_8
-0.0118576000000001,-0.0181389999999987,-0.0206565999999998,0.0058878000000004,0.0236466000000008,0.0110154,0,sub_8
-0.0034950000000001,-0.0186197999999987,-0.0149481999999999,-0.0007295999999995,0.0249036000000008,0.007116,0,sub_8
0.0033435999999998,-0.0144353999999987,-0.0098957999999999,-0.0092875999999995,0.0257250000000008,0.0072628,0,sub_8
0.0057791999999998,-0.0067523999999987,-0.0064761999999999,-0.0163421999999995,0.0231912000000008,0.007644,0,sub_8
0.0064737999999998,0.0021330000000012,-0.0036407999999999,-0.0244973999999995,0.0119310000000008,0.006747,0,sub_8
0.0059857999999998,0.0103556000000012,-0.0013219999999999,-0.0275573999999995,-0.0023407999999991,0.0086666,0,sub_8
0.0023421999999998,0.0126962000000012,-0.0019211999999999,-0.0297423999999995,-0.0147207999999991,0.0131386,0,sub_8
-0.0045544000000001,0.0145258000000012,-0.0035775999999999,-0.0295601999999995,-0.0290007999999991,0.0112204,0,sub_8
-0.0090572000000001,0.0104458000000012,-0.0070673999999999,-0.0310773999999995,-0.0434801999999991,0.0073678,0,sub_8
-0.0129754000000001,0.0061372000000012,-0.0146491999999999,-0.0253013999999995,-0.0443699999999991,0.0086762,0,sub_8
-0.0191410000000001,0.0021760000000012,-0.0236511999999998,-0.0180069999999995,-0.0378157999999991,0.0119084000000001,0,sub_8
-0.0271256000000001,-0.0001045999999987,-0.0266083999999998,-0.0085965999999995,-0.0369801999999991,0.0079140000000001,0,sub_8
-0.0318768000000001,0.0008224000000011,-0.0247989999999998,0.0033850000000004,-0.0338099999999991,0.0039344000000001,0,sub_8
-0.0334222000000001,0.0062230000000011,-0.0193913999999998,0.0154058000000004,-0.0229655999999991,-0.0011229999999999,0,sub_8
-0.0321086000000001,0.0099930000000011,-0.0135787999999998,0.0208080000000004,-0.0112339999999991,-0.0085619999999998,0,sub_8
-0.0288730000000001,0.0103064000000011,-0.0073415999999999,0.0225770000000004,-0.0037389999999991,-0.0190117999999998,0,sub_8
-0.0185932000000001,0.0051372000000011,-0.0080097999999999,0.0198386000000004,0.0048090000000008,-0.0224443999999998,0,sub_8
-0.0079918000000001,-0.0005487999999988,-0.0104977999999999,0.0119416000000004,0.0129172000000008,-0.0180075999999998,0,sub_8
-0.0015118000000001,-0.0039585999999988,-0.0127979999999998,0.0048396000000004,0.0148166000000008,-0.0067205999999999,0,sub_8
0.0013153999999998,-0.0072831999999988,-0.0108213999999998,-0.0022851999999995,0.0067034000000008,0.0037086,0,sub_8
0.0032809999999998,-0.0089617999999988,-0.0080123999999998,-0.0113081999999995,0.0001020000000008,0.0107042,0,sub_8
0.0014341999999998,-0.0048317999999988,-0.0062363999999998,-0.0140993999999995,-0.0007523999999991,0.0136768,0,sub_8
-0.0052498000000001,0.0008452000000011,-0.0067573999999998,-0.0115205999999995,-0.0014119999999991,0.0126268,0,sub_8
-0.0101198000000001,0.0026704000000011,-0.0084335999999998,-0.0063601999999995,-0.0016373999999991,0.0073214,0,sub_8
-0.0149910000000001,0.0070404000000011,-0.0100205999999999,0.0003044000000004,-0.0012219999999991,0.0003164,0,sub_8
-0.0188932000000001,0.0111584000000011,-0.0126993999999998,0.0060992000000004,-0.0008181999999991,-0.0030625999999999,0,sub_8
-0.0224676000000001,0.0129432000000011,-0.0130829999999999,0.0086770000000004,-0.0012663999999991,-0.0036855999999999,0,sub_8
-0.0223084000000001,0.0102726000000011,-0.0138041999999998,0.0086780000000004,-0.0010533999999991,-0.0036857999999999,0,sub_8
-0.0202400000000001,0.0081522000000011,-0.0135299999999998,0.0058994000000004,-0.0008355999999991,-0.0024235999999999,0,sub_8
-0.0167986000000001,0.0054800000000011,-0.0139265999999998,0.0029006000000004,-0.0001987999999991,0.0007594,0,sub_8
-0.0139390000000001,0.0033572000000011,-0.0139019999999999,0.0001162000000004,0.0006504000000008,0.0039436,0,sub_8
-0.0107864000000001,-0.0002327999999988,-0.0135945999999999,-0.0014145999999995,0.0021022000000008,0.0062826,0,sub_8
-0.0087282000000001,-0.0004579999999988,-0.0112823999999999,-0.0012309999999995,0.0052526000000008,0.0086312,0,sub_8
-0.0087484000000001,0.0001068000000011,-0.0099359999999999,0.0002416000000004,0.0081938000000008,0.0088526,0,sub_8
-0.0092240000000001,0.0007756000000011,-0.0094669999999999,0.0010818000000004,0.0085978000000008,0.0048,0,sub_8
-0.0089598000000001,0.0007880000000011,-0.0086683999999998,0.0014866000000004,0.0068736000000008,0.0005334,0,sub_8
-0.0084636000000001,0.0024298000000012,-0.0083887999999998,0.0012740000000004,0.0041166000000008,-0.0024555999999999,0,sub_8
-0.0093106000000001,0.0030754000000012,-0.0097599999999998,-0.0008691999999995,-0.0009773999999991,-0.0054549999999999,0,sub_8
-0.0100602000000001,0.0033046000000012,-0.0121463999999999,-0.0057863999999995,-0.0052127999999991,-0.0076203999999999,0,sub_8
-0.0116716000000001,0.0043042000000012,-0.0133107999999998,-0.0076955999999995,-0.0031123999999991,-0.0050911999999999,0,sub_8
-0.0153878000000001,0.0069252000000012,-0.0149963999999999,-0.0023405999999995,0.0013054000000008,-0.0023005999999999,0,sub_8
-0.0209396000000001,0.0110240000000012,-0.0149671999999999,0.0023716000000004,0.0014788000000008,-0.0031409999999999,0,sub_8
-0.0206826000000001,0.0109680000000011,-0.0124261999999999,0.0051604000000004,-4.099999999917295e-05,-0.0050607999999998,0,sub_8
-0.0183282000000001,0.0091842000000011,-0.0088861999999999,0.0073016000000004,-7.999999999915297e-05,-0.0037823999999998,0,sub_8
-0.0122284000000001,0.0038152000000012,-0.0089567999999999,0.0077082000000004,-0.0026457999999991,-0.0018533999999998,0,sub_8
-0.0045248000000001,-0.0029135999999987,-0.0110023999999999,0.0064128000000004,-0.0045647999999991,-0.0003643999999998,0,sub_8
0.0016723999999998,-0.0087253999999987,-0.0119721999999998,0.0051354000000004,-0.0026257999999991,0.0034556000000001,0,sub_8
0.0017047999999998,-0.0097285999999987,-0.0126233999999999,0.0027930000000004,0.0003796000000008,0.0079078,0,sub_8
-0.0009782000000001,-0.0060335999999987,-0.0130011999999998,0.0034502000000004,0.0023244000000008,0.0085368,0,sub_8
-0.0075874000000001,0.0022840000000012,-0.0110985999999998,0.0034654000000004,0.0006626000000008,0.0059612,0,sub_8
-0.0145156000000001,0.0104738000000012,-0.0075141999999998,-0.0012261999999995,-0.0037525999999991,0.0033562,0,sub_8
-0.0182150000000001,0.0135298000000012,-0.0078947999999999,-0.0048555999999995,-0.0060757999999991,0.001411,0,sub_8
-0.0196370000000001,0.0154534000000012,-0.0107085999999999,-0.0024979999999995,-0.0052259999999991,-6.919999999989256e-05,0,sub_8
-0.0205398000000001,0.0131630000000012,-0.0140517999999999,0.0011350000000004,-0.0045967999999991,-0.0006855999999998,0,sub_8
-0.0188088000000001,0.0071708000000012,-0.0151503999999998,0.0032886000000004,-0.0026661999999991,-0.0013245999999998,0,sub_8
-0.0159622000000001,0.0018958000000012,-0.0164861999999999,0.0058796000000004,0.0016066000000008,-0.0019635999999998,0,sub_8
-0.0128422000000001,-0.0012855999999987,-0.0147897999999999,0.0073960000000004,0.0041786000000008,-0.0026077999999998,0,sub_8
-0.0102020000000001,-0.0027815999999987,-0.0123705999999999,0.0065566000000004,0.0046292000000008,-0.0034793999999999,0,sub_8
-0.0069428000000001,-0.0023569999999987,-0.0100771999999999,0.0027204000000004,0.0038084000000008,-0.0035157999999999,0,sub_8
-0.0047396000000001,-0.0003259999999987,-0.0090537999999999,0.0005770000000004,0.0029586000000008,-0.0022477999999999,0,sub_8
-0.0050794000000001,0.0011454000000012,-0.0073337999999999,-0.0015769999999995,0.0010384000000008,0.0003034,0,sub_8
-0.0074272000000001,0.0033144000000012,-0.0075545999999999,-0.0028745999999995,-0.0008821999999991,0.0022196,0,sub_8
-0.0094484000000001,0.0041474000000012,-0.0085341999999999,-0.0041691999999995,-0.0025765999999991,0.0034848,0,sub_8
-0.0115418000000001,0.0041290000000012,-0.0093953999999999,-0.0037509999999995,-0.0038475999999991,0.003907,0,sub_8
-0.0133804000000001,0.0039536000000012,-0.0111749999999999,-0.0031135999999995,-0.0044775999999991,0.0036888,0,sub_8
-0.0146840000000001,0.0049026000000012,-0.0116759999999999,-0.0020427999999995,-0.0038299999999991,0.0032584,0,sub_8
-0.0154136000000001,0.0062088000000011,-0.0120281999999999,-0.0003269999999995,-0.0010583999999991,0.003898,0,sub_8
-0.0157786000000001,0.0052890000000012,-0.0138647999999999,0.0052428000000004,0.0038224000000008,0.0039306,0,sub_8
-0.0166818000000001,0.0042540000000011,-0.0136937999999999,0.0071900000000004,0.0055372000000008,-0.0003309999999999,0,sub_8
-0.0186880000000001,0.0030868000000011,-0.0101883999999999,0.0014384000000004,0.0021706000000008,-0.0059215999999999,0,sub_8
-0.0174284000000001,-0.0003631999999988,-0.0120879999999999,-0.0066687999999995,0.0007144000000008,-0.0076853999999999,0,sub_8
-0.0127580000000001,-0.0017509999999987,-0.0182727999999999,-0.0126679999999995,-0.0014073999999991,-0.0045251999999999,0,sub_8
-0.0086090000000001,0.0001286000000012,-0.0218795999999999,-0.0189177999999995,-0.0103521999999991,0.0001376,0,sub_8
-0.0048784000000001,-0.0009187999999987,-0.0191081999999998,-0.0204773999999995,-0.0174069999999991,0.0076082,0,sub_8
-0.0010140000000001,-0.0010741999999987,-0.0168139999999999,-0.0143065999999994,-0.0123497999999991,0.016399,0,sub_8
-6.000000000017415e-05,0.0015138000000011,-0.0114379999999998,-0.0057571999999995,-0.0074847999999991,0.0179428,0,sub_8
-0.0034982000000001,0.0057032000000011,-0.0041577999999998,3.940000000048072e-05,-0.0053513999999991,0.0122122,0,sub_8
-0.0084098000000001,0.0077932000000011,0.0030428,0.0030736000000004,-0.0008637999999991,0.0062456000000001,0,sub_8
-0.0130476000000001,0.0115752000000011,0.0024584,0.0058830000000004,0.0019166000000008,0.0011340000000001,0,sub_8
-0.0134152000000001,0.0130856000000011,-0.0045889999999999,0.0063010000000004,-0.0027501999999991,-0.0035591999999998,0,sub_8
-0.0128374000000001,0.0120628000000011,-0.0100989999999999,0.0058502000000004,-0.0076399999999991,-0.0050535999999998,0,sub_8
-0.0107696000000001,0.0063758000000012,-0.0128785999999999,0.0047638000000004,-0.0084915999999991,-0.0035665999999998,0,sub_8
-0.0076560000000001,-0.0012573999999987,-0.0156497999999999,-0.0005919999999995,-0.0086933999999991,-0.0010419999999999,0,sub_8
-0.0041642000000001,-0.0079773999999987,-0.0185209999999999,-0.0076517999999995,-0.0063399999999991,0.0033904,0,sub_8
-0.0035836000000001,-0.0073997999999987,-0.0157161999999999,-0.0119307999999995,-0.0050621999999991,0.0072044,0,sub_8
-0.0031282000000001,-0.0031351999999987,-0.0110925999999998,-0.0138675999999995,-0.0069797999999991,0.0089024,0,sub_8
-0.0034630000000001,0.0033434000000012,-0.0039583999999998,-0.0106847999999995,-0.0105997999999991,0.0070036,0,sub_8
