userAcceleration.x,userAcceleration.y,userAcceleration.z,rotationRate.x,rotationRate.y,rotationRate.z,label,subject
0.0031701999999997,0.0144096000000011,0.0056406,0.0013504000000004,-0.000921999999999,0.00301,0,sub_12
0.0035701999999997,0.0144606000000011,0.006382,0.0013566000000004,0.0001386000000009,0.0025794,0,sub_12
0.0039111999999997,0.0142406000000011,0.0071178,0.0007198000000004,0.0005622000000009,0.002145,0,sub_12
0.0041333999999997,0.0141294000000011,0.0068668,-0.0001303999999995,0.0005622000000009,0.0012826,0,sub_12
0.0038837999999997,0.0143718000000011,0.0078212,-0.0003413999999995,0.0009834000000009,0.0010648,0,sub_12
0.0030529999999997,0.0146924000000011,0.0074166,0.0007244000000004,0.0007666000000009,0.0010724,0,sub_12
0.0025451999999997,0.0145696000000011,0.0060248,0.0015712000000004,-0.000727799999999,0.0010802,0,sub_12
0.0023285999999997,0.0145214000000011,0.0044788,0.0022056000000004,-0.001583999999999,0.001513,0,sub_12
0.0020797999999997,0.0138746000000011,0.004786,0.0034866000000004,-0.001808399999999,0.001737,0,sub_12
0.0021359999999997,0.0133112000000011,0.0047202,0.0041292000000004,-0.001604399999999,0.001956,0,sub_12
0.0017893999999997,0.0127176000000011,0.0051388,0.0032822000000004,-0.000755199999999,0.0019502,0,sub_12
0.0018001999999997,0.0127374000000011,0.006068,0.0017940000000004,-0.000116799999999,0.00194,0,sub_12
0.0017491999999997,0.0127810000000011,0.006307,0.0005192000000004,9.640000000095177e-05,0.0015046,0,sub_12
0.0019281999999997,0.0136644000000011,0.0062086,-0.0005437999999995,0.0005280000000009,0.0010692,0,sub_12
0.0015065999999997,0.0143340000000011,0.005795,-0.0005407999999995,0.0005306000000009,0.0004282,0,sub_12
0.0019985999999997,0.0147698000000011,0.005204,-0.0001149999999995,0.0003160000000009,0.0004314,0,sub_12
0.0025365999999997,0.0152400000000011,0.0047704,0.0003134000000004,0.0007348000000009,0.0008596,0,sub_12
0.0024883999999997,0.0154374000000011,0.0051202,0.0011666000000004,0.0009384000000009,0.0015046,0,sub_12
0.0024357999999997,0.0149642000000011,0.0054688,0.0015920000000004,0.0005058000000009,0.0017202,0,sub_12
0.0030253999999997,0.0144574000000011,0.0057826,0.0018030000000004,-0.000138999999999,0.0019346,0,sub_12
0.0032773999999997,0.0141432000000011,0.006135,0.0015892000000004,-0.000356199999999,0.0021454,0,sub_12
0.0029623999999997,0.0138336000000011,0.0065622,0.0015882000000004,-0.000781399999999,0.0019322,0,sub_12
0.0034543999999997,0.0137760000000011,0.0064592,0.0011642000000004,-0.000565199999999,0.0015018,0,sub_12
0.0030833999999997,0.0137692000000011,0.0059424,0.0011662000000004,-0.000351199999999,0.0012878,0,sub_12
0.0025085999999997,0.0139266000000011,0.006126,0.0005246000000004,-0.000350799999999,0.0012804,0,sub_12
0.0023631999999997,0.0139206000000011,0.005789,9.440000000043205e-05,-0.000989599999999,0.0010616,0,sub_12
0.0023587999999997,0.0142872000000011,0.0053728,9.100000000043204e-05,-0.001417599999999,0.0010592,0,sub_12
0.0022789999999997,0.0143404000000011,0.0053046,0.0005152000000004,-0.002058399999999,0.0006326,0,sub_12
0.0028819999999997,0.0146458000000011,0.005766,0.0002992000000004,-0.002272599999999,0.0006284,0,sub_12
0.0032669999999997,0.0145926000000011,0.0054638,9.0600000000432e-05,-0.001418799999999,0.0004122,0,sub_12
0.0031035999999997,0.0145390000000011,0.005252,-0.0001179999999995,-0.000352599999999,0.0004094,0,sub_12
0.0030263999999997,0.0146452000000011,0.0053478,0.0003098000000004,-0.000140999999999,0.0004122,0,sub_12
0.0023411999999997,0.0147662000000011,0.0049414,0.0011546000000004,-0.000573999999999,0.0010522,0,sub_12
0.0019985999999997,0.0144996000000011,0.0044198,0.0022128000000004,-0.001007799999999,0.0016938,0,sub_12
0.0022487999999997,0.0143290000000011,0.0048252,0.0034844000000004,-0.001654599999999,0.0021234,0,sub_12
0.0022287999999997,0.0139380000000011,0.005211,0.0043332000000004,-0.002084199999999,0.0019088,0,sub_12
0.0024821999999997,0.0132762000000011,0.0050994,0.0036948000000004,-0.001653799999999,0.0010418,0,sub_12
0.0030941999999997,0.0129854000000011,0.0056794,0.0015746000000004,6.320000000095191e-05,-0.0002569999999999,0,sub_12
0.0037079999999997,0.0133372000000011,0.0060976,-0.0005485999999995,0.0005044000000009,-0.0021951999999999,0,sub_12
0.0033065999999997,0.0138540000000011,0.0053564,-0.0033109999999995,0.0011610000000009,-0.0041381999999999,0,sub_12
0.0036751999999997,0.0148766000000011,0.0054206,-0.0054421999999995,0.0018128000000009,-0.0056579999999999,0,sub_12
0.0037097999999997,0.0150618000000011,0.0057268,-0.0058699999999995,0.0020308000000009,-0.0067381999999999,0,sub_12
0.0038065999999997,0.0154374000000011,0.0060174,-0.0054529999999995,0.0013894000000009,-0.0067431999999999,0,sub_12
0.0033033999999997,0.0161616000000012,0.0051824,-0.0043987999999995,0.0013798000000009,-0.0054625999999999,0,sub_12
0.0036799999999997,0.0171590000000011,0.0056178,-0.0014309999999995,0.0009330000000009,-0.0030997999999999,0,sub_12
0.0028307999999997,0.0175968000000012,0.0060332,0.0017552000000004,0.0002724000000009,-0.0005129999999999,0,sub_12
0.0017115999999997,0.0168488000000011,0.005701,0.0036602000000004,-0.001021199999999,0.0016384,0,sub_12
0.0012275999999997,0.0155374000000011,0.0049018,0.0047212000000004,-0.001242399999999,0.0027144,0,sub_12
0.0008657999999997,0.0140312000000011,0.0058352,0.0042872000000004,-0.001030399999999,0.0031302,0,sub_12
0.0010021999999997,0.0126584000000011,0.0056508,0.0025806000000004,4.180000000095201e-05,0.0026814,0,sub_12
0.0013539999999997,0.0116074000000011,0.0054254,0.0004510000000004,0.0015432000000009,0.0018018,0,sub_12
0.0020419999999997,0.0123524000000011,0.0061672,-0.0012557999999995,0.0026154000000009,0.001353,0,sub_12
0.0020479999999997,0.0132178000000011,0.0064994,-0.0016879999999995,0.0021926000000009,0.0007014,0,sub_12
0.0024651999999997,0.0139778000000011,0.006275,-0.0010459999999995,0.0013434000000009,-0.0005749999999999,0,sub_12
0.0022449999999997,0.0144256000000011,0.0063762,2.0800000000432364e-05,0.0002788000000009,-0.0016343999999999,0,sub_12
0.0021705999999997,0.0148242000000011,0.0066428,0.0008696000000004,-0.001425999999999,-0.0022671999999999,0,sub_12
0.0024439999999997,0.0154240000000011,0.005666,0.0006468000000004,-0.002062599999999,-0.0022765999999999,0,sub_12
0.0025651999999997,0.0157720000000011,0.0058412,0.0006394000000004,-0.001637199999999,-0.0016449999999999,0,sub_12
0.0028409999999997,0.0152684000000011,0.0059828,0.0006318000000004,-0.000787399999999,-0.0005865999999999,0,sub_12
0.0028111999999997,0.0144502000000011,0.0058874,-1.8599999999567595e-05,-0.000998999999999,4.12000000000451e-05,0,sub_12
0.0030237999999997,0.0143088000000011,0.0057018,-0.0004509999999995,-0.000145999999999,0.0006692,0,sub_12
0.0031759999999997,0.0135134000000011,0.0063072,0.0001902000000004,0.0004892000000009,0.0011,0,sub_12
0.0022753999999997,0.0140414000000011,0.0056748,0.0006160000000004,0.0004868000000009,0.0013166,0,sub_12
0.0013121999999997,0.0148766000000011,0.0049376,0.0018886000000004,-0.000797799999999,0.0017544,0,sub_12
0.0010211999999997,0.0154702000000011,0.0043328,0.0033764000000004,-0.001656999999999,0.0021932,0,sub_12
0.0005871999999997,0.0148918000000011,0.0044314,0.0048602000000004,-0.002086599999999,0.0026236,0,sub_12
0.0003307999999997,0.0143046000000011,0.004065,0.0048560000000004,-0.001656999999999,0.0026152,0,sub_12
0.0011531999999997,0.0129854000000011,0.0044242,0.0039982000000004,-0.001436599999999,0.0023874,0,sub_12
0.0017755999999997,0.0123096000000011,0.0048488,0.0014394000000004,-0.000144199999999,0.0019326,0,sub_12
0.0018547999999997,0.0124128000000011,0.0059272,-0.0006917999999995,0.0011476000000009,0.0012672,0,sub_12
0.0023801999999997,0.0133722000000011,0.0058588,-0.0021835999999995,0.0007300000000009,0.0004026,0,sub_12
0.0027033999999997,0.0144742000000011,0.0066238,-0.0015453999999995,-0.000334999999999,-0.0002325999999999,0,sub_12
0.0031037999999997,0.0152404000000011,0.0067122,-0.0006927999999995,-0.000763199999999,-0.0004397999999999,0,sub_12
0.0031377999999997,0.0155194000000012,0.006537,0.0001562000000004,-0.001402399999999,-0.0004331999999999,0,sub_12
0.0032851999999997,0.0154740000000011,0.006066,0.0010044000000004,-0.001830399999999,4.000000000450692e-07,0,sub_12
0.0030759999999997,0.0152612000000011,0.0061758,0.0010048000000004,-0.001189199999999,0.000213,0,sub_12
0.0026947999999997,0.0148098000000011,0.0053444,-0.0002739999999995,-0.000542599999999,0.0002032,0,sub_12
0.0022031999999997,0.0146946000000011,0.005559,-0.0013423999999995,-0.000323799999999,0.0004088,0,sub_12
0.0021697999999997,0.0145286000000011,0.0053356,-0.0017631999999995,0.0003194000000009,-0.0002359999999999,0,sub_12
0.0019943999999997,0.0145614000000011,0.0052296,-0.0021859999999995,0.0009610000000009,-0.0004533999999999,0,sub_12
0.0019561999999997,0.0145580000000011,0.0045654,-0.0023991999999995,0.0011740000000009,-0.0002413999999999,0,sub_12
0.0017427999999997,0.0146464000000011,0.0045734,-0.0024011999999995,0.0009644000000009,-0.0004533999999999,0,sub_12
0.0016285999999997,0.0145462000000011,0.0044728,-0.0017599999999995,0.0009674000000009,-0.0010883999999999,0,sub_12
0.0016413999999997,0.0147030000000011,0.0046522,-0.0013333999999995,0.0013946000000009,-0.0010843999999999,0,sub_12
0.0016993999999997,0.0148272000000011,0.0051018,-0.0006951999999995,0.0013950000000009,-0.0010785999999999,0,sub_12
0.0008765999999998,0.0147216000000011,0.0055712,-0.0002741999999995,0.0007562000000009,-0.0008597999999999,0,sub_12
0.0011887999999998,0.0146920000000011,0.0055512,0.0001478000000004,0.0003260000000009,-0.0002153999999999,0,sub_12
0.0017607999999998,0.0147380000000011,0.0053398,0.0001448000000004,0.0001112000000009,0.0002122,0,sub_12
0.0022469999999998,0.0142782000000011,0.0056698,-7.099999999954781e-05,0.0005372000000009,0.0008534,0,sub_12
0.0025935999999998,0.0138110000000011,0.0058558,-0.0009259999999995,0.0011784000000009,0.00149,0,sub_12
0.0039849999999997,0.0139832000000011,0.0059002,-0.0019925999999995,0.0018220000000009,0.0016976,0,sub_12
0.0040329999999997,0.0142018000000011,0.0062418,-0.0024189999999995,0.0024634000000009,0.0019098,0,sub_12
0.0036711999999997,0.0143884000000011,0.0065538,-0.0017811999999995,0.0024620000000009,0.0021302,0,sub_12
0.0028339999999997,0.0150076000000011,0.0059096,-0.0007239999999995,0.0003276000000009,0.0021402,0,sub_12
0.0023319999999997,0.0146536000000011,0.0049522,0.0007638000000004,-0.001168199999999,0.0019388,0,sub_12
0.0017813999999997,0.0142182000000011,0.0046284,0.0026842000000004,-0.001387199999999,0.001739,0,sub_12
0.0015711999999997,0.0135296000000011,0.004701,0.0033226000000004,-0.001172799999999,0.0015288,0,sub_12
0.0009837999999997,0.0129550000000011,0.0043146,0.0018280000000004,-0.000737999999999,0.0013036,0,sub_12
0.0012499999999997,0.0125720000000011,0.0049446,0.0005518000000004,0.0005494000000009,0.0008652,0,sub_12
0.0011117999999997,0.0134434000000011,0.0055202,-0.0007283999999995,0.0009846000000009,0.0004278,0,sub_12
0.0012107999999997,0.0140658000000011,0.0052542,-0.0020113999999995,0.0005684000000009,-0.0002221999999999,0,sub_12
0.0011983999999997,0.0146708000000011,0.0049614,-0.0017989999999995,0.0001424000000009,-0.0004337999999999,0,sub_12
0.0017177999999997,0.0148498000000011,0.00495,-0.0009443999999995,0.0003526000000009,-0.0004281999999999,0,sub_12
0.0013205999999997,0.0151018000000011,0.004479,-9.479999999956796e-05,-7.819999999904798e-05,5.6000000000451085e-06,0,sub_12
0.0013387999999997,0.0152866000000011,0.0046486,0.0005394000000004,-8.019999999904799e-05,0.0006488,0,sub_12
0.0010845999999997,0.0149552000000011,0.0051416,0.0015964000000004,-0.000935799999999,0.001296,0,sub_12
0.0015843999999997,0.0147322000000011,0.0053658,0.0018046000000004,-0.001147599999999,0.0015092,0,sub_12
0.0019091999999997,0.0147528000000011,0.0061332,0.0022272000000004,-0.000934999999999,0.001937,0,sub_12
0.0029899999999997,0.0148770000000011,0.0064778,0.0024366000000004,-0.001358199999999,0.0017232,0,sub_12
0.0033555999999997,0.0142904000000011,0.0064346,0.0028642000000004,-0.001570999999999,0.0012992,0,sub_12
0.0034749999999997,0.0144048000000011,0.0065064,0.0028690000000004,-0.000505799999999,0.0012978,0,sub_12
0.0029249999999997,0.0145712000000011,0.0061948,0.0030806000000004,-0.000508199999999,0.0017266,0,sub_12
0.0023855999999997,0.0141956000000011,0.0051438,0.0026500000000004,-0.001358799999999,0.0017248,0,sub_12
0.0014469999999997,0.0135724000000011,0.0051064,0.0026548000000004,-0.000504999999999,0.001722,0,sub_12
0.0012619999999997,0.0130506000000011,0.0048048,0.0022338000000004,0.0003510000000009,0.0015026,0,sub_12
0.0008697999999997,0.0132396000000011,0.004298,0.0018080000000004,0.0003540000000009,0.001498,0,sub_12
0.0013985999999997,0.0131692000000011,0.0041006,0.0007440000000004,0.0007854000000009,0.0014882,0,sub_12
0.0018047999999997,0.0141520000000011,0.0042486,0.0003230000000004,0.0016414000000009,0.0012686,0,sub_12
0.0025085999999997,0.0146584000000011,0.004639,-0.0003171999999995,0.0018558000000009,0.0014774,0,sub_12
0.0026701999999997,0.0155554000000011,0.005228,-0.0009553999999995,0.0020720000000009,0.001259,0,sub_12
0.0033837999999997,0.0151840000000011,0.0054504,-0.0013811999999995,0.0020744000000009,0.0010424,0,sub_12
0.0027439999999997,0.0149980000000012,0.0061146,-0.0005237999999995,0.0018594000000009,0.0006198,0,sub_12
0.0023059999999997,0.0145798000000011,0.0064958,0.0007556000000004,0.0012144000000009,0.0008416,0,sub_12
0.0016373999999997,0.0148122000000011,0.0056314,0.0024608000000004,0.0003548000000009,0.0010666,0,sub_12
0.0016059999999997,0.0142662000000011,0.0052066,0.0041632000000004,-0.000719599999999,0.0017192,0,sub_12
0.0011327999999997,0.0137668000000011,0.0054014,0.0048064000000004,-0.000297999999999,0.0021488,0,sub_12
0.0013445999999997,0.0136200000000011,0.0051838,0.0041682000000004,0.0005548000000009,0.0025706,0,sub_12
0.0013647999999997,0.0137172000000011,0.0048392,0.0024632000000004,0.0009868000000009,0.0025582,0,sub_12
0.0014143999999997,0.0130096000000011,0.0048678,0.0001228000000004,0.0018478000000009,0.0023238,0,sub_12
0.0011885999999997,0.0129508000000011,0.0047708,-0.0015783999999995,0.0027058000000009,0.0023074,0,sub_12
0.0014265999999997,0.0131550000000011,0.0044332,-0.0022165999999995,0.0024956000000009,0.0020862,0,sub_12
0.0015811999999997,0.0138184000000011,0.0043072,-0.0024289999999995,0.0022832000000009,0.0020816,0,sub_12
0.0013029999999997,0.0139566000000011,0.0045734,-0.0019993999999995,0.0027068000000009,0.0022944,0,sub_12
0.0008919999999997,0.0145166000000011,0.0050802,-0.0013611999999995,0.0024908000000009,0.0025128,0,sub_12
0.0009177999999997,0.0150574000000011,0.0051208,-0.0009353999999995,0.0022762000000009,0.002516,0,sub_12
0.0007215999999997,0.0153998000000011,0.005372,-0.0007201999999995,0.0022772000000009,0.0020902,0,sub_12
0.0011905999999997,0.0151396000000011,0.0057448,-0.0005073999999995,0.0016388000000009,0.001662,0,sub_12
0.0025195999999997,0.0148512000000011,0.0058742,-7.919999999956788e-05,0.0012136000000009,0.0010214,0,sub_12
0.0031225999999997,0.0150480000000011,0.0064008,-0.0002891999999995,0.0016410000000009,0.0008024,0,sub_12
0.0035289999999997,0.0150382000000011,0.0062208,-0.0005021999999995,0.0012172000000009,0.000371,0,sub_12
0.0037357999999997,0.0153678000000011,0.0065438,-0.0007159999999995,0.0005802000000009,-6.019999999995495e-05,0,sub_12
0.0033751999999997,0.0153884000000011,0.0066198,-0.0007129999999995,0.0010070000000009,-0.0002743999999999,0,sub_12
0.0025839999999997,0.0152342000000011,0.0065264,-0.0013511999999995,0.0014352000000009,-0.0002793999999999,0,sub_12
0.0022289999999997,0.0141846000000011,0.0059118,-0.0022037999999995,0.0018634000000009,-7.219999999997498e-05,0,sub_12
0.0013637999999997,0.0137018000000011,0.0053634,-0.0034871999999995,0.0025072000000009,0.0001248,0,sub_12
0.0018107999999997,0.0133986000000011,0.0040466,-0.0054057999999995,0.0037942000000009,-0.0001105999999999,0,sub_12
0.0021953999999997,0.0133616000000011,0.0038982,-0.0066805999999995,0.0052946000000009,-0.0009827999999999,0,sub_12
0.0026787999999997,0.0136798000000011,0.004725,-0.0066789999999995,0.0059382000000009,-0.0018449999999999,0,sub_12
0.0033723999999997,0.0146812000000011,0.0053914,-0.0058295999999995,0.0053006000000009,-0.0026995999999999,0,sub_12
0.0040817999999997,0.0152098000000011,0.0063966,-0.0051883999999995,0.0050870000000009,-0.0031219999999999,0,sub_12
0.0028291999999997,0.0155500000000011,0.0073806,-0.0032747999999995,0.0044376000000009,-0.0022531999999999,0,sub_12
0.0015449999999997,0.0160408000000011,0.0064676,-0.0017965999999995,0.0027210000000009,-0.0005313999999999,0,sub_12
0.0004259999999997,0.0159932000000011,0.0048628,-0.0005335999999995,0.0016436000000009,0.0009658,0,sub_12
-0.0003202000000002,0.0154184000000011,0.0041482,0.0001008000000004,0.0031248000000008,0.0024556,0,sub_12
-0.0001916000000002,0.0148174000000011,0.0043554,0.0007352000000004,0.0046060000000009,0.0039452,0,sub_12
0.0010257999999997,0.0146660000000011,0.0046804,9.120000000043224e-05,0.0060936000000009,0.0049984,0,sub_12
0.0019145999999997,0.0139646000000011,0.0056684,-0.0009793999999995,0.0071582000000009,0.005622,0,sub_12
0.0024135999999997,0.0135386000000011,0.0064032,-0.0022615999999995,0.0073730000000009,0.0062538,0,sub_12
0.0027459999999997,0.0140518000000011,0.0062088,-0.0029073999999995,0.0058848000000009,0.0060374,0,sub_12
0.0017781999999997,0.0145672000000011,0.0048838,-0.0026969999999995,0.0046084000000009,0.0053996,0,sub_12
0.0006457999999997,0.0137728000000011,0.0038972,-0.0014265999999995,0.0035368000000009,0.0049722,0,sub_12
-0.0003894000000002,0.0138170000000011,0.0034124,0.0002724000000004,0.0026778000000009,0.0043338,0,sub_12
-0.0003502000000001,0.0139614000000011,0.0026068,0.0011198000000004,0.0024600000000009,0.0039022,0,sub_12
0.0003097999999998,0.0135318000000011,0.0027868,0.0011186000000004,0.0037348000000009,0.0038902,0,sub_12
0.0012357999999997,0.0132766000000011,0.0036878,4.860000000045228e-05,0.0050116000000009,0.0042978,0,sub_12
0.0015203999999997,0.0136554000000011,0.0045052,-0.0018717999999995,0.0050182000000009,0.0042844,0,sub_12
0.0025545999999997,0.0138918000000011,0.004365,-0.0033625999999995,0.0046014000000009,0.0032062,0,sub_12
0.0023379999999997,0.0144068000000011,0.0054716,-0.0035787999999995,0.0029020000000009,0.0021386,0,sub_12
0.0021751999999997,0.0144898000000011,0.005801,-0.0029467999999995,-8.35999999990086e-05,0.0004268,0,sub_12
0.0025383999999997,0.0140536000000011,0.0066682,-0.0018879999999995,-0.003494999999999,-0.0017085999999999,0,sub_12
0.0030985999999997,0.0139770000000011,0.0069226,-0.0006117999999995,-0.005630599999999,-0.0034169999999999,0,sub_12
0.0043341999999997,0.0136790000000011,0.0073572,-0.0008281999999995,-0.006911199999999,-0.0044957999999999,0,sub_12
0.0055655999999997,0.0137606000000011,0.0073186,-0.0020981999999995,-0.005629799999999,-0.0060125999999999,0,sub_12
0.0055671999999997,0.0143998000000011,0.007377,-0.0023085999999995,-0.005201999999999,-0.0062281999999999,0,sub_12
0.0052755999999997,0.0154772000000011,0.0068896,-0.0016749999999995,-0.006058999999999,-0.0055817999999999,0,sub_12
0.0037461999999998,0.0152698000000011,0.0064084,-0.0010397999999995,-0.006489799999999,-0.0049357999999999,0,sub_12
0.0007567999999998,0.0156902000000011,0.0051878,-0.0004031999999995,-0.006297799999999,-0.0030131999999999,0,sub_12
-0.0018238000000001,0.0152256000000011,0.0040792,0.0002258000000004,-0.006749199999999,-2.1399999999955136e-05,0,sub_12
-0.0028110000000001,0.0147038000000011,0.0027132,-0.0006283999999995,-0.005276399999999,0.0025302,0,sub_12
-0.0042468000000001,0.0143622000000011,0.0015632,-0.0018939999999995,-0.001029799999999,0.0044344,0,sub_12
-0.0035598000000001,0.0149620000000011,0.0009212,-0.0025241999999995,0.0019372000000009,0.006131,0,sub_12
-0.0019684000000002,0.0143790000000011,0.002297,-0.0018793999999995,0.0032124000000009,0.0063476,0,sub_12
-5.820000000023289e-05,0.0140646000000011,0.00334,-0.0010201999999995,0.0030022000000009,0.0048582,0,sub_12
0.0004587999999997,0.0140786000000011,0.0045188,-0.0001655999999995,0.0015148000000009,0.0031568,0,sub_12
0.0024057999999997,0.0135692000000011,0.0051784,0.0004816000000004,-0.001052999999999,0.0012404,0,sub_12
0.0034959999999997,0.0135102000000011,0.0057306,0.0002812000000004,-0.002127399999999,-0.0004701999999999,0,sub_12
0.0036509999999997,0.0144174000000011,0.0061736,8.18000000004325e-05,-0.001927799999999,-0.0011141999999999,0,sub_12
0.0037407999999997,0.0153720000000011,0.0060064,0.0005166000000004,-0.001735399999999,-0.0004719999999999,0,sub_12
0.0042859999999997,0.0153792000000011,0.0063792,0.0009514000000004,-0.001755399999999,-4.319999999997485e-05,0,sub_12
0.0041445999999997,0.0160306000000011,0.0067838,0.0005218000000004,-0.001544399999999,0.000808,0,sub_12
0.0041439999999997,0.0161330000000011,0.0071992,0.0011562000000004,-0.002188399999999,0.0014542,0,sub_12
0.0039959999999997,0.0157990000000011,0.0058594,0.0013648000000004,-0.002829999999999,0.0018836,0,sub_12
0.0030975999999997,0.0152072000000011,0.005574,0.0013728000000004,-0.002852399999999,0.0020874,0,sub_12
0.0017289999999997,0.0152460000000011,0.004747,0.0009550000000004,-0.002447799999999,0.0025012,0,sub_12
-0.0001520000000002,0.0142236000000011,0.0037946,0.0007554000000004,-0.001615399999999,0.002275,0,sub_12
-0.0013568000000002,0.0139948000000011,0.0025746,-0.0002967999999995,-0.000354799999999,0.0022558,0,sub_12
-0.0021828000000002,0.0133500000000011,0.0025128,-0.0011347999999995,0.0006938000000009,0.0018114,0,sub_12
-0.0018884000000002,0.0137466000000011,0.0021784,-0.0019843999999995,0.0013368000000009,0.001591,0,sub_12
-0.0009496000000002,0.0139118000000011,0.0023522,-0.0019787999999995,0.0021906000000009,0.0011628,0,sub_12
0.0009375999999997,0.0144644000000011,0.0032178,-0.0015529999999995,0.0021884000000009,0.0013794,0,sub_12
