userAcceleration.x,userAcceleration.y,userAcceleration.z,rotationRate.x,rotationRate.y,rotationRate.z,label,subject
0.0021299999999998,0.0038270000000012,-0.0031955999999998,-0.0002661999999996,-0.003495599999999,-0.0029905999999998,0,sub_16
0.0020043999999998,0.0034134000000012,-0.0035957999999998,-0.0002623999999996,-0.002006799999999,-0.0023513999999998,0,sub_16
0.0020179999999998,0.0029882000000012,-0.0036855999999998,-0.0006863999999996,-0.000941799999999,-0.0019283999999998,0,sub_16
0.0019427999999998,0.0030506000000012,-0.0036001999999998,-0.0013245999999996,-0.000301199999999,-0.0017199999999998,0,sub_16
0.0017915999999998,0.0027148000000012,-0.0044051999999999,-0.0011139999999996,-0.000512599999999,-0.0012875999999998,0,sub_16
0.0021599999999998,0.0028518000000012,-0.0052523999999999,-0.0004785999999996,-0.001151799999999,-0.0008517999999998,0,sub_16
0.0025463999999998,0.0030856000000012,-0.0046803999999999,0.0001588000000003,-0.002213599999999,-0.0012699999999998,0,sub_16
0.0015921999999998,0.0032160000000012,-0.0045153999999999,0.0010076000000003,-0.003065599999999,-0.0010459999999998,0,sub_16
0.0011501999999998,0.0032672000000012,-0.0047393999999999,0.0016468000000003,-0.002852599999999,-0.0006111999999998,0,sub_16
0.0007877999999998,0.0034202000000012,-0.0046117999999999,0.0020736000000003,-0.002854199999999,-0.0006081999999998,0,sub_16
0.0005561999999998,0.0033250000000012,-0.0045363999999999,0.0022878000000003,-0.002641799999999,-0.0006067999999998,0,sub_16
0.0005673999999998,0.0031694000000012,-0.0051429999999999,0.0016418000000003,-0.002416999999999,-0.0001783999999998,0,sub_16
0.0011639999999998,0.0033780000000012,-0.0049545999999999,0.0012112000000003,-0.002191399999999,-0.0001757999999998,0,sub_16
0.0014607999999998,0.0036374000000012,-0.0046235999999998,0.0009948000000003,-0.002177799999999,-0.0005987999999998,0,sub_16
0.0016367999999998,0.0037674000000012,-0.0043419999999998,0.0009908000000003,-0.001953599999999,-0.0005931999999998,0,sub_16
0.0019325999999998,0.0038970000000012,-0.0041311999999998,0.0009878000000003,-0.001304199999999,-0.0003745999999998,0,sub_16
0.0022115999999997,0.0037752000000012,-0.0039863999999998,0.0009878000000003,-0.000879799999999,5.220000000014185e-05,0,sub_16
0.0023791999999997,0.0039414000000012,-0.0040259999999998,0.0007734000000003,-0.000879799999999,0.0002644000000001,0,sub_16
0.0024143999999997,0.0036460000000012,-0.0040401999999998,0.0003410000000003,-0.001307799999999,0.0011166000000001,0,sub_16
0.0023565999999998,0.0034612000000012,-0.0040199999999998,-0.0003045999999996,-0.001291199999999,0.0011180000000001,0,sub_16
0.0024889999999998,0.0031568000000012,-0.0040459999999998,-0.0007387999999996,-0.001701399999999,0.0011214000000001,0,sub_16
0.0017253999999998,0.0033308000000012,-0.0035079999999998,-0.0009539999999996,-0.001470599999999,0.0004846000000001,0,sub_16
0.0014789999999998,0.0034494000000012,-0.0033923999999998,-0.0011691999999996,-0.001027599999999,6.120000000012183e-05,0,sub_16
0.0012479999999998,0.0036128000000012,-0.0032029999999998,-0.0003137999999996,-0.000372799999999,-0.0009959999999998,0,sub_16
0.0014283999999998,0.0032602000000012,-0.0036263999999999,0.0001138000000003,5.100000000093502e-05,-0.0007797999999998,0,sub_16
0.0011983999999998,0.0033902000000012,-0.0036865999999999,-0.0003119999999996,0.0002656000000009,-0.0007829999999998,0,sub_16
0.0010467999999998,0.0031644000000011,-0.0042425999999999,-0.0003127999999996,0.0002648000000009,-0.0005693999999998,0,sub_16
0.0014393999999998,0.0032444000000012,-0.0048673999999999,0.0001100000000003,0.0009168000000009,-0.0003479999999998,0,sub_16
0.0010655999999998,0.0034354000000011,-0.0050923999999999,0.0001060000000003,0.0017826000000009,8.380000000012187e-05,0,sub_16
0.0013469999999998,0.0042672000000011,-0.0047155999999999,-0.0001121999999996,0.0017994000000009,-0.0001257999999998,0,sub_16
0.0017773999999998,0.0044042000000011,-0.0042529999999999,0.0005230000000003,0.0013888000000009,-0.0007561999999998,0,sub_16
0.0025017999999998,0.0045182000000012,-0.0037821999999999,0.0007284000000003,0.0005526000000009,-0.0011753999999998,0,sub_16
0.0027857999999998,0.0040998000000012,-0.0034953999999999,0.0009398000000003,-0.000510999999999,-0.0018135999999998,0,sub_16
0.0032315999999998,0.0037054000000012,-0.0035427999999999,0.0002968000000003,-0.001572399999999,-0.0022439999999998,0,sub_16
0.0026757999999998,0.0030938000000012,-0.0038427999999999,8.440000000035945e-05,-0.001570799999999,-0.0024591999999998,0,sub_16
0.0020187999999998,0.0028716000000012,-0.0038657999999998,-0.0007699999999996,-0.000702399999999,-0.0022443999999998,0,sub_16
0.0016893999999998,0.0030160000000012,-0.0042705999999998,-0.0014089999999996,0.0005914000000009,-0.0020285999999998,0,sub_16
0.0010199999999998,0.0028512000000012,-0.0043097999999998,-0.0018373999999996,0.0014576000000009,-0.0015971999999998,0,sub_16
0.0010015999999998,0.0029116000000012,-0.0041225999999998,-0.0016275999999996,0.0014710000000009,-0.0015875999999998,0,sub_16
0.0013313999999998,0.0030618000000012,-0.0040601999999998,-0.0012113999999996,0.0002044000000009,-0.0013611999999998,0,sub_16
0.0017927999999998,0.0030752000000012,-0.0041615999999998,6.220000000033942e-05,-0.001291399999999,-0.0013503999999998,0,sub_16
0.0017469999999998,0.0026208000000012,-0.0040919999999998,0.0011244000000003,-0.002360399999999,-0.0013415999999998,0,sub_16
0.0017987999999998,0.0026404000000012,-0.0042247999999998,0.0017596000000003,-0.003215799999999,-0.0011223999999998,0,sub_16
0.0016859999999998,0.0027074000000012,-0.0050807999999998,0.0023940000000003,-0.004071999999999,-0.0006895999999998,0,sub_16
0.0013133999999998,0.0030160000000011,-0.0046289999999998,0.0028200000000003,-0.003418799999999,-0.0008929999999998,0,sub_16
0.0009831999999998,0.0030482000000011,-0.0053535999999998,0.0026038000000003,-0.002977399999999,-0.0008869999999998,0,sub_16
0.0011613999999998,0.0037786000000012,-0.0051545999999998,0.0023846000000003,-0.003174999999999,-0.0008801999999998,0,sub_16
0.0014985999999998,0.0045492000000012,-0.0049931999999998,0.0019542000000003,-0.003157799999999,-0.0010887999999998,0,sub_16
0.0013473999999998,0.0046540000000012,-0.0046827999999999,0.0013132000000003,-0.002288599999999,-0.0010861999999998,0,sub_16
0.0016269999999998,0.0042204000000012,-0.0046559999999999,0.0010998000000003,-0.001863399999999,-0.0006609999999998,0,sub_16
0.0017957999999998,0.0044006000000012,-0.0042841999999999,0.0008846000000003,-0.001227599999999,0.0004050000000001,0,sub_16
0.0019457999999998,0.0035392000000012,-0.0046255999999999,0.0004588000000003,-0.000164199999999,0.0012552000000001,0,sub_16
0.0024069999999998,0.0027018000000012,-0.0040007999999999,2.7200000000359403e-05,0.0004852000000009,0.0021120000000001,0,sub_16
0.0028833999999998,0.0025280000000012,-0.0034603999999999,-0.0001921999999996,0.0007086000000009,0.0027570000000001,0,sub_16
0.0028481999999998,0.0024396000000012,-0.0033859999999999,-0.0006239999999996,0.0009336000000009,0.0031870000000001,0,sub_16
0.0030127999999998,0.0020354000000012,-0.0032753999999999,-0.0006231999999996,0.0015866000000009,0.0027648000000001,0,sub_16
0.0028947999999998,0.0025246000000012,-0.0030805999999999,1.6800000000359452e-05,0.0020244000000009,0.0023474000000001,0,sub_16
0.0022599999999998,0.0030056000000012,-0.0030593999999999,0.0004464000000003,0.0026620000000009,0.0023496000000001,0,sub_16
0.0019861999999998,0.0033494000000012,-0.0035571999999999,0.0002370000000003,0.0035150000000009,0.0023472,0,sub_16
0.0020713999999998,0.0038516000000012,-0.0037933999999999,2.5400000000359424e-05,0.0041628000000008,0.0021364,0,sub_16
0.0021301999999998,0.0043458000000012,-0.0041183999999999,2.600000000035944e-05,0.0048090000000008,0.0021408,0,sub_16
0.0022449999999998,0.0045958000000012,-0.0040419999999999,2.5800000000359437e-05,0.0052420000000009,0.0021454,0,sub_16
0.0019899999999998,0.0045918000000012,-0.0044609999999999,0.0006666000000003,0.0056738000000009,0.0019408,0,sub_16
0.0020919999999998,0.0048098000000012,-0.0040661999999999,0.0004490000000003,0.0054676000000009,0.0021582000000001,0,sub_16
0.0018067999999998,0.0052926000000012,-0.0043627999999999,1.8400000000359447e-05,0.0048292000000009,0.0023698000000001,0,sub_16
0.0015919999999998,0.0051794000000012,-0.0043219999999999,-0.0008397999999996,0.0035548000000009,0.0021518000000001,0,sub_16
0.0014445999999997,0.0046320000000012,-0.0047209999999999,-0.0014827999999996,0.0027058000000009,0.0019348000000001,0,sub_16
0.0017819999999997,0.0040688000000012,-0.0045915999999999,-0.0023385999999996,0.0022880000000009,0.0017228000000001,0,sub_16
0.0017577999999997,0.0033620000000012,-0.0044191999999999,-0.0021207999999996,0.0029336000000009,0.0010898000000001,0,sub_16
0.0019407999999997,0.0028140000000012,-0.0039893999999999,-0.0023287999999996,0.0042178000000009,0.0008802000000001,0,sub_16
0.0015219999999997,0.0028176000000012,-0.0037745999999999,-0.0023223999999996,0.0059266000000009,0.0008852000000001,0,sub_16
0.0013775999999998,0.0035150000000012,-0.0038299999999999,-0.0023207999999996,0.0067824000000009,0.0011048000000001,0,sub_16
0.0013415999999998,0.0042798000000012,-0.0040061999999999,-0.0023207999999996,0.0067824000000009,0.0011048000000001,0,sub_16
0.0014633999999998,0.0048132000000012,-0.0041175999999998,-0.0018987999999996,0.0057156000000009,0.0011090000000001,0,sub_16
0.0015779999999998,0.0047464000000012,-0.0044949999999998,-0.0008367999999996,0.0042224000000009,0.0006910000000001,0,sub_16
0.0019907999999998,0.0045212000000012,-0.0047219999999998,6.800000000379419e-06,0.0027336000000009,0.0009202000000001,0,sub_16
0.0018299999999998,0.0040332000000012,-0.0047639999999998,0.0002142000000003,0.0020992000000009,0.0011440000000001,0,sub_16
0.0014895999999998,0.0042096000000012,-0.0050271999999998,0.0004216000000003,0.0016770000000009,0.0015810000000001,0,sub_16
0.0011209999999998,0.0038928000000012,-0.0054537999999999,0.0006310000000003,0.0014686000000009,0.0018042000000001,0,sub_16
0.0008225999999998,0.0032932000000012,-0.0053561999999999,0.0004136000000003,0.0014738000000009,0.0022376000000001,0,sub_16
0.0008435999999998,0.0030042000000012,-0.0050667999999999,-0.0004397999999996,0.0016888000000009,0.0024450000000001,0,sub_16
0.0011287999999997,0.0030544000000012,-0.0048537999999999,-0.0010809999999996,0.0016902000000009,0.0026540000000001,0,sub_16
0.0015677999999997,0.0027436000000012,-0.0044079999999998,-0.0017171999999996,0.0023324000000009,0.0024352000000001,0,sub_16
0.0016491999999997,0.0025232000000012,-0.0042643999999998,-0.0017181999999996,0.0029790000000009,0.0024388000000001,0,sub_16
0.0021489999999997,0.0027354000000012,-0.0043373999999998,-0.0015047999999996,0.0038380000000009,0.0024438000000001,0,sub_16
0.0025313999999998,0.0030666000000012,-0.0044351999999998,-0.0010799999999996,0.0044824000000009,0.0026640000000001,0,sub_16
0.0027047999999998,0.0032226000000012,-0.0042921999999998,-0.0008703999999996,0.0047012000000009,0.0028834000000001,0,sub_16
0.0027323999999998,0.0030774000000012,-0.0046873999999998,-0.0008781999999996,0.0040686000000009,0.0031022000000001,0,sub_16
0.0029023999999998,0.0031836000000011,-0.0043819999999998,-0.0019477999999996,0.0036454000000009,0.0033090000000001,0,sub_16
0.0028289999999998,0.0036934000000011,-0.0040657999999998,-0.0025887999999996,0.0034346000000009,0.0033048000000001,0,sub_16
0.0021747999999998,0.0039832000000012,-0.0038957999999998,-0.0028011999999996,0.0032240000000009,0.0028764000000001,0,sub_16
0.0023985999999998,0.0040616000000012,-0.0037921999999998,-0.0025847999999996,0.0036516000000009,0.0022342000000001,0,sub_16
0.0021997999999998,0.0038322000000012,-0.0034261999999998,-0.0021531999999996,0.0045046000000009,0.0015930000000001,0,sub_16
0.0026333999999998,0.0037432000000012,-0.0035875999999998,-0.0017235999999996,0.0053558000000009,0.0013790000000001,0,sub_16
0.0024995999999998,0.0036610000000012,-0.0043527999999998,-0.0019397999999996,0.0053554000000009,0.0015888000000001,0,sub_16
0.0026823999999998,0.0029480000000012,-0.0048359999999998,-0.0013025999999996,0.0051398000000009,0.0015912000000001,0,sub_16
0.0022547999999998,0.0026074000000012,-0.0053259999999999,-0.0010931999999996,0.0044992000000009,0.0018072000000001,0,sub_16
0.0020725999999998,0.0030982000000012,-0.0054147999999999,-0.0015275999999996,0.0036452000000009,0.0026598000000001,0,sub_16
0.0014295999999998,0.0040252000000012,-0.0053413999999998,-0.0017467999999996,0.0023678000000008,0.0026600000000001,0,sub_16
0.0015103999999998,0.0040372000000012,-0.0046379999999998,-0.0011041999999996,0.0021452000000009,0.0020176000000001,0,sub_16
0.0018715999999998,0.0041072000000012,-0.0045723999999998,-0.0015245999999996,0.0027786000000009,0.0013668000000001,0,sub_16
0.0020973999999998,0.0037078000000012,-0.0042343999999998,-0.0017323999999996,0.0036226000000008,0.0011444000000001,0,sub_16
0.0023331999999998,0.0033092000000012,-0.0042289999999998,-0.0019403999999996,0.0038300000000008,0.0002820000000001,0,sub_16
0.0021707999999998,0.0023292000000012,-0.0041925999999998,-0.0023625999999996,0.0044616000000008,5.8200000000142144e-05,0,sub_16
0.0021159999999998,0.0020340000000012,-0.0043839999999998,-0.0027883999999996,0.0044640000000008,-0.0001583999999998,0,sub_16
0.0021987999999997,0.0025362000000012,-0.0044297999999998,-0.0025777999999996,0.0040362000000008,5.720000000016218e-05,0,sub_16
0.0022095999999997,0.0030452000000012,-0.0043953999999999,-0.0021549999999996,0.0031824000000009,6.120000000016217e-05,0,sub_16
0.0024293999999998,0.0029968000000012,-0.0040973999999999,-0.0015161999999996,0.0020978000000009,0.0002738000000001,0,sub_16
0.0029271999999998,0.0028792000000012,-0.0043307999999999,-0.0004527999999996,0.0003736000000009,0.0002766000000001,0,sub_16
0.0032857999999997,0.0027946000000012,-0.0045429999999998,0.0003974000000003,-0.000925599999999,0.0007046000000001,0,sub_16
0.0029671999999998,0.0025008000000012,-0.0046273999999998,0.0008236000000003,-0.002008399999999,0.0007022000000001,0,sub_16
0.0026089999999998,0.0025362000000012,-0.0042043999999998,0.0012500000000003,-0.003091199999999,0.0006998000000001,0,sub_16
0.0025445999999998,0.0025516000000012,-0.0041321999999998,0.0014614000000003,-0.003517999999999,0.0007018000000001,0,sub_16
0.0023049999999998,0.0027902000000012,-0.0044653999999998,0.0012520000000003,-0.003301599999999,5.920000000012218e-05,0,sub_16
0.0017021999999998,0.0027894000000012,-0.0037657999999998,0.0010406000000003,-0.003511199999999,-0.0005827999999998,0,sub_16
0.0017787999999998,0.0030122000000012,-0.0030351999999998,0.0008338000000003,-0.003313599999999,-0.0005935999999998,0,sub_16
0.0020017999999998,0.0028302000000012,-0.0034885999999998,0.0004154000000003,-0.002901399999999,-0.0008197999999998,0,sub_16
0.0020001999999998,0.0026648000000012,-0.0042489999999998,0.0002104000000003,-0.002489799999999,-0.0010443999999998,0,sub_16
0.0023679999999998,0.0032294000000012,-0.0038417999999998,0.0004302000000002,-0.001869399999999,-0.0006253999999998,0,sub_16
0.0027661999999998,0.0037520000000012,-0.0043747999999998,9.000000000299567e-06,-0.001459799999999,-0.0002105999999998,0,sub_16
0.0029179999999998,0.0037318000000012,-0.0044433999999998,-0.0002061999999996,-0.001672799999999,1.8000000001422045e-06,0,sub_16
0.0031357999999998,0.0040456000000012,-0.0043973999999998,-0.0006347999999996,-0.001885199999999,0.0002128000000001,0,sub_16
0.0032703999999998,0.0041672000000012,-0.0038125999999999,-0.0008479999999996,-0.002096599999999,-1.999999999857758e-06,0,sub_16
0.0029963999999998,0.0036836000000012,-0.0040245999999999,-0.0006261999999996,-0.002540599999999,-0.0004377999999998,0,sub_16
0.0029753999999998,0.0032950000000012,-0.0035715999999999,-0.0001901999999996,-0.002772199999999,-0.0008723999999998,0,sub_16
0.0025115999999998,0.0035482000000012,-0.0034211999999999,-0.0001799999999996,-0.002789399999999,-0.0013101999999998,0,sub_16
0.0022093999999998,0.0037854000000012,-0.0034641999999999,0.0002570000000003,-0.002807999999999,-0.0017451999999998,0,sub_16
0.0019475999999998,0.0037328000000012,-0.0042863999999999,0.0009074000000003,-0.002615399999999,-0.0019651999999998,0,sub_16
0.0023243999999998,0.0032612000000012,-0.0043253999999999,0.0013342000000003,-0.002828999999999,-0.0021755999999998,0,sub_16
0.0023361999999998,0.0032508000000012,-0.0048427999999999,0.0019734000000003,-0.002832199999999,-0.0019575999999998,0,sub_16
0.0019453999999998,0.0034108000000012,-0.0054191999999999,0.0019696000000003,-0.003472199999999,-0.0017431999999998,0,sub_16
0.0021635999999998,0.0033708000000012,-0.0051949999999999,0.0017552000000003,-0.004108999999999,-0.0021711999999998,0,sub_16
0.0018155999999998,0.0037176000000012,-0.0042501999999999,0.0017622000000003,-0.004555199999999,-0.0023943999999998,0,sub_16
0.0015669999999998,0.0039378000000012,-0.0042679999999999,0.0011328000000003,-0.003934799999999,-0.0024095999999998,0,sub_16
0.0017863999999998,0.0039268000000012,-0.0041633999999999,0.0005054000000003,-0.003312599999999,-0.0028519999999998,0,sub_16
0.0023195999999998,0.0032872000000012,-0.0037187999999999,0.0003048000000003,-0.002691999999999,-0.0032913999999998,0,sub_16
0.0017823999999998,0.0029470000000012,-0.0034477999999998,-0.0003263999999996,-0.002073199999999,-0.0028791999999998,0,sub_16
0.0019307999999998,0.0029466000000012,-0.0037115999999998,-0.0013933999999996,-0.001644999999999,-0.0024597999999998,0,sub_16
0.0021445999999998,0.0032322000000012,-0.0037791999999998,-0.0016105999999996,-0.002072199999999,-0.0020333999999998,0,sub_16
0.0021163999999998,0.0031234000000012,-0.0036087999999998,-0.0016163999999996,-0.002713999999999,-0.0013915999999998,0,sub_16
0.0025125999999998,0.0035378000000012,-0.0039881999999998,-0.0009677999999996,-0.002948399999999,-0.0013933999999998,0,sub_16
0.0029005999999998,0.0037650000000012,-0.0045865999999998,-0.0001077999999996,-0.003609599999999,-0.0013929999999998,0,sub_16
0.0032937999999998,0.0031426000000012,-0.0048817999999998,0.0011800000000003,-0.004271599999999,-0.0016033999999998,0,sub_16
0.0021871999999998,0.0030794000000012,-0.0051039999999998,0.0016162000000003,-0.004079999999999,-0.0013935999999998,0,sub_16
0.0015441999999998,0.0035316000000012,-0.0055411999999998,0.0018400000000003,-0.003886799999999,-0.0013987999999998,0,sub_16
0.0014399999999998,0.0034502000000012,-0.0052381999999998,0.0020494000000003,-0.004103199999999,-0.0007559999999998,0,sub_16
0.0012545999999998,0.0031536000000012,-0.0052581999999998,0.0020504000000003,-0.004102399999999,-0.0009697999999998,0,sub_16
0.0008897999999998,0.0033320000000012,-0.0049637999999998,0.0014142000000003,-0.003895199999999,-0.0007649999999998,0,sub_16
0.0019003999999998,0.0034132000000012,-0.0042993999999998,0.0012066000000003,-0.003687799999999,-0.0009843999999998,0,sub_16
0.0022361999999998,0.0029602000000012,-0.0036905999999998,0.0012134000000003,-0.003268199999999,-0.0012027999999998,0,sub_16
0.0024091999999998,0.0029042000000012,-0.0039127999999998,0.0007944000000003,-0.002634199999999,-0.0014243999999998,0,sub_16
0.0030505999999998,0.0030320000000011,-0.0037297999999998,0.0005860000000003,-0.002003399999999,-0.0010033999999998,0,sub_16
0.0032269999999998,0.0032976000000011,-0.0039135999999999,0.0003716000000003,-0.001791399999999,-0.0005777999999998,0,sub_16
0.0030383999999998,0.0034244000000011,-0.0041603999999999,-5.8999999999640544e-05,-0.002217799999999,-0.0001529999999998,0,sub_16
0.0030639999999998,0.0036740000000011,-0.0042179999999999,-0.0004895999999996,-0.002644199999999,0.0002720000000001,0,sub_16
0.0025471999999998,0.0034660000000012,-0.0044461999999999,-0.0011299999999996,-0.003066799999999,0.0002658000000001,0,sub_16
0.0021617999999998,0.0033084000000012,-0.0044445999999998,-0.0009131999999996,-0.003064799999999,-0.0001623999999998,0,sub_16
0.0020411999999998,0.0033096000000012,-0.0041765999999998,-0.0004819999999996,-0.002850399999999,-0.0005891999999998,0,sub_16
0.0014863999999998,0.0027624000000012,-0.0042475999999998,0.0001634000000003,-0.001999399999999,-0.0005881999999998,0,sub_16
0.0012587999999998,0.0024778000000012,-0.0046175999999998,0.0005984000000003,-0.000932799999999,-0.0010161999999998,0,sub_16
0.0012607999999998,0.0023534000000012,-0.0043027999999998,0.0010280000000003,-0.000295199999999,-0.0010139999999998,0,sub_16
0.0009911999999998,0.0017196000000012,-0.0044331999999998,0.0012422000000003,0.0001294000000009,-0.0007993999999998,0,sub_16
0.0009503999999998,0.0020068000000012,-0.0046717999999998,0.0016690000000003,0.0003400000000009,-0.0005831999999998,0,sub_16
0.0012075999999998,0.0027470000000012,-0.0042651999999998,0.0010232000000003,-0.000289399999999,-0.0005845999999998,0,sub_16
0.0014887999999998,0.0037848000000012,-0.0038847999999998,0.0010164000000003,-0.001346199999999,-0.0007947999999998,0,sub_16
0.0017869999999998,0.0045076000000012,-0.0039009999999999,0.0010134000000003,-0.002187599999999,-0.0016461999999998,0,sub_16
0.0020917999999998,0.0053798000000012,-0.0036527999999999,0.0007972000000003,-0.002603799999999,-0.0020721999999998,0,sub_16
0.0023155999999998,0.0053448000000012,-0.0035887999999999,0.0003674000000003,-0.002806999999999,-0.0022861999999998,0,sub_16
0.0024103999999998,0.0050000000000012,-0.0034951999999998,0.0001578000000003,-0.002378399999999,-0.0027153999999998,0,sub_16
0.0022163999999998,0.0043848000000012,-0.0036005999999998,-0.0006937999999996,-0.001524999999999,-0.0022949999999998,0,sub_16
0.0018847999999998,0.0038940000000012,-0.0036859999999998,-0.0013309999999996,-0.000459199999999,-0.0018733999999998,0,sub_16
0.0017581999999998,0.0037762000000012,-0.0037021999999998,-0.0017609999999996,-0.000234999999999,-0.0014431999999998,0,sub_16
0.0015563999999998,0.0034474000000012,-0.0036925999999998,-0.0019775999999996,-0.000223799999999,-0.0012249999999998,0,sub_16
0.0018783999999998,0.0034860000000012,-0.0039493999999998,-0.0011291999999996,-0.000854599999999,-0.0012121999999998,0,sub_16
0.0021287999999998,0.0028988000000012,-0.0042165999999998,-0.0002779999999996,-0.001482799999999,-0.0018403999999998,0,sub_16
0.0020777999999998,0.0028130000000012,-0.0044957999999998,0.0007818000000003,-0.002328199999999,-0.0016121999999998,0,sub_16
0.0018681999999998,0.0024786000000012,-0.0048585999999998,0.0016332000000003,-0.002332999999999,-0.0011789999999998,0,sub_16
0.0021425999999998,0.0023958000000012,-0.0050367999999999,0.0022742000000003,-0.002334199999999,-0.0013881999999998,0,sub_16
0.0016727999999998,0.0023550000000011,-0.0052641999999999,0.0024856000000003,-0.002548799999999,-0.0011727999999998,0,sub_16
0.0011573999999998,0.0029168000000011,-0.0051513999999999,0.0022674000000003,-0.002976799999999,-0.0005327999999998,0,sub_16
0.0011679999999998,0.0030724000000011,-0.0045943999999999,0.0018364000000003,-0.002748199999999,-0.0003157999999998,0,sub_16
0.0011609999999998,0.0034052000000011,-0.0040437999999999,0.0014056000000003,-0.002731799999999,-0.0003121999999998,0,sub_16
0.0009117999999998,0.0034186000000011,-0.0037649999999998,0.0009776000000003,-0.001864199999999,-9.599999999985784e-05,0,sub_16
0.0012787999999998,0.0034418000000012,-0.0032819999999998,0.0003390000000003,-0.000568799999999,-9.539999999987784e-05,0,sub_16
0.0019115999999998,0.0032686000000012,-0.0034249999999998,0.0001252000000003,0.0005112000000009,0.0001220000000001,0,sub_16
0.0028045999999998,0.0034880000000012,-0.0039155999999998,-8.819999999964056e-05,0.0007242000000009,0.0003338000000001,0,sub_16
0.0033895999999998,0.0034880000000012,-0.0042135999999998,-0.0005149999999996,0.0009380000000009,0.0005442000000001,0,sub_16
0.0035771999999998,0.0037210000000012,-0.0042615999999998,-0.0009513999999996,0.0003150000000009,0.0009742000000001,0,sub_16
0.0031317999999998,0.0039576000000012,-0.0044015999999999,-0.0011763999999996,-0.000734999999999,0.0014062000000001,0,sub_16
0.0025551999999998,0.0041986000000012,-0.0043877999999999,-0.0011831999999996,-0.001356999999999,0.0011984000000001,0,sub_16
0.0017845999999998,0.0041160000000012,-0.0039751999999999,-0.0009707999999996,-0.001125999999999,0.0005638000000001,0,sub_16
0.0012177999999998,0.0038768000000012,-0.0037533999999999,-0.0003297999999996,-0.000682599999999,-0.0002817999999998,0,sub_16
0.0007063999999998,0.0036536000000012,-0.0037219999999999,0.0003170000000003,0.0001698000000009,-0.0009191999999998,0,sub_16
0.0011155999999998,0.0031116000000012,-0.0037745999999998,0.0005342000000003,0.0008092000000009,-0.0011321999999998,0,sub_16
0.0012609999999998,0.0029784000000012,-0.0038981999999998,0.0007486000000003,0.0010216000000009,-0.0011309999999998,0,sub_16
0.0012223999999998,0.0027288000000012,-0.0038671999999998,0.0013844000000003,0.0014572000000009,-0.0009085999999998,0,sub_16
0.0008015999999998,0.0034426000000012,-0.0038445999999998,0.0011638000000003,0.0014688000000009,-0.0004779999999998,0,sub_16
0.0007605999999998,0.0039040000000012,-0.0037601999999998,0.0013682000000003,0.0006284000000009,-0.0004705999999998,0,sub_16
0.0005849999999998,0.0047150000000012,-0.0030783999999998,0.0020032000000003,-0.000422399999999,-0.0015279999999998,0,sub_16
0.0010019999999998,0.0047428000000012,-0.0028449999999998,0.0024238000000003,-0.001260999999999,-0.0021599999999998,0,sub_16
