userAcceleration.x,userAcceleration.y,userAcceleration.z,rotationRate.x,rotationRate.y,rotationRate.z,label,subject
6.899999999977592e-05,0.0021022000000012,-0.0078421999999998,-0.0087889999999995,-0.0206761999999989,0.0021646,0,sub_1
-0.0002074000000002,0.0006024000000012,-0.0065219999999998,-0.0181693999999995,-0.0178781999999989,0.0031636,0,sub_1
0.0018631999999997,0.0013002000000012,-0.0088813999999998,-0.0215623999999995,-0.0134203999999989,0.004646,0,sub_1
0.0023505999999997,0.0019358000000012,-0.0133827999999998,-0.0187395999999995,-0.003866799999999,0.005097,0,sub_1
0.0007125999999997,0.0022716000000012,-0.0158377999999998,-0.0137761999999995,0.0046240000000009,0.0030006,0,sub_1
0.0006051999999997,0.0018296000000012,-0.0149879999999998,-0.0052179999999995,0.0056462000000009,0.0007252,0,sub_1
0.0024777999999997,0.0011610000000012,-0.0127983999999999,0.0052518000000004,0.0045324000000009,-0.0017475999999999,0,sub_1
0.0019459999999997,-0.0014813999999988,-0.0075169999999999,0.0080612000000004,0.0049666000000009,-0.0083447999999999,0,sub_1
0.0029305999999997,-0.0018999999999988,-0.0023745999999999,0.0050928000000004,0.0003140000000009,-0.0164711999999999,0,sub_1
0.0049475999999997,0.0014110000000011,-0.0011957999999999,0.0036060000000004,-0.002867999999999,-0.0205299999999999,0,sub_1
0.0055753999999997,0.0058718000000011,-0.0033815999999999,0.0019112000000004,-0.000951399999999,-0.0207513999999999,0,sub_1
0.0052247999999997,0.0102750000000011,-0.0066805999999999,0.0008340000000004,0.0022162000000009,-0.0147745999999999,0,sub_1
0.0038037999999997,0.0116772000000011,-0.0098997999999999,0.0005838000000004,0.0040956000000009,-0.0049513999999999,0,sub_1
0.0029935999999997,0.0095074000000011,-0.0110475999999999,0.0015990000000004,0.0017126000000009,0.0040314,0,sub_1
0.0026219999999997,0.0058030000000011,-0.0092317999999999,0.0007098000000004,-0.001074599999999,0.009156,0,sub_1
0.0031631999999997,0.0019270000000011,-0.0080091999999999,-0.0016453999999995,-0.003000199999999,0.0104344,0,sub_1
0.0032829999999997,-0.0018577999999988,-0.0080525999999999,-0.0031185999999995,-0.003842799999999,0.0065904,0,sub_1
0.0041159999999997,-0.0039259999999987,-0.0081581999999999,-0.0028717999999995,-0.004255799999999,0.000408,0,sub_1
0.0037661999999997,-0.0036677999999987,-0.0092621999999999,-5.319999999956679e-05,-0.001060199999999,-0.0046927999999999,0,sub_1
0.0037383999999997,-0.0031589999999988,-0.0114547999999999,0.0021098000000004,0.0012750000000009,-0.0072333999999999,0,sub_1
0.0041831999999997,-0.0025655999999988,-0.0113851999999999,0.0027530000000004,0.0021236000000009,-0.0068021999999999,0,sub_1
0.0043599999999997,-0.0017261999999988,-0.0092717999999999,-3.359999999956731e-05,0.0019094000000009,-0.0040435999999999,0,sub_1
0.0028747999999997,0.0001330000000011,-0.0089967999999999,-0.0034625999999995,0.0021200000000009,-0.0004357999999999,0,sub_1
0.0016181999999997,0.0018620000000011,-0.0085817999999999,-0.0070937999999995,0.0023238000000009,0.0021126,0,sub_1
0.0009711999999997,0.0040234000000011,-0.0087565999999999,-0.0090123999999995,0.0029512000000009,0.0038178,0,sub_1
0.0003071999999997,0.0054568000000011,-0.0099393999999999,-0.0087881999999995,0.0046404000000009,0.0044682,0,sub_1
1.0599999999796275e-05,0.0061818000000011,-0.0113223999999998,-0.0062225999999995,0.0050430000000009,0.0051366,0,sub_1
0.0009183999999997,0.0048640000000011,-0.0102555999999998,-0.0036635999999995,0.0033176000000009,0.0051668,0,sub_1
0.0023189999999997,0.0035826000000011,-0.0078583999999998,-0.0028169999999995,0.0016112000000009,0.0049612,0,sub_1
0.0030795999999997,0.0022230000000011,-0.0062185999999998,-0.0017501999999995,0.0007588000000009,0.0041152,0,sub_1
0.0043969999999997,0.0024606000000011,-0.0059113999999998,-0.0004727999999995,0.0001154000000009,0.004125,0,sub_1
0.0050503999999997,0.0026564000000011,-0.0064595999999998,-0.0002567999999995,0.0003144000000009,0.0047846,0,sub_1
0.0051689999999997,0.0019498000000011,-0.0057645999999998,-0.0015227999999995,0.0030754000000009,0.0054308,0,sub_1
0.0047047999999997,0.0014280000000011,-0.0063895999999999,-0.0021485999999995,0.0056218000000009,0.005868,0,sub_1
0.0051579999999997,0.0017264000000011,-0.0073605999999999,-0.0027773999999995,0.0077414000000009,0.0065194,0,sub_1
0.0045629999999997,0.0013692000000011,-0.0065265999999999,-0.0046785999999995,0.0102966000000009,0.0058796,0,sub_1
0.0037253999999997,0.0018476000000011,-0.0067461999999998,-0.0065843999999995,0.0128630000000009,0.0052222,0,sub_1
0.0023687999999997,0.0026840000000011,-0.0075421999999998,-0.0065803999999995,0.0124422000000009,0.003941,0,sub_1
0.0014383999999997,0.0023836000000011,-0.0081227999999998,-0.0074327999999995,0.0107486000000009,0.0020144,0,sub_1
0.0039647999999997,0.0015164000000011,-0.0108885999999998,-0.0050897999999995,0.0085992000000009,0.0018404,0,sub_1
0.0046541999999997,0.0035408000000011,-0.0147015999999998,-0.0001949999999995,0.0091920000000009,0.0063808,0,sub_1
0.0016149999999997,0.0013998000000011,-0.0121903999999999,0.0015128000000004,0.0083222000000009,0.0064144,0,sub_1
0.0009915999999997,-0.0008573999999988,-0.0086443999999999,-0.0014685999999995,0.0057754000000009,0.0036398,0,sub_1
0.0030929999999997,-0.0001415999999988,-0.0095677999999999,-0.0016837999999995,0.0038488000000009,0.0032342,0,sub_1
0.0022187999999997,0.0025866000000011,-0.0062525999999999,-0.0023167999999995,0.0036450000000009,0.0015208,0,sub_1
0.0041381999999997,0.0034408000000011,-0.0036251999999999,-0.0029635999999995,-0.000390199999999,-0.0010421999999999,0,sub_1
0.0086357999999997,0.0059128000000011,-0.0097559999999999,0.0070180000000004,-0.004710399999999,0.005229,0,sub_1
0.0079313999999997,0.0058528000000011,-0.0120223999999999,0.0253164000000004,-0.006305399999999,0.0154004,0,sub_1
0.0042413999999997,0.0034772000000011,-0.0063391999999999,0.0330028000000004,-0.000385999999999,0.0203604,0,sub_1
-0.0003106000000002,-0.0005449999999988,-0.0030735999999999,0.0311202000000004,0.0068686000000009,0.0192698,0,sub_1
-0.0021708000000002,-0.0034735999999988,-0.0038553999999998,0.0287902000000004,0.0064666000000009,0.0151948,0,sub_1
-0.0005424000000002,-0.0034257999999988,-0.0023437999999998,0.0221744000000004,0.0018194000000009,0.0108818,0,sub_1
0.0033015999999997,-0.0019599999999988,-0.0049005999999998,0.0172752000000004,0.0018222000000009,0.0104548,0,sub_1
0.0030731999999997,0.0009332000000011,-0.0102987999999998,0.0191838000000003,-0.000551399999999,0.0122146,0,sub_1
0.0054491999999997,0.0013316000000011,-0.0127709999999998,0.0221296000000003,-0.008047599999999,0.015484,0,sub_1
0.0040425999999997,0.0033374000000011,-0.0126591999999999,0.0234190000000003,-0.003397399999999,0.0195808,0,sub_1
-0.0004826000000002,0.0025268000000011,-0.0106147999999999,0.0247618000000004,0.0072416000000009,0.0176876,0,sub_1
-0.0025252000000002,0.0021470000000011,-0.0069889999999999,0.0182018000000004,0.0119812000000009,0.0101578,0,sub_1
0.0019373999999997,0.0009148000000011,-0.0027979999999999,0.0073398000000004,0.0118252000000009,0.005382,0,sub_1
0.0022071999999997,0.0026258000000011,-0.0025295999999999,-0.0024535999999995,0.0150524000000009,0.0042572,0,sub_1
0.0016623999999997,0.0013474000000012,-0.0004019999999999,-0.0122431999999995,0.0167976000000009,0.0007842,0,sub_1
0.0019377999999997,0.0030118000000012,-0.0031557999999999,-0.0186347999999995,0.0161822000000009,-0.0013799999999999,0,sub_1
0.0026441999999997,0.0058370000000012,-0.0079161999999999,-0.0188501999999995,0.0144736000000009,-0.0020041999999999,0,sub_1
0.0010491999999997,0.0070250000000011,-0.0124511999999999,-0.0126711999999995,0.0116752000000009,-0.0021553999999999,0,sub_1
0.0010959999999997,0.0052620000000012,-0.0121797999999999,-0.0035057999999995,0.0090878000000009,-0.0025155999999999,0,sub_1
0.0024579999999997,0.0028766000000011,-0.0133885999999999,0.0054390000000004,0.0039482000000009,-0.0037283999999999,0,sub_1
0.0041323999999997,-2.779999999880031e-05,-0.0106869999999999,0.0084192000000004,-0.000100799999999,-0.0060521999999999,0,sub_1
0.0042385999999997,-0.0011251999999988,-0.0090249999999999,0.0058698000000004,-0.000943999999999,-0.0083989999999999,0,sub_1
0.0049855999999997,-2.5799999998800395e-05,-0.0104267999999999,0.0048122000000004,-0.000945199999999,-0.0094543999999999,0,sub_1
0.0058581999999997,0.0026542000000011,-0.0122739999999999,0.0035256000000004,-0.001171599999999,-0.0073065999999999,0,sub_1
0.0051169999999997,0.0039014000000011,-0.0109317999999999,0.0018024000000004,-0.000556399999999,-0.0021721999999999,0,sub_1
0.0045889999999997,0.0047080000000011,-0.0087365999999999,-0.0009831999999995,0.0013402000000009,0.0031668,0,sub_1
0.0036781999999997,0.0031050000000011,-0.0073971999999999,-0.0016395999999995,0.0013282000000009,0.0067942,0,sub_1
0.0026829999999997,0.0015536000000011,-0.0046407999999999,-0.0046183999999995,0.0024076000000009,0.0059174,0,sub_1
0.0016351999999997,0.0006746000000011,-0.0056621999999999,-0.0046049999999995,0.0015710000000009,0.002073,0,sub_1
0.0022435999999997,0.0018650000000011,-0.0071949999999999,-0.0030955999999995,-0.000129799999999,-0.0021745999999999,0,sub_1
0.0028399999999997,0.0015606000000011,-0.0081601999999999,-0.0009497999999995,-0.000987399999999,-0.0047095999999999,0,sub_1
0.0039163999999997,0.0028334000000012,-0.0084109999999999,0.0001310000000004,0.0013436000000009,-0.0044787999999999,0,sub_1
0.0039707999999997,0.0029196000000012,-0.0089139999999999,0.0020528000000004,0.0028116000000009,-0.0023181999999999,0,sub_1
0.0028521999999997,0.0024162000000012,-0.0068347999999998,0.0018400000000004,0.0042862000000009,4.100000000007188e-05,0,sub_1
0.0021345999999997,0.0010690000000011,-0.0062767999999998,-8.499999999958402e-05,0.0047132000000009,0.0015226,0,sub_1
0.0015311999999997,0.0019526000000011,-0.0068127999999998,-0.0032805999999995,0.0053652000000009,0.0010722,0,sub_1
0.0009237999999997,0.0026896000000012,-0.0078379999999998,-0.0066819999999995,0.0064490000000009,-0.0006619999999999,0,sub_1
0.0015595999999997,0.0034114000000011,-0.0097437999999998,-0.0068885999999995,0.0066678000000009,-0.0019455999999999,0,sub_1
0.0029017999999997,0.0034110000000012,-0.0110195999999999,-0.0058141999999995,0.0066570000000009,-0.0029877999999999,0,sub_1
0.0036475999999997,0.0029042000000011,-0.0111293999999999,-0.0036697999999995,0.0074940000000009,-0.0038099999999999,0,sub_1
0.0040109999999997,0.0018368000000011,-0.0101465999999998,-0.0008959999999995,0.0070464000000009,-0.0035579999999999,0,sub_1
0.0042195999999997,0.0009314000000011,-0.0088755999999998,0.0018636000000004,0.0040396000000009,-0.0026617999999999,0,sub_1
0.0042933999999997,0.0007270000000011,-0.0057147999999998,0.0003710000000004,0.0040324000000009,-0.0022263999999999,0,sub_1
0.0044207999999997,0.0014266000000011,-0.0056439999999998,-0.0013357999999995,0.0048876000000009,-0.0013845999999999,0,sub_1
0.0048419999999997,0.0030828000000011,-0.0073239999999998,-0.0028371999999995,0.0048864000000009,0.0003142,0,sub_1
0.0046299999999997,0.0043500000000011,-0.0086593999999999,-0.0041257999999995,0.0048748000000009,0.0022392,0,sub_1
0.0041039999999997,0.0041880000000011,-0.0087975999999999,-0.0049783999999995,0.0063558000000009,0.0035244,0,sub_1
0.0027299999999997,0.0035234000000011,-0.0092657999999999,-0.0034901999999995,0.0054880000000009,0.0039744,0,sub_1
0.0017327999999997,0.0033804000000011,-0.0091247999999998,-0.0007207999999995,0.0041922000000009,0.0037928,0,sub_1
0.0005907999999997,0.0028526000000011,-0.0071711999999998,0.0012046000000004,0.0041810000000009,0.0027492,0,sub_1
0.0006299999999997,0.0025010000000011,-0.0065893999999998,0.0027086000000004,0.0052462000000009,0.0014764,0,sub_1
0.0019301999999997,0.0027624000000011,-0.0071923999999998,0.0035574000000004,0.0041780000000009,0.0014838,0,sub_1
0.0035065999999997,0.0036336000000011,-0.0085065999999998,0.0026982000000004,0.0041762000000009,0.0027598,0,sub_1
0.0041787999999997,0.0036212000000011,-0.0082031999999999,-0.0002881999999995,0.0054504000000009,0.0036024,0,sub_1
0.0040545999999997,0.0030184000000011,-0.0088101999999999,-0.0030619999999995,0.0060864000000009,0.00402,0,sub_1
0.0041571999999997,0.0021666000000011,-0.0092543999999999,-0.0037103999999995,0.0050094000000009,0.0046684,0,sub_1
0.0040295999999997,0.0009058000000011,-0.0100107999999998,-0.0034995999999995,0.0045712000000009,0.0046808,0,sub_1
0.0037993999999997,-0.0005715999999988,-0.0101049999999998,-0.0022189999999995,0.0041316000000009,0.0040598,0,sub_1
0.0038435999999997,-0.0011911999999988,-0.0101077999999998,-0.0007265999999995,0.0034882000000009,0.0038576,0,sub_1
0.0042221999999997,-0.0006265999999988,-0.0101401999999998,0.0007668000000004,0.0028456000000009,0.0034418,0,sub_1
0.0038729999999997,0.0003482000000011,-0.0091885999999998,0.0001310000000004,0.0026394000000009,0.0023696,0,sub_1
0.0033701999999997,0.0021772000000012,-0.0075581999999999,-0.0005025999999995,0.0028504000000009,0.0008788,0,sub_1
0.0030707999999997,0.0036500000000011,-0.0061481999999999,-0.0019919999999995,0.0030630000000009,-0.0001907999999999,0,sub_1
0.0028365999999997,0.0041306000000012,-0.0062235999999999,-0.0034815999999995,0.0030632000000009,-0.0014737999999999,0,sub_1
0.0028089999999997,0.0039056000000012,-0.0069171999999999,-0.0041235999999995,0.0024186000000009,-0.0021091999999999,0,sub_1
0.0031731999999997,0.0034838000000011,-0.0082557999999999,-0.0034899999999995,0.0013408000000009,-0.0020941999999999,0,sub_1
0.0032965999999997,0.0025724000000011,-0.0085201999999999,-0.0034909999999995,0.0009158000000009,-0.0023071999999999,0,sub_1
0.0036687999999997,0.0018946000000011,-0.0087611999999999,-0.0037031999999995,0.0011298000000009,-0.0023087999999999,0,sub_1
0.0040603999999997,0.0011402000000011,-0.0082901999999999,-0.0032791999999995,0.0007016000000009,-0.0020915999999999,0,sub_1
0.0047197999999997,0.0006384000000011,-0.0078119999999999,-0.0024263999999995,0.0006982000000009,-0.0018717999999999,0,sub_1
0.0050063999999997,0.0007040000000012,-0.0077755999999999,-0.0022099999999995,0.0013370000000009,-0.0018707999999999,0,sub_1
0.0048465999999997,0.0013634000000012,-0.0079653999999999,-0.0028471999999995,0.0017666000000009,-0.0020893999999998,0,sub_1
0.0040269999999997,0.0016708000000012,-0.0087963999999999,-0.0030623999999995,0.0015536000000009,-0.0018767999999998,0,sub_1
0.0028819999999997,0.0022070000000012,-0.0092161999999999,-0.0032755999999995,0.0017666000000009,-0.0016647999999999,0,sub_1
0.0017281999999997,0.0029742000000011,-0.0094921999999999,-0.0047681999999995,0.0024094000000009,-0.0012487999999999,0,sub_1
0.0008391999999997,0.0029758000000012,-0.0091905999999999,-0.0058339999999995,0.0030506000000009,-0.0008299999999999,0,sub_1
0.0004773999999997,0.0026912000000011,-0.0090985999999999,-0.0056243999999995,0.0028340000000009,-0.0001873999999999,0,sub_1
0.0007011999999997,0.0026088000000011,-0.0083265999999999,-0.0049881999999995,0.0021916000000009,3.140000000003186e-05,0,sub_1
0.0020419999999997,0.0022178000000012,-0.0081625999999999,-0.0034963999999995,0.0013360000000009,-0.0003843999999999,0,sub_1
0.0027967999999997,0.0022546000000012,-0.0080687999999999,-0.0013635999999995,0.0004788000000009,-0.0010093999999999,0,sub_1
0.0036475999999997,0.0021010000000012,-0.0078477999999999,0.0003434000000004,-0.000375799999999,-0.0018507999999999,0,sub_1
0.0042689999999997,0.0018992000000012,-0.0078133999999998,0.0014134000000004,-0.000164399999999,-0.0022707999999999,0,sub_1
0.0044393999999997,0.0019874000000012,-0.0080067999999998,0.0014184000000004,0.0002646000000009,-0.0029121999999999,0,sub_1
0.0040961999999997,0.0025086000000011,-0.0083081999999998,0.0001372000000004,0.0009050000000009,-0.0020673999999999,0,sub_1
0.0041975999999997,0.0022868000000012,-0.0079145999999998,-0.0011485999999995,0.0009048000000009,-0.0007943999999999,0,sub_1
0.0039489999999997,0.0023326000000011,-0.0078277999999998,-0.0022171999999995,0.0017558000000009,0.000479,0,sub_1
0.0038747999999997,0.0021910000000012,-0.0076239999999998,-0.0032879999999995,0.0023930000000009,0.0019664,0,sub_1
0.0041961999999997,0.0017316000000011,-0.0074673999999998,-0.0026487999999995,0.0034512000000009,0.0032514,0,sub_1
0.0035187999999997,0.0023666000000011,-0.0054099999999998,0.0014150000000004,0.0047190000000009,0.0024238,0,sub_1
0.0019121999999997,0.0012582000000011,-0.0047629999999998,0.0078306000000004,0.0064072000000009,0.000971,0,sub_1
0.0005095999999997,0.0015106000000011,-0.0068679999999998,0.0133670000000004,0.0029822000000009,0.0001594,0,sub_1
0.0017399999999997,0.0022902000000011,-0.0069113999999998,0.0206074000000004,-0.002785399999999,-0.0023463999999999,0,sub_1
0.0025679999999997,0.0021210000000011,-0.0063705999999998,0.0270154000000004,-0.004923799999999,-0.0059307999999999,0,sub_1
0.0032943999999997,0.0017562000000011,-0.0064325999999998,0.0295856000000004,-0.008955799999999,-0.0121033999999999,0,sub_1
0.0060879999999997,0.0028912000000011,-0.0056229999999998,0.0298056000000004,-0.015316199999999,-0.0199983999999999,0,sub_1
0.0096061999999997,0.0031966000000012,-0.0024787999999998,0.0289930000000004,-0.014426599999999,-0.0283369999999999,0,sub_1
0.0107473999999997,0.0009228000000011,-0.0008523999999999,0.0266968000000004,-0.008005599999999,-0.0332745999999999,0,sub_1
0.0106131999999997,-0.0011349999999988,0.0010712,0.0237462000000004,-0.001594799999999,-0.0350117999999999,0,sub_1
0.0092095999999997,-0.0050669999999988,0.0011824,0.0212198000000004,0.0088436000000009,-0.0320507999999999,0,sub_1
0.0059571999999997,-0.0078409999999988,-0.0017179999999999,0.0150640000000004,0.0203526000000009,-0.0274073999999999,0,sub_1
0.0038081999999997,-0.0102845999999988,-0.0073033999999999,0.0046254000000004,0.0286782000000009,-0.0223625999999999,0,sub_1
0.0011225999999997,-0.0100813999999988,-0.0138923999999999,-0.0117951999999995,0.0357438000000009,-0.0169307999999999,0,sub_1
-2.7200000000224007e-05,-0.0072283999999988,-0.0199671999999999,-0.0312173999999995,0.0389868000000009,-0.0121561999999999,0,sub_1
0.0012247999999997,-0.0051985999999988,-0.0228511999999999,-0.0510807999999995,0.0371256000000009,-0.0093011999999999,0,sub_1
0.0034389999999997,-0.0033241999999988,-0.0222801999999999,-0.0626279999999995,0.0326848000000009,-0.0078803999999999,0,sub_1
0.0039433999999997,-0.0014541999999988,-0.0179549999999999,-0.0573289999999995,0.0230844000000009,-0.0093261999999999,0,sub_1
0.0031595999999997,0.0038374000000011,-0.0130449999999999,-0.0362577999999995,0.0066072000000009,-0.0142699999999999,0,sub_1
0.0014195999999997,0.0085202000000011,-0.0093457999999999,-0.0056199999999995,-0.018423399999999,-0.0199895999999999,0,sub_1
-0.0027064000000002,0.0132478000000011,-0.0073859999999999,0.0284088000000004,-0.045183599999999,-0.0224789999999999,0,sub_1
-0.0090816000000002,0.0130908000000011,-0.0078861999999999,0.0560622000000004,-0.063411599999999,-0.0222469999999999,0,sub_1
-0.0147490000000002,0.0121390000000011,-0.0099281999999999,0.0673328000000004,-0.068596799999999,-0.0195827999999999,0,sub_1
-0.0162958000000001,0.0070378000000011,-0.0120941999999999,0.0617940000000004,-0.066026799999999,-0.0191975999999999,0,sub_1
-0.0154636000000001,0.0002540000000011,-0.0132785999999999,0.0486186000000004,-0.057235599999999,-0.0225067999999999,0,sub_1
-0.0075406000000001,-0.0030469999999988,-0.0143543999999999,0.0352660000000004,-0.046289199999999,-0.0315877999999999,0,sub_1
0.0059417999999997,0.0003776000000011,-0.0127085999999999,0.0261770000000004,-0.042149799999999,-0.0466115999999999,0,sub_1
0.0194129999999998,0.0033468000000011,-0.0078847999999999,0.0247506000000004,-0.045702399999999,-0.0651957999999999,0,sub_1
0.0285991999999997,0.0053512000000011,-0.0024591999999999,0.0303452000000004,-0.051206599999999,-0.0811645999999999,0,sub_1
0.0345695999999997,0.0041730000000011,0.001272,0.0384942000000004,-0.054602199999999,-0.0936997999999999,0,sub_1
0.0354167999999997,0.0013220000000011,0.0038214,0.0430166000000004,-0.054164999999999,-0.1026333999999999,0,sub_1
0.0318781999999997,-0.0041995999999987,0.0045842,0.0413388000000004,-0.051807999999999,-0.1069127999999999,0,sub_1
0.0257735999999997,-0.0105059999999987,0.002449,0.0351650000000003,-0.047953599999999,-0.1061055999999999,0,sub_1
0.0193843999999997,-0.0141833999999987,-0.0013759999999999,0.0244996000000004,-0.042820399999999,-0.1014855999999999,0,sub_1
0.0139917999999997,-0.0135327999999987,-0.0060647999999999,0.0089020000000004,-0.040027199999999,-0.0936923999999999,0,sub_1
0.0081303999999997,-0.0102877999999987,-0.0101357999999999,-0.0079961999999995,-0.037895399999999,-0.0820535999999999,0,sub_1
0.0015951999999997,-0.0050757999999987,-0.0122323999999998,-0.0215007999999995,-0.036642399999999,-0.0667581999999999,0,sub_1
-0.0034090000000002,0.0019914000000011,-0.0144389999999998,-0.0301117999999995,-0.037965599999999,-0.0509985999999999,0,sub_1
-0.0082170000000002,0.0098330000000011,-0.0139371999999998,-0.0327473999999995,-0.041854399999999,-0.0381851999999999,0,sub_1
-0.0124496000000002,0.0171360000000012,-0.0105587999999998,-0.0293919999999995,-0.044475799999999,-0.0278955999999999,0,sub_1
-0.0157708000000002,0.0215436000000012,-0.0078683999999998,-0.0221773999999995,-0.047507399999999,-0.0220733999999999,0,sub_1
-0.0160210000000002,0.0233012000000011,-0.0055773999999999,-0.0115363999999995,-0.051812999999999,-0.0202849999999999,0,sub_1
-0.0149470000000002,0.0232406000000011,-0.0020387999999999,0.0018740000000004,-0.057617199999999,-0.0191163999999999,0,sub_1
-0.0117868000000002,0.0207654000000011,-0.0010187999999999,0.0155196000000004,-0.060856399999999,-0.0202995999999999,0,sub_1
-0.0059724000000002,0.0163920000000011,-0.0032289999999999,0.0302336000000004,-0.066856599999999,-0.0244625999999999,0,sub_1
0.0013499999999997,0.0107652000000011,-0.0053213999999999,0.0441030000000004,-0.072845799999999,-0.0305539999999999,0,sub_1
0.0070719999999997,0.0064008000000011,-0.0068507999999999,0.0537244000000003,-0.075194999999999,-0.0373201999999999,0,sub_1
0.0121867999999997,0.0008176000000012,-0.0102153999999998,0.0563342000000003,-0.074522599999999,-0.0475569999999999,0,sub_1
0.0174659999999997,-0.0046783999999988,-0.0132385999999998,0.0572190000000003,-0.076831399999999,-0.0565195999999999,0,sub_1
0.0207143999999997,-0.0096015999999987,-0.0146075999999998,0.0532068000000004,-0.075930999999999,-0.0644517999999999,0,sub_1
0.0226607999999997,-0.0128259999999987,-0.0166331999999998,0.0459746000000004,-0.077371399999999,-0.0702667999999999,0,sub_1
0.0221225999999997,-0.0174563999999987,-0.0212805999999998,0.0348876000000004,-0.081995199999999,-0.0758905999999999,0,sub_1
0.0201283999999997,-0.0168431999999987,-0.0253483999999999,0.0205918000000004,-0.087888999999999,-0.0808941999999999,0,sub_1
0.0159225999999997,-0.0108925999999987,-0.0296815999999999,-0.0018213999999995,-0.094187399999999,-0.0844589999999999,0,sub_1
0.0080573999999997,0.0013068000000012,-0.0306727999999998,-0.0306141999999995,-0.095350999999999,-0.0880757999999999,0,sub_1
0.0005681999999997,0.0101304000000012,-0.0256137999999998,-0.0500551999999995,-0.102520999999999,-0.0896973999999999,0,sub_1
-0.0027398000000002,0.0139828000000011,-0.0166489999999998,-0.0501563999999995,-0.122770799999999,-0.0873221999999999,0,sub_1
-0.0025188000000002,0.0160212000000011,-0.0066627999999999,-0.0351119999999995,-0.145410399999999,-0.0865475999999999,0,sub_1
0.0007695999999997,0.0159510000000011,0.0035946,-0.0065689999999995,-0.158921399999999,-0.0891085999999999,0,sub_1
0.0067995999999997,0.0150864000000011,0.009917,0.0277632000000004,-0.166910199999999,-0.0922769999999999,0,sub_1
0.0092423999999997,0.0176550000000011,0.0097356,0.0491364000000004,-0.161009399999999,-0.0944855999999999,0,sub_1
0.0099761999999997,0.0238516000000011,0.007781,0.0490098000000004,-0.140982599999999,-0.0940849999999999,0,sub_1
0.0068063999999997,0.0261544000000011,0.0057314,0.0354110000000004,-0.119025599999999,-0.0852353999999999,0,sub_1
0.0036393999999997,0.0240992000000012,0.0026024,0.0181262000000004,-0.104110999999999,-0.0704207999999999,0,sub_1
-8.620000000022334e-05,0.0207016000000011,-0.0001593999999999,0.0035754000000004,-0.095819399999999,-0.0534421999999999,0,sub_1
-0.0006372000000002,0.0174984000000011,-0.0016271999999999,-0.0073617999999995,-0.091372799999999,-0.0370743999999999,0,sub_1
