userAcceleration.x,userAcceleration.y,userAcceleration.z,rotationRate.x,rotationRate.y,rotationRate.z,label,subject
-0.0081880000000002,0.0276646000000011,0.0070966000000001,-0.0050381999999995,0.0025956000000009,-0.0054215999999998,0,sub_8
-0.0084742000000002,0.0273056000000011,0.0066130000000001,-0.0071845999999995,0.0043302000000009,-0.0069539999999998,0,sub_8
-0.0087972000000002,0.0271036000000011,0.0060234000000001,-0.0074183999999995,0.0049900000000009,-0.0078305999999998,0,sub_8
-0.0093892000000002,0.0272810000000011,0.0059552,-0.0074443999999995,0.0041588000000009,-0.0089175999999998,0,sub_8
-0.0091388000000002,0.0272162000000012,0.0057908,-0.0091717999999995,0.0043996000000009,-0.0102315999999998,0,sub_8
-0.0090740000000001,0.0274858000000011,0.0062078,-0.0106751999999995,0.0065588000000009,-0.0119735999999998,0,sub_8
-0.0084952000000001,0.0281096000000011,0.006757,-0.0132117999999995,0.0114696000000009,-0.0124249999999998,0,sub_8
-0.0089046000000001,0.0286174000000011,0.0075034,-0.0159615999999995,0.0168056000000009,-0.0124509999999998,0,sub_8
-0.0088090000000001,0.0284096000000011,0.0078086,-0.0199975999999995,0.0210798000000009,-0.0122709999999998,0,sub_8
-0.0088710000000001,0.0287944000000011,0.0080088,-0.0242817999999995,0.0247448000000009,-0.0114713999999998,0,sub_8
-0.0094344000000001,0.0284462000000011,0.007924,-0.0277171999999995,0.0275538000000009,-0.0104511999999998,0,sub_8
-0.0096148000000001,0.0282330000000011,0.0077238,-0.0290263999999995,0.0278020000000009,-0.0102671999999998,0,sub_8
-0.0098038000000001,0.0279376000000011,0.0075022,-0.0305547999999995,0.0263484000000009,-0.0105099999999998,0,sub_8
-0.0095028000000001,0.0275194000000011,0.0074246,-0.0310163999999995,0.0253156000000009,-0.0103185999999998,0,sub_8
-0.0093972000000001,0.0270300000000012,0.007252,-0.0305923999999995,0.0244628000000009,-0.0105281999999999,0,sub_8
-0.0093278000000001,0.0274160000000012,0.0078938,-0.0297437999999995,0.0238190000000009,-0.0100939999999999,0,sub_8
-0.0096126000000001,0.0274502000000012,0.0088824,-0.0291141999999995,0.0218976000000009,-0.0096597999999999,0,sub_8
-0.0090452000000002,0.0276154000000012,0.0093676,-0.0276395999999995,0.0197932000000009,-0.0107371999999999,0,sub_8
-0.0089450000000002,0.0279744000000011,0.0081632,-0.0259503999999995,0.0179010000000009,-0.0118133999999998,0,sub_8
-0.0101330000000002,0.0278112000000011,0.0086938000000001,-0.0263911999999995,0.0189906000000009,-0.0107717999999998,0,sub_8
-0.0109050000000002,0.0273140000000011,0.0083664000000001,-0.0276911999999995,0.0192292000000009,-0.0093079999999998,0,sub_8
-0.0104472000000001,0.0270882000000011,0.0078428000000001,-0.0279243999999995,0.0179788000000009,-0.0093301999999998,0,sub_8
-0.0092260000000001,0.0265934000000011,0.0075320000000001,-0.0279271999999995,0.0179762000000009,-0.0086893999999998,0,sub_8
-0.0097752000000001,0.0261924000000011,0.0095848000000001,-0.0289931999999995,0.0192540000000009,-0.0076301999999999,0,sub_8
-0.0093930000000001,0.0254262000000011,0.0095026000000001,-0.0277235999999995,0.0169058000000009,-0.0076181999999999,0,sub_8
-0.0089444000000001,0.0258872000000011,0.0090238000000001,-0.0234867999999995,0.0135154000000009,-0.0073917999999999,0,sub_8
-0.0099882000000002,0.0264436000000011,0.0090530000000001,-0.0190375999999995,0.0116088000000009,-0.0054567999999999,0,sub_8
-0.0120824000000002,0.0269846000000011,0.0094852,-0.0139557999999995,0.0084198000000009,-0.0030881999999999,0,sub_8
-0.0127642000000002,0.0274666000000011,0.0093356,-0.0065335999999995,0.0026704000000009,-0.0017683999999999,0,sub_8
-0.0122424000000002,0.0287402000000011,0.009766,0.0008914000000004,-0.003500799999999,-0.0015161999999999,0,sub_8
-0.0122648000000002,0.0291942000000011,0.0105828,0.0053502000000004,-0.008416799999999,-0.0014787999999998,0,sub_8
-0.0114418000000002,0.0294984000000012,0.0109148,0.0087478000000004,-0.011413999999999,-0.0008101999999998,0,sub_8
-0.0105642000000002,0.0299878000000011,0.0107674,0.0127798000000004,-0.015054999999999,0.0005044,0,sub_8
-0.0100426000000002,0.0300102000000011,0.010822,0.0155322000000004,-0.017809799999999,0.0011642,0,sub_8
-0.0096680000000001,0.0289780000000011,0.0089160000000001,0.0153108000000004,-0.017146999999999,0.002226,0,sub_8
-0.0086830000000001,0.0272446000000011,0.0069880000000001,0.0116966000000004,-0.012421599999999,0.0026182,0,sub_8
-0.0082340000000001,0.0257254000000011,0.0057362000000001,0.0074528000000004,-0.006199399999999,0.0021494,0,sub_8
-0.0078508000000001,0.0244770000000011,0.0048318000000001,0.0025726000000004,0.0004530000000009,0.0012484,0,sub_8
-0.0074712000000001,0.0242064000000011,0.0041276,-0.0003915999999995,0.0051522000000009,0.0007944,0,sub_8
-0.0075200000000002,0.0246622000000011,0.005679,-0.0008145999999995,0.0062180000000009,0.0010038,0,sub_8
-0.0081240000000002,0.0260028000000011,0.0074208,0.0025878000000004,0.0034372000000009,0.0008174,0,sub_8
-0.0090272000000002,0.0277312000000012,0.0087462,0.0059798000000004,-0.001899199999999,0.0004206,0,sub_8
-0.0095002000000001,0.0291504000000012,0.0096348,0.0089800000000004,-0.007250399999999,-0.0001709999999999,0,sub_8
-0.0093458000000001,0.0296076000000011,0.0098962,0.0100692000000004,-0.0104643999999989,-0.0007785999999999,0,sub_8
-0.0093622000000001,0.0298850000000011,0.0103144,0.0111654000000004,-0.012823599999999,-0.0020281999999998,0,sub_8
-0.0090982000000001,0.0291004000000011,0.0099406,0.0116184000000004,-0.014970999999999,-0.0024279999999998,0,sub_8
-0.0085070000000001,0.0275346000000011,0.0089110000000001,0.0116476000000004,-0.015841199999999,-0.0021913999999998,0,sub_8
-0.0083582000000002,0.0262896000000011,0.008326,0.0118580000000004,-0.015844599999999,-0.0015489999999998,0,sub_8
-0.0087332000000002,0.0252952000000012,0.0075178,0.0133450000000004,-0.016492199999999,-0.0006831999999998,0,sub_8
-0.0092974000000002,0.0246842000000012,0.0066024,0.0149202000000004,-0.017200799999999,-0.0002071999999999,0,sub_8
-0.0096072000000002,0.0251728000000012,0.0058702,0.0152240000000004,-0.016836199999999,-0.0005959999999998,0,sub_8
-0.0102118000000002,0.0259870000000012,0.0064198,0.0133996000000004,-0.014549399999999,-0.0003611999999998,0,sub_8
-0.0109056000000001,0.0263868000000012,0.0067462000000001,0.0102952000000004,-0.011409199999999,0.0007182000000001,0,sub_8
-0.0104310000000001,0.0272654000000012,0.0073410000000001,0.0078270000000004,-0.009972399999999,0.0009496000000001,0,sub_8
-0.0099430000000001,0.0278736000000012,0.0071648000000001,0.0063392000000004,-0.009325399999999,0.0002974000000001,0,sub_8
-0.0096078000000001,0.0279412000000012,0.0082526,0.0059162000000004,-0.008471799999999,0.0002934,0,sub_8
-0.0088296000000001,0.0273718000000011,0.0082782,0.0074060000000004,-0.009965799999999,-0.0003353999999999,0,sub_8
-0.0079648000000002,0.0276112000000011,0.0079856,0.0101760000000004,-0.012100999999999,-0.0015951999999999,0,sub_8
-0.0083556000000002,0.0271402000000011,0.0081776,0.0117792000000004,-0.011970399999999,-0.0011155999999999,0,sub_8
-0.0090950000000002,0.0266250000000011,0.009411,0.0127432000000004,-0.010351399999999,0.0006396,0,sub_8
-0.0093502000000002,0.0263714000000011,0.0091972,0.0139120000000004,-0.011074999999999,0.0019718,0,sub_8
-0.0100536000000002,0.0269944000000011,0.0098444,0.0146550000000004,-0.011796199999999,0.0030874,0,sub_8
-0.0104614000000002,0.0265908000000011,0.0094374,0.0130518000000004,-0.012083999999999,0.0043996,0,sub_8
-0.0104000000000002,0.0265564000000011,0.0085124,0.0089948000000004,-0.011647999999999,0.0054388,0,sub_8
-0.0094644000000002,0.0259406000000012,0.007463,0.0036634000000004,-0.009929199999999,0.0064674,0,sub_8
-0.0098564000000002,0.0252142000000012,0.0061184,-0.0020171999999995,-0.005262999999999,0.007733,0,sub_8
-0.0093504000000002,0.0242834000000012,0.0038286,-0.0085465999999995,0.0004714000000009,0.0089914,0,sub_8
-0.0088814000000002,0.0236792000000012,0.0035842,-0.0133651999999995,0.0064154000000009,0.0096206,0,sub_8
-0.0087830000000002,0.0243180000000012,0.0046964,-0.0156127999999995,0.0140574000000009,0.0096246,0,sub_8
-0.0095868000000002,0.0255722000000011,0.0051908,-0.0165809999999995,0.0216940000000009,0.0098512,0,sub_8
-0.0098212000000001,0.0266316000000011,0.0068672,-0.0174133999999995,0.0263842000000009,0.0098394,0,sub_8
-0.0094700000000001,0.0285398000000011,0.0093206000000001,-0.0146299999999995,0.0274440000000009,0.0087894,0,sub_8
-0.0093706000000001,0.0302382000000011,0.0116382000000001,-0.0084507999999995,0.0246562000000009,0.0079816,0,sub_8
-0.0092760000000001,0.0306222000000011,0.0125876000000001,-0.0009873999999995,0.0173678000000009,0.0084878,0,sub_8
-0.0094884000000001,0.0309660000000011,0.0130902000000001,0.0064578000000004,0.0068804000000009,0.0098526,0,sub_8
-0.0087580000000002,0.0308766000000011,0.0129896000000001,0.0126218000000004,-0.002754799999999,0.0122754,0,sub_8
-0.0085698000000002,0.0286838000000011,0.0120726000000001,0.0158122000000004,-0.008972399999999,0.0151004,0,sub_8
-0.0079474000000002,0.0267454000000011,0.0099976000000001,0.0160354000000004,-0.011554199999999,0.0170454,0,sub_8
-0.0069864000000002,0.0255352000000011,0.0071276,0.0151800000000004,-0.011764999999999,0.0172532,0,sub_8
-0.0059428000000001,0.0246518000000012,0.0057086,0.0156144000000004,-0.010698799999999,0.0166138,0,sub_8
-0.0068368000000001,0.0243462000000011,0.005276,0.0175492000000004,-0.008994999999999,0.0151298,0,sub_8
-0.0088940000000001,0.0246556000000011,0.0048074,0.0184132000000004,-0.008564199999999,0.0132124,0,sub_8
-0.0092282000000001,0.0254606000000011,0.0042582,0.0179908000000004,-0.009592599999999,0.0095916,0,sub_8
-0.0100198000000001,0.0259676000000011,0.0054536000000001,0.0169294000000004,-0.011042399999999,0.005326,0,sub_8
-0.0109546000000002,0.0254306000000011,0.0066568,0.0133132000000004,-0.010992599999999,0.0012542,0,sub_8
-0.0104248000000002,0.0243324000000012,0.0068024,0.0079890000000004,-0.011574399999999,-0.0032561999999998,0,sub_8
-0.0071488000000002,0.0243216000000012,0.0067202,0.0043670000000004,-0.013863799999999,-0.0083931999999998,0,sub_8
-0.0065110000000002,0.0241352000000012,0.0079782,0.0026678000000004,-0.014911999999999,-0.0111811999999998,0,sub_8
-0.0066838000000001,0.0237214000000012,0.0085114,0.0020296000000004,-0.015332399999999,-0.0120397999999998,0,sub_8
-0.0057434000000001,0.0240000000000012,0.0068472000000001,0.0007464000000004,-0.017240199999999,-0.0133281999999998,0,sub_8
-0.0050862000000001,0.0249560000000012,0.0067440000000001,-0.0003509999999995,-0.019321599999999,-0.0148199999999998,0,sub_8
-0.0069690000000001,0.0255462000000012,0.0072814000000001,-0.0012293999999995,-0.018215599999999,-0.0143917999999998,0,sub_8
-0.0080900000000001,0.0256704000000011,0.0076348000000001,-0.0021115999999995,-0.017749599999999,-0.0137489999999998,0,sub_8
-0.0084190000000002,0.0259856000000011,0.0078022000000001,-0.0051217999999995,-0.016846599999999,-0.0139761999999999,0,sub_8
-0.0088412000000002,0.0271770000000011,0.0094822000000001,-0.0062095999999995,-0.015524199999999,-0.0141905999999999,0,sub_8
-0.0100216000000002,0.0288270000000011,0.0100274000000001,-0.0047091999999995,-0.013825799999999,-0.0139687999999998,0,sub_8
-0.0105442000000002,0.0292436000000011,0.0102478000000001,-0.0021475999999995,-0.012560799999999,-0.0128843999999998,0,sub_8
-0.0110598000000002,0.0298780000000011,0.0106508000000001,-0.0002587999999995,-0.011041799999999,-0.0109567999999998,0,sub_8
-0.0115204000000001,0.0300422000000011,0.0107766000000001,0.0031160000000004,-0.010807999999999,-0.0085897999999998,0,sub_8
-0.0115396000000001,0.0305142000000011,0.0098266000000001,0.0081910000000004,-0.011859399999999,-0.0059955999999998,0,sub_8
-0.0105604000000001,0.0285680000000011,0.0094752000000001,0.0098548000000004,-0.011410799999999,-0.0025725999999998,0,sub_8
-0.0106034000000001,0.0276742000000011,0.0092680000000001,0.0100250000000004,-0.010956999999999,0.00084,0,sub_8
-0.0098140000000001,0.0269428000000011,0.0082566000000001,0.0093724000000004,-0.010753599999999,0.0038262,0,sub_8
-0.0088538000000002,0.0265526000000012,0.0075876000000001,0.0085084000000004,-0.010123399999999,0.0068102,0,sub_8
-0.0087530000000001,0.0249998000000012,0.0074726000000001,0.0050926000000004,-0.008627799999999,0.0087072,0,sub_8
-0.0086134000000001,0.0252686000000011,0.0068794000000001,0.0042318000000004,-0.007992599999999,0.0095288,0,sub_8
-0.0075392000000001,0.0253924000000011,0.0066174000000001,0.0040208000000004,-0.006289999999999,0.0092854,0,sub_8
-0.0075238000000001,0.0256824000000011,0.0073480000000001,0.0044576000000004,-0.003946399999999,0.0079774,0,sub_8
-0.0080270000000001,0.0260974000000011,0.0082526000000001,0.0051068000000004,-0.002665399999999,0.0058178,0,sub_8
-0.0080198000000001,0.0266904000000011,0.0087428000000001,0.0063942000000004,-0.001600399999999,0.0038764,0,sub_8
-0.0081190000000001,0.0274268000000012,0.0096164000000001,0.0072592000000004,-0.000532199999999,0.0023856,0,sub_8
-0.0084108000000001,0.0277580000000012,0.0102548000000001,0.0081146000000004,-0.001594599999999,0.0008974,0,sub_8
-0.0082800000000001,0.0279898000000011,0.0103040000000001,0.0083212000000004,-0.003723199999999,0.0002606,0,sub_8
-0.0079698000000001,0.0277016000000011,0.0099848000000001,0.0080638000000004,-0.005412999999999,0.0002164,0,sub_8
-0.0077152000000001,0.0279216000000011,0.0101308000000001,0.0088724000000004,-0.006895399999999,0.0006066,0,sub_8
-0.0076718000000001,0.0269922000000011,0.0092184000000001,0.0090410000000004,-0.008587599999999,0.000779,0,sub_8
-0.0073904000000001,0.0266970000000011,0.0077392000000001,0.0096410000000004,-0.009215999999999,0.000953,0,sub_8
-0.0079974000000001,0.0266418000000012,0.0067504000000001,0.0113128000000004,-0.009419599999999,0.0004930000000001,0,sub_8
-0.0084386000000001,0.0262730000000012,0.0064976000000001,0.0121730000000004,-0.008143399999999,0.0002836000000001,0,sub_8
-0.0090340000000001,0.0256710000000012,0.0063448000000001,0.0113262000000004,-0.007285599999999,-0.0003641999999998,0,sub_8
-0.0084166000000002,0.0264820000000012,0.0061504000000001,0.0100574000000004,-0.005573399999999,-0.0012297999999998,0,sub_8
-0.0083392000000002,0.0266700000000012,0.0066836000000001,0.0074774000000004,-0.002964399999999,-0.0021207999999998,0,sub_8
-0.0075358000000001,0.0256762000000012,0.0066772000000001,0.0040400000000004,-0.000143599999999,-0.0019497999999999,0,sub_8
-0.0066326000000001,0.0258622000000012,0.0064018,0.0010324000000004,0.0020416000000009,-0.0030567999999999,0,sub_8
-0.0062210000000001,0.0256866000000012,0.0059066,-0.0011217999999995,0.0050728000000009,-0.0033043999999999,0,sub_8
-0.0073966000000001,0.0247854000000011,0.0062458,-0.0028567999999995,0.0076714000000009,-0.0022667999999999,0,sub_8
-0.0079274000000001,0.0251312000000011,0.0065274,-0.0037053999999995,0.0091642000000009,-0.0018473999999999,0,sub_8
-0.0083712000000002,0.0266974000000011,0.0071154,-0.0041243999999995,0.0098092000000009,-0.0029193999999999,0,sub_8
-0.0085062000000002,0.0277694000000011,0.0074346,-0.0039109999999995,0.0095964000000009,-0.0031311999999999,0,sub_8
-0.0088190000000002,0.0283848000000011,0.008262,-0.0047825999999995,0.0096588000000009,-0.0037631999999999,0,sub_8
-0.0085224000000002,0.0286278000000011,0.0085732,-0.0056475999999995,0.0105760000000009,-0.0050371999999999,0,sub_8
-0.0078744000000002,0.0286806000000011,0.0091480000000001,-0.0067287999999995,0.0114914000000009,-0.0056715999999999,0,sub_8
-0.0079818000000002,0.0277460000000011,0.0084946000000001,-0.0071755999999995,0.0117628000000009,-0.0056597999999999,0,sub_8
-0.0078234000000002,0.0264214000000011,0.0082002000000001,-0.0074079999999995,0.0120342000000009,-0.0058603999999998,0,sub_8
-0.0070378000000002,0.0253348000000011,0.0073960000000001,-0.0076185999999995,0.0126742000000008,-0.0058627999999998,0,sub_8
-0.0070112000000002,0.0250038000000012,0.0068770000000001,-0.0076165999999995,0.0133124000000009,-0.0056497999999998,0,sub_8
-0.0077468000000002,0.0245888000000012,0.0068134000000001,-0.0076165999999995,0.0135246000000009,-0.0054365999999998,0,sub_8
-0.0082226000000002,0.0250654000000012,0.0068922000000001,-0.0080385999999995,0.0145914000000009,-0.0054409999999998,0,sub_8
-0.0088846000000002,0.0257262000000011,0.0070548000000001,-0.0095575999999995,0.0159298000000009,-0.0048087999999999,0,sub_8
-0.0094764000000002,0.0267184000000011,0.0078038000000001,-0.0110783999999995,0.0168420000000009,-0.0041759999999998,0,sub_8
-0.0097342000000002,0.0276744000000011,0.0083886000000001,-0.0117485999999995,0.0166876000000009,-0.0039633999999998,0,sub_8
-0.0095720000000001,0.0277618000000011,0.0081302,-0.0124177999999995,0.0167462000000009,-0.0037507999999998,0,sub_8
-0.0095690000000001,0.0273616000000011,0.0089472,-0.0133003999999995,0.0168056000000009,-0.0035397999999998,0,sub_8
-0.0092504000000001,0.0271150000000011,0.0092564,-0.0126621999999995,0.0163772000000009,-0.0035347999999998,0,sub_8
-0.0091292000000001,0.0267380000000011,0.0091658,-0.0111723999999995,0.0155198000000009,-0.0035233999999998,0,sub_8
-0.0078970000000001,0.0262168000000011,0.009165,-0.0099329999999995,0.0142856000000009,-0.0035159999999999,0,sub_8
-0.0076664000000001,0.0262594000000011,0.0088462,-0.0086955999999995,0.0130496000000009,-0.0030813999999999,0,sub_8
-0.0070498000000001,0.0266292000000011,0.008615,-0.0074571999999995,0.0120266000000009,-0.0026471999999999,0,sub_8
-0.0069090000000001,0.0269754000000011,0.0085528,-0.0066455999999995,0.0101564000000009,-0.0030693999999999,0,sub_8
-0.0067118000000001,0.0267382000000011,0.008186,-0.0049823999999995,0.0080692000000009,-0.0032715999999999,0,sub_8
-0.0076800000000001,0.0264086000000011,0.0074696,-0.0043451999999995,0.0072156000000009,-0.0034797999999998,0,sub_8
-0.0090104000000001,0.0263748000000011,0.007619,-0.0043441999999995,0.0078530000000009,-0.0030533999999998,0,sub_8
-0.0098096000000001,0.0264114000000011,0.0075014,-0.0041365999999995,0.0080594000000009,-0.0015565999999998,0,sub_8
-0.0098276000000002,0.0267472000000011,0.0071322,-0.0020181999999995,0.0057040000000009,-0.0004703999999998,0,sub_8
-0.0090068000000001,0.0273724000000011,0.0074128,-0.0005755999999995,0.0031866000000009,-0.0006719999999998,0,sub_8
-0.0096106000000001,0.0278594000000011,0.0088476,0.0006516000000004,0.0008806000000009,-0.0002343999999999,0,sub_8
-0.0082054000000001,0.0276496000000011,0.0092030000000001,0.0027276000000004,-0.003130199999999,-0.0004297999999999,0,sub_8
-0.0074074000000001,0.0270038000000011,0.0094498000000001,0.0050208000000004,-0.006713999999999,-0.0010513999999999,0,sub_8
-0.0076252000000001,0.0268040000000011,0.0100256000000001,0.0054042000000004,-0.006461999999999,-0.0001957999999999,0,sub_8
-0.0091480000000002,0.0266208000000012,0.0100226000000001,0.0053984000000004,-0.006042599999999,0.0015128,0,sub_8
-0.0085754000000002,0.0270554000000011,0.0091390000000001,0.0064538000000004,-0.007754199999999,0.0023768,0,sub_8
-0.0085160000000002,0.0276892000000011,0.0095788000000001,0.0077264000000004,-0.0092509999999989,0.0026014,0,sub_8
-0.0084628000000002,0.0282774000000011,0.0098280000000001,0.0081294000000004,-0.0103047999999989,0.0026112,0,sub_8
-0.0084184000000002,0.0279850000000011,0.0097122000000001,0.0076828000000004,-0.0107157999999989,0.0024006,0,sub_8
-0.0081874000000002,0.0271920000000011,0.0096762000000001,0.0078782000000004,-0.0102783999999989,0.0026206,0,sub_8
-0.0085902000000002,0.0267666000000012,0.0093778000000001,0.0078668000000004,-0.0089853999999989,0.0021972,0,sub_8
-0.0090644000000002,0.0262102000000012,0.0086872000000001,0.0076382000000004,-0.008331599999999,0.0019866,0,sub_8
-0.0091230000000001,0.0254140000000012,0.0076432000000001,0.0082830000000004,-0.007905199999999,0.0013496,0,sub_8
-0.0087236000000001,0.0254254000000012,0.0067102000000001,0.0097766000000004,-0.007910399999999,0.00136,0,sub_8
-0.0087076000000001,0.0260280000000012,0.0069006000000001,0.0097828000000004,-0.007932999999999,0.0013766,0,sub_8
-0.0086920000000001,0.0261154000000012,0.0072886000000001,0.0097862000000004,-0.007745999999999,0.0022476,0,sub_8
-0.0087038000000001,0.0261878000000012,0.0077808000000001,0.0100058000000004,-0.007344999999999,0.0026924,0,sub_8
-0.0084678000000002,0.0266756000000012,0.0085750000000001,0.0097986000000004,-0.006942399999999,0.0031342,0,sub_8
-0.0092710000000002,0.0262760000000012,0.0086952,0.0098086000000004,-0.006112799999999,0.0031496,0,sub_8
-0.0096330000000002,0.0266388000000012,0.0085852,0.0095962000000004,-0.005686799999999,0.0033612,0,sub_8
-0.0088206000000002,0.0267532000000011,0.008559,0.0100220000000003,-0.005476999999999,0.0037912,0,sub_8
-0.0084564000000002,0.0268562000000011,0.0077496,0.0100228000000003,-0.004627399999999,0.0044312,0,sub_8
-0.0081426000000001,0.0270874000000011,0.0076426,0.0094150000000003,-0.002548399999999,0.0057252,0,sub_8
-0.0073188000000001,0.0278830000000011,0.0081518000000001,0.0092368000000004,-4.3799999999036274e-05,0.006808,0,sub_8
-0.0067756000000001,0.0276860000000011,0.0079844000000001,0.0105550000000004,0.0026702000000009,0.0074736,0,sub_8
-0.0079780000000001,0.0279322000000012,0.0081296,0.0103778000000004,0.0056000000000009,0.0087694,0,sub_8
-0.0091594000000001,0.0287036000000012,0.0086822,0.0099824000000004,0.0081020000000009,0.0107052,0,sub_8
-0.0095350000000001,0.0290038000000012,0.0083486,0.0106148000000004,0.0074564000000009,0.0117786,0,sub_8
-0.0096992000000001,0.0284132000000011,0.0078382,0.0114568000000004,0.0048968000000009,0.0117878,0,sub_8
-0.0095052000000001,0.0278624000000011,0.0078548,0.0108034000000004,0.0027652000000009,0.0126406,0,sub_8
-0.0082448000000002,0.0270320000000011,0.0072624,0.0097592000000004,0.0022928000000009,0.0132926,0,sub_8
-0.0067462000000002,0.0260092000000011,0.0065092,0.0093562000000004,0.0011824000000009,0.0130954,0,sub_8
-0.0058660000000002,0.0251356000000011,0.0066494,0.0089628000000004,0.0015660000000009,0.0122554,0,sub_8
-0.0056654000000002,0.0253866000000012,0.0073294,0.0077196000000004,0.0034414000000009,0.0120484,0,sub_8
-0.0053880000000002,0.0260820000000012,0.007478,0.0066868000000004,0.0044646000000009,0.0116304,0,sub_8
-0.0057360000000002,0.0264742000000012,0.0079784000000001,0.0071164000000004,0.0042536000000009,0.0107792,0,sub_8
-0.0064590000000002,0.0270928000000012,0.0083208000000001,0.0075498000000004,0.0044702000000009,0.0095,0,sub_8
-0.0080080000000002,0.0272374000000011,0.0081736000000001,0.0079814000000004,0.0048974000000009,0.0088616,0,sub_8
-0.0090356000000002,0.0268510000000011,0.0076466000000001,0.0075622000000004,0.0050920000000009,0.009082,0,sub_8
-0.0099180000000002,0.0274936000000011,0.0076334000000001,0.0075718000000004,0.0050748000000009,0.0086646,0,sub_8
-0.0105562000000002,0.0281448000000011,0.0078290000000001,0.0069392000000004,0.0037848000000009,0.0073898,0,sub_8
-0.0102282000000002,0.0279466000000011,0.0078438000000001,0.0058772000000004,0.0029182000000009,0.0071798,0,sub_8
-0.0100646000000002,0.0277974000000012,0.0079978,0.0039606000000004,0.0026902000000009,0.0078174,0,sub_8
-0.0090308000000002,0.0274204000000012,0.0078972,0.0031062000000004,0.0024802000000009,0.0078118,0,sub_8
-0.0074444000000002,0.0260146000000012,0.0073132,0.0026814000000004,0.0024834000000009,0.0073816,0,sub_8
