userAcceleration.x,userAcceleration.y,userAcceleration.z,rotationRate.x,rotationRate.y,rotationRate.z,label,subject
0.0155731999999997,-0.0109119999999988,0.0150478,0.0032592000000004,0.0002176000000009,0.0073852,0,sub_13
0.0158965999999997,-0.0111917999999988,0.015244,0.0028308000000003,0.0002100000000009,0.0069458,0,sub_13
0.0164957999999997,-0.0113817999999987,0.0156528,0.0026278000000003,0.0021300000000009,0.0065148,0,sub_13
0.0165559999999997,-0.0113793999999988,0.0154082,0.0030632000000003,0.0036216000000009,0.0060886,0,sub_13
0.0168333999999997,-0.0112069999999987,0.0153024,0.0020040000000004,0.0049054000000009,0.0056522,0,sub_13
0.0167727999999997,-0.0111573999999988,0.0140888,0.0005088000000004,0.0053186000000009,0.0047668,0,sub_13
0.0167257999999997,-0.0114175999999987,0.013438,-0.0001311999999995,0.0061550000000009,0.0038868,0,sub_13
0.0163823999999997,-0.0116631999999987,0.0125854,-0.0005691999999995,0.0048584000000009,0.0034382,0,sub_13
0.0151315999999997,-0.0109053999999987,0.0127588,-0.0012185999999995,0.0046254000000009,0.0036278,0,sub_13
0.0146501999999997,-0.0106081999999987,0.0124852,-0.0014395999999995,0.0046046000000009,0.0036064,0,sub_13
0.0142237999999997,-0.0103573999999987,0.0128632,-0.0010147999999995,0.0046014000000009,0.0040366,0,sub_13
0.0137857999999997,-0.0109717999999987,0.0127258,-0.0010195999999995,0.0039604000000009,0.0044646,0,sub_13
0.0140509999999997,-0.0111531999999987,0.0134442,4.240000000042179e-05,0.0028914000000009,0.0044734,0,sub_13
0.0162147999999997,-0.0122531999999987,0.0137686,0.0010984000000004,0.0005274000000009,0.0036048,0,sub_13
0.0171021999999997,-0.0124947999999987,0.0144902,0.0017268000000004,-0.002260199999999,0.00252,0,sub_13
0.0171939999999997,-0.0119181999999987,0.0151272,0.0017246000000004,-0.003763799999999,0.0005746,0,sub_13
0.0171953999999997,-0.0094517999999988,0.0161074,0.0006642000000004,-0.003558399999999,-0.0015937999999999,0,sub_13
0.0172127999999997,-0.0088355999999987,0.0153586,-0.0018897999999995,-0.003772199999999,-0.0041995999999999,0,sub_13
0.0168157999999997,-0.0090107999999987,0.0145794,-0.0037997999999995,-0.003543799999999,-0.0063495999999999,0,sub_13
0.0159293999999997,-0.0096591999999987,0.0145364,-0.0054981999999995,-0.002469199999999,-0.0072173999999999,0,sub_13
0.0155013999999997,-0.0100135999999987,0.0139794,-0.0057135999999995,-0.002894599999999,-0.0072181999999999,0,sub_13
0.0142101999999997,-0.0109981999999987,0.0142514,-0.0052933999999995,-0.002279599999999,-0.0070321999999999,0,sub_13
0.0135687999999997,-0.0108225999999987,0.01447,-0.0042395999999995,-0.001884999999999,-0.0055595999999999,0,sub_13
0.0128645999999997,-0.0106165999999988,0.0146576,-0.0031847999999994,-0.001277199999999,-0.0040873999999999,0,sub_13
0.0124415999999997,-0.0107303999999987,0.014377,-0.0012785999999995,-0.001947399999999,-0.0034619999999999,0,sub_13
0.0130969999999997,-0.0110483999999988,0.0144778,0.0002086000000004,-0.001123799999999,-0.0030551999999999,0,sub_13
0.0143421999999997,-0.0117239999999988,0.0135654,0.0012630000000004,-0.003048399999999,-0.0021907999999999,0,sub_13
0.0146367999999997,-0.0116105999999988,0.0138326,0.0023308000000004,-0.002838999999999,-0.0021835999999999,0,sub_13
0.0154909999999997,-0.0110749999999988,0.0145074,0.0014654000000004,-0.003711199999999,-0.0024349999999999,0,sub_13
0.0168767999999997,-0.0105059999999988,0.014626,0.0001782000000004,-0.003728799999999,-0.0029041999999999,0,sub_13
0.0162079999999997,-0.0097455999999987,0.014788,-0.0006831999999995,-0.003536599999999,-0.0029433999999999,0,sub_13
0.0155611999999997,-0.0090679999999987,0.015239,-0.0006833999999995,-0.001854999999999,-0.0031921999999999,0,sub_13
0.0156997999999997,-0.0093161999999987,0.0152364,-0.0006847999999995,-0.001023199999999,-0.0040807999999999,0,sub_13
0.0155711999999997,-0.0097361999999987,0.0143594,-0.0002579999999995,-0.001661399999999,-0.0047179999999999,0,sub_13
0.0153411999999997,-0.0098993999999987,0.0139028,-0.0004751999999995,-0.002724999999999,-0.0049317999999999,0,sub_13
0.0158379999999997,-0.0106957999999988,0.014135,-0.0021841999999995,-0.004205999999999,-0.0060099999999999,0,sub_13
0.0159635999999997,-0.0125997999999988,0.013774,-0.0030571999999995,-0.006141999999999,-0.0060485999999999,0,sub_13
0.0146045999999997,-0.0131489999999988,0.012979,-0.0030803999999995,-0.007023399999999,-0.0041597999999999,0,sub_13
0.0128813999999997,-0.0125653999999988,0.0133448,-0.0026683999999995,-0.005352199999999,-0.0016303999999999,0,sub_13
0.0115909999999997,-0.0125189999999987,0.01345,-0.0011855999999995,-0.002620399999999,0.0011188,0,sub_13
0.0110233999999997,-0.0125647999999987,0.0126772,0.0013640000000004,0.0003198000000009,0.0040888,0,sub_13
0.0123253999999997,-0.0113191999999987,0.012637,0.0026452000000004,0.0022260000000009,0.0058044,0,sub_13
0.0144191999999997,-0.0102359999999987,0.014003,0.0032910000000004,0.0032900000000009,0.0055938,0,sub_13
0.0171383999999997,-0.0095999999999987,0.014396,0.0043694000000004,0.0037210000000009,0.0034644,0,sub_13
0.0183953999999997,-0.0083281999999987,0.015306,0.0037384000000004,0.0030814000000009,-0.0008433999999999,0,sub_13
0.0187813999999997,-0.0066255999999987,0.015946,0.0018254000000004,0.0015958000000009,-0.0055863999999999,0,sub_13
0.0177531999999997,-0.0058503999999987,0.0162672,0.0003448000000004,0.0009624000000009,-0.0107545999999999,0,sub_13
0.0169267999999997,-0.0076693999999987,0.0151198,-0.0013491999999995,0.0011786000000009,-0.0150707999999999,0,sub_13
0.0165629999999997,-0.0097241999999987,0.0142266,-0.0034803999999995,0.0009626000000009,-0.0174667999999999,0,sub_13
0.0166011999999997,-0.0119097999999987,0.0131868,-0.0047681999999995,-0.000525199999999,-0.0172601999999999,0,sub_13
0.0157133999999997,-0.0138689999999987,0.012555,-0.0056389999999995,-0.002447399999999,-0.0153409999999999,0,sub_13
0.0150631999999997,-0.0155961999999987,0.012139,-0.0067241999999995,-0.003308599999999,-0.0121427999999999,0,sub_13
0.0139215999999997,-0.0158721999999987,0.012249,-0.0054677999999995,-0.003970999999999,-0.0074329999999999,0,sub_13
0.0131653999999997,-0.0157225999999987,0.0125094,-0.0035719999999995,-0.005069799999999,-0.0027297999999999,0,sub_13
0.0128605999999997,-0.0153889999999987,0.0131888,-0.0020963999999995,-0.005099999999999,0.0015418,0,sub_13
0.0145595999999997,-0.0156193999999987,0.013522,-0.0001871999999995,-0.004489199999999,0.004961,0,sub_13
0.0155221999999997,-0.0143559999999988,0.0142854,0.0015058000000004,-0.005153399999999,0.0077394,0,sub_13
0.0163613999999997,-0.0121953999999988,0.014782,0.0006458000000004,-0.005801799999999,0.0087908,0,sub_13
0.0155659999999997,-0.0110975999999988,0.0152744,0.0002218000000004,-0.004524599999999,0.0094272,0,sub_13
0.0152769999999997,-0.0095131999999987,0.015109,0.0015146000000004,-0.002183799999999,0.009006,0,sub_13
0.0147177999999997,-0.0079737999999988,0.014862,0.0021722000000004,-4.9599999999087264e-05,0.0077262,0,sub_13
0.0147879999999997,-0.0071525999999988,0.0138936,0.0021926000000004,0.0018772000000008,0.0055876,0,sub_13
0.0147099999999997,-0.0067705999999987,0.0137698,0.0024244000000004,0.0029528000000008,0.0030242,0,sub_13
0.0150215999999997,-0.0063601999999988,0.0134154,0.0024448000000004,0.0031820000000008,-0.0008213999999999,0,sub_13
0.0147351999999997,-0.0066809999999987,0.0133424,0.0011790000000004,0.0025618000000008,-0.0042475999999999,0,sub_13
0.0150793999999997,-0.0072613999999987,0.013615,0.0003398000000004,0.0023654000000009,-0.0076713999999999,0,sub_13
0.0158115999999997,-0.0083967999999987,0.0134288,-0.0015757999999995,0.0004666000000009,-0.0106733999999999,0,sub_13
0.0159011999999997,-0.0100291999999987,0.0123588,-0.0028617999999995,-0.002080599999999,-0.0119609999999999,0,sub_13
0.0147899999999997,-0.0099117999999987,0.0124946,-0.0037201999999995,-0.003142799999999,-0.0119655999999999,0,sub_13
0.0144277999999997,-0.0104899999999987,0.012655,-0.0039331999999995,-0.003985999999999,-0.0119569999999999,0,sub_13
0.0137515999999997,-0.0122035999999987,0.012054,-0.0035137999999995,-0.004625999999999,-0.0100215999999999,0,sub_13
0.0131003999999997,-0.0134571999999987,0.0120904,-0.0011691999999995,-0.003358599999999,-0.0072203999999999,0,sub_13
0.0139301999999997,-0.0135741999999987,0.013062,0.0003256000000004,-0.001660399999999,-0.0048529999999999,0,sub_13
0.0156663999999997,-0.0149935999999987,0.0132596,0.0018138000000004,-0.001241399999999,-0.0022703999999999,0,sub_13
0.0167319999999997,-0.0149013999999987,0.013374,0.0024434000000004,-0.000828599999999,0.0005108,0,sub_13
0.0174459999999997,-0.0129637999999987,0.0140962,0.0017976000000004,-0.000831399999999,0.0017882,0,sub_13
0.0168553999999997,-0.0107915999999987,0.015033,0.0013688000000004,-0.000195199999999,0.0028526,0,sub_13
0.0163813999999997,-0.0096261999999987,0.0149946,0.0013756000000004,0.0013004000000009,0.0028592,0,sub_13
0.0159985999999997,-0.0088207999999987,0.0145672,0.0005280000000004,0.0017370000000009,0.0020064,0,sub_13
0.0159635999999997,-0.0085229999999987,0.0140528,-0.0003235999999995,0.0015336000000009,0.0013682,0,sub_13
0.0151801999999997,-0.0087167999999987,0.0137132,-0.0001073999999995,0.0017516000000009,0.0009506,0,sub_13
0.0153631999999997,-0.0093579999999987,0.0130328,-0.0005301999999995,0.0021852000000009,0.0005282,0,sub_13
0.0156411999999997,-0.0094153999999987,0.0127848,-0.0011721999999995,0.0011246000000009,-0.0001157999999999,0,sub_13
0.0154639999999997,-0.0094351999999987,0.0120942,-0.0011789999999995,-0.001003399999999,-0.0007539999999999,0,sub_13
0.0149913999999997,-0.0099213999999987,0.012772,-0.0005327999999995,-0.002060399999999,-0.0015765999999999,0,sub_13
0.0154419999999997,-0.0100767999999987,0.0128426,-0.0007409999999995,-0.003115199999999,-0.0021915999999999,0,sub_13
0.0156851999999997,-0.0098623999999987,0.0127386,-0.0007397999999995,-0.005447399999999,-0.0032307999999999,0,sub_13
0.0153513999999997,-0.0100631999999987,0.01318,-0.0005221999999995,-0.006716799999999,-0.0038425999999999,0,sub_13
0.0152885999999997,-0.0100685999999987,0.0146972,-0.0011541999999995,-0.006706599999999,-0.0040345999999999,0,sub_13
0.0156827999999997,-0.0099273999999987,0.014415,-0.0020105999999995,-0.007130599999999,-0.0038263999999999,0,sub_13
0.0152475999999997,-0.0104607999999987,0.0151014,-0.0013695999999995,-0.006495399999999,-0.0033953999999999,0,sub_13
0.0146995999999997,-0.0112173999999987,0.0159594,-0.0005093999999995,-0.003945999999999,-0.0023243999999999,0,sub_13
0.0150643999999997,-0.0114189999999987,0.015514,0.0001370000000004,-0.002026599999999,-0.0010341999999999,0,sub_13
0.0155261999999997,-0.0112485999999987,0.0148818,0.0005738000000004,0.0003214000000009,-0.0001731999999999,0,sub_13
0.0157283999999997,-0.0112733999999987,0.014517,0.0005840000000004,0.0020342000000009,4.4600000000019536e-05,0,sub_13
0.0159095999999997,-0.0103841999999987,0.0138008,-4.679999999957832e-05,0.0028996000000009,-0.0003819999999999,0,sub_13
0.0170203999999997,-0.0100173999999987,0.0131314,-0.0008967999999995,0.0020630000000009,-0.0012351999999999,0,sub_13
0.0176687999999997,-0.0103211999999987,0.0130076,-0.0021797999999995,0.0003674000000009,-0.0023101999999999,0,sub_13
0.0166765999999997,-0.0105041999999988,0.0123746,-0.0026141999999995,-0.001335599999999,-0.0023111999999999,0,sub_13
0.0152237999999997,-0.0102159999999988,0.012262,-0.0028323999999995,-0.001975599999999,-0.0018845999999999,0,sub_13
0.0151769999999997,-0.0104879999999988,0.0127574,-0.0021971999999995,-0.002406399999999,-0.0012385999999999,0,sub_13
0.0143095999999997,-0.0105259999999988,0.0121908,-0.0013387999999995,-0.001552399999999,-0.0005737999999999,0,sub_13
0.0136099999999997,-0.0109133999999987,0.0120634,0.0001616000000004,-0.000486799999999,-0.0001185999999999,0,sub_13
0.0147845999999997,-0.0113665999999987,0.0126234,0.0010192000000004,-0.000694599999999,-0.0003069999999999,0,sub_13
0.0166613999999997,-0.0116709999999987,0.0133096,0.0014480000000004,-0.001751399999999,-0.0009247999999999,0,sub_13
0.0171131999999997,-0.0120287999999987,0.0133716,0.0008100000000004,-0.002592399999999,-0.0013365999999999,0,sub_13
0.0172005999999997,-0.0118187999999987,0.014748,0.0003814000000004,-0.003016999999999,-0.0013391999999999,0,sub_13
0.0168915999999997,-0.0108491999999987,0.0148036,-0.0002549999999995,-0.002162399999999,-0.0013445999999999,0,sub_13
0.0163637999999997,-0.0108221999999987,0.0142636,-0.0004591999999995,-0.000874799999999,-0.0017591999999999,0,sub_13
0.0155983999999997,-0.0112435999999987,0.0140178,-0.0002363999999995,0.0008356000000009,-0.0017439999999999,0,sub_13
0.0154323999999997,-0.0117349999999987,0.0140318,-0.0002327999999995,0.0014808000000009,-0.0015153999999999,0,sub_13
0.0153035999999997,-0.0121569999999987,0.0131012,-0.0006617999999995,0.0006368000000009,-0.0015013999999999,0,sub_13
0.0148813999999997,-0.0127293999999987,0.0132952,-0.0008781999999995,3.4000000009731973e-06,-0.0010591999999999,0,sub_13
0.0142317999999997,-0.0125049999999987,0.0137902,-0.0006685999999995,0.0002114000000009,1.0200000000059554e-05,0,sub_13
0.0139115999999997,-0.0119389999999988,0.0134286,0.0006116000000004,0.0008436000000009,0.0006592,0,sub_13
0.0138765999999997,-0.0109571999999988,0.0127882,0.0016774000000004,0.0012634000000009,0.001307,0,sub_13
0.0144055999999997,-0.0109107999999988,0.0132708,0.0027464000000003,0.0016900000000009,0.0017524,0,sub_13
0.0148081999999997,-0.0103353999999987,0.0139336,0.0033894000000003,0.0025434000000009,0.002408,0,sub_13
0.0159405999999997,-0.0098721999999987,0.014349,0.0033962000000003,0.0034024000000009,0.0022046,0,sub_13
0.0165649999999997,-0.0097931999999987,0.014561,0.0021170000000003,0.0029876000000009,0.0019938,0,sub_13
0.0171883999999997,-0.0099913999999987,0.014888,0.0012684000000004,0.0027868000000009,0.0011448,0,sub_13
0.0166431999999997,-0.0093073999999987,0.0154076,0.0004186000000004,0.0027932000000009,0.0002842,0,sub_13
0.0167005999999997,-0.0100451999999987,0.014407,-0.0002215999999995,0.0015222000000009,-0.0010003999999999,0,sub_13
0.0163399999999997,-0.0103041999999987,0.0140594,-0.0008655999999995,0.0002478000000009,-0.0014305999999999,0,sub_13
0.0159189999999997,-0.0106383999999987,0.0141002,-0.0010789999999995,3.6200000000953263e-05,-0.0016453999999999,0,sub_13
0.0152415999999997,-0.0108225999999987,0.0137964,-0.0010799999999995,-0.000379799999999,-0.0012051999999999,0,sub_13
0.0148751999999997,-0.0110011999999987,0.0131336,-0.0004379999999995,-0.000158799999999,-0.0007613999999999,0,sub_13
0.0141205999999997,-0.0103159999999988,0.0138588,-0.0002197999999995,0.0007028000000009,-0.0003213999999999,0,sub_13
0.0140975999999997,-0.0105577999999988,0.0137916,0.0004212000000004,0.0007106000000009,0.0001226,0,sub_13
0.0141605999999997,-0.0101737999999988,0.0136292,0.0006354000000004,0.0002956000000009,0.000137,0,sub_13
0.0143815999999997,-0.0099321999999988,0.0136132,0.0004220000000004,-0.000340199999999,-0.0005045999999999,0,sub_13
0.0150507999999997,-0.0106667999999988,0.0136818,-0.0006543999999995,-0.002679199999999,-0.0007225999999999,0,sub_13
0.0149371999999997,-0.0102631999999988,0.0139942,-0.0006577999999995,-0.003738799999999,-6.979999999996052e-05,0,sub_13
0.0139995999999997,-0.0093979999999988,0.0146356,-0.0015041999999995,-0.003088199999999,-6.59999999999805e-05,0,sub_13
0.0134293999999997,-0.0092727999999988,0.014658,-0.0010721999999995,-0.002656199999999,0.0001606,0,sub_13
0.0135631999999997,-0.0101865999999988,0.0144338,-0.0010689999999995,-0.002224399999999,0.0008116,0,sub_13
0.0137415999999997,-0.0104171999999987,0.013787,-0.0004227999999996,-0.001579999999999,0.0010393999999999,0,sub_13
0.0151365999999997,-0.0114267999999987,0.0128192,-0.0006391999999995,-0.002642799999999,0.0006119999999999,0,sub_13
0.0158861999999997,-0.0118913999999987,0.012902,-0.0002181999999995,-0.003922599999999,0.0006165999999999,0,sub_13
0.0162463999999997,-0.0119343999999987,0.0134428,-3.999999999578559e-06,-0.003285799999999,0.0010445999999999,0,sub_13
0.0157345999999997,-0.0110875999999987,0.013949,0.0006458000000004,-0.001788199999999,0.0010565999999999,0,sub_13
0.0154489999999997,-0.0101019999999988,0.0140742,0.0012992000000004,0.0001372000000009,0.0006408,0,sub_13
0.0145721999999997,-0.0096505999999987,0.0141996,0.0015260000000004,0.0022764000000009,0.0004354,0,sub_13
0.0148163999999997,-0.0101519999999988,0.0135388,0.0015364000000004,0.0035648000000009,1.6000000000039593e-05,0,sub_13
0.0148577999999997,-0.0099135999999987,0.0132928,0.0009010000000004,0.0033650000000009,-0.0006195999999999,0,sub_13
0.0146545999999997,-0.0097089999999987,0.013522,5.040000000046136e-05,0.0031584000000009,-0.0014797999999999,0,sub_13
0.0144671999999997,-0.0095567999999987,0.013872,-0.0005829999999995,0.0042276000000009,-0.0019127999999999,0,sub_13
0.0150339999999997,-0.0098027999999987,0.0142566,-0.0001495999999995,0.0048686000000009,-0.0027651999999999,0,sub_13
0.0151873999999997,-0.0098421999999987,0.0140994,6.66000000004413e-05,0.0048704000000009,-0.0034045999999999,0,sub_13
0.0152423999999997,-0.0109169999999988,0.013894,6.740000000044132e-05,0.0050856000000009,-0.0033997999999999,0,sub_13
0.0153985999999997,-0.0120279999999988,0.0135904,0.0002738000000004,0.0048688000000009,-0.0021109999999999,0,sub_13
0.0147895999999997,-0.0130175999999988,0.0141734,0.0009032000000004,0.0046472000000009,3.540000000001944e-05,0,sub_13
0.0147317999999997,-0.0128509999999988,0.0143438,0.0013174000000004,0.0046368000000009,0.002821,0,sub_13
0.0144729999999997,-0.0128487999999988,0.0140826,0.0019498000000004,0.0052666000000009,0.0051799999999999,0,sub_13
0.0148869999999997,-0.0125153999999987,0.0139228,0.0025804000000004,0.0052558000000009,0.0073208,0,sub_13
0.0158607999999997,-0.0124373999999987,0.0133386,0.0027814000000004,0.0039708000000009,0.0088192,0,sub_13
0.0163811999999997,-0.0116091999999988,0.0136914,0.0034148000000004,0.0031138000000009,0.0094656,0,sub_13
0.0158801999999997,-0.0112893999999988,0.0144238,0.0025620000000004,0.0035414000000009,0.0094624,0,sub_13
0.0158073999999997,-0.0110365999999988,0.0144102,0.0019160000000004,0.0026890000000009,0.0096758,0,sub_13
0.0151097999999997,-0.0102921999999988,0.0145242,0.0021282000000004,0.0022624000000009,0.009254,0,sub_13
0.0137501999999997,-0.0093301999999988,0.015295,0.0021356000000004,0.0035418000000009,0.0086148,0,sub_13
0.0144503999999997,-0.0092875999999988,0.0144234,0.0006476000000004,0.0044002000000009,0.0079656,0,sub_13
0.0151755999999997,-0.0096299999999988,0.014022,7.600000000421246e-06,0.0044024000000009,0.007961,0,sub_13
0.0153881999999997,-0.0094877999999988,0.0147738,-0.0004115999999995,0.0056840000000009,0.0075292,0,sub_13
0.0162389999999997,-0.0096973999999988,0.0143956,-0.0010459999999995,0.0059048000000009,0.0064586,0,sub_13
0.0163813999999997,-0.0096519999999987,0.0137606,-0.0014717999999995,0.0048474000000009,0.0051776,0,sub_13
0.0156227999999997,-0.0098261999999987,0.0137422,-0.0016899999999995,0.0031476000000009,0.0045398,0,sub_13
0.0146635999999997,-0.0091491999999988,0.0138744,-0.0016891999999995,0.0023010000000009,0.0034752,0,sub_13
0.0142993999999997,-0.0094637999999988,0.0134142,-0.0016863999999995,0.0025170000000009,0.00305,0,sub_13
0.0136863999999997,-0.0100597999999987,0.0136864,-0.0016863999999995,0.0033658000000009,0.0039034,0,sub_13
0.0146399999999997,-0.0107075999999987,0.014926,-0.0012605999999995,0.0048488000000009,0.0056136,0,sub_13
0.0161161999999997,-0.0113291999999987,0.0149516,-0.0004079999999996,0.0056938000000009,0.0066866,0,sub_13
0.0176293999999997,-0.0125209999999987,0.0144338,0.0008664000000003,0.0058964000000009,0.0081906,0,sub_13
0.0179263999999997,-0.0115431999999987,0.0150872,0.0012912000000003,0.0061098000000009,0.0088344,0,sub_13
0.0180237999999997,-0.0104199999999987,0.0152998,0.0015082000000004,0.0069656000000009,0.008835,0,sub_13
0.0176193999999997,-0.0093843999999987,0.014551,0.0021606000000003,0.0084644000000009,0.007556,0,sub_13
0.0170625999999997,-0.0087993999999987,0.0141434,0.0013164000000004,0.0093290000000009,0.0062674,0,sub_13
0.0160955999999997,-0.0087559999999987,0.0135168,3.90000000004412e-05,0.0087038000000008,0.0049776,0,sub_13
0.0163195999999997,-0.0096761999999987,0.0129506,-0.0006059999999995,0.0067920000000009,0.004121,0,sub_13
0.0158575999999997,-0.0102973999999988,0.012993,-0.0018919999999995,0.0055182000000009,0.0041138,0,sub_13
0.0154963999999997,-0.0111323999999987,0.0124416,-0.0029721999999995,0.0033836000000009,0.004753,0,sub_13
0.0147885999999997,-0.0114059999999987,0.012894,-0.0027709999999995,0.0014578000000009,0.0054008,0,sub_13
0.0151945999999997,-0.0110127999999987,0.0131426,-0.0025651999999995,0.0003850000000009,0.005834,0,sub_13
0.0151673999999997,-0.0110091999999987,0.0130724,-0.0029993999999995,-0.000261199999999,0.0066894,0,sub_13
0.0167215999999997,-0.0111379999999987,0.013122,-0.0027971999999995,-0.002398399999999,0.0069102,0,sub_13
0.0159915999999997,-0.0112065999999988,0.013209,-0.0017407999999995,-0.004321199999999,0.0073474,0,sub_13
0.0164799999999997,-0.0109723999999987,0.0138516,-0.0019551999999995,-0.004321399999999,0.0075596,0,sub_13
0.0166691999999997,-0.0110705999999987,0.0146918,-0.0015273999999995,-0.003897599999999,0.0077757999999999,0,sub_13
0.0172617999999997,-0.0103601999999987,0.0147118,-0.0006699999999995,-0.003048399999999,0.0077808,0,sub_13
0.0156229999999997,-0.0104803999999987,0.0145172,-2.4399999999558845e-05,-0.001568599999999,0.0069184,0,sub_13
0.0161713999999997,-0.0098279999999987,0.0144678,-0.0006579999999995,0.0001286000000009,0.0060468,0,sub_13
0.0157429999999997,-0.0094097999999987,0.013224,-0.0002323999999995,-9.439999999906656e-05,0.0049714,0,sub_13
0.0145743999999997,-0.0090209999999987,0.0128382,-0.0002297999999995,0.0005362000000009,0.0038919999999999,0,sub_13
0.0138763999999997,-0.0095761999999987,0.0128542,-0.0006595999999995,0.0003144000000009,0.0032379999999999,0,sub_13
0.0142623999999997,-0.0098323999999987,0.0124252,-0.0006661999999995,-0.000752599999999,0.0036665999999999,0,sub_13
0.0144163999999997,-0.0104047999999987,0.01305,0.0008304000000004,-0.000118599999999,0.0036761999999999,0,sub_13
0.0147883999999997,-0.0111093999999987,0.0136344,0.0019012000000004,0.0011542000000009,0.0041094,0,sub_13
0.0149535999999997,-0.0116965999999988,0.0131964,0.0029626000000004,0.0017678000000009,0.0051618,0,sub_13
0.0141605999999997,-0.0105921999999987,0.013088,0.0040276000000004,0.0028092000000009,0.0057862,0,sub_13
0.0140865999999997,-0.0092693999999988,0.0133276,0.0044584000000004,0.0038578000000009,0.0051246,0,sub_13
