userAcceleration.x,userAcceleration.y,userAcceleration.z,rotationRate.x,rotationRate.y,rotationRate.z,label,subject
-0.0034096000000001,-0.0196881999999987,0.020684,0.0017156000000004,0.0028098000000009,0.0004568,0,sub_19
-0.0039648000000001,-0.0195267999999987,0.020553,0.0019470000000004,0.0034620000000009,0.0008924,0,sub_19
-0.0046090000000001,-0.0188721999999987,0.0207816,0.0023708000000004,0.0032458000000009,0.001323,0,sub_19
-0.0046006000000001,-0.0191245999999987,0.0202046,0.0032194000000004,0.0028142000000009,0.0019704,0,sub_19
-0.0048784000000002,-0.0195091999999987,0.0197696,0.0042852000000004,0.0028096000000009,0.0021914,0,sub_19
-0.0043894000000001,-0.0198127999999987,0.019944,0.0044986000000004,0.0030210000000009,0.0024062,0,sub_19
-0.0039016000000001,-0.0199997999999987,0.0207308,0.0049328000000004,0.0030262000000009,0.0019808,0,sub_19
-0.0037890000000001,-0.0201495999999987,0.0202224,0.0049452000000004,0.0043104000000008,0.0017644,0,sub_19
-0.0042746000000001,-0.0193899999999987,0.0205334,0.0043204000000004,0.0058116000000008,0.001116,0,sub_19
-0.0042824000000001,-0.0190951999999987,0.0207572,0.0039052000000004,0.0066722000000008,0.0006836,0,sub_19
-0.0044690000000002,-0.0190661999999987,0.0200582,0.0037014000000003,0.0071058000000008,0.0002532,0,sub_19
-0.0047110000000002,-0.0192625999999987,0.0190958,0.0039158000000003,0.0075302000000008,0.0004678,0,sub_19
-0.0045602000000001,-0.0198113999999987,0.019621,0.0045580000000003,0.0081662000000008,0.000685,0,sub_19
-0.0042700000000001,-0.0206347999999987,0.0195872,0.0054126000000004,0.0085884000000008,0.0009042,0,sub_19
-0.0043028000000001,-0.0207461999999987,0.019858,0.0062732000000004,0.0092288000000008,0.0013392,0,sub_19
-0.0039460000000001,-0.0210133999999987,0.0204024,0.0075598000000004,0.0096548000000008,0.0017776,0,sub_19
-0.0037606000000001,-0.0211797999999987,0.0212774,0.0086348000000004,0.0107198000000008,0.0024272,0,sub_19
-0.0038438000000002,-0.0207235999999987,0.0214528,0.0094954000000004,0.0115724000000008,0.0030758,0,sub_19
-0.0040616000000002,-0.0202065999999987,0.0210896,0.0103580000000004,0.0130634000000009,0.003937,0,sub_19
-0.0040062000000001,-0.0197015999999987,0.0209746,0.0105724000000004,0.0137000000000008,0.004365,0,sub_19
-0.0039278000000001,-0.0193829999999987,0.0206628,0.0107876000000004,0.0141252000000008,0.004366,0,sub_19
-0.0039774000000001,-0.0192215999999987,0.0200864,0.0105762000000004,0.0145520000000008,0.004364,0,sub_19
-0.0041910000000001,-0.0190185999999987,0.0201994,0.0101518000000004,0.0145528000000008,0.0041476,0,sub_19
-0.0042060000000001,-0.0186145999999987,0.020081,0.0092996000000004,0.0141298000000008,0.0037152,0,sub_19
-0.0039722000000002,-0.0193429999999987,0.0198386,0.0088732000000004,0.0139166000000008,0.0037128,0,sub_19
-0.0038792000000002,-0.0194177999999987,0.0200912,0.0082364000000004,0.0143434000000008,0.003708,0,sub_19
-0.0037440000000002,-0.0194241999999987,0.0203228,0.0080264000000004,0.0143442000000009,0.0032794,0,sub_19
-0.0036806000000002,-0.0199727999999987,0.0201406,0.0080264000000004,0.0143442000000009,0.0032794,0,sub_19
-0.0035558000000002,-0.0205405999999987,0.0200358,0.0086656000000004,0.0139166000000009,0.0030708,0,sub_19
-0.0035116000000001,-0.0202675999999987,0.0201858,0.0088810000000004,0.0139176000000009,0.002645,0,sub_19
-0.0037042000000001,-0.0204177999999987,0.0196242,0.0095172000000004,0.0134834000000009,0.0026488,0,sub_19
-0.0033166000000001,-0.0203563999999987,0.0197078,0.0095152000000004,0.0134776000000008,0.0026476,0,sub_19
-0.0028434000000001,-0.0202339999999987,0.0196214,0.0095162000000004,0.0134742000000008,0.0020054,0,sub_19
-0.0027990000000001,-0.0196571999999987,0.019809,0.0090874000000004,0.0138942000000008,0.0024278,0,sub_19
-0.0025704000000002,-0.0193473999999987,0.0196484,0.0095112000000004,0.0138860000000008,0.0026432,0,sub_19
-0.0021098000000002,-0.0190431999999987,0.020002,0.0092978000000003,0.0138868000000008,0.0026416,0,sub_19
-0.0025990000000002,-0.0190127999999987,0.0202904,0.0088710000000003,0.0136762000000008,0.0024252,0,sub_19
-0.0025884000000002,-0.0187899999999987,0.0201236,0.0086454000000003,0.0132382000000008,0.0028476,0,sub_19
-0.0020912000000002,-0.0189543999999987,0.020101,0.0079950000000004,0.0123790000000008,0.002413,0,sub_19
-0.0023614000000002,-0.0188991999999987,0.019893,0.0062786000000004,0.0115244000000008,0.0017572,0,sub_19
-0.0025540000000001,-0.0189489999999987,0.0204216,0.0043470000000004,0.0106688000000008,0.0015274,0,sub_19
-0.0019376000000001,-0.0185443999999987,0.0199856,0.0030536000000004,0.0095970000000008,0.001516,0,sub_19
-0.0017364000000001,-0.0185687999999987,0.019897,0.0017676000000004,0.0081110000000008,0.0012952,0,sub_19
-0.0019516000000001,-0.0192855999999987,0.0195916,0.0013322000000004,0.0064072000000008,0.001508,0,sub_19
-0.0015516000000001,-0.0202705999999987,0.0198918,0.0006844000000004,0.0047050000000008,0.0015056000000001,0,sub_19
-0.0014100000000002,-0.0208131999999987,0.0193558,0.0002330000000004,0.0025538000000008,0.0010728000000001,0,sub_19
-0.0016502000000002,-0.0212597999999987,0.0192706,-0.0002211999999995,0.0001878000000008,0.0010676000000001,0,sub_19
-0.0023826000000002,-0.0210405999999987,0.0195566,-0.0006725999999995,-0.0019633999999991,0.0006350000000001,0,sub_19
-0.0032066000000001,-0.0199471999999987,0.0199316,-0.0019705999999995,-0.0030445999999991,-0.0002321999999998,0,sub_19
-0.0035166000000001,-0.0193467999999987,0.0200162,-0.0022065999999995,-0.004770399999999,-0.0006637999999998,0,sub_19
-0.0037946000000001,-0.0189825999999987,0.0202884,-0.0026409999999995,-0.006685599999999,-0.0008779999999998,0,sub_19
-0.0039190000000001,-0.0196167999999987,0.020249,-0.0028581999999995,-0.007961399999999,-0.0013051999999998,0,sub_19
-0.0035004000000001,-0.0195087999999987,0.0201464,-0.0034973999999995,-0.008170399999999,-0.0017365999999998,0,sub_19
-0.0030216000000002,-0.0202453999999987,0.0208104,-0.0045661999999995,-0.009017199999999,-0.0021701999999998,0,sub_19
-0.0030982000000001,-0.0201407999999987,0.020827,-0.0063061999999995,-0.009056199999999,-0.0019795999999998,0,sub_19
-0.0032982000000001,-0.0202555999999987,0.0209586,-0.0074051999999995,-0.009096399999999,-0.0019981999999998,0,sub_19
-0.0028606000000001,-0.0196241999999987,0.0212266,-0.0082927999999995,-0.009563599999999,-0.0020147999999998,0,sub_19
-0.0029584000000001,-0.0197555999999987,0.0211248,-0.0083315999999995,-0.010674599999999,-0.0015973999999998,0,sub_19
-0.0029600000000001,-0.0200743999999987,0.0202194,-0.0070881999999995,-0.011151799999999,-0.0009581999999999,0,sub_19
-0.0033308000000002,-0.0203893999999987,0.0202176,-0.0058089999999995,-0.011156999999999,-0.0007357999999999,0,sub_19
-0.0033952000000002,-0.0206073999999987,0.020049,-0.0045267999999995,-0.010523199999999,-0.0005139999999999,0,sub_19
-0.0039338000000001,-0.0209105999999987,0.02078,-0.0032853999999995,-0.009737199999999,-9.319999999990356e-05,0,sub_19
-0.0041378000000001,-0.0209073999999987,0.0212538,-0.0026811999999995,-0.008521999999999,0.000109,0,sub_19
-0.0041754000000001,-0.0206987999999987,0.0220034,-0.0025047999999995,-0.007305999999999,0.0005218,0,sub_19
-0.0037190000000001,-0.0200087999999987,0.022204,-0.0016901999999995,-0.006518399999999,0.0009398,0,sub_19
-0.0036210000000001,-0.0197001999999987,0.0222668,-0.0008745999999995,-0.005729999999999,0.001144,0,sub_19
-0.0034834000000002,-0.0192691999999987,0.0216278,-0.0008677999999995,-0.004450799999999,0.0009288,0,sub_19
-0.0033300000000002,-0.0189089999999987,0.0213082,-0.0010791999999995,-0.004236199999999,0.0007134,0,sub_19
-0.0031956000000002,-0.0186885999999987,0.0210658,-0.0012915999999995,-0.004234599999999,0.0004982,0,sub_19
-0.0030938000000002,-0.0191349999999987,0.0204484,-0.0025717999999995,-0.004442399999999,0.0002758,0,sub_19
-0.0024610000000002,-0.0189279999999987,0.0205596,-0.0041107999999995,-0.004717799999999,3.7200000000096456e-05,0,sub_19
-0.0027078000000001,-0.0187491999999987,0.0203252,-0.0050125999999995,-0.005846799999999,-0.0004093999999999,0,sub_19
-0.0023736000000001,-0.0193889999999987,0.0206478,-0.0054849999999995,-0.006338199999999,-0.0008539999999999,0,sub_19
-0.0023526000000001,-0.0197615999999987,0.0204894,-0.0059543999999995,-0.006402599999999,-0.0015125999999999,0,sub_19
-0.0025378000000001,-0.0197959999999987,0.0214532,-0.0055701999999995,-0.006469999999999,-0.0021651999999999,0,sub_19
-0.0032484000000001,-0.0201063999999987,0.0216914,-0.0051425999999995,-0.006682999999999,-0.0025891999999998,0,sub_19
-0.0032322000000001,-0.0209615999999987,0.0219244,-0.0047149999999995,-0.006259199999999,-0.0023731999999998,0,sub_19
-0.0038700000000001,-0.0207635999999987,0.0220578,-0.0047139999999995,-0.005621799999999,-0.0019465999999998,0,sub_19
-0.0039416000000001,-0.0200945999999987,0.0221624,-0.0038953999999995,-0.005682999999999,-0.0017395999999998,0,sub_19
-0.0043214000000001,-0.0201775999999987,0.0215836,-0.0030739999999995,-0.005104999999999,-0.0015333999999998,0,sub_19
-0.0039528000000002,-0.0201197999999987,0.0209768,-0.0022505999999995,-0.004100799999999,-0.0013275999999998,0,sub_19
-0.0034016000000002,-0.0198325999999987,0.021526,-0.0018539999999995,-0.003095199999999,-0.0011247999999998,0,sub_19
-0.0026396000000001,-0.0198609999999987,0.0210092,-0.0010333999999995,-0.002729999999999,-0.0009183999999998,0,sub_19
-0.0024910000000001,-0.0197989999999987,0.020887,-0.0010305999999995,-0.002090799999999,-0.0009191999999999,0,sub_19
-0.0023498000000001,-0.0197647999999987,0.021523,-0.0012447999999995,-0.002090799999999,-0.0007069999999999,0,sub_19
-0.0024252000000001,-0.0197767999999987,0.0223254,-0.0016705999999995,-0.001451799999999,-0.0002835999999999,0,sub_19
-0.0029076000000001,-0.0194483999999987,0.0215258,-0.0018969999999995,-0.001260199999999,-0.0002915999999999,0,sub_19
-0.0031248000000001,-0.0194953999999987,0.0217676,-0.0021215999999995,-0.001066999999999,-0.0007267999999999,0,sub_19
-0.0032994000000001,-0.0199853999999987,0.0219856,-0.0025623999999995,-0.001087599999999,-0.0007359999999999,0,sub_19
-0.0028268000000001,-0.0202623999999987,0.0216478,-0.0030023999999995,-0.001107599999999,-0.0009587999999999,0,sub_19
-0.0031378000000001,-0.0201085999999987,0.0212922,-0.0034449999999995,-0.001978799999999,-0.0013941999999999,0,sub_19
-0.0033058000000002,-0.0201785999999987,0.0214504,-0.0030211999999995,-0.002831599999999,-0.0016037999999999,0,sub_19
-0.0034108000000001,-0.0195335999999987,0.0209998,-0.0032355999999995,-0.003255999999999,-0.0018183999999999,0,sub_19
-0.0035524000000001,-0.0191737999999987,0.0208404,-0.0032337999999995,-0.003886799999999,-0.0022467999999999,0,sub_19
-0.0040886000000001,-0.0186113999999987,0.0206788,-0.0034481999999995,-0.004731399999999,-0.0022491999999999,0,sub_19
-0.0037702000000001,-0.0186413999999987,0.02067,-0.0030227999999995,-0.005578199999999,-0.0022471999999999,0,sub_19
-0.0029806000000001,-0.0185871999999987,0.0207296,-0.0032333999999995,-0.005782799999999,-0.0024639999999999,0,sub_19
-0.0031910000000002,-0.0189845999999987,0.0211276,-0.0032345999999995,-0.006415999999999,-0.0022515999999999,0,sub_19
-0.0028580000000002,-0.0191217999999987,0.0210922,-0.0030241999999995,-0.006631399999999,-0.0018225999999998,0,sub_19
-0.0029618000000002,-0.0193265999999987,0.0212294,-0.0028099999999995,-0.006418999999999,-0.0018213999999998,0,sub_19
-0.0027372000000002,-0.0194269999999987,0.0215004,-0.0028079999999995,-0.005992999999999,-0.0018217999999998,0,sub_19
-0.0033892000000002,-0.0197983999999987,0.0219052,-0.0032357999999995,-0.005567999999999,-0.0011843999999998,0,sub_19
-0.0032462000000002,-0.0200349999999987,0.0215126,-0.0027981999999995,-0.004700399999999,-0.0009705999999998,0,sub_19
-0.0033914000000001,-0.0205353999999987,0.0218276,-0.0025749999999995,-0.004044999999999,-0.0007579999999999,0,sub_19
-0.0029950000000001,-0.0209149999999987,0.0217128,-0.0019239999999995,-0.002965999999999,-0.0003293999999999,0,sub_19
-0.0034810000000001,-0.0213127999999987,0.0213844,-0.0010615999999995,-0.002313599999999,0.0001012,0,sub_19
-0.0033746000000001,-0.0211311999999987,0.0205704,0.0002276000000004,-0.002087199999999,0.000108,0,sub_19
-0.0034636000000001,-0.0212399999999987,0.0208676,0.0004420000000004,-0.001662599999999,0.0003226,0,sub_19
-0.0036192000000002,-0.0209185999999987,0.020629,0.0006582000000004,-0.000811999999999,0.0005366,0,sub_19
-0.0036206000000002,-0.0202007999999987,0.020732,0.0010840000000004,-0.000814199999999,0.0007532,0,sub_19
-0.0035440000000002,-0.0195245999999987,0.0203938,0.0008864000000004,-0.000575799999999,0.0009676,0,sub_19
-0.0038284000000002,-0.0196771999999987,0.0208078,0.0004744000000004,-0.000549599999999,0.0011808,0,sub_19
-0.0037076000000002,-0.0190893999999987,0.0209262,6.520000000042429e-05,-9.659999999909234e-05,0.0011798,0,sub_19
-0.0036708000000002,-0.0190953999999987,0.0206566,-0.0001323999999995,-0.000282599999999,0.0009674,0,sub_19
-0.0033446000000002,-0.0191065999999987,0.0200588,-0.0007529999999995,-3.919999999909232e-05,0.0003242,0,sub_19
-0.0031346000000002,-0.0193275999999987,0.0203158,-0.0009635999999995,0.0001764000000009,-0.0001047999999999,0,sub_19
-0.0027654000000002,-0.0192243999999987,0.020261,-0.0013855999999995,0.0010310000000009,-0.0003223999999999,0,sub_19
-0.0025004000000002,-0.0198149999999987,0.0198696,-0.0011571999999995,0.0008410000000009,-0.0005303999999998,0,sub_19
-0.0027092000000002,-0.0200243999999987,0.0200814,-0.0007163999999995,0.0004372000000009,-0.0007365999999998,0,sub_19
-0.0031368000000002,-0.0202039999999987,0.0205324,-6.319999999959569e-05,0.0002438000000009,-0.0005143999999998,0,sub_19
-0.0032344000000002,-0.0199947999999987,0.020762,0.0005930000000004,0.0004774000000009,-0.0005063999999998,0,sub_19
-0.0030230000000002,-0.0200341999999987,0.0204728,0.0016740000000004,7.120000000090766e-05,-0.0007081999999998,0,sub_19
-0.0032058000000002,-0.0198171999999987,0.0205084,0.0020988000000003,-0.000144199999999,-0.0004913999999998,0,sub_19
-0.0027274000000002,-0.0193337999999987,0.0204032,0.0023122000000003,0.0002794000000009,-6.319999999988353e-05,0,sub_19
-0.0029490000000002,-0.0192377999999987,0.0200206,0.0018874000000003,0.0007070000000008,-6.679999999988353e-05,0,sub_19
-0.0026660000000002,-0.0190401999999987,0.0200412,0.0012482000000003,0.0011346000000008,0.0001418000000001,0,sub_19
-0.0030966000000002,-0.0189135999999987,0.0201854,0.0006236000000003,0.0011578000000008,0.000357,0,sub_19
-0.0031076000000002,-0.0191145999999987,0.0201892,0.0004268000000004,0.0011804000000009,0.0003616,0,sub_19
-0.0032950000000002,-0.0192617999999987,0.02028,1.7600000000424317e-05,0.0012046000000008,0.0001510000000001,0,sub_19
-0.0031028000000002,-0.0190341999999987,0.0207402,3.2200000000424306e-05,0.0012248000000008,0.0005844000000001,0,sub_19
-0.0030504000000002,-0.0192161999999987,0.0202154,-0.0001665999999995,0.0008212000000008,0.0005894000000001,0,sub_19
-0.0028786000000002,-0.0187169999999987,0.020534,-0.0001675999999995,0.0003960000000008,0.0003762000000001,0,sub_19
-0.0031246000000002,-0.0185629999999987,0.020989,-0.0008075999999995,0.0001860000000008,0.0001584000000001,0,sub_19
-0.0029960000000002,-0.0184281999999987,0.02127,-0.0010047999999995,-9.999999991123012e-07,0.0001652,0,sub_19
-0.0029022000000002,-0.0193743999999987,0.0212154,-0.0009855999999995,-0.000186399999999,-0.0004673999999999,0,sub_19
-0.0032258000000002,-0.0193983999999987,0.021516,-0.0005415999999995,-0.000162799999999,-0.0004563999999999,0,sub_19
-0.0034778000000002,-0.0195533999999987,0.02158,-0.0003089999999995,0.0005000000000008,-0.0002339999999999,0,sub_19
-0.0036334000000002,-0.0189437999999987,0.0210664,-7.75999999995957e-05,0.0009498000000008,-1.1399999999903544e-05,0,sub_19
-0.0037532000000001,-0.0188785999999987,0.0209534,-0.0005051999999995,0.0007382000000008,-1.4199999999883544e-05,0,sub_19
-0.0037314000000001,-0.0179711999999987,0.021119,-0.0005109999999995,-0.0003277999999991,0.0002008000000001,0,sub_19
-0.0035656000000001,-0.0175711999999987,0.020917,-0.0005157999999995,-0.0016051999999991,-1.1199999999883536e-05,0,sub_19
-0.0029508000000001,-0.0178515999999987,0.0204424,-0.0007213999999995,-0.002435799999999,-7.39999999988352e-06,0,sub_19
-0.0026748000000001,-0.0182347999999987,0.020548,-0.0004973999999995,-0.002840999999999,-0.0002147999999998,0,sub_19
-0.0023720000000001,-0.0179921999999987,0.0204972,-5.999999999957567e-05,-0.003034599999999,-0.0002071999999998,0,sub_19
-0.0021690000000002,-0.0181495999999987,0.020291,-4.639999999957567e-05,-0.002799799999999,-0.0004169999999998,0,sub_19
-0.0023988000000002,-0.0184067999999987,0.0206306,-0.0002443999999995,-0.002350399999999,-0.0008419999999998,0,sub_19
-0.0028498000000002,-0.0186775999999987,0.0210714,-0.0002405999999995,-0.001710399999999,-0.0010563999999998,0,sub_19
-0.0028662000000002,-0.0188439999999987,0.0212624,0.0001900000000004,-0.000859599999999,-0.0010543999999998,0,sub_19
-0.0032404000000001,-0.0194835999999987,0.0214784,0.0008348000000004,0.0002034000000009,-0.0010511999999998,0,sub_19
-0.0034638000000001,-0.0201181999999987,0.0216828,0.0014768000000004,0.0010516000000009,-0.0006203999999998,0,sub_19
-0.0035476000000001,-0.0206405999999987,0.0221814,0.0023396000000004,0.0021236000000009,0.0002414000000001,0,sub_19
-0.0036730000000001,-0.0204919999999987,0.0221104,0.0034176000000004,0.0031966000000009,0.0006774000000001,0,sub_19
-0.0041522000000001,-0.0207649999999987,0.0222416,0.0040690000000004,0.0044832000000009,0.0013238,0,sub_19
-0.0043538000000002,-0.0203025999999987,0.0224546,0.0049328000000004,0.0055560000000009,0.0019718,0,sub_19
-0.0040806000000002,-0.0198895999999987,0.0226206,0.0057974000000004,0.0068420000000009,0.0026196,0,sub_19
-0.0035740000000002,-0.0195063999999987,0.0220448,0.0062280000000003,0.0079050000000009,0.0028348,0,sub_19
-0.0034646000000001,-0.0189637999999987,0.0218788,0.0060118000000003,0.0074788000000009,0.0030474,0,sub_19
-0.0028452000000001,-0.0187583999999987,0.0215224,0.0055850000000003,0.0068482000000009,0.0030472,0,sub_19
-0.0022034000000001,-0.0185455999999987,0.0212924,0.0049496000000004,0.0070714000000009,0.0028308,0,sub_19
-0.0028182000000001,-0.0184491999999987,0.0206694,0.0041008000000004,0.0072952000000008,0.002613,0,sub_19
-0.0028670000000001,-0.0183761999999987,0.0205432,0.0038884000000004,0.0066646000000008,0.0024008,0,sub_19
-0.0030406000000002,-0.0190475999999987,0.0203172,0.0036798000000004,0.0068862000000008,0.0021874,0,sub_19
-0.0031578000000002,-0.0190073999999987,0.0207216,0.0038950000000004,0.0070994000000008,0.0019748,0,sub_19
-0.0035254000000002,-0.0193801999999987,0.0208312,0.0038940000000004,0.0068864000000008,0.0019752,0,sub_19
-0.0032550000000001,-0.0194871999999987,0.0210564,0.0043228000000004,0.0068866000000008,0.0015508,0,sub_19
-0.0036542000000001,-0.0197243999999987,0.0210102,0.0049678000000004,0.0073144000000008,0.0013418,0,sub_19
-0.0035618000000001,-0.0191311999999987,0.0214644,0.0056158000000004,0.0085934000000008,0.0013454,0,sub_19
-0.0036026000000001,-0.0190277999999987,0.02121,0.0062600000000004,0.0090202000000008,0.0013502,0,sub_19
-0.0036236000000001,-0.0188403999999987,0.020496,0.0073290000000004,0.0090194000000008,0.0013584,0,sub_19
-0.0033902000000001,-0.0188815999999987,0.0202166,0.0075436000000004,0.0092330000000008,0.0017878,0,sub_19
-0.0031398000000001,-0.0188127999999987,0.020564,0.0073322000000004,0.0098720000000008,0.0019992,0,sub_19
-0.0030200000000001,-0.0192581999999987,0.0207216,0.0069054000000004,0.0098736000000009,0.0019962,0,sub_19
-0.0029840000000001,-0.0192549999999987,0.0210612,0.0066920000000004,0.0098742000000009,0.0019948,0,sub_19
-0.0025266000000001,-0.0193013999999987,0.0213816,0.0062672000000004,0.0100896000000009,0.0017778,0,sub_19
-0.0032086000000001,-0.0187129999999987,0.0216346,0.0062704000000003,0.0098820000000009,0.0013514,0,sub_19
-0.0034922000000001,-0.0184745999999987,0.0216656,0.0058450000000003,0.0096740000000009,0.0013492,0,sub_19
-0.0037282000000002,-0.0181419999999987,0.0213352,0.0054196000000003,0.0094660000000009,0.0013472,0,sub_19
-0.0031462000000002,-0.0179689999999987,0.0205732,0.0052066000000003,0.0094688000000009,0.0017736,0,sub_19
-0.0032896000000002,-0.0180633999999987,0.0200422,0.0049936000000004,0.0090470000000008,0.0017734,0,sub_19
-0.0022780000000001,-0.0189119999999987,0.0200614,0.0043516000000004,0.0088352000000008,0.0019828,0,sub_19
-0.0022422000000001,-0.0187041999999987,0.0201236,0.0041362000000004,0.0084100000000008,0.001982,0,sub_19
-0.0023168000000001,-0.0180089999999987,0.0196204,0.0041346000000004,0.0081992000000008,0.0019838,0,sub_19
-0.0028284000000001,-0.0175901999999987,0.0199082,0.0041350000000004,0.0075658000000008,0.0011316,0,sub_19
-0.0034726000000001,-0.0180843999999987,0.0207974,0.0043420000000004,0.0065012000000008,0.0013496,0,sub_19
-0.0038038000000001,-0.0182553999999987,0.021186,0.0051900000000004,0.0054352000000008,0.0013584,0,sub_19
-0.0036564000000001,-0.0190223999999987,0.0206716,0.0056132000000004,0.0045846000000009,0.0011502,0,sub_19
-0.0034012000000001,-0.0198433999999987,0.021275,0.0053978000000004,0.0035226000000009,0.0005092,0,sub_19
-0.0034486000000001,-0.0203613999999987,0.0214694,0.0045432000000004,0.0035246000000009,0.0007168,0,sub_19
-0.0029116000000001,-0.0200497999999987,0.0210972,0.0030534000000004,0.0041698000000009,0.0004918,0,sub_19
-0.0027962000000001,-0.0193675999999987,0.0204264,0.0017668000000004,0.0048032000000009,5.060000000009646e-05,0,sub_19
-0.0029060000000001,-0.0191549999999987,0.0206094,0.0013318000000003,0.0052196000000009,-0.0001705999999999,0,sub_19
-0.0025912000000001,-0.0193023999999987,0.0205514,0.0019608000000003,0.0056300000000009,0.0002564,0,sub_19
-0.0022204000000001,-0.0197019999999987,0.0204372,0.0023774000000004,0.0058296000000009,0.000255,0,sub_19
-0.0022438000000001,-0.0203949999999987,0.0205082,0.0034312000000004,0.0058122000000009,0.0006856,0,sub_19
-0.0027332000000001,-0.0206209999999987,0.0208462,0.0044970000000004,0.0062322000000009,0.0013336,0,sub_19
-0.0027294000000001,-0.0207691999999987,0.0210538,0.0049248000000004,0.0068682000000009,0.001763,0,sub_19
-0.0031666000000002,-0.0208475999999987,0.0210026,0.0051400000000004,0.0077178000000009,0.0021908,0,sub_19
-0.0034124000000002,-0.0203761999999987,0.0216622,0.0059964000000004,0.0085662000000009,0.0024094,0,sub_19
-0.0032960000000002,-0.0195149999999987,0.0213726,0.0068376000000004,0.0098174000000009,0.002407,0,sub_19
-0.0032632000000002,-0.0192479999999987,0.0211654,0.0072492000000004,0.0102186000000009,0.0021888,0,sub_19
