userAcceleration.x,userAcceleration.y,userAcceleration.z,rotationRate.x,rotationRate.y,rotationRate.z,label,subject
0.0035385999999997,0.0015442000000011,-0.0145907999999999,0.0112414000000003,0.0173694000000009,-0.0098255999999998,0,sub_23
0.0052945999999997,0.0035526000000011,-0.0146351999999999,0.0093258000000004,0.0186536000000009,-0.0098407999999999,0,sub_23
0.0053559999999997,0.0054332000000011,-0.0135139999999999,0.0076042000000003,0.0182224000000009,-0.0072885999999999,0,sub_23
0.0067597999999997,0.0060262000000011,-0.0110121999999999,0.0054492000000003,0.0173626000000009,-0.0034569999999999,0,sub_23
0.0082047999999997,0.0064794000000011,-0.0083991999999999,0.0032902000000004,0.0152266000000009,-5.099999999991396e-05,0,sub_23
0.0101391999999997,0.0063318000000011,-0.0061389999999999,0.0015510000000004,0.0111734000000009,0.0029332,0,sub_23
0.0101739999999997,0.0047952000000012,-0.0056163999999999,-0.0006069999999995,0.0064920000000009,0.0035652,0,sub_23
0.0099427999999997,0.0030192000000012,-0.0065789999999998,-0.0021151999999995,0.0020292000000009,0.0022788,0,sub_23
0.0100413999999997,0.0023264000000012,-0.0094353999999998,-0.0036163999999995,-0.002003399999999,-7.6199999999914e-05,0,sub_23
0.0087571999999997,0.0025718000000012,-0.0127143999999998,-0.0048971999999995,-0.004757999999999,-0.0026449999999999,0,sub_23
0.0069283999999997,0.0040130000000012,-0.0144099999999998,-0.0057531999999995,-0.007303599999999,-0.0045703999999999,0,sub_23
0.0046875999999997,0.0053302000000012,-0.0143113999999998,-0.0061853999999995,-0.009641399999999,-0.0056385999999999,0,sub_23
0.0030095999999997,0.0064812000000012,-0.0137043999999998,-0.0066167999999995,-0.009644399999999,-0.0045735999999999,0,sub_23
0.0014391999999997,0.0073404000000012,-0.0122381999999998,-0.0064025999999995,-0.007522599999999,-0.0026523999999999,0,sub_23
0.0017089999999997,0.0074414000000012,-0.0105005999999998,-0.0053399999999995,-0.006044599999999,-0.0002971999999999,0,sub_23
0.0013741999999997,0.0062794000000012,-0.0092323999999999,-0.0036361999999995,-0.005204599999999,0.0012088,0,sub_23
0.0010635999999997,0.0049578000000012,-0.0093427999999998,-0.0027817999999995,-0.004145999999999,0.0020678,0,sub_23
0.0006831999999997,0.0039466000000012,-0.0101227999999998,-0.0027817999999995,-0.004570799999999,0.001641,0,sub_23
0.0008225999999997,0.0031012000000011,-0.0112853999999998,-0.0023509999999995,-0.005842399999999,-0.0004907999999999,0,sub_23
0.0011919999999997,0.0030168000000011,-0.0120595999999998,-0.0021285999999995,-0.006472399999999,-0.0030521999999999,0,sub_23
0.0020143999999997,0.0038096000000011,-0.0128033999999998,-0.0021167999999995,-0.006037999999999,-0.0051889999999999,0,sub_23
0.0033863999999997,0.0039816000000012,-0.0132143999999998,-0.0018973999999995,-0.005609399999999,-0.0060425999999999,0,sub_23
0.0044867999999997,0.0044714000000011,-0.0124421999999999,-0.0018953999999995,-0.005183199999999,-0.0060431999999999,0,sub_23
0.0047529999999997,0.0050920000000012,-0.0113865999999999,-0.0036089999999995,-0.004546599999999,-0.0039195999999999,0,sub_23
0.0050315999999997,0.0054854000000012,-0.0108335999999999,-0.0048987999999995,-0.004338199999999,-0.0015787999999999,0,sub_23
0.0063891999999997,0.0051404000000012,-0.0107851999999999,-0.0053263999999995,-0.003488599999999,-0.0005145999999998,0,sub_23
0.0080841999999997,0.0055220000000011,-0.0108671999999999,-0.0051025999999995,-0.001357599999999,-0.0007291999999998,0,sub_23
0.0107305999999997,0.0066310000000011,-0.0113849999999999,-0.0042357999999996,0.0011984000000009,-0.0011533999999998,0,sub_23
0.0122965999999997,0.0070200000000011,-0.0110377999999999,-0.0023021999999996,0.0035390000000009,-0.0017833999999998,0,sub_23
0.0117595999999997,0.0068712000000011,-0.0103541999999998,-0.0005927999999996,0.0052308000000009,-0.0011323999999998,0,sub_23
0.0101951999999997,0.0066726000000011,-0.0096125999999998,3.0600000000398795e-05,0.0045750000000009,0.0014366,0,sub_23
0.0060217999999997,0.0064544000000011,-0.0079641999999998,-0.0004233999999996,0.0022156000000009,0.004641,0,sub_23
0.0015941999999997,0.0055732000000011,-0.0065575999999998,-0.0008791999999995,-0.001843399999999,0.0065656,0,sub_23
-0.0011414000000002,0.0048256000000011,-0.0071493999999998,-0.0015463999999995,-0.006537199999999,0.0074212,0,sub_23
-0.0026170000000002,0.0040056000000011,-0.0087915999999998,-0.0022007999999995,-0.010792399999999,0.0063536,0,sub_23
-0.0037498000000002,0.0037466000000011,-0.0103233999999998,-0.0030513999999995,-0.012484999999999,0.0039994,0,sub_23
-0.0026696000000002,0.0036492000000012,-0.0121883999999998,-0.0032501999999995,-0.012472199999999,0.0007932,0,sub_23
-0.0014908000000002,0.0037454000000012,-0.0135457999999998,-0.0034421999999995,-0.009909999999999,-0.0015643999999999,0,sub_23
-0.0010150000000002,0.0043524000000012,-0.0142845999999999,-0.0029911999999995,-0.006073999999999,-0.0032783999999999,0,sub_23
-0.0002518000000002,0.0049644000000012,-0.0135415999999999,-0.0019059999999995,-0.002032999999999,-0.0034925999999999,0,sub_23
0.0005557999999997,0.0057906000000012,-0.0119463999999999,0.0006604000000003,0.0005064000000009,-0.0024125999999999,0,sub_23
0.0017115999999997,0.0057970000000012,-0.0106817999999998,0.0025760000000003,0.0019780000000009,-5.399999999991384e-05,0,sub_23
0.0030815999999997,0.0051710000000012,-0.0098005999999998,0.0044858000000003,0.0013256000000009,0.0016692,0,sub_23
0.0047487999999997,0.0050746000000012,-0.0084091999999998,0.0068146000000003,-0.001881399999999,0.0025442,0,sub_23
0.0071839999999997,0.0047176000000012,-0.0079297999999998,0.0085080000000003,-0.005930599999999,0.0014932,0,sub_23
0.0088587999999997,0.0037390000000011,-0.0081263999999998,0.0091420000000003,-0.009548799999999,-0.0008523999999998,0,sub_23
0.0102903999999997,0.0032512000000011,-0.0086129999999999,0.0093570000000003,-0.012733999999999,-0.0044831999999998,0,sub_23
0.0110405999999997,0.0033898000000011,-0.0093785999999999,0.0089368000000003,-0.015063999999999,-0.0083331999999998,0,sub_23
0.0113923999999997,0.0040636000000011,-0.0097157999999999,0.0085194000000003,-0.016330399999999,-0.0117571999999998,0,sub_23
0.0092813999999997,0.0049338000000012,-0.0097835999999999,0.0076676000000004,-0.017389999999999,-0.0132617999999998,0,sub_23
0.0067217999999997,0.0057684000000012,-0.0103535999999999,0.0061710000000004,-0.018023399999999,-0.0132711999999998,0,sub_23
0.0035581999999997,0.0058078000000011,-0.0115455999999999,0.0038134000000004,-0.018449199999999,-0.0113643999999998,0,sub_23
0.0009129999999997,0.0059736000000011,-0.0129325999999999,0.0016700000000004,-0.017813999999999,-0.0086029999999998,0,sub_23
-0.0010294000000002,0.0045470000000011,-0.0144255999999999,-0.0006803999999995,-0.016327999999999,-0.0062765999999998,0,sub_23
-0.0010818000000002,0.0039012000000011,-0.0152383999999999,-0.0021663999999995,-0.013350199999999,-0.0048005999999998,0,sub_23
-0.0001794000000002,0.0037408000000011,-0.0150909999999998,-0.0027931999999995,-0.010158199999999,-0.0043871999999999,0,sub_23
0.0005199999999997,0.0042696000000012,-0.0129625999999998,-0.0023505999999995,-0.007179199999999,-0.0048203999999998,0,sub_23
0.0013689999999997,0.0043362000000012,-0.0099487999999998,-0.0021279999999995,-0.005902799999999,-0.0054665999999998,0,sub_23
0.0018197999999997,0.0049792000000012,-0.0082957999999998,-0.0014851999999996,-0.005902599999999,-0.0061031999999998,0,sub_23
0.0030589999999997,0.0053824000000012,-0.0074971999999998,0.0002224000000003,-0.007180999999999,-0.0075853999999998,0,sub_23
0.0046403999999997,0.0056716000000012,-0.0076753999999998,0.0029988000000003,-0.008248799999999,-0.0092737999999998,0,sub_23
0.0064385999999997,0.0054860000000012,-0.0087295999999998,0.0057784000000003,-0.009317599999999,-0.0113929999999999,0,sub_23
0.0077883999999997,0.0052114000000012,-0.0096121999999998,0.0087770000000003,-0.008896799999999,-0.0132985999999999,0,sub_23
0.0087033999999997,0.0052302000000012,-0.0101685999999998,0.0111378000000004,-0.007410799999999,-0.0145689999999999,0,sub_23
0.0085333999999997,0.0053800000000012,-0.0105203999999998,0.0122154000000004,-0.005286199999999,-0.0145673999999999,0,sub_23
0.0078199999999997,0.0050132000000012,-0.0099499999999999,0.0115802000000004,-0.003797599999999,-0.0139359999999999,0,sub_23
0.0071419999999997,0.0046618000000012,-0.0097333999999998,0.0103000000000004,-0.002943999999999,-0.0130911999999999,0,sub_23
0.0065071999999997,0.0048346000000012,-0.0105443999999998,0.0087988000000004,-0.003793999999999,-0.0122459999999999,0,sub_23
0.0060859999999997,0.0049956000000012,-0.0109895999999998,0.0072946000000004,-0.005283399999999,-0.0113999999999999,0,sub_23
0.0050715999999997,0.0044250000000012,-0.0113155999999998,0.0057906000000004,-0.007201199999999,-0.0105581999999998,0,sub_23
0.0040227999999997,0.0043800000000012,-0.0117381999999998,0.0047162000000004,-0.008693599999999,-0.0099277999999998,0,sub_23
0.0028855999999997,0.0046644000000011,-0.0121339999999998,0.0038620000000003,-0.008907599999999,-0.0095109999999998,0,sub_23
0.0021065999999997,0.0048524000000011,-0.0121431999999998,0.0032278000000003,-0.007843399999999,-0.0093079999999998,0,sub_23
0.0014883999999997,0.0047268000000011,-0.0119043999999998,0.0030242000000003,-0.005716199999999,-0.0088897999999998,0,sub_23
0.0018233999999997,0.0051440000000011,-0.0123083999999998,0.0028232000000003,-0.002521599999999,-0.0084681999999999,0,sub_23
0.0017799999999997,0.0054576000000012,-0.0125431999999998,0.0030500000000003,0.0008846000000009,-0.0080437999999999,0,sub_23
0.0025171999999997,0.0053654000000012,-0.0120161999999998,0.0043388000000003,0.0032218000000009,-0.0076107999999999,0,sub_23
0.0029101999999997,0.0050778000000012,-0.0118299999999998,0.0054160000000003,0.0053468000000009,-0.0073961999999999,0,sub_23
0.0039435999999997,0.0056084000000012,-0.0113507999999998,0.0056368000000003,0.0061992000000009,-0.0078267999999998,0,sub_23
0.0043405999999997,0.0058014000000012,-0.0105811999999999,0.0062776000000004,0.0053466000000009,-0.0084657999999998,0,sub_23
0.0052911999999997,0.0052312000000012,-0.0098873999999999,0.0060622000000004,0.0040702000000009,-0.0088965999999998,0,sub_23
0.0053687999999997,0.0054718000000012,-0.0096667999999999,0.0049902000000004,0.0032186000000009,-0.0082655999999998,0,sub_23
0.0056585999999997,0.0056160000000012,-0.0096601999999999,0.0036946000000004,0.0010878000000009,-0.0069899999999998,0,sub_23
0.0053271999999997,0.0048568000000012,-0.0097217999999999,0.0028276000000004,-0.000194199999999,-0.0052851999999999,0,sub_23
0.0055217999999997,0.0044740000000012,-0.0098445999999999,0.0019626000000004,-0.001049999999999,-0.0035809999999998,0,sub_23
0.0053243999999997,0.0047920000000012,-0.0107335999999999,0.0013134000000004,-0.002116999999999,-0.0023081999999998,0,sub_23
0.0053211999999997,0.0048266000000012,-0.0109623999999999,0.0006614000000004,-0.004247599999999,-0.0014613999999998,0,sub_23
0.0049317999999997,0.0049168000000012,-0.0106747999999999,0.0004446000000004,-0.004886599999999,-0.0010405999999998,0,sub_23
0.0047643999999997,0.0050098000000012,-0.0110775999999999,0.0002288000000004,-0.005736999999999,-0.0010469999999998,0,sub_23
0.0041385999999997,0.0057442000000012,-0.0115199999999999,-0.0001983999999995,-0.006160599999999,-0.0010553999999999,0,sub_23
0.0038127999999997,0.0058830000000012,-0.0113433999999999,-0.0004137999999995,-0.006373799999999,-0.0008429999999999,0,sub_23
0.0033297999999997,0.0056228000000012,-0.0115041999999998,-0.0001937999999995,-0.005519799999999,-0.0014833999999999,0,sub_23
0.0035179999999997,0.0052206000000012,-0.0123235999999998,2.6400000000418757e-05,-0.004453599999999,-0.0019105999999999,0,sub_23
0.0032065999999997,0.0053838000000012,-0.0117985999999998,3.7800000000438754e-05,-0.003168399999999,-0.0029841999999999,0,sub_23
0.0031357999999997,0.0048936000000012,-0.0115105999999998,0.0002626000000004,-0.001671599999999,-0.0038429999999999,0,sub_23
0.0031341999999997,0.0048682000000012,-0.0117923999999998,0.0006988000000004,-0.000177399999999,-0.0042729999999999,0,sub_23
0.0027315999999997,0.0053086000000012,-0.0120053999999999,0.0011294000000004,0.0008874000000009,-0.0038479999999999,0,sub_23
0.0028301999999997,0.0055142000000012,-0.0116509999999998,0.0019846000000004,0.0013122000000009,-0.0036327999999998,0,sub_23
0.0029243999999997,0.0052946000000012,-0.0121087999999998,0.0030486000000003,0.0017304000000009,-0.0025577999999998,0,sub_23
0.0034969999999997,0.0047840000000011,-0.0121591999999998,0.0034784000000003,0.0025802000000009,-0.0023421999999998,0,sub_23
0.0043725999999997,0.0046596000000011,-0.0115377999999998,0.0034814000000003,0.0030074000000009,-0.0025563999999998,0,sub_23
0.0058053999999997,0.0045950000000012,-0.0110071999999998,0.0032728000000003,0.0032296000000009,-0.0034149999999998,0,sub_23
0.0057473999999997,0.0046364000000011,-0.0101907999999999,0.0026366000000003,0.0032404000000009,-0.0042763999999999,0,sub_23
0.0059961999999997,0.0049132000000011,-0.0099537999999999,0.0017870000000003,0.0030396000000009,-0.0053523999999999,0,sub_23
0.0062935999999997,0.0051842000000012,-0.0097893999999999,0.0011448000000003,0.0021964000000009,-0.0057853999999999,0,sub_23
0.0060301999999997,0.0048178000000012,-0.0102117999999998,0.0007162000000003,0.0013524000000009,-0.0062167999999998,0,sub_23
0.0056647999999997,0.0043982000000012,-0.0105923999999998,0.0004990000000003,0.0005012000000009,-0.0062171999999998,0,sub_23
0.0056855999999997,0.0043324000000012,-0.0110117999999998,6.660000000041877e-05,-0.000563199999999,-0.0060049999999998,0,sub_23
0.0055423999999997,0.0043228000000012,-0.0110045999999998,-0.0003649999999995,-0.001414399999999,-0.0057931999999998,0,sub_23
0.0046829999999997,0.0046014000000012,-0.0112089999999998,-0.0005849999999995,-0.002268199999999,-0.0051525999999998,0,sub_23
0.0041703999999997,0.0053028000000011,-0.0113383999999998,-0.0008043999999995,-0.002689599999999,-0.0045127999999999,0,sub_23
0.0033331999999997,0.0060372000000011,-0.0111737999999998,-0.0012371999999995,-0.002898199999999,-0.0036611999999999,0,sub_23
0.0028323999999997,0.0060392000000011,-0.0108573999999998,-0.0012403999999995,-0.002469199999999,-0.0028073999999999,0,sub_23
0.0022135999999997,0.0059940000000011,-0.0113991999999998,-0.0008175999999995,-0.001830599999999,-0.0015237999999999,0,sub_23
0.0016881999999997,0.0054496000000011,-0.0110567999999998,3.560000000039877e-05,-0.000977799999999,-0.0008781999999999,0,sub_23
0.0012603999999997,0.0053924000000011,-0.0111303999999998,0.0006756000000003,-0.000343599999999,-0.0002337999999998,0,sub_23
0.0011465999999997,0.0047700000000011,-0.0118033999999999,0.0008928000000004,0.0007200000000009,-1.9999999999893973e-05,0,sub_23
0.0014975999999997,0.0049604000000011,-0.0126811999999998,0.0013246000000004,0.0020004000000009,-0.0002307999999998,0,sub_23
0.0018291999999997,0.0049880000000011,-0.0127707999999998,0.0017564000000004,0.0030686000000009,-0.0006547999999998,0,sub_23
0.0032611999999997,0.0052750000000011,-0.0131473999999998,0.0015472000000004,0.0037138000000009,-0.0012965999999998,0,sub_23
0.0045281999999997,0.0051462000000012,-0.0127965999999998,0.0017658000000004,0.0043584000000009,-0.0021487999999998,0,sub_23
0.0060175999999997,0.0054580000000012,-0.0118643999999998,0.0021928000000004,0.0043616000000009,-0.0025713999999998,0,sub_23
0.0066245999999997,0.0056204000000012,-0.0108693999999998,0.0026158000000004,0.0041448000000009,-0.0019271999999999,0,sub_23
0.0077419999999997,0.0058480000000012,-0.0099879999999998,0.0026138000000003,0.0041436000000009,-0.0014997999999999,0,sub_23
0.0082119999999997,0.0061996000000012,-0.0092567999999998,0.0032488000000003,0.0039256000000009,-0.0006401999999999,0,sub_23
0.0088001999999997,0.0059066000000012,-0.0089267999999998,0.0034572000000003,0.0037162000000009,-0.0004209999999999,0,sub_23
0.0091905999999997,0.0060564000000011,-0.0088527999999998,0.0036716000000003,0.0032996000000009,-0.0016971999999999,0,sub_23
0.0085807999999997,0.0055442000000011,-0.0089819999999999,0.0028150000000004,0.0016102000000009,-0.0034063999999999,0,sub_23
0.0073827999999997,0.0048538000000011,-0.0091477999999999,0.0013128000000004,-0.001143199999999,-0.0049051999999999,0,sub_23
0.0055415999999997,0.0042652000000011,-0.0095663999999999,-0.0008311999999995,-0.003896199999999,-0.0059813999999999,0,sub_23
0.0029125999999997,0.0042770000000011,-0.0102781999999999,-0.0027667999999995,-0.006873999999999,-0.0055639999999999,0,sub_23
7.859999999977572e-05,0.0039626000000012,-0.0112103999999999,-0.0040631999999995,-0.008793999999999,-0.0038615999999999,0,sub_23
-0.0015864000000002,0.0038794000000011,-0.0121697999999998,-0.0044953999999995,-0.008585999999999,-0.0023695999999999,0,sub_23
-0.0022752000000002,0.0036930000000011,-0.0128799999999998,-0.0034235999999995,-0.006245799999999,-0.0017199999999999,0,sub_23
-0.0026260000000002,0.0033956000000011,-0.0136497999999998,-0.0017029999999995,-0.002414999999999,-0.0014949999999999,0,sub_23
-0.0024614000000002,0.0032334000000011,-0.0139031999999998,-0.0004023999999996,0.0020602000000009,-0.0021283999999998,0,sub_23
-0.0010598000000002,0.0033172000000011,-0.0133685999999998,0.0008990000000003,0.0063240000000009,-0.0031887999999998,0,sub_23
0.0004237999999997,0.0036646000000011,-0.0126891999999999,0.0024108000000003,0.0097360000000009,-0.0044601999999998,0,sub_23
0.0015095999999997,0.0044196000000012,-0.0110679999999998,0.0034882000000003,0.0116512000000009,-0.0048825999999998,0,sub_23
0.0034403999999997,0.0051266000000012,-0.0097745999999998,0.0039186000000003,0.0122900000000009,-0.0050939999999998,0,sub_23
0.0058485999999997,0.0057830000000012,-0.0083349999999998,0.0045576000000003,0.0120750000000009,-0.0050891999999999,0,sub_23
0.0072637999999997,0.0060294000000012,-0.0078221999999998,0.0047618000000004,0.0110158000000008,-0.0048673999999999,0,sub_23
0.0085903999999997,0.0062822000000012,-0.0071461999999998,0.0041068000000004,0.0091060000000008,-0.0042231999999999,0,sub_23
0.0093927999999997,0.0061132000000012,-0.0073899999999999,0.0023848000000004,0.0072000000000008,-0.0035863999999998,0,sub_23
0.0093795999999997,0.0059828000000012,-0.0078249999999999,0.0006600000000004,0.0046548000000009,-0.0029489999999998,0,sub_23
0.0087287999999997,0.0055390000000011,-0.0090775999999999,-0.0014905999999995,0.0023242000000009,-0.0023145999999998,0,sub_23
0.0078413999999997,0.0047902000000011,-0.0104161999999998,-0.0032119999999995,-1.5999999999079078e-05,-0.0014687999999998,0,sub_23
0.0063239999999997,0.0043392000000011,-0.0114333999999998,-0.0042913999999995,-0.002144999999999,-0.0008325999999998,0,sub_23
0.0052773999999997,0.0041926000000011,-0.0125547999999998,-0.0053685999999995,-0.003635799999999,1.6600000000066042e-05,0,sub_23
0.0040675999999997,0.0043170000000011,-0.0130561999999998,-0.0058025999999995,-0.003842399999999,0.0006614,0,sub_23
0.0032633999999997,0.0043554000000011,-0.0126283999999998,-0.0049545999999995,-0.003627399999999,0.0013144,0,sub_23
0.0029065999999997,0.0050020000000012,-0.0126407999999998,-0.0041027999999995,-0.003196799999999,0.0013262,0,sub_23
0.0031273999999997,0.0053742000000012,-0.0123751999999998,-0.0034613999999995,-0.002126199999999,0.0013358,0,sub_23
0.0032953999999997,0.0056654000000012,-0.0121287999999998,-0.0017523999999995,-0.001270599999999,0.0009256,0,sub_23
0.0036757999999997,0.0057418000000012,-0.0116057999999998,-0.0006837999999995,-0.000848199999999,0.0009324,0,sub_23
0.0036615999999997,0.0059550000000012,-0.0115563999999998,-0.0002521999999995,-0.000420999999999,0.000294,0,sub_23
0.0035493999999997,0.0059134000000012,-0.0110891999999999,0.0001772000000004,-0.000207599999999,-0.0001305999999999,0,sub_23
0.0037771999999997,0.0056796000000012,-0.0110211999999999,0.0006018000000004,1.180000000092098e-05,-0.0003345999999999,0,sub_23
0.0042695999999997,0.0055472000000012,-0.0108409999999999,0.0005958000000004,-0.000407199999999,-0.0003269999999999,0,sub_23
0.0045519999999997,0.0053980000000012,-0.0107907999999999,0.0010186000000004,-0.000613799999999,-0.0005303999999999,0,sub_23
0.0047167999999997,0.0054076000000012,-0.0108623999999999,0.0010098000000004,-0.001247599999999,-9.539999999991402e-05,0,sub_23
0.0046873999999997,0.0049702000000012,-0.0105003999999999,0.0005764000000004,-0.001453799999999,0.0003362,0,sub_23
0.0047809999999997,0.0049326000000012,-0.0105039999999999,0.0001506000000004,-0.001451199999999,0.0001196,0,sub_23
0.0046167999999997,0.0047344000000012,-0.0110989999999999,-6.179999999958087e-05,-0.001449399999999,-9.559999999991408e-05,0,sub_23
0.0042841999999997,0.0048196000000012,-0.0112287999999999,-0.0004883999999995,-0.001659799999999,-0.0003117999999999,0,sub_23
0.0039615999999997,0.0049766000000012,-0.0106073999999999,-0.0002785999999995,-0.001442199999999,-9.019999999991403e-05,0,sub_23
0.0036267999999997,0.0051078000000012,-0.0105109999999999,-0.0002879999999995,-0.001653599999999,0.0009848,0,sub_23
0.0035281999999997,0.0050200000000012,-0.0106695999999999,-0.0007267999999995,-0.002290399999999,0.0022712,0,sub_23
0.0032559999999997,0.0049048000000012,-0.0106229999999999,-0.0007339999999995,-0.002287799999999,0.0031326,0,sub_23
0.0033613999999997,0.0048344000000012,-0.0108539999999999,-0.0005269999999995,-0.002497399999999,0.0035682,0,sub_23
0.0036559999999997,0.0046864000000012,-0.0112177999999998,-0.0005259999999995,-0.002284399999999,0.0035678,0,sub_23
0.0040461999999997,0.0047410000000012,-0.0113407999999998,-9.619999999958092e-05,-0.001858799999999,0.0033566,0,sub_23
0.0037965999999997,0.0051260000000011,-0.0110897999999998,0.0005488000000004,-0.001220199999999,0.0029328,0,sub_23
0.0035463999999997,0.0051002000000011,-0.0106153999999998,0.0003332000000004,-0.000364399999999,0.0033654,0,sub_23
0.0035739999999997,0.0050346000000011,-0.0104939999999998,-9.579999999958094e-05,0.0004922000000009,0.0037968,0,sub_23
0.0031679999999997,0.0045998000000012,-0.0106927999999998,0.0003280000000004,0.0009206000000009,0.004021,0,sub_23
0.0029469999999997,0.0043540000000011,-0.0111909999999998,0.0003306000000004,0.0017800000000009,0.0033872,0,sub_23
0.0034739999999997,0.0037786000000012,-0.0115153999999998,0.0005476000000004,0.0028518000000009,0.0027546,0,sub_23
0.0038001999999997,0.0039700000000012,-0.0115895999999998,0.0014080000000004,0.0034914000000009,0.0019054,0,sub_23
0.0033399999999997,0.0040326000000012,-0.0113579999999998,0.0016272000000004,0.0041324000000009,0.001265,0,sub_23
0.0037997999999997,0.0045170000000012,-0.0110885999999998,0.0014176000000004,0.0045610000000009,0.0008358,0,sub_23
0.0042261999999997,0.0049948000000012,-0.0103001999999998,0.0014142000000004,0.0047760000000009,0.0010566,0,sub_23
0.0042775999999997,0.0056116000000012,-0.0103039999999998,0.0016184000000003,0.0045608000000009,0.002134,0,sub_23
0.0043065999999997,0.0055794000000012,-0.0099705999999999,0.0013976000000003,0.0041366000000009,0.0025676,0,sub_23
0.0050371999999997,0.0053478000000012,-0.0103091999999999,0.0016048000000003,0.0034998000000009,0.0025774,0,sub_23
0.0055215999999997,0.0048650000000012,-0.0106259999999999,0.0011728000000003,0.0028660000000008,0.0023688,0,sub_23
0.0056689999999997,0.0043872000000012,-0.0109579999999999,0.0007452000000003,0.0022304000000009,0.0019394,0,sub_23
0.0051073999999997,0.0041012000000012,-0.0110551999999999,-0.0001091999999995,0.0011718000000009,0.0010802,0,sub_23
0.0049895999999997,0.0044800000000012,-0.0115881999999999,-0.0009663999999995,-0.000101599999999,0.0006486,0,sub_23
0.0044563999999997,0.0046908000000012,-0.0114901999999999,-0.0011879999999995,-0.000950799999999,0.0008696,0,sub_23
0.0036929999999997,0.0054284000000011,-0.0109901999999999,-0.0011941999999995,-0.001374599999999,0.0010916,0,sub_23
0.0034453999999997,0.0055832000000011,-0.0109247999999999,-0.0014117999999995,-0.001159599999999,0.0015248,0,sub_23
0.0033167999999997,0.0055358000000011,-0.0107569999999999,-0.0012007999999995,-0.000732199999999,0.001747,0,sub_23
0.0034371999999997,0.0056096000000012,-0.0109995999999999,-0.0005601999999995,0.0003330000000009,0.0019714,0,sub_23
0.0036265999999997,0.0058878000000011,-0.0117845999999999,-0.0005543999999995,0.0013990000000009,0.0017564,0,sub_23
0.0035975999999997,0.0051904000000012,-0.0123527999999999,-0.0001217999999995,0.0022514000000009,0.001331,0,sub_23
0.0035029999999997,0.0052830000000011,-0.0121761999999999,0.0005230000000004,0.0028900000000009,0.0009072,0,sub_23
0.0037541999999997,0.0053074000000011,-0.0120451999999999,0.0009544000000004,0.0035294000000009,0.0004822,0,sub_23
0.0034947999999997,0.0052760000000011,-0.0117367999999999,0.0013826000000003,0.0039602000000009,-0.0001477999999998,0,sub_23
0.0035655999999997,0.0049722000000011,-0.0107765999999998,0.0018070000000003,0.0039632000000009,-0.0003501999999998,0,sub_23
