userAcceleration.x,userAcceleration.y,userAcceleration.z,rotationRate.x,rotationRate.y,rotationRate.z,label,subject
-0.0014808000000001,0.0201512000000012,-0.0052339999999999,-0.0015781999999995,-0.0080233999999991,-0.0018477999999998,0,sub_6
-0.0018056000000001,0.0205374000000012,-0.0051197999999999,-0.0005101999999995,-0.0097189999999991,-0.0033373999999998,0,sub_6
-0.0016598000000001,0.0213264000000012,-0.0042217999999999,0.0012114000000004,-0.0097071999999991,-0.0061063999999999,0,sub_6
-0.0007832000000001,0.0214960000000012,-0.0044375999999999,0.0044312000000004,-0.0096963999999991,-0.0099331999999998,0,sub_6
0.0016571999999998,0.0208006000000011,-0.0043885999999999,0.0076636000000004,-0.0071279999999991,-0.0139767999999998,0,sub_6
0.0030843999999998,0.0206396000000011,-0.0039789999999999,0.0115426000000004,-0.0011655999999991,-0.0165211999999998,0,sub_6
0.0041733999999998,0.0201448000000011,-0.0037059999999999,0.0126268000000004,0.0022414000000008,-0.0169451999999998,0,sub_6
0.0046055999999998,0.0194428000000011,-0.0043867999999999,0.0119752000000004,0.0011724000000008,-0.0154529999999998,0,sub_6
0.0040217999999998,0.0194792000000011,-0.0041803999999999,0.0093974000000004,0.0003172000000008,-0.0124789999999998,0,sub_6
0.0017451999999998,0.0200952000000012,-0.0042759999999999,0.0078852000000004,0.0005386000000008,-0.0084427999999998,0,sub_6
-0.0001758000000001,0.0205578000000012,-0.0047783999999999,0.0059462000000004,-8.739999999913089e-05,-0.0052629999999998,0,sub_6
-0.0014114000000001,0.0208618000000012,-0.0050597999999999,0.0046530000000004,-0.0004983999999991,-0.0031473999999998,0,sub_6
-0.0016598000000001,0.0211770000000012,-0.0043069999999999,0.0042238000000004,0.0007980000000008,-0.0016715999999998,0,sub_6
-0.0015826000000001,0.0210908000000012,-0.0038501999999999,0.0046522000000004,0.0016704000000008,-0.0014711999999998,0,sub_6
-0.0010262000000001,0.0208972000000012,-0.0032829999999999,0.0046502000000004,0.0008232000000008,-0.0019003999999998,0,sub_6
-0.0010334000000001,0.0202172000000012,-0.0037899999999999,0.0042100000000004,-0.0013059999999991,-0.0010491999999998,0,sub_6
-0.0006120000000001,0.0200958000000012,-0.0044503999999999,0.0039862000000004,-0.0025843999999991,1.6200000000102505e-05,0,sub_6
-0.0008054000000001,0.0204626000000012,-0.0056265999999999,0.0037738000000004,-0.0019461999999991,0.0004412,0,sub_6
-0.0012132000000001,0.0203680000000012,-0.0065553999999999,0.0039872000000004,-0.0010979999999991,0.0012962,0,sub_6
-0.0005220000000001,0.0202564000000011,-0.0071117999999999,0.0039910000000004,0.0003908000000008,0.0019352,0,sub_6
0.0005655999999998,0.0206318000000011,-0.0057971999999999,0.0048530000000004,-3.199999999915076e-05,0.0004404,0,sub_6
0.0014167999999998,0.0206038000000011,-0.0047007999999999,0.0059302000000004,-2.959999999915088e-05,-0.0010533999999998,0,sub_6
0.0015671999999998,0.0204986000000011,-0.0047087999999999,0.0072190000000004,0.0001828000000008,-0.0019051999999998,0,sub_6
0.0021053999999998,0.0208656000000011,-0.0046781999999999,0.0072236000000004,-2.839999999915085e-05,-0.0023379999999998,0,sub_6
0.0019715999999998,0.0206826000000011,-0.0044235999999999,0.0070102000000004,-0.0002429999999991,-0.0017041999999998,0,sub_6
0.0023463999999997,0.0203550000000012,-0.0049721999999999,0.0057310000000004,0.0014600000000008,-0.0002197999999998,0,sub_6
0.0019689999999997,0.0203420000000012,-0.0050929999999999,0.0048746000000004,0.0023092000000008,0.0012686,0,sub_6
0.0017875999999997,0.0199824000000011,-0.0048539999999999,0.0037954000000004,0.0012408000000008,0.0029716,0,sub_6
0.0013965999999997,0.0202358000000011,-0.0051747999999999,0.0033542000000004,-0.0008923999999991,0.0040394,0,sub_6
0.0005985999999997,0.0207578000000011,-0.0045893999999999,0.0029202000000004,-0.0025993999999991,0.003591,0,sub_6
-0.0007178000000001,0.0210396000000011,-0.0041945999999999,0.0029158000000004,-0.0038809999999991,0.0029314,0,sub_6
-0.0013068000000001,0.0213750000000011,-0.0045037999999999,0.0031258000000004,-0.0049501999999991,0.002273,0,sub_6
-0.0017214000000001,0.0217020000000012,-0.0042531999999999,0.0031318000000004,-0.0047369999999991,0.0007568,0,sub_6
-0.0019516000000001,0.0211992000000011,-0.0034047999999999,0.0029324000000004,-0.0026063999999991,-0.0005495999999999,0,sub_6
-0.0018480000000001,0.0212012000000011,-0.0040051999999999,0.0033706000000004,-0.0006879999999991,-0.0011899999999999,0,sub_6
-0.0019120000000001,0.0217270000000011,-0.0041793999999999,0.0038040000000004,0.0008018000000008,-0.0011889999999999,0,sub_6
-0.0019822000000001,0.0218332000000011,-0.0041707999999999,0.0042284000000004,0.0020874000000008,-0.0013975999999999,0,sub_6
-0.0017346000000001,0.0221818000000011,-0.0049507999999999,0.0054996000000004,0.0018786000000008,-0.0015981999999999,0,sub_6
-0.0016534000000001,0.0221100000000012,-0.0055437999999999,0.0067668000000004,0.0008174000000008,-0.0017977999999999,0,sub_6
-0.0018258000000001,0.0221860000000012,-0.0050241999999999,0.0080418000000004,0.0010364000000008,-0.0024261999999999,0,sub_6
-0.0013372000000001,0.0220482000000012,-0.0051207999999999,0.0093110000000004,0.0001892000000008,-0.0028395999999999,0,sub_6
-0.0005238000000001,0.0212414000000012,-0.0044889999999999,0.0095156000000004,-0.0015169999999991,-0.0026221999999999,0,sub_6
9.639999999982814e-05,0.0205028000000012,-0.0036669999999999,0.0084440000000004,-0.0025785999999991,-0.0026283999999998,0,sub_6
0.0011935999999998,0.0204660000000012,-0.0035017999999999,0.0069524000000004,-0.0019349999999991,-0.0024259999999998,0,sub_6
0.0021959999999998,0.0198940000000012,-0.0037781999999998,0.0058596000000004,-0.0019301999999991,-0.0013475999999998,0,sub_6
0.0028219999999998,0.0197200000000012,-0.0042347999999999,0.0043458000000004,-0.0006455999999991,-0.0002737999999998,0,sub_6
0.0022153999999998,0.0202072000000012,-0.0053785999999999,0.0026216000000004,0.0008546000000008,0.0003708,0,sub_6
0.0020097999999998,0.0207550000000012,-0.0060563999999999,0.0015268000000004,0.0004332000000008,0.0014498,0,sub_6
0.0007427999999998,0.0210948000000012,-0.0059017999999999,0.0021458000000004,0.0012850000000008,0.0023254,0,sub_6
-0.0003668000000001,0.0215800000000012,-0.0060437999999999,0.0019392000000004,0.0025648000000008,0.0021086,0,sub_6
-0.0016856000000001,0.0215886000000012,-0.0055109999999999,0.0025880000000004,0.0032068000000008,0.0008304,0,sub_6
-0.0021750000000001,0.0228408000000012,-0.0049011999999999,0.0051696000000004,0.0061874000000008,-0.0008643999999998,0,sub_6
-0.0033304000000001,0.0230336000000012,-0.0046633999999999,0.0062720000000004,0.0110958000000008,-0.0038539999999998,0,sub_6
-0.0031290000000001,0.0230924000000011,-0.0051771999999999,0.0071218000000004,0.0140870000000008,-0.0055479999999998,0,sub_6
-0.0024732000000001,0.0228720000000011,-0.0050729999999999,0.0086050000000004,0.0166456000000008,-0.0061689999999998,0,sub_6
-0.0010314000000002,0.0228666000000011,-0.0050595999999999,0.0096578000000004,0.0189902000000008,-0.0061517999999998,0,sub_6
0.0002941999999997,0.0215708000000011,-0.0046701999999999,0.0083500000000004,0.0200576000000008,-0.0044401999999998,0,sub_6
0.0013557999999997,0.0214384000000011,-0.0040535999999999,0.0083176000000004,0.0219652000000008,-0.0007979999999998,0,sub_6
0.0009147999999997,0.0211710000000012,-0.0033449999999999,0.0068172000000004,0.0226010000000008,0.001327,0,sub_6
-0.0002790000000002,0.0219774000000012,-0.0036643999999999,0.0038088000000004,0.0185610000000008,0.0019522,0,sub_6
-0.0011892000000002,0.0225244000000012,-0.0043883999999999,0.0022650000000004,0.0132452000000008,0.0017406,0,sub_6
-0.0020898000000002,0.0232220000000012,-0.0054669999999999,0.0039488000000004,0.0121862000000008,-0.0001631999999999,0,sub_6
-0.0027286000000001,0.0233826000000012,-0.0061491999999999,0.0058556000000004,0.0124082000000008,-0.0029215999999999,0,sub_6
-0.0012964000000001,0.0233480000000012,-0.0060121999999999,0.0077606000000004,0.0126286000000008,-0.0052525999999998,0,sub_6
0.0008331999999998,0.0224952000000012,-0.0056821999999998,0.0107526000000004,0.0181680000000008,-0.0067283999999998,0,sub_6
0.0023117999999998,0.0217934000000012,-0.0047977999999999,0.0124970000000004,0.0254100000000008,-0.0077937999999998,0,sub_6
0.0038119999999998,0.0214692000000012,-0.0043899999999999,0.0118644000000004,0.0266924000000008,-0.0082271999999998,0,sub_6
0.0043793999999998,0.0217214000000012,-0.0044321999999998,0.0101448000000004,0.0258384000000008,-0.0063153999999998,0,sub_6
0.0032695999999998,0.0220552000000012,-0.0045831999999998,0.0083916000000004,0.0237098000000008,-0.0041835999999998,0,sub_6
0.0012257999999998,0.0221066000000012,-0.0049419999999998,0.0070518000000004,0.0183848000000008,-0.0022583999999998,0,sub_6
-0.0011686000000001,0.0220622000000012,-0.0062711999999998,0.0061426000000004,0.0139108000000008,-0.0003311999999998,0,sub_6
-0.0027758000000001,0.0222516000000012,-0.0062401999999999,0.0058880000000004,0.0119934000000008,0.0009564,0,sub_6
-0.0035148000000001,0.0221144000000012,-0.0060261999999999,0.0065032000000004,0.0105122000000008,-0.0009551999999999,0,sub_6
-0.0026666000000001,0.0229258000000012,-0.0052359999999999,0.0075912000000004,0.0115882000000008,-0.0045807999999998,0,sub_6
-0.0011460000000002,0.0234764000000012,-0.0050451999999999,0.0082600000000004,0.0150068000000008,-0.0075713999999998,0,sub_6
0.0006491999999997,0.0240824000000012,-0.0039893999999999,0.0072076000000004,0.0156598000000008,-0.0101431999999998,0,sub_6
0.0016377999999997,0.0228482000000012,-0.0033519999999999,0.0048566000000004,0.0135426000000008,-0.0114387999999998,0,sub_6
0.0028661999999997,0.0213448000000012,-0.0037729999999999,0.0028842000000004,0.0103524000000008,-0.0101601999999998,0,sub_6
0.0021819999999997,0.0197624000000012,-0.0057295999999999,0.0006860000000004,0.0067276000000008,-0.0065325999999999,0,sub_6
0.0011777999999998,0.0191014000000012,-0.0062403999999999,-0.0015159999999995,0.0035238000000008,-0.0016235999999999,0,sub_6
-0.0001868000000001,0.0192720000000012,-0.0062619999999999,-0.0030663999999995,0.0035110000000008,0.0039266,0,sub_6
-0.0017912000000001,0.0207676000000012,-0.0064507999999999,-0.0037573999999995,0.0047736000000008,0.0094814,0,sub_6
-0.0032842000000001,0.0225756000000012,-0.0058439999999999,-0.0037697999999995,0.0056114000000008,0.0131122,0,sub_6
-0.0045004000000001,0.0240378000000011,-0.0052155999999999,-0.0033429999999995,0.0064588000000008,0.0139688,0,sub_6
-0.0046592000000001,0.0249854000000011,-0.0039191999999999,-0.0024769999999995,0.0062548000000008,0.010984,0,sub_6
-0.0037244000000001,0.0247458000000011,-0.0033831999999999,-0.0001445999999995,0.0051884000000008,0.0063084,0,sub_6
-0.0022642000000001,0.0237124000000011,-0.0043493999999999,0.0015476000000004,0.0034876000000008,0.0009882,0,sub_6
-0.0003546000000001,0.0220158000000011,-0.0047017999999999,0.0017424000000004,0.0020008000000008,-0.0032743999999999,0,sub_6
0.0014567999999998,0.0203764000000012,-0.0046169999999999,0.0010760000000004,0.0011468000000008,-0.0051939999999999,0,sub_6
0.0019587999999998,0.0197516000000012,-0.0058387999999999,0.0001772000000004,0.0002764000000008,-0.0028421999999999,0,sub_6
0.0016477999999998,0.0196610000000012,-0.0058367999999999,-0.0013441999999995,-0.0016527999999991,0.0014226,0,sub_6
0.0003535999999998,0.0202658000000012,-0.0052481999999999,-0.0024387999999995,-0.0048567999999991,0.00441,0,sub_6
-0.0015342000000001,0.0217476000000012,-0.0051787999999999,-0.0020541999999995,-0.0066081999999991,0.0044232,0,sub_6
-0.0010992000000001,0.0226546000000012,-0.0046501999999999,0.0019760000000004,-0.0058097999999991,0.0029632,0,sub_6
0.0002975999999998,0.0223918000000012,-0.0045099999999999,0.0062454000000004,-0.0013815999999991,-0.0006361999999999,0,sub_6
0.0012075999999998,0.0219588000000012,-0.0044149999999999,0.0079534000000004,0.0034790000000008,-0.0036131999999998,0,sub_6
0.0023553999999997,0.0217612000000012,-0.0038297999999999,0.0081514000000004,0.0083304000000008,-0.0029687999999998,0,sub_6
0.0029955999999997,0.0211472000000012,-0.0036091999999999,0.0068656000000004,0.0119372000000008,0.0019314000000001,0,sub_6
-0.0001026000000002,0.0210908000000012,-0.0045321999999999,0.0021436000000004,0.0110802000000008,0.0072406000000001,0,sub_6
-0.0038018000000001,0.0219596000000012,-0.0038157999999999,-0.0025917999999995,0.0055428000000008,0.0108466000000001,0,sub_6
-0.0062576000000001,0.0232584000000012,-0.0042495999999999,-0.0036749999999995,0.0019246000000008,0.0108436,0,sub_6
-0.0085334000000001,0.0238654000000012,-0.0055493999999999,-0.0022005999999995,0.0027142000000008,0.006809,0,sub_6
-0.0097814000000001,0.0244002000000012,-0.0057999999999999,0.0007834000000004,0.0043620000000008,6.400000000082381e-06,0,sub_6
-0.0073230000000001,0.0243280000000012,-0.0050541999999999,0.0052622000000004,0.0070664000000008,-0.0059325999999998,0,sub_6
-0.0035630000000001,0.0230412000000012,-0.0051247999999999,0.0090988000000004,0.0110444000000008,-0.0101685999999998,0,sub_6
5.959999999980772e-05,0.0215696000000012,-0.0055301999999999,0.0107778000000004,0.0126744000000008,-0.0114255999999998,0,sub_6
0.0037663999999998,0.0206216000000012,-0.0049047999999999,0.0111948000000004,0.0126644000000008,-0.0092863999999998,0,sub_6
0.0063785999999998,0.0196878000000012,-0.0047703999999999,0.0101116000000004,0.0132902000000008,-0.0050219999999998,0,sub_6
0.0067529999999998,0.0196476000000012,-0.0043903999999999,0.0077084000000004,0.0140560000000008,-0.0003173999999999,0,sub_6
0.0060357999999998,0.0203420000000012,-0.0046517999999999,0.0055090000000004,0.0133272000000008,0.0050314,0,sub_6
0.0039635999999998,0.0213222000000012,-0.0042673999999999,0.0026694000000004,0.0113274000000008,0.0090956,0,sub_6
0.0010801999999998,0.0224184000000012,-0.0042589999999999,0.0004738000000004,0.0080556000000008,0.0110294,0,sub_6
-0.0014666000000001,0.0235104000000012,-0.0042115999999999,-0.0008615999999995,0.0047866000000008,0.0114738,0,sub_6
-0.0039186000000001,0.0240942000000012,-0.0046719999999999,-0.0006569999999995,0.0011706000000008,0.0097706,0,sub_6
-0.0062402000000001,0.0242436000000012,-0.0051231999999999,-0.0002273999999995,-0.0007381999999991,0.0072122,0,sub_6
-0.0069010000000001,0.0238724000000011,-0.0057073999999999,0.0012806000000004,-0.0005183999999991,0.0042314,0,sub_6
-0.0060990000000001,0.0234346000000011,-0.0056097999999999,0.0027730000000004,0.0009180000000008,0.0010392,0,sub_6
-0.0044382000000001,0.0232326000000011,-0.0053837999999999,0.0046826000000004,0.0006468000000008,-0.0017205999999999,0,sub_6
-0.0018860000000001,0.0226112000000011,-0.0054949999999999,0.0050928000000004,0.0008002000000008,-0.0027821999999999,0,sub_6
1.4399999999807796e-05,0.0220334000000011,-0.0054139999999999,0.0054962000000004,0.0003110000000008,-0.0029883999999998,0,sub_6
0.0009781999999998,0.0217948000000012,-0.0046997999999999,0.0056834000000004,0.0004566000000008,-0.0019151999999998,0,sub_6
0.0012043999999998,0.0211744000000012,-0.0045037999999999,0.0052490000000004,0.0006636000000008,4.4000000001029325e-06,0,sub_6
0.0009009999999998,0.0201556000000012,-0.0049097999999999,0.0041782000000004,0.0019372000000008,0.0021316000000001,0,sub_6
0.0004415999999998,0.0203622000000012,-0.0053071999999999,0.0026836000000004,0.0023660000000008,0.0027616000000001,0,sub_6
8.319999999984785e-05,0.0207758000000012,-0.0052589999999999,0.0011928000000004,0.0030104000000008,0.0027504,0,sub_6
-0.0008724000000001,0.0212710000000012,-0.0054791999999999,0.0001134000000004,0.0036146000000008,0.0025298,0,sub_6
-0.0014650000000001,0.0215774000000012,-0.0051681999999999,-0.0001181999999995,0.0025132000000008,0.0018898,0,sub_6
-0.0017588000000001,0.0220444000000012,-0.0043755999999999,0.0005028000000004,0.0007714000000008,0.0008294,0,sub_6
-0.0023576000000001,0.0224044000000012,-0.0043717999999999,0.0015542000000004,0.0005170000000008,0.000411,0,sub_6
-0.0026300000000001,0.0227884000000012,-0.0038603999999999,0.0023934000000004,0.0006884000000008,0.0002042,0,sub_6
-0.0017156000000001,0.0228986000000012,-0.0036227999999999,0.0034526000000004,-0.0008073999999991,0.000427,0,sub_6
-0.0011362000000001,0.0226332000000012,-0.0042659999999999,0.0038840000000004,4.420000000084773e-05,0.0002154,0,sub_6
-0.0003430000000001,0.0230534000000012,-0.0049165999999999,0.0032332000000004,0.0012872000000008,0.0004162,0,sub_6
0.0003169999999998,0.0229870000000011,-0.0042897999999999,0.0030016000000004,0.0012486000000008,0.0010488,0,sub_6
0.0004999999999998,0.0226038000000011,-0.0039897999999999,0.0027604000000004,-0.0004959999999991,0.0021108,0,sub_6
0.0002175999999998,0.0221038000000011,-0.0050579999999999,0.0021040000000004,-0.0007435999999991,0.0021,0,sub_6
0.0002519999999998,0.0221998000000011,-0.0052383999999999,0.0016562000000004,-0.0016327999999991,0.0025186,0,sub_6
-0.0007786000000001,0.0223202000000011,-0.0048567999999999,0.0014430000000004,-0.001844199999999,0.0023038,0,sub_6
-0.0012312000000001,0.0220314000000011,-0.0051969999999999,0.0012316000000004,-0.0018417999999991,0.0018750000000001,0,sub_6
-0.0016252000000001,0.0222374000000012,-0.0061743999999999,0.0010278000000004,-0.0009835999999991,0.0005906000000001,0,sub_6
-0.0015024000000001,0.0220820000000012,-0.0053843999999999,0.0012214000000004,-0.0016635999999991,-0.0009031999999998,0,sub_6
-0.0012908000000001,0.0225158000000012,-0.0049705999999999,0.0014178000000004,-0.0017045999999991,-0.0023977999999998,0,sub_6
-0.0004006000000001,0.0220240000000012,-0.0058017999999999,0.0018256000000004,-0.0015357999999991,-0.0032501999999998,0,sub_6
-5.260000000019255e-05,0.0218634000000012,-0.0057399999999999,0.0024410000000004,-0.0017971999999991,-0.0032459999999999,0,sub_6
0.0005911999999998,0.0216500000000012,-0.0052391999999999,0.0026316000000004,-0.0018433999999991,-0.0034587999999999,0,sub_6
0.0004269999999998,0.0217760000000012,-0.0051857999999999,0.0026354000000004,-0.0001423999999991,-0.0026063999999999,0,sub_6
0.0002737999999998,0.0212228000000012,-0.0050599999999999,0.0024220000000004,0.0002828000000008,-0.0021811999999999,0,sub_6
-6.680000000017256e-05,0.0215886000000012,-0.0042995999999999,0.0017760000000004,-0.0003565999999991,-0.0015439999999999,0,sub_6
-0.0006692000000001,0.0217964000000012,-0.0041941999999999,0.0011388000000004,7.260000000082795e-05,-0.0017625999999999,0,sub_6
-0.0011728000000001,0.0221662000000012,-0.0041859999999999,0.0009024000000004,0.0002472000000008,-0.0009203999999999,0,sub_6
-0.0009880000000001,0.0225170000000011,-0.0040139999999999,0.0006670000000004,-0.0002141999999991,-0.0009319999999999,0,sub_6
-0.0006542000000001,0.0227460000000011,-0.0036127999999999,0.0010708000000004,-0.0004663999999991,-0.0005121999999999,0,sub_6
-0.0004616000000001,0.0222994000000011,-0.0037957999999999,0.0016928000000004,-0.0002907999999991,-0.0007323999999999,0,sub_6
-0.0004790000000001,0.0224482000000011,-0.0041145999999998,0.0020976000000004,-0.0007543999999991,-0.0007395999999999,0,sub_6
-0.0001004000000001,0.0222332000000011,-0.0046181999999998,0.0023120000000004,-0.0007543999999991,-0.0009517999999999,0,sub_6
0.0001385999999998,0.0219966000000012,-0.0050821999999998,0.0027378000000004,-0.0011811999999991,-0.0011619999999999,0,sub_6
-0.0002564000000001,0.0218054000000012,-0.0054185999999998,0.0025054000000004,-0.0012065999999991,-0.0013857999999999,0,sub_6
-0.0001334000000001,0.0222084000000012,-0.0053145999999998,0.0022690000000004,-0.0014475999999991,-0.0009683999999999,0,sub_6
-0.0006832000000001,0.0219350000000012,-0.0052225999999998,0.0009668000000004,-0.0010473999999991,-0.0001321999999999,0,sub_6
-0.0007508000000001,0.0218444000000012,-0.0051661999999998,9.220000000047758e-05,-0.0012843999999991,-0.0001465999999999,0,sub_6
-0.0008104000000001,0.0218162000000012,-0.0049851999999998,-0.0005669999999995,-0.0006715999999991,0.0002666,0,sub_6
-0.0007824000000001,0.0219850000000012,-0.0056519999999999,-0.0012071999999995,0.0001794000000008,0.0011156,0,sub_6
-0.0012240000000001,0.0211794000000012,-0.0061117999999999,-0.0018423999999995,0.0016712000000008,0.0015364,0,sub_6
-0.0005448000000001,0.0212726000000012,-0.0057193999999999,-0.0007765999999995,0.0014544000000008,0.0015442,0,sub_6
-0.0004964000000002,0.0213854000000012,-0.0055171999999999,-0.0005821999999995,0.0018582000000008,0.0021786,0,sub_6
-0.0010084000000001,0.0215522000000012,-0.0047693999999999,-0.0010269999999995,0.0024772000000008,0.0028084,0,sub_6
-0.0010832000000001,0.0215282000000012,-0.0043435999999999,-0.0006211999999995,0.0020298000000008,0.0030182,0,sub_6
-0.0011550000000001,0.0218956000000012,-0.0037655999999999,-2.999999999522352e-06,0.0011564000000008,0.0030164,0,sub_6
-0.0010256000000001,0.0215434000000012,-0.0041841999999999,-2.2999999999522277e-05,0.0007114000000008,0.0030096,0,sub_6
-0.0005334000000001,0.0213594000000012,-0.0038065999999999,0.0006132000000004,-0.0005675999999991,0.0025884,0,sub_6
-0.0002890000000001,0.0208080000000011,-0.0043253999999999,0.0010322000000004,-0.0026979999999991,0.0021666,0,sub_6
-0.0003746000000001,0.0207930000000011,-0.0043669999999999,0.0014522000000004,-0.0041909999999991,0.0021714,0,sub_6
-9.200000000017244e-05,0.0206116000000011,-0.0051789999999999,0.0008082000000004,-0.0050409999999991,0.002168,0,sub_6
-0.0003632000000001,0.0206882000000011,-0.0047003999999999,-6.179999999952231e-05,-0.0050477999999991,0.0023696,0,sub_6
-0.0011004000000001,0.0205220000000011,-0.0045075999999999,-0.0007133999999995,-0.0042019999999991,0.0023582,0,sub_6
-0.0009464000000001,0.0208888000000012,-0.0048749999999999,-0.0009373999999995,-0.0033567999999991,0.0021362,0,sub_6
-0.0008552000000002,0.0208488000000012,-0.0047181999999999,-0.0015871999999995,-0.0029337999999991,0.0012706,0,sub_6
-0.0009184000000002,0.0207764000000012,-0.0043751999999999,-0.0015979999999995,-0.0020893999999991,0.00105,0,sub_6
-0.0008378000000002,0.0210090000000012,-0.0045857999999998,-0.0011643999999995,-0.0014481999999991,0.0001976000000001,0,sub_6
-0.0007426000000002,0.0213590000000012,-0.0047553999999999,-0.0007387999999995,-0.0012383999999991,0.0006276000000001,0,sub_6
-0.0003534000000001,0.0214362000000012,-0.0049849999999999,-0.0005283999999995,-0.0016661999999991,0.0008432000000001,0,sub_6
0.0003267999999998,0.0213998000000012,-0.0050795999999999,-0.0001145999999995,-0.0010341999999991,0.0012732000000001,0,sub_6
0.0004723999999998,0.0218806000000012,-0.0046907999999999,0.0005108000000004,-0.0010413999999991,0.0014918,0,sub_6
0.0011285999999998,0.0217632000000012,-0.0044227999999999,0.0007054000000004,-0.0014747999999991,0.0021354,0,sub_6
0.0009045999999998,0.0214488000000011,-0.0042271999999999,0.0004782000000004,-0.0016901999999991,0.001921,0,sub_6
6.47999999998075e-05,0.0213058000000011,-0.0036041999999999,0.0004634000000004,-0.0014827999999991,0.0023486,0,sub_6
-2.500000000019253e-05,0.0212630000000011,-0.0037889999999999,3.080000000047767e-05,-0.0025473999999991,0.0025606,0,sub_6
0.0002089999999998,0.0210524000000011,-0.0038301999999999,2.9800000000477685e-05,-0.0029725999999991,0.0023474,0,sub_6
-0.0004160000000001,0.0206878000000011,-0.0040765999999999,1.7200000000497677e-05,-0.0029729999999991,0.0023496,0,sub_6
1.9999999982745409e-07,0.0205714000000012,-0.0046205999999999,-0.0002125999999995,-0.0034003999999991,0.0027782,0,sub_6
0.0005449999999998,0.0204696000000012,-0.0046275999999998,-0.0006519999999995,-0.0036113999999991,0.0025642,0,sub_6
0.0001399999999998,0.0206094000000012,-0.0039963999999999,-0.0002369999999995,-0.0029757999999991,0.002996,0,sub_6
-0.0004540000000001,0.0208636000000012,-0.0042087999999999,-0.0002477999999995,-0.0029743999999991,0.0025712,0,sub_6
-5.000000000017256e-05,0.0213064000000012,-0.0036017999999999,-0.0006745999999995,-0.0027607999999991,0.0027816,0,sub_6
-5.120000000017257e-05,0.0207576000000012,-0.0034249999999999,-0.0004573999999995,-0.0025459999999991,0.002142,0,sub_6
0.0002397999999998,0.0205988000000012,-0.0039963999999999,-2.3999999999502365e-05,-0.0019049999999991,0.0012896,0,sub_6
0.0004549999999998,0.0204874000000012,-0.0045041999999999,-0.0008677999999994,-0.0004079999999991,0.0006408,0,sub_6
0.0003343999999998,0.0206422000000012,-0.0045193999999999,-0.0019425999999994,0.0002298000000008,0.0014858,0,sub_6
0.0001371999999998,0.0203652000000012,-0.0051481999999999,-0.0021639999999994,0.0002282000000008,0.0016968,0,sub_6
-7.820000000017245e-05,0.0210350000000012,-0.0053143999999999,-0.0015347999999995,-0.0002033999999991,0.0021278,0,sub_6
