userAcceleration.x,userAcceleration.y,userAcceleration.z,rotationRate.x,rotationRate.y,rotationRate.z,label,subject
0.0008363999999997,0.0037222000000012,-0.0045079999999998,0.0022166000000004,0.0081228000000009,-0.0031093999999999,0,sub_20
0.0005689999999997,0.0038994000000012,-0.0036435999999998,0.0026398000000004,0.0079150000000009,-0.0031121999999999,0,sub_20
0.0011229999999997,0.0049332000000012,-0.0034939999999998,0.0036962000000004,0.0057800000000009,-0.0028883999999999,0,sub_20
0.0016461999999997,0.0050748000000012,-0.0031301999999998,0.0056022000000004,0.0027898000000009,-0.0026575999999999,0,sub_20
0.0022715999999997,0.0040912000000012,-0.0030825999999998,0.0070766000000004,-0.001264399999999,-0.0024283999999999,0,sub_20
0.0026345999999998,0.0034114000000012,-0.0033819999999999,0.0081202000000004,-0.005741799999999,-0.0017765999999999,0,sub_20
0.0030365999999998,0.0029616000000012,-0.0034955999999999,0.0070396000000004,-0.007656799999999,-0.0007155999999999,0,sub_20
0.0028197999999998,0.0014342000000012,-0.0032693999999999,0.0044778000000004,-0.006584799999999,0.0005448,0,sub_20
0.0025761999999998,0.0010330000000012,-0.0032307999999999,0.0008502000000004,-0.005508199999999,0.0015842,0,sub_20
0.0023173999999997,0.0008664000000012,-0.0034381999999999,-0.0023449999999995,-0.002942599999999,0.0028382,0,sub_20
0.0022823999999997,0.0012320000000012,-0.0040113999999999,-0.0048977999999995,-0.000380599999999,0.0036718,0,sub_20
0.0019289999999997,0.0011976000000012,-0.0048653999999999,-0.0059599999999995,0.0009004000000009,0.0038764,0,sub_20
0.0016405999999997,0.0027088000000012,-0.0059301999999999,-0.0057493999999995,0.0002604000000009,0.0038788,0,sub_20
0.0011813999999997,0.0038586000000012,-0.0067253999999999,-0.0048959999999995,0.0002574000000009,0.0038846,0,sub_20
0.0006435999999997,0.0048900000000012,-0.0076189999999999,-0.0036233999999995,-0.001451399999999,0.0038956,0,sub_20
0.0002567999999997,0.0052910000000012,-0.0075045999999999,-0.0025603999999995,-0.002731599999999,0.0034774,0,sub_20
6.079999999976744e-05,0.0059208000000012,-0.0071447999999999,-0.0014925999999995,-0.002734399999999,0.0032712,0,sub_20
-0.0002060000000002,0.0051966000000012,-0.0060145999999999,-0.0008447999999995,-0.001456599999999,0.0028468,0,sub_20
0.0003819999999997,0.0043290000000012,-0.0053807999999999,1.7400000000464007e-05,-0.000390999999999,0.001997,0,sub_20
0.0004291999999997,0.0035692000000012,-0.0049497999999999,0.0008814000000004,0.0013130000000009,0.00136,0,sub_20
0.0014053999999998,0.0022720000000012,-0.0051253999999999,0.0023828000000004,0.0025878000000009,0.0009414,0,sub_20
0.0024507999999998,0.0013820000000012,-0.0054497999999999,0.0034526000000004,0.0030110000000009,0.0007346,0,sub_20
0.0029861999999998,0.0011632000000012,-0.0061049999999998,0.0038802000000004,0.0032226000000009,0.0007372,0,sub_20
0.0031573999999998,0.0016262000000012,-0.0059727999999998,0.0019608000000004,0.0040790000000009,0.0013636,0,sub_20
0.0034743999999998,0.0022348000000012,-0.0054763999999998,0.0002538000000004,0.0042972000000009,0.001565,0,sub_20
0.0027833999999998,0.0032042000000012,-0.0046251999999998,-0.0016581999999995,0.0030210000000009,0.0017664,0,sub_20
0.0025123999999997,0.0036276000000012,-0.0041045999999998,-0.0027213999999995,0.0008888000000009,0.0021884,0,sub_20
0.0024781999999997,0.0039326000000012,-0.0034459999999998,-0.0027195999999995,-0.001673399999999,0.0026184,0,sub_20
0.0027143999999997,0.0037212000000012,-0.0029971999999998,-0.0014377999999995,-0.004452199999999,0.0028438,0,sub_20
0.0031173999999997,0.0030288000000012,-0.0034269999999999,-0.0005767999999995,-0.005951199999999,0.0030648,0,sub_20
0.0026591999999997,0.0026696000000012,-0.0041407999999999,6.040000000044399e-05,-0.006168199999999,0.0034968,0,sub_20
0.0018439999999998,0.0024974000000012,-0.0043729999999999,-0.0003595999999995,-0.005099799999999,0.0030652,0,sub_20
0.0015307999999998,0.0022954000000012,-0.0051149999999999,-0.0009881999999995,-0.002965199999999,0.0026308,0,sub_20
0.0006519999999998,0.0020078000000012,-0.0062819999999999,-0.0005495999999995,-0.0017023999999991,0.002214,0,sub_20
0.0006573999999998,0.0024080000000012,-0.0060135999999999,0.0003128000000004,-0.0012925999999991,0.0015874,0,sub_20
0.0007687999999998,0.0026576000000012,-0.0056169999999999,0.0007524000000004,-0.0004533999999991,0.00053,0,sub_20
0.0017015999999998,0.0025226000000012,-0.0055777999999999,0.0018272000000004,-0.0004693999999991,-0.0003081999999999,0,sub_20
0.0018607999999998,0.0029446000000011,-0.0053119999999999,0.0022560000000004,-0.0013371999999991,-0.0007223999999999,0,sub_20
0.0020669999999998,0.0033342000000011,-0.0048377999999999,0.0026828000000004,-0.001762999999999,-0.0011461999999999,0,sub_20
0.0019225999999998,0.0029718000000012,-0.0046843999999999,0.0031104000000004,-0.001763599999999,-0.0013567999999999,0,sub_20
0.0017885999999998,0.0026654000000012,-0.0047589999999999,0.0033198000000004,-0.002192199999999,-0.0009273999999999,0,sub_20
0.0014039999999998,0.0026590000000012,-0.0046183999999999,0.0031016000000004,-0.002200399999999,-0.0002823999999999,0,sub_20
0.0013945999999998,0.0018338000000012,-0.0047551999999999,0.0030978000000004,-0.002208599999999,0.0001504,0,sub_20
0.0015397999999998,0.0016248000000012,-0.0047593999999999,0.0022404000000004,-0.002213799999999,0.0005772,0,sub_20
0.0016613999999998,0.0018842000000012,-0.0054869999999999,0.0005316000000004,-0.002001999999999,0.0007842,0,sub_20
0.0023647999999998,0.0021420000000012,-0.0057063999999998,-0.0005361999999995,-0.001579399999999,0.0009954,0,sub_20
0.0021745999999997,0.0023926000000012,-0.0056353999999998,-0.0016001999999995,-0.001148799999999,0.0007738,0,sub_20
0.0025497999999997,0.0025588000000012,-0.0045809999999998,-0.0022393999999995,-0.000933399999999,0.000769,0,sub_20
0.0022431999999997,0.0029524000000012,-0.0041243999999998,-0.0024517999999995,-0.000931799999999,0.000554,0,sub_20
0.0018901999999997,0.0027808000000012,-0.0034873999999998,-0.0022411999999995,-0.001147199999999,0.000983,0,sub_20
0.0017375999999997,0.0026602000000012,-0.0033047999999998,-0.0020277999999995,-0.001360199999999,0.000771,0,sub_20
0.0018553999999997,0.0025796000000012,-0.0034727999999998,-0.0015999999999995,-0.0009363999999991,0.000987,0,sub_20
0.0012331999999997,0.0026198000000012,-0.0049895999999998,-0.0009579999999995,-0.0007247999999991,0.0007776,0,sub_20
0.0015561999999997,0.0027182000000012,-0.0055849999999998,-0.0005283999999995,0.0001252000000008,0.000993,0,sub_20
0.0018613999999998,0.0026006000000012,-0.0059169999999999,-9.699999999955606e-05,0.0005522000000008,0.0003546,0,sub_20
0.0014837999999998,0.0024786000000012,-0.0061137999999999,0.0005450000000004,0.0005518000000008,-6.819999999995376e-05,0,sub_20
0.0013887999999998,0.0026004000000012,-0.0058751999999999,0.0013964000000004,-0.000301599999999,-0.0004883999999999,0,sub_20
0.0019391999999998,0.0027946000000012,-0.0051291999999999,0.0018252000000004,-8.919999999909096e-05,-0.0006993999999999,0,sub_20
0.0018897999999998,0.0019500000000012,-0.0046115999999999,0.0020414000000004,-8.739999999909099e-05,-0.0013387999999999,0,sub_20
0.0018371999999998,0.0014194000000012,-0.0042521999999998,0.0020560000000004,0.0005510000000009,-0.0015547999999999,0,sub_20
0.0022845999999998,0.0014452000000012,-0.0040817999999998,0.0014334000000004,0.0018306000000009,-0.0017759999999999,0,sub_20
0.0028631999999998,0.0018144000000012,-0.0043771999999998,0.0008136000000004,0.0033248000000009,-0.0024247999999999,0,sub_20
0.0028753999999998,0.0025444000000012,-0.0039401999999998,0.0004022000000004,0.0039654000000009,-0.0028573999999999,0,sub_20
0.0027825999999997,0.0035002000000012,-0.0042691999999998,0.0006264000000004,0.0037506000000009,-0.0030707999999999,0,sub_20
0.0035311999999997,0.0042056000000012,-0.0046465999999998,0.0006244000000004,0.0029000000000009,-0.0034969999999999,0,sub_20
0.0033339999999997,0.0054826000000012,-0.0043929999999998,0.0010462000000004,0.0014088000000009,-0.0039193999999999,0,sub_20
0.0029325999999997,0.0057862000000012,-0.0039705999999998,0.0012586000000004,0.0003476000000009,-0.0043523999999999,0,sub_20
0.0024593999999997,0.0056048000000012,-0.0052023999999998,0.0014692000000004,-0.001563999999999,-0.0052115999999999,0,sub_20
0.0021817999999998,0.0052296000000012,-0.0048001999999998,0.0018882000000004,-0.004541799999999,-0.0060679999999999,0,sub_20
0.0012153999999998,0.0044596000000012,-0.0044307999999999,0.0033752000000004,-0.006885799999999,-0.0064905999999999,0,sub_20
0.0017353999999997,0.0027030000000012,-0.0048249999999999,0.0044374000000004,-0.008802199999999,-0.0069165999999999,0,sub_20
0.0019915999999997,0.0012274000000012,-0.0047093999999999,0.0054938000000004,-0.010724999999999,-0.0064795999999999,0,sub_20
0.0014061999999997,-4.199999998755894e-06,-0.0040787999999999,0.0059166000000004,-0.010942199999999,-0.0058355999999999,0,sub_20
0.0007263999999997,-0.0009127999999987,-0.0050541999999999,0.0054908000000004,-0.009454399999999,-0.0045585999999999,0,sub_20
0.0003975999999997,0.0003618000000012,-0.0053125999999999,0.0039958000000004,-0.007957799999999,-0.0032937999999999,0,sub_20
-0.0004764000000001,0.0019458000000012,-0.0051803999999999,0.0022962000000004,-0.004118799999999,-0.0016063999999999,0,sub_20
-0.0010084000000001,0.0034364000000012,-0.0053373999999999,0.0005984000000004,-0.000702399999999,-0.0007727999999999,0,sub_20
5.8799999999807445e-05,0.0050132000000012,-0.0051253999999999,-0.0002543999999995,0.0003692000000009,-0.0003575999999999,0,sub_20
0.0005399999999998,0.0067300000000012,-0.0044355999999999,-4.03999999995761e-05,0.0010126000000009,-0.0003617999999999,0,sub_20
0.0006665999999998,0.0064146000000012,-0.0048151999999999,0.0003902000000004,0.0018632000000009,-0.0003599999999999,0,sub_20
0.0008903999999998,0.0058514000000012,-0.0046311999999999,0.0014484000000004,-0.000694599999999,-0.0009901999999999,0,sub_20
0.0012511999999998,0.0048978000000012,-0.0048547999999999,0.0022914000000004,-0.002828999999999,-0.0007679999999999,0,sub_20
0.0010477999999998,0.0036098000000012,-0.0046107999999999,0.0027172000000004,-0.002406999999999,-0.0001245999999999,0,sub_20
0.0016409999999998,0.0019110000000012,-0.0046783999999999,0.0022934000000004,-0.001554199999999,8.500000000004636e-05,0,sub_20
0.0018703999999997,0.0008484000000012,-0.0042583999999999,0.0014428000000004,-0.000911999999999,7.820000000004635e-05,0,sub_20
0.0024157999999997,8.120000000124418e-05,-0.0043325999999998,0.0005988000000004,0.0012216000000009,6.960000000004632e-05,0,sub_20
0.0028393999999997,0.0004122000000012,-0.0036709999999998,0.0006128000000004,0.0029316000000009,-0.0003619999999999,0,sub_20
0.0027711999999997,0.0014848000000012,-0.0034701999999998,0.0010516000000004,0.0037896000000009,-0.0012169999999999,0,sub_20
0.0030337999999997,0.0029058000000012,-0.0033287999999998,0.0014856000000004,0.0035824000000009,-0.0020705999999999,0,sub_20
0.0032683999999998,0.0047712000000012,-0.0032539999999998,0.0027702000000004,0.0029450000000009,-0.0027039999999999,0,sub_20
0.0027801999999998,0.0062294000000012,-0.0036343999999998,0.0034100000000004,0.0014568000000009,-0.0031271999999999,0,sub_20
0.0013955999999998,0.0066452000000012,-0.0040445999999998,0.0031926000000004,0.0003930000000009,-0.0033409999999999,0,sub_20
0.0010979999999998,0.0065830000000012,-0.0045463999999998,0.0023342000000004,-0.000244999999999,-0.0029187999999999,0,sub_20
0.0006605999999997,0.0059286000000012,-0.0045313999999998,0.0019016000000004,-0.000885399999999,-0.0022799999999999,0,sub_20
2.659999999980749e-05,0.0047530000000012,-0.0044669999999998,0.0014682000000004,-0.001950799999999,-0.0018543999999999,0,sub_20
9.699999999980749e-05,0.0033014000000012,-0.0044303999999998,0.0014616000000004,-0.002165799999999,-0.0009979999999999,0,sub_20
0.0008337999999998,0.0023736000000012,-0.0047101999999998,0.0014532000000004,-0.002806999999999,-0.0001411999999999,0,sub_20
0.0012523999999998,0.0018696000000012,-0.0048925999999999,0.0010172000000004,-0.003447599999999,0.0009264,0,sub_20
0.0013647999999998,0.0017766000000012,-0.0051003999999999,0.0001600000000004,-0.002808199999999,0.0019894,0,sub_20
0.0015117999999998,0.0018100000000012,-0.0048119999999999,-0.0015429999999995,-0.000885999999999,0.0026176,0,sub_20
0.0006241999999998,0.0023094000000012,-0.0044083999999999,-0.0026069999999995,-3.099999999911136e-05,0.0028226,0,sub_20
0.0004233999999998,0.0032776000000012,-0.0041219999999999,-0.0030307999999995,0.0006096000000009,0.002819,0,sub_20
0.0006711999999998,0.0041358000000012,-0.0040765999999999,-0.0021819999999995,0.0006170000000009,0.0021952,0,sub_20
0.0010487999999998,0.0046570000000012,-0.0040979999999999,-0.0013331999999995,0.0006244000000009,0.0015714,0,sub_20
0.0011747999999998,0.0044872000000012,-0.0036639999999999,-5.8599999999555926e-05,0.0004172000000009,0.000951,0,sub_20
0.0019851999999998,0.0033384000000012,-0.0041593999999999,0.0005788000000004,0.0006392000000009,0.000112,0,sub_20
0.0026867999999998,0.0025914000000012,-0.0047083999999999,0.0010018000000004,0.0004368000000009,-0.0009417999999999,0,sub_20
0.0022647999999998,0.0018080000000012,-0.0043223999999999,0.0010094000000004,0.0015046000000009,-0.0015839999999999,0,sub_20
0.0012047999999998,0.0015334000000012,-0.0040225999999999,0.0012286000000004,0.0021454000000009,-0.0022241999999999,0,sub_20
0.0010547999999998,0.0016174000000012,-0.0051553999999999,0.0012256000000004,0.0012942000000009,-0.0024367999999999,0,sub_20
0.0014641999999998,0.0028386000000012,-0.0043519999999999,0.0016380000000004,0.0006660000000009,-0.0024213999999999,0,sub_20
0.0013075999999997,0.0034972000000012,-0.0033985999999998,0.0014142000000004,0.0011044000000009,-0.0021979999999999,0,sub_20
0.0011559999999997,0.0044668000000012,-0.0034665999999998,0.0011828000000004,-0.000373799999999,-0.0021859999999999,0,sub_20
0.0017247999999997,0.0044742000000012,-0.0038157999999998,0.0005218000000004,-0.002277399999999,-0.0019627999999999,0,sub_20
0.0015933999999997,0.0047920000000012,-0.0045287999999998,7.620000000048421e-05,-0.003119199999999,-0.0010985999999999,0,sub_20
0.0015917999999997,0.0048102000000012,-0.0050671999999998,-0.0012125999999995,-0.003546799999999,0.0003884,0,sub_20
0.0010329999999998,0.0040110000000012,-0.0050165999999999,-0.0022869999999995,-0.003761999999999,0.0018766,0,sub_20
0.0010939999999998,0.0030922000000012,-0.0049051999999999,-0.0031413999999995,-0.002486599999999,0.0033646,0,sub_20
0.0008151999999998,0.0028258000000012,-0.0052687999999999,-0.0031543999999995,-0.001843199999999,0.0044414,0,sub_20
0.0007793999999998,0.0027976000000012,-0.0048769999999999,-0.0018843999999995,-0.001413799999999,0.004673,0,sub_20
0.0004389999999998,0.0029260000000012,-0.0052895999999999,-0.0010371999999995,-0.000767199999999,0.0042604,0,sub_20
0.0002925999999998,0.0038520000000012,-0.0060655999999999,-0.0001929999999995,-0.000335599999999,0.0042752,0,sub_20
0.0001327999999997,0.0039860000000012,-0.0058105999999999,0.0004350000000004,-0.0007543999999991,0.004076,0,sub_20
0.0006839999999997,0.0043356000000012,-0.0051663999999999,0.0006502000000004,-0.0003289999999991,0.004077,0,sub_20
0.0010017999999997,0.0043372000000012,-0.0045491999999999,0.0002244000000004,0.0003100000000008,0.0045004,0,sub_20
0.0011835999999997,0.0042528000000012,-0.0037883999999999,1.10000000004243e-05,0.0005228000000008,0.0047122,0,sub_20
0.0017675999999997,0.0031690000000012,-0.0040481999999999,0.0002182000000004,0.0011692000000008,0.004083,0,sub_20
0.0023149999999997,0.0029392000000012,-0.0043553999999999,0.0002090000000004,0.0011770000000008,0.003453,0,sub_20
0.0025693999999997,0.0025248000000012,-0.0051611999999999,0.0002038000000004,0.0022494000000008,0.0030354,0,sub_20
0.0033547999999997,0.0023484000000012,-0.0051937999999999,-0.0004443999999995,0.0026848000000008,0.0026142,0,sub_20
0.0034675999999997,0.0015476000000012,-0.0051361999999999,-0.0006687999999995,0.0024796000000008,0.0021968,0,sub_20
0.0030115999999997,0.0020016000000012,-0.0047953999999999,-0.0010993999999995,0.0016288000000008,0.0021948,0,sub_20
0.0026233999999998,0.0020796000000012,-0.0048467999999999,-0.0013135999999995,0.0014166000000009,0.0021936,0,sub_20
0.0020207999999998,0.0025656000000012,-0.0040479999999999,-0.0015307999999995,0.0005652000000009,0.0021932,0,sub_20
0.0010163999999998,0.0028988000000012,-0.0039911999999999,-0.0019609999999995,0.0007860000000009,0.0019798,0,sub_20
0.0008251999999998,0.0037418000000012,-0.0046221999999999,-0.0021787999999995,0.0010054000000008,0.0019816,0,sub_20
0.0008645999999998,0.0039662000000012,-0.0046561999999998,-0.0026127999999995,0.0005864000000008,0.0019828,0,sub_20
0.0011051999999998,0.0038760000000012,-0.0047913999999998,-0.0026171999999995,0.0010170000000008,0.0021994,0,sub_20
0.0010345999999997,0.0037300000000012,-0.0052391999999998,-0.0026225999999995,0.0010224000000008,0.0022028,0,sub_20
0.0013243999999997,0.0036118000000012,-0.0052697999999998,-0.0017729999999995,-4.499999999913115e-05,0.0019964,0,sub_20
0.0010431999999997,0.0028462000000012,-0.0048785999999998,-0.0009233999999995,-0.0009001999999991,0.0020034,0,sub_20
0.0011031999999997,0.0024226000000012,-0.0046893999999998,0.0003548000000004,-0.0013307999999991,0.0020128,0,sub_20
0.0003923999999997,0.0025818000000012,-0.0049613999999998,0.0007806000000004,-0.0017573999999991,0.0018028,0,sub_20
0.0004435999999997,0.0024666000000012,-0.0047479999999998,0.0007768000000004,-0.001330399999999,0.0020198,0,sub_20
0.0006233999999997,0.0025138000000012,-0.0052219999999998,0.0001366000000004,-4.8799999999091066e-05,0.0022312,0,sub_20
0.0008385999999997,0.0035178000000012,-0.0050009999999998,-0.0005023999999995,0.0012334000000009,0.002229,0,sub_20
0.0010027999999998,0.0037574000000011,-0.0049275999999998,-0.0015653999999995,0.0029442000000009,0.0020096,0,sub_20
0.0018189999999997,0.0045350000000012,-0.0046305999999998,-0.0054003999999995,0.0053030000000009,0.0019836,0,sub_20
0.0011731999999998,0.0050194000000012,-0.0034333999999998,-0.0139189999999995,0.0100158000000009,0.0029864,0,sub_20
-0.0012838000000001,0.0045118000000012,-0.0020021999999998,-0.0213917999999995,0.0100376000000009,0.0040024,0,sub_20
0.0001505999999998,0.0045440000000012,-0.0028385999999998,-0.0214037999999995,0.0076992000000009,0.004004,0,sub_20
0.0010517999999998,0.0046928000000012,-0.0038385999999998,-0.0207727999999995,0.0062098000000009,0.0042228,0,sub_20
-3.8400000000172414e-05,0.0038226000000012,-0.0042869999999999,-0.0171515999999995,0.0045002000000009,0.0036082,0,sub_20
0.0009987999999998,0.0026336000000012,-0.0057237999999999,-0.0084133999999995,0.0002230000000009,0.0013234,0,sub_20
0.0041593999999998,0.0028770000000012,-0.0070195999999999,0.0005556000000004,0.0002044000000009,-0.0005377999999999,0,sub_20
0.0032819999999998,0.0026644000000012,-0.0058191999999999,0.0024942000000004,0.0031846000000009,-0.0015961999999999,0,sub_20
0.0026357999999998,0.0032588000000012,-0.0044949999999999,0.0031516000000004,0.0057440000000008,-0.0028765999999999,0,sub_20
0.0037347999999998,0.0037266000000012,-0.0037079999999999,0.0038002000000004,0.0070226000000008,-0.0035145999999999,0,sub_20
0.0034757999999998,0.0048262000000012,-0.0032389999999999,0.0057214000000004,0.0065936000000008,-0.0041507999999999,0,sub_20
0.0024201999999997,0.0047928000000012,-0.0029463999999999,0.0065728000000004,0.0057414000000009,-0.0045801999999999,0,sub_20
0.0020871999999997,0.0043784000000012,-0.0038475999999999,0.0067754000000004,0.0036106000000009,-0.0043715999999999,0,sub_20
0.0024047999999997,0.0036872000000012,-0.0034801999999999,0.0078240000000004,0.0001968000000009,-0.0037281999999999,0,sub_20
0.0024787999999997,0.0034668000000012,-0.0037831999999999,0.0084448000000004,-0.003004199999999,-0.0026607999999999,0,sub_20
0.0024661999999997,0.0027208000000012,-0.0043835999999999,0.0080008000000004,-0.005776599999999,-0.0015919999999999,0,sub_20
0.0024743999999998,0.0029024000000012,-0.0050327999999999,0.0071330000000004,-0.008120599999999,-0.0007405999999999,0,sub_20
0.0020195999999998,0.0032392000000012,-0.0053133999999999,0.0064900000000004,-0.008545399999999,-0.0005309999999999,0,sub_20
0.0009309999999998,0.0025998000000012,-0.0062151999999999,0.0045794000000004,-0.007050999999999,-0.0003443999999999,0,sub_20
0.0001665999999998,0.0024818000000012,-0.0059307999999999,0.0028870000000004,-0.004916399999999,-0.0005843999999999,0,sub_20
-0.0001034000000001,0.0034052000000012,-0.0054027999999999,0.0009830000000004,-0.002142799999999,-0.0006129999999999,0,sub_20
0.0002059999999998,0.0037358000000012,-0.0049407999999999,-6.559999999955589e-05,0.0010538000000009,-0.0006359999999999,0,sub_20
0.0004315999999998,0.0043552000000012,-0.0047603999999998,-0.0006911999999995,0.0031846000000009,-0.0008683999999999,0,sub_20
0.0003815999999998,0.0052836000000012,-0.0048971999999998,0.0001690000000004,0.0042486000000009,-0.0012909999999999,0,sub_20
-3.420000000019241e-05,0.0052664000000012,-0.0050857999999998,0.0012378000000004,0.0044588000000009,-0.0014973999999999,0,sub_20
-0.0004752000000001,0.0046408000000012,-0.0058997999999998,0.0027314000000004,0.0040292000000009,-0.0019137999999999,0,sub_20
-0.0005576000000001,0.0041576000000012,-0.0061333999999998,0.0042270000000004,0.0025320000000009,-0.0025547999999999,0,sub_20
-7.280000000019241e-05,0.0031542000000012,-0.0060697999999998,0.0055112000000004,0.0020984000000009,-0.0025575999999999,0,sub_20
0.0003945999999998,0.0027782000000012,-0.0060343999999998,0.0061544000000004,0.0012416000000009,-0.0027779999999999,0,sub_20
0.0012387999999998,0.0023656000000012,-0.0059173999999998,0.0059430000000004,0.0005992000000009,-0.0025771999999999,0,sub_20
0.0019441999999998,0.0021682000000012,-0.0049609999999998,0.0046678000000004,0.0010240000000009,-0.0019579999999999,0,sub_20
0.0021977999999998,0.0028190000000012,-0.0042847999999998,0.0027504000000004,0.0023066000000008,-0.0013319999999999,0,sub_20
0.0016255999999998,0.0028270000000012,-0.0032489999999998,0.0004014000000004,0.0025252000000008,-0.0007075999999999,0,sub_20
0.0019791999999998,0.0032878000000012,-0.0030097999999998,-0.0010979999999995,0.0023132000000008,0.0003504,0,sub_20
0.0023487999999998,0.0037312000000012,-0.0034447999999999,-0.0021467999999995,0.0018748000000008,0.0011842,0,sub_20
0.0023245999999998,0.0042182000000012,-0.0039039999999999,-0.0025573999999995,0.0007960000000008,0.0018098,0,sub_20
0.0019427999999998,0.0033832000000012,-0.0042549999999999,-0.0027545999999995,-0.000283599999999,0.0024368,0,sub_20
0.0019895999999997,0.0036814000000012,-0.0052207999999999,-0.0027363999999995,-0.001362199999999,0.002638,0,sub_20
0.0015685999999997,0.0033760000000012,-0.0055593999999999,-0.0029287999999995,-0.002013199999999,0.0026236,0,sub_20
0.0010499999999997,0.0037120000000012,-0.0052951999999999,-0.0027133999999995,-0.002012199999999,0.0021978,0,sub_20
0.0013403999999997,0.0036410000000012,-0.0057143999999999,-0.0022837999999995,-0.001798999999999,0.0017732,0,sub_20
0.0013891999999997,0.0038290000000012,-0.0054907999999999,-0.0016397999999995,-0.001373399999999,0.0013498,0,sub_20
0.0012365999999997,0.0033536000000012,-0.0050527999999999,-0.0007815999999995,-0.0005231999999991,0.001141,0,sub_20
0.0012899999999998,0.0030870000000012,-0.0054843999999999,9.380000000044404e-05,9.600000000088902e-05,0.0009274,0,sub_20
0.0016571999999998,0.0027930000000012,-0.0058581999999999,0.0013942000000004,7.540000000088902e-05,0.000504,0,sub_20
0.0009735999999998,0.0030752000000012,-0.0052267999999999,0.0020564000000004,0.0004832000000008,7.540000000006664e-05,0,sub_20
0.0009665999999997,0.0032016000000012,-0.0058207999999999,0.0022928000000004,0.0011054000000008,-0.0003563999999999,0,sub_20
0.0009389999999997,0.0032062000000012,-0.0060551999999999,0.0025234000000004,0.0006614000000009,-0.0005731999999999,0,sub_20
0.0003621999999997,0.0035056000000012,-0.0054015999999999,0.0020958000000004,0.0002376000000009,-0.0007893999999999,0,sub_20
0.0006905999999997,0.0039036000000012,-0.0050913999999999,0.0010260000000004,2.660000000090901e-05,-0.0003693999999999,0,sub_20
0.0011369999999997,0.0039870000000012,-0.0048467999999999,0.0003810000000004,-0.000618199999999,-0.0001573999999999,0,sub_20
0.0012199999999998,0.0036522000000012,-0.0038173999999999,-0.0002697999999995,-0.002116799999999,0.000483,0,sub_20
