userAcceleration.x,userAcceleration.y,userAcceleration.z,rotationRate.x,rotationRate.y,rotationRate.z,label,subject
0.0028469999999997,0.0013108000000011,-0.0132361999999998,-0.0094963999999995,-0.010613199999999,0.0263108,0,sub_1
0.0021537999999997,0.0019620000000011,-0.0131149999999998,-0.0050053999999995,-0.008710599999999,0.0261262,0,sub_1
0.0006707999999997,0.0008592000000011,-0.0121759999999998,-0.0030517999999995,-0.004020199999999,0.0235702,0,sub_1
-0.0036598000000002,0.0013902000000011,-0.0115163999999998,0.0006232000000004,-0.001445599999999,0.0156876,0,sub_1
-0.0066800000000002,0.0030904000000011,-0.0101787999999999,0.0042950000000004,-0.002269199999999,0.0050316,0,sub_1
-0.0070448000000002,0.0053266000000011,-0.0086887999999999,0.0062536000000004,-0.002667799999999,-0.0039279999999999,0,sub_1
-0.0061852000000002,0.0063184000000011,-0.0078167999999999,0.0079972000000004,-0.002854199999999,-0.0124621999999999,0,sub_1
-0.0041688000000002,0.0077746000000011,-0.0065385999999999,0.0078146000000004,-0.003468599999999,-0.0193081999999999,0,sub_1
-0.0002748000000002,0.0075658000000011,-0.0054365999999999,0.0069830000000004,-0.003238999999999,-0.0233823999999999,0,sub_1
0.0044169999999997,0.0062602000000011,-0.0060343999999999,0.0052828000000004,-0.002806999999999,-0.0238305999999999,0,sub_1
0.0065715999999997,0.0051428000000011,-0.0061213999999999,0.0025062000000004,-0.002803799999999,-0.0225763999999999,0,sub_1
0.0078709999999997,0.0022302000000011,-0.0077307999999999,0.0003636000000004,-0.002808599999999,-0.0198219999999999,0,sub_1
0.0089359999999997,-0.0002803999999988,-0.0078619999999998,0.0003486000000004,-0.002608799999999,-0.0161897999999999,0,sub_1
0.0095065999999997,-0.0016259999999988,-0.0081075999999998,0.0009654000000004,-0.002843199999999,-0.0110569999999999,0,sub_1
0.0083577999999997,-0.0016823999999988,-0.0071863999999998,0.0017964000000004,-0.002653399999999,-0.0057095999999999,0,sub_1
0.0078755999999997,-0.0017415999999988,-0.0067875999999998,0.0004938000000004,-0.002248399999999,0.0002588,0,sub_1
0.0065281999999997,-0.0001449999999988,-0.0060179999999998,-0.0027225999999994,-0.001194199999999,0.0053584,0,sub_1
0.0044175999999997,0.0006140000000011,-0.0069123999999999,-0.0055077999999994,-0.000349999999999,0.009179,0,sub_1
0.0017155999999997,0.0015064000000011,-0.0077997999999998,-0.0061517999999994,0.0004932000000009,0.0113054,0,sub_1
-0.0001646000000002,0.0027106000000011,-0.0088975999999998,-0.0057267999999994,0.0004854000000009,0.0121582,0,sub_1
-0.0007484000000002,0.0035576000000011,-0.0092567999999998,-0.0042235999999994,0.0023984000000009,0.0119526,0,sub_1
-0.0014852000000002,0.0038686000000011,-0.0089327999999998,-0.0022831999999994,0.0053800000000009,0.0104668,0,sub_1
-0.0012210000000002,0.0050126000000011,-0.0075979999999998,-0.0001267999999995,0.0070904000000009,0.0070612,0,sub_1
0.0005867999999997,0.0059828000000011,-0.0065731999999998,0.0018120000000004,0.0068834000000009,0.0027998,0,sub_1
0.0027369999999997,0.0066898000000011,-0.0043775999999998,0.0013994000000004,0.0054082000000009,-0.0019033999999999,0,sub_1
0.0038759999999997,0.0070570000000011,-0.0033133999999998,0.0009754000000004,0.0022252000000009,-0.0057499999999999,0,sub_1
0.0038743999999997,0.0062282000000011,-0.0044399999999998,0.0013898000000004,-0.002035199999999,-0.0072393999999999,0,sub_1
0.0028465999999997,0.0051280000000011,-0.0060093999999998,0.0009356000000004,-0.006094399999999,-0.0051029999999999,0,sub_1
-0.0002282000000002,0.0041486000000011,-0.0079863999999998,-0.0007963999999994,-0.0071715999999989,-0.0006271999999999,0,sub_1
-0.0040418000000002,0.0038578000000011,-0.0102151999999998,-0.0025253999999994,-0.0061249999999989,0.005341,0,sub_1
-0.0065142000000002,0.0015680000000011,-0.0143517999999998,-0.0055075999999994,-0.0016551999999989,0.0087322,0,sub_1
-0.0074994000000002,-0.0006909999999988,-0.0162929999999998,-0.0067627999999994,0.0038816000000009,0.0089292,0,sub_1
-0.0074728000000002,-0.0018671999999988,-0.0154943999999998,-0.0052399999999995,0.0070780000000009,0.0059438,0,sub_1
-0.0040428000000002,-0.0024883999999988,-0.0123585999999998,-0.0009193999999995,0.0104984000000009,-0.0021495999999999,0,sub_1
0.0003397999999997,-0.0032369999999988,-0.0096697999999999,0.0051266000000004,0.0147786000000009,-0.0134363999999999,0,sub_1
0.0022891999999997,-0.0008963999999988,-0.0062831999999999,0.0098488000000004,0.0135082000000009,-0.0206659999999999,0,sub_1
0.0040887999999997,0.0020984000000011,-0.0025087999999999,0.0106872000000004,0.0071260000000009,-0.0236429999999999,0,sub_1
0.0058945999999997,0.0033674000000011,-0.0009085999999999,0.0091876000000004,0.0039438000000009,-0.0255719999999999,0,sub_1
0.0068465999999997,0.0038726000000011,-0.0025581999999999,0.0055436000000004,0.0033062000000009,-0.0226053999999999,0,sub_1
0.0065521999999997,0.0042968000000011,-0.0049489999999999,0.0003980000000004,0.0047830000000009,-0.0155927999999999,0,sub_1
0.0068557999999997,0.0042346000000011,-0.0049627999999999,-0.0034605999999995,0.0073222000000009,-0.0089997999999999,0,sub_1
0.0075797999999997,0.0056764000000011,-0.0053519999999999,-0.0058229999999995,0.0092222000000009,-0.0036773999999999,0,sub_1
0.0077519999999997,0.0060420000000011,-0.0056011999999999,-0.0084101999999995,0.0098396000000009,0.0029268,0,sub_1
0.0069117999999997,0.0054120000000011,-0.0059299999999999,-0.0107983999999994,0.0064116000000009,0.008683,0,sub_1
0.0064827999999997,0.0035040000000012,-0.0062351999999998,-0.0110521999999994,0.0010724000000009,0.0123202,0,sub_1
0.0054781999999997,0.0015986000000012,-0.0066117999999998,-0.0093653999999994,-0.002345999999999,0.0134048,0,sub_1
0.0035399999999997,-0.0003641999999987,-0.0077341999999998,-0.0072263999999994,-0.002348799999999,0.0123518,0,sub_1
0.0013023999999997,-5.219999999878516e-05,-0.0093307999999998,-0.0059299999999994,-0.001070999999999,0.0102244,0,sub_1
-0.0012442000000002,0.0014904000000012,-0.0103961999999998,-0.0048373999999995,0.0012766000000009,0.0070256,0,sub_1
-0.0033578000000002,0.0031574000000011,-0.0106947999999999,-0.0043899999999995,0.0027732000000009,0.004037,0,sub_1
-0.0044136000000002,0.0055644000000011,-0.0113347999999999,-0.0035225999999995,0.0029888000000009,0.0012664,0,sub_1
-0.0044752000000002,0.0068392000000011,-0.0112265999999998,-0.0026603999999995,0.0029880000000009,-0.0006493999999999,0,sub_1
-0.0037676000000002,0.0075744000000011,-0.0107093999999998,0.0001178000000004,0.0017086000000009,-0.0029789999999999,0,sub_1
-0.0031070000000001,0.0066300000000011,-0.0093589999999998,0.0033152000000004,-0.001276599999999,-0.0053031999999999,0,sub_1
-0.0014654000000001,0.0054914000000011,-0.0085931999999998,0.0073660000000004,-0.005113599999999,-0.0084749999999999,0,sub_1
0.0001473999999997,0.0035128000000011,-0.0073273999999998,0.0103506000000004,-0.008526799999999,-0.0112253999999999,0,sub_1
0.0025551999999997,0.0018162000000011,-0.0062185999999998,0.0129164000000004,-0.009384999999999,-0.0131271999999999,0,sub_1
0.0039575999999997,-9.09999999988051e-05,-0.0056837999999998,0.0122858000000004,-0.007893999999999,-0.0135585999999999,0,sub_1
0.0056025999999997,-0.0007435999999988,-0.0059277999999998,0.0095118000000004,-0.006828199999999,-0.0122951999999999,0,sub_1
0.0066551999999997,-0.0008633999999987,-0.0052757999999999,0.0048100000000004,-0.005125799999999,-0.0086959999999999,0,sub_1
0.0078413999999997,0.0001316000000012,-0.0050185999999999,0.0001084000000005,-0.001932399999999,-0.0038185999999999,0,sub_1
0.0071011999999997,0.0009886000000012,-0.0054279999999998,-0.0033187999999994,0.0006148000000009,0.0017091999999999,0,sub_1
0.0053595999999997,0.0037164000000012,-0.0051983999999998,-0.0069675999999994,0.0008214000000009,0.0065973999999999,0,sub_1
0.0030939999999997,0.0044542000000011,-0.0052041999999998,-0.0099725999999994,0.0005990000000009,0.0104239999999999,0,sub_1
0.0009127999999997,0.0055700000000011,-0.0065777999999998,-0.0099829999999994,-5.159999999902291e-05,0.0121357999999999,0,sub_1
-0.0010892000000001,0.0056154000000011,-0.0078545999999998,-0.0082795999999994,-0.000914399999999,0.0121504,0,sub_1
-0.0024360000000001,0.0056546000000011,-0.0085559999999999,-0.0063559999999994,-0.002620999999999,0.0098176,0,sub_1
-0.0017478000000001,0.0038504000000011,-0.0098037999999998,-0.0016485999999995,-0.003267799999999,0.0064346,0,sub_1
-0.0006532000000001,0.0038124000000011,-0.0104631999999998,0.0041374000000004,-0.002204799999999,0.001987,0,sub_1
0.0003731999999997,0.0036392000000011,-0.0094421999999998,0.0086394000000004,-0.001352799999999,-0.0018283999999999,0,sub_1
0.0015287999999997,0.0032048000000011,-0.0089417999999998,0.0114306000000004,0.0001384000000009,-0.0041607999999999,0,sub_1
0.0022443999999997,0.0031536000000011,-0.0083365999999998,0.0120856000000004,0.0020534000000009,-0.0054369999999999,0,sub_1
0.0024589999999997,0.0030894000000011,-0.0076515999999999,0.0108106000000004,0.0031180000000009,-0.0054435999999999,0,sub_1
0.0030159999999997,0.0030526000000011,-0.0071215999999999,0.0090974000000004,0.0031128000000009,-0.0039563999999999,0,sub_1
0.0037831999999997,0.0031856000000011,-0.0068287999999999,0.0071736000000004,0.0037476000000009,-0.0024713999999999,0,sub_1
0.0041275999999997,0.0033514000000011,-0.0060579999999999,0.0054652000000004,0.0041712000000009,-0.0016257999999999,0,sub_1
0.0041693999999997,0.0032486000000011,-0.0055829999999999,0.0041820000000004,0.0045980000000009,-0.0005669999999999,0,sub_1
0.0045777999999997,0.0034058000000011,-0.0057967999999999,0.0033246000000004,0.0048100000000009,0.000495,0,sub_1
0.0043099999999997,0.0031180000000011,-0.0063485999999999,0.0020442000000004,0.0056636000000009,0.0013396,0,sub_1
0.0037221999999997,0.0026104000000011,-0.0062439999999999,-0.0003029999999995,0.0065150000000009,0.0023936,0,sub_1
0.0023969999999997,0.0019608000000011,-0.0066803999999999,-0.0020177999999995,0.0058718000000009,0.0036676,0,sub_1
0.0020827999999997,0.0009702000000011,-0.0070273999999999,-0.0028827999999995,0.0045856000000009,0.005162,0,sub_1
0.0015445999999997,0.0004508000000011,-0.0079703999999998,-0.0028923999999994,0.0030860000000009,0.0060218,0,sub_1
0.0014063999999997,0.0006730000000011,-0.0080991999999998,-0.0024751999999994,0.0013726000000009,0.0066712,0,sub_1
0.0011865999999997,0.0011042000000011,-0.0092293999999998,-0.0016243999999994,0.0005182000000009,0.0064646,0,sub_1
0.0021643999999997,0.0022582000000011,-0.0093739999999998,-0.0011917999999994,0.0003098000000009,0.0049724,0,sub_1
0.0027479999999997,0.0031954000000011,-0.0084083999999998,-0.0003305999999994,-0.000110599999999,0.0028426,0,sub_1
0.0030311999999997,0.0036820000000011,-0.0061863999999999,-0.0005297999999994,0.0009580000000009,0.0009208,0,sub_1
0.0029761999999997,0.0040552000000011,-0.0047531999999999,-0.0020053999999994,0.0026710000000009,-0.0012243999999999,0,sub_1
0.0029493999999997,0.0050882000000011,-0.0045717999999999,-0.0034859999999994,0.0039556000000009,-0.0027281999999999,0,sub_1
0.0022819999999997,0.0050972000000011,-0.0054529999999999,-0.0045465999999995,0.0045958000000009,-0.0033735999999999,0,sub_1
0.0023237999999997,0.0054796000000011,-0.0067199999999998,-0.0054015999999995,0.0045918000000009,-0.0029487999999999,0,sub_1
0.0031221999999997,0.0049196000000011,-0.0070829999999998,-0.0054095999999995,0.0041608000000009,-0.0016663999999999,0,sub_1
0.0039687999999997,0.0034192000000011,-0.0082899999999998,-0.0032845999999995,0.0041462000000009,0.0002714,0,sub_1
0.0041481999999997,0.0015848000000011,-0.0090855999999998,-0.0003087999999995,0.0034892000000009,0.002216,0,sub_1
0.0041281999999997,0.0008706000000012,-0.0084259999999998,0.0030932000000004,0.0023992000000009,0.0041678,0,sub_1
0.0029347999999997,0.0009152000000012,-0.0078893999999999,0.0039434000000004,0.0025990000000009,0.0054594,0,sub_1
0.0014987999999997,0.0018614000000012,-0.0082577999999998,0.0041524000000004,0.0025878000000009,0.0067464,0,sub_1
-0.0001630000000002,0.0033894000000011,-0.0077833999999998,0.0037202000000004,0.0010922000000009,0.0067488,0,sub_1
-0.0005786000000002,0.0045548000000011,-0.0057077999999998,0.0026486000000004,-0.001248999999999,0.0056796,0,sub_1
6.299999999978302e-05,0.0052164000000011,-0.0059763999999998,0.0007308000000004,-0.002088599999999,0.0041716,0,sub_1
0.0013643999999997,0.0050840000000011,-0.0066153999999998,0.0011580000000004,-0.003362399999999,0.0026806,0,sub_1
0.0032075999999997,0.0047286000000011,-0.0064877999999999,0.0009510000000004,-0.003992199999999,0.0005436,0,sub_1
0.0051657999999997,0.0036942000000012,-0.0072023999999999,-0.0003201999999995,-0.002286399999999,0.0003228,0,sub_1
0.0059097999999997,0.0027814000000012,-0.0085385999999999,0.0005476000000004,0.0011140000000009,0.0007558,0,sub_1
0.0060905999999997,0.0017628000000012,-0.0079839999999998,0.0020498000000004,0.0036582000000009,0.0016216,0,sub_1
0.0059509999999997,0.0016666000000012,-0.0068385999999998,0.0012040000000004,0.0057854000000009,0.0022578,0,sub_1
0.0046637999999997,0.0016426000000012,-0.0079435999999998,0.0014194000000004,0.0070550000000009,0.0033298,0,sub_1
0.0036287999999997,0.0017812000000011,-0.0075797999999998,0.0014148000000004,0.0055658000000009,0.0029044,0,sub_1
0.0033687999999997,0.0022130000000011,-0.0069763999999998,-0.0013695999999995,0.0036564000000009,0.0033146,0,sub_1
0.0027231999999997,0.0028366000000011,-0.0066725999999999,-0.0047893999999994,0.0034514000000009,0.0043592,0,sub_1
0.0009621999999997,0.0032316000000011,-0.0076875999999999,-0.0069229999999994,0.0040910000000009,0.004988,0,sub_1
0.0001815999999997,0.0034878000000011,-0.0075519999999999,-0.0088519999999994,0.0017512000000009,0.0045538,0,sub_1
0.0007299999999997,0.0043592000000011,-0.0073317999999999,-0.0090739999999994,0.0004664000000009,0.0051986,0,sub_1
-0.0002482000000002,0.0052090000000011,-0.0078647999999999,-0.0080063999999994,0.0006712000000009,0.0052096,0,sub_1
-0.0014754000000002,0.0053474000000011,-0.0082037999999999,-0.0067271999999994,-0.001460999999999,0.003302,0,sub_1
-0.0010766000000002,0.0047230000000011,-0.0077145999999999,-0.0041727999999994,-0.004870399999999,0.0011876,0,sub_1
-0.0007454000000002,0.0040218000000011,-0.0076807999999999,-0.0005387999999994,-0.005726199999999,-0.0011361999999999,0,sub_1
-0.0013194000000002,0.0031220000000011,-0.0077171999999999,0.0020330000000005,-0.005937199999999,-0.0038955999999999,0,sub_1
0.0002709999999997,0.0022502000000011,-0.0077591999999999,0.0041726000000005,-0.006368599999999,-0.0055859999999999,0,sub_1
0.0014527999999997,0.0016804000000011,-0.0068989999999999,0.0054596000000004,-0.004673999999999,-0.0053621999999999,0,sub_1
0.0024463999999997,0.0017742000000011,-0.0057615999999999,0.0054666000000004,-0.002126199999999,-0.0042937999999999,0,sub_1
0.0021113999999997,0.0027632000000011,-0.0048035999999999,0.0041844000000004,-5.799999999002978e-06,-0.0017383999999999,0,sub_1
0.0024577999999997,0.0043064000000011,-0.0049397999999999,0.0026850000000004,0.0010508000000009,0.0006032,0,sub_1
0.0022521999999997,0.0046502000000011,-0.0056139999999998,0.0007558000000004,0.0010500000000009,0.0025124,0,sub_1
0.0029309999999997,0.0049714000000011,-0.0074079999999998,0.0003212000000004,-0.000652799999999,0.0025116,0,sub_1
0.0033405999999997,0.0044946000000011,-0.0087433999999998,0.0005316000000004,-0.002565599999999,0.0012338,0,sub_1
0.0042937999999997,0.0038438000000011,-0.0092139999999998,0.0011736000000004,-0.004899999999999,-0.0015359999999999,0,sub_1
0.0046843999999997,0.0028872000000011,-0.0078651999999998,0.0024578000000004,-0.006385999999999,-0.0038749999999999,0,sub_1
0.0041813999999997,0.0023646000000011,-0.0057183999999999,0.0031048000000004,-0.007230799999999,-0.0062193999999999,0,sub_1
0.0037961999999997,0.0029872000000011,-0.0034163999999998,0.0024688000000004,-0.007019199999999,-0.0068605999999999,0,sub_1
0.0029527999999997,0.0049812000000011,-0.0037145999999998,0.0011866000000005,-0.006810599999999,-0.0062245999999999,0,sub_1
0.0030209999999997,0.0056882000000011,-0.0037691999999998,0.0005416000000005,-0.006182399999999,-0.0045163999999999,0,sub_1
0.0040509999999997,0.0056920000000011,-0.0051723999999998,-0.0005291999999994,-0.004490799999999,-0.0019579999999999,0,sub_1
0.0040951999999997,0.0053854000000011,-0.0067045999999998,-0.0007397999999994,-0.002159399999999,-0.0002487999999999,0,sub_1
0.0028739999999997,0.0038716000000011,-0.0074849999999999,-0.0024391999999994,-0.002146199999999,-0.0019697999999999,0,sub_1
0.0017613999999997,-0.0005223999999988,-0.0052689999999999,-0.0073361999999994,-0.005726799999999,-0.0079813999999999,0,sub_1
0.0048867999999997,-0.0004055999999988,-0.0070853999999999,-0.0118149999999994,-0.009953799999999,-0.0124933999999999,0,sub_1
0.0058175999999997,0.0022742000000011,-0.0084943999999999,-0.0141545999999994,-0.009939199999999,-0.0140047999999999,0,sub_1
0.0037315999999997,0.0047636000000011,-0.0075201999999998,-0.0199129999999994,-0.010553599999999,-0.0151121999999999,0,sub_1
0.0025465999999998,0.0069764000000011,-0.0067583999999998,-0.0252709999999994,-0.016073399999999,-0.0153561999999999,0,sub_1
0.0056017999999997,0.0099484000000011,-0.0102209999999998,-0.0255349999999995,-0.020573799999999,-0.0085155999999999,0,sub_1
0.0037939999999997,0.0102936000000011,-0.0109837999999998,-0.0262083999999995,-0.017629599999999,0.0017308,0,sub_1
0.0012741999999997,0.0083636000000011,-0.0106899999999998,-0.0281555999999995,-0.016592399999999,0.00877,0,sub_1
0.0022083999999997,0.0084694000000011,-0.0078731999999999,-0.0254125999999995,-0.016848199999999,0.0154164,0,sub_1
0.0021957999999997,0.0083302000000011,-0.0080921999999999,-0.0207261999999995,-0.012421799999999,0.0216432,0,sub_1
-0.0011490000000001,0.0095556000000011,-0.0098581999999999,-0.0153719999999995,-0.006063399999999,0.0235992,0,sub_1
-0.0056762000000001,0.0068506000000011,-0.0091465999999999,-0.0166101999999994,-0.003482399999999,0.0167542,0,sub_1
-0.0078954000000001,0.0023432000000011,-0.0066431999999999,-0.0195649999999994,-0.003019399999999,0.009896,0,sub_1
-0.0065682000000001,-0.0031971999999988,-0.0109975999999999,-0.0182619999999994,-0.005127399999999,0.0028572,0,sub_1
-0.0008286000000001,-0.0033781999999988,-0.0135629999999999,-0.0096865999999994,-0.003637599999999,-0.0043485999999999,0,sub_1
0.0021559999999997,-0.0027065999999988,-0.0097783999999999,-0.0040701999999994,0.0012790000000009,-0.0143547999999999,0,sub_1
0.0030293999999997,-0.0004747999999988,-0.0060477999999999,0.0015152000000004,0.0015002000000009,-0.0222185999999999,0,sub_1
0.0025621999999997,0.0031770000000011,-0.0042611999999999,0.0049452000000004,-0.009961199999999,-0.0371331999999999,0,sub_1
0.0100725999999997,0.0035566000000011,0.0001634,0.0040840000000005,-0.026307799999999,-0.0518575999999999,0,sub_1
0.0135523999999997,0.0058664000000011,-0.0005367999999999,0.0006698000000005,-0.023115199999999,-0.0486785999999999,0,sub_1
0.0124507999999997,0.0078878000000011,-0.0023939999999999,-0.0087499999999994,-0.018015199999999,-0.0367863999999999,0,sub_1
0.0107235999999997,0.0085460000000011,-0.0010187999999999,-0.0169305999999994,-0.019958799999999,-0.0227399999999999,0,sub_1
0.0085967999999997,0.0099824000000011,-0.0014779999999999,-0.0234223999999994,-0.019802399999999,-0.0024887999999999,0,sub_1
-0.0007622000000002,0.0123524000000011,-0.0061599999999999,-0.0322405999999994,-0.016228999999999,0.0166748,0,sub_1
-0.0043858000000002,0.0070594000000011,-0.0081239999999999,-0.0436315999999994,-0.027724999999999,0.023448,0,sub_1
1.6399999999763826e-05,0.0040316000000011,-0.0107147999999999,-0.0421989999999994,-0.034366599999999,0.0305182,0,sub_1
0.0043347999999997,0.0033180000000011,-0.0153161999999999,-0.0308649999999995,-0.026748199999999,0.0327254,0,sub_1
0.0060221999999997,0.0011642000000011,-0.0164329999999999,-0.0160515999999995,-0.013566199999999,0.025977,0,sub_1
0.0053287999999997,0.0018240000000011,-0.0167517999999999,0.0017524000000004,-0.000599999999999,0.01818,0,sub_1
0.0015477999999997,0.0026480000000011,-0.0114191999999999,0.0156974000000004,0.0030262000000009,0.0050268,0,sub_1
-0.0016974000000002,0.0019252000000011,-0.0048925999999999,0.0191700000000004,-0.003087199999999,-0.0141689999999999,0,sub_1
-0.0007552000000002,0.0008870000000011,-0.0010883999999999,0.0151236000000004,-0.017707599999999,-0.0306289999999999,0,sub_1
0.0024217999999997,0.0067738000000011,-0.0020811999999999,0.0129614000000004,-0.027697599999999,-0.0344767999999999,0,sub_1
0.0022853999999997,0.0135874000000011,-0.0003913999999999,0.0080372000000004,-0.028117799999999,-0.0315197999999999,0,sub_1
0.0004735999999997,0.0177930000000011,-0.0052921999999999,0.0018244000000004,-0.023447599999999,-0.0217419999999999,0,sub_1
-0.0009814000000002,0.0132958000000011,-0.0098703999999999,-0.0018307999999995,-0.016668399999999,-0.0089579999999999,0,sub_1
-0.0033474000000002,0.0097222000000011,-0.0131051999999999,-0.0018591999999995,-0.004810399999999,0.0091858,0,sub_1
-0.0036096000000002,0.0032332000000011,-0.0091757999999999,-0.0020991999999995,0.0032294000000009,0.023274,0,sub_1
-0.0008210000000002,-0.0044083999999988,-0.0070225999999999,0.0008850000000004,0.0055492000000009,0.0264966,0,sub_1
0.0010239999999997,-0.0081141999999988,-0.0056563999999999,0.0032546000000004,0.0047108000000009,0.0209598,0,sub_1
0.0014079999999997,-0.0055799999999988,-0.0049407999999999,0.0030490000000004,-0.001860599999999,0.0128484,0,sub_1
0.0031119999999997,-0.0034993999999987,-0.0050199999999999,0.0026318000000004,-0.010763599999999,0.0019614,0,sub_1
0.0051295999999997,-0.0027189999999987,-0.0091671999999999,0.0009506000000004,-0.014554799999999,-0.0074453999999999,0,sub_1
0.0056023999999997,-0.0009611999999987,-0.0123833999999999,-0.0028721999999995,-0.012191199999999,-0.0089703999999999,0,sub_1
0.0051759999999997,0.0013506000000012,-0.0113249999999998,-0.0041507999999994,-0.007092599999999,-0.0040717999999999,0,sub_1
0.0036529999999997,0.0047030000000012,-0.0095941999999998,-0.0028679999999994,-9.77999999990431e-05,0.0025534,0,sub_1
0.0019083999999997,0.0084578000000011,-0.0078115999999998,-0.0052139999999994,0.0060600000000009,0.0085132,0,sub_1
-0.0007702000000002,0.0105432000000011,-0.0056817999999998,-0.0103551999999994,0.0060548000000009,0.0129656,0,sub_1
-0.0014766000000002,0.0104264000000011,-0.0030207999999998,-0.0138115999999994,-0.000978799999999,0.0153022,0,sub_1
-0.0009668000000002,0.0089768000000011,-0.0017355999999999,-0.0147065999999995,-0.009081399999999,0.0163764,0,sub_1
-0.0001676000000002,0.0079208000000011,-0.0031257999999998,-0.0151599999999995,-0.014407799999999,0.0168072,0,sub_1
-3.680000000021609e-05,0.0067192000000011,-0.0052271999999998,-0.0126161999999995,-0.018887399999999,0.0159758,0,sub_1
0.0003327999999997,0.0044240000000011,-0.0086177999999998,-0.0075011999999995,-0.021032399999999,0.0151594,0,sub_1
0.0003937999999997,0.0027796000000011,-0.0117295999999998,-0.0015227999999995,-0.020413399999999,0.0149868,0,sub_1
0.0015049999999997,0.0023096000000011,-0.0120875999999998,0.0021086000000004,-0.019998399999999,0.0145842,0,sub_1
0.0034237999999997,0.0001834000000012,-0.0111853999999999,0.0059564000000004,-0.020642199999999,0.0124755999999999,0,sub_1
0.0059763999999997,-0.0014921999999987,-0.0109375999999999,0.0091804000000004,-0.017237199999999,0.010785,0,sub_1
0.0068781999999997,-0.0006735999999987,-0.0103855999999999,0.0096468000000004,-0.009988399999999,0.0092839999999999,0,sub_1
0.0068577999999997,0.0003386000000012,-0.0087711999999999,0.0064850000000005,-0.003576399999999,0.0071175999999999,0,sub_1
0.0054539999999997,0.0017734000000012,-0.0076319999999999,0.0041792000000005,0.0030474000000009,0.0045295999999999,0,sub_1
0.0032989999999997,0.0045754000000011,-0.0064245999999999,0.0029332000000005,0.0098734000000009,0.0036576,0,sub_1
0.0016541999999997,0.0069722000000011,-0.0058899999999999,0.0023090000000005,0.0128612000000009,0.0030084,0,sub_1
0.0011199999999997,0.0095384000000011,-0.0050681999999999,0.0029520000000004,0.0122260000000009,0.0015178,0,sub_1
-0.0004600000000002,0.0101658000000011,-0.0053467999999998,0.0042224000000004,0.0094552000000009,0.0006752,0,sub_1
