userAcceleration.x,userAcceleration.y,userAcceleration.z,rotationRate.x,rotationRate.y,rotationRate.z,label,subject
-0.0059652000000001,0.0119768000000012,-0.0061577999999999,0.0028554000000003,0.0011056000000008,0.0006626000000001,0,sub_12
-0.0060294000000001,0.0104388000000012,-0.0059993999999999,0.0017886000000003,0.0006850000000008,0.0002284000000001,0,sub_12
-0.0060008000000001,0.0091632000000012,-0.0058765999999999,0.0011474000000003,-0.000374599999999,-0.0006275999999998,0,sub_12
-0.0050084000000001,0.0091140000000012,-0.0056185999999999,0.0002986000000003,-0.000579599999999,-0.0019133999999998,0,sub_12
-0.0043964000000001,0.0099418000000012,-0.0054747999999999,-0.0003405999999996,-0.000364199999999,-0.0019163999999998,0,sub_12
-0.0048338000000001,0.0114446000000012,-0.0055579999999999,-0.0003427999999996,5.860000000090814e-05,-0.0010607999999998,0,sub_12
-0.0049784000000001,0.0124642000000012,-0.0058283999999999,0.0002944000000003,0.0004782000000009,1.3000000000187776e-05,0,sub_12
-0.0054238000000001,0.0124732000000012,-0.0061763999999999,0.0009288000000003,0.0006832000000009,0.0015128000000001,0,sub_12
-0.0058674000000001,0.0118974000000012,-0.0057259999999999,0.0015632000000003,0.0002516000000009,0.0023722000000001,0,sub_12
-0.0059956000000001,0.0113138000000012,-0.0052761999999999,0.0017756000000003,-0.000598799999999,0.0017340000000001,0,sub_12
-0.0051886000000001,0.0105374000000012,-0.0050023999999999,0.0011346000000003,-0.001658399999999,0.0008764000000001,0,sub_12
-0.0044804000000001,0.0097498000000012,-0.0048729999999999,0.0004874000000003,-0.002290999999999,0.0004384000000001,0,sub_12
-0.0034494000000001,0.0102552000000012,-0.0050375999999999,-0.0005825999999996,-0.002282199999999,-0.0002171999999998,0,sub_12
-0.0036370000000001,0.0108498000000012,-0.0050599999999999,-0.0007981999999996,-0.001638999999999,-0.0004401999999998,0,sub_12
-0.0035078000000001,0.0108606000000012,-0.0050703999999999,-0.0010167999999995,-0.000998199999999,-2.2399999999832168e-05,0,sub_12
-0.0037876000000001,0.0113152000000012,-0.0048415999999999,-0.0008095999999995,-0.000359799999999,0.0006120000000001,0,sub_12
-0.0044022000000001,0.0118660000000012,-0.0050033999999999,-0.0010211999999996,0.0002792000000009,0.0008234000000001,0,sub_12
-0.0054226000000001,0.0119740000000012,-0.0047775999999999,-0.0005945999999996,0.0002778000000009,0.0008264000000001,0,sub_12
-0.0057862000000001,0.0126366000000012,-0.0046947999999999,-0.0001727999999996,0.0002776000000009,0.0006120000000001,0,sub_12
-0.0055828000000001,0.0137282000000012,-0.0048427999999999,0.0006758000000003,0.0004880000000009,0.0006138000000001,0,sub_12
-0.0056610000000001,0.0141810000000012,-0.0050377999999999,0.0015254000000003,6.280000000090806e-05,-0.0002379999999998,0,sub_12
-0.0053750000000001,0.0133940000000012,-0.0049019999999999,0.0019474000000003,-0.000149599999999,-0.0006657999999998,0,sub_12
-0.0045734000000001,0.0127942000000012,-0.0048527999999999,0.0015138000000003,-0.000360799999999,-0.0006723999999998,0,sub_12
-0.0041878000000001,0.0116498000000012,-0.0049265999999999,0.0006594000000003,-0.000782999999999,-0.0008913999999998,0,sub_12
-0.0043950000000001,0.0109024000000012,-0.0052359999999999,-0.0004083999999996,-0.001416799999999,-0.0013251999999998,0,sub_12
-0.0044596000000001,0.0104154000000012,-0.0057549999999999,-0.0008379999999996,-0.000993599999999,-0.0002603999999998,0,sub_12
-0.0046092000000001,0.0116770000000012,-0.0069143999999999,-0.0014797999999996,-0.000355799999999,0.0005874000000001,0,sub_12
-0.0051210000000001,0.0125486000000012,-0.0073085999999999,-0.0014763999999996,0.0009206000000009,0.0010116000000001,0,sub_12
-0.0051184000000001,0.0129014000000012,-0.0070973999999999,-0.0006291999999996,0.0013368000000009,0.0027246000000001,0,sub_12
-0.0047938000000001,0.0119102000000012,-0.0066491999999999,-0.0002097999999996,0.0013294000000009,0.0042214000000001,0,sub_12
-0.0034700000000001,0.0114344000000012,-0.0059243999999999,-0.0008513999999996,0.0009064000000009,0.0040022000000001,0,sub_12
-0.0025252000000001,0.0109924000000012,-0.0041149999999999,-0.0004225999999996,0.0002702000000009,0.0029376000000001,0,sub_12
-0.0021242000000001,0.0109356000000012,-0.0031023999999999,-0.0006331999999996,-0.000575199999999,0.0014418000000001,0,sub_12
-0.0025136000000001,0.0119934000000012,-0.0027951999999999,-0.0010561999999996,-0.000994799999999,0.0001574000000001,0,sub_12
-0.0047310000000001,0.0139474000000012,-0.0033777999999999,-0.0008405999999996,-0.000780599999999,-0.0006973999999998,0,sub_12
-0.0071448000000001,0.0141288000000012,-0.0043799999999999,0.0002256000000003,-0.000359599999999,-0.0006919999999998,0,sub_12
-0.0086238000000001,0.0135222000000012,-0.0060561999999999,0.0017156000000003,-0.000579399999999,-0.0006827999999998,0,sub_12
-0.0087192000000001,0.0122276000000012,-0.0066387999999999,0.0038440000000003,-0.001651799999999,-0.0010953999999998,0,sub_12
-0.0079116000000001,0.0105842000000012,-0.0069671999999999,0.0046958000000003,-0.002928599999999,-0.0025847999999998,0,sub_12
-0.0054550000000001,0.0089638000000012,-0.0059433999999999,0.0049092000000003,-0.003990399999999,-0.0036501999999998,0,sub_12
-0.0033738000000001,0.0090004000000012,-0.0050721999999999,0.0040614000000003,-0.003557999999999,-0.0045113999999998,0,sub_12
-0.0034648000000001,0.0100416000000012,-0.0041557999999999,0.0021440000000003,-0.001636799999999,-0.0038879999999998,0,sub_12
-0.0040474000000001,0.0105092000000012,-0.0044509999999999,0.0002226000000003,0.0007054000000009,-0.0019833999999998,0,sub_12
-0.0050090000000001,0.0106476000000012,-0.0050283999999999,-0.0014861999999996,0.0030460000000009,0.0001364000000001,0,sub_12
-0.0058628000000001,0.0094570000000012,-0.0059445999999999,-0.0031883999999996,0.0051804000000009,0.0005474000000001,0,sub_12
-0.0059138000000001,0.0082068000000012,-0.0054397999999999,-0.0044685999999996,0.0060358000000009,0.0007494000000001,0,sub_12
-0.0044956000000001,0.0068684000000012,-0.0047277999999999,-0.0061737999999996,0.0060434000000008,0.0003102000000001,0,sub_12
-0.0027924000000001,0.0079012000000012,-0.0044727999999998,-0.0080893999999995,0.0062664000000008,-0.0005579999999998,0,sub_12
-0.0024766000000001,0.0098676000000012,-0.0038617999999999,-0.0080875999999995,0.0064804000000008,-0.0007719999999998,0,sub_12
-0.0031944000000001,0.0126292000000012,-0.0038737999999999,-0.0061757999999995,0.0056172000000008,0.0003106000000001,0,sub_12
-0.0047448000000001,0.0144404000000012,-0.0045997999999999,-0.0023499999999995,0.0036832000000008,0.0014060000000001,0,sub_12
-0.0059258000000001,0.0150034000000012,-0.0054759999999999,0.0029656000000003,0.0004674000000008,0.0020862000000001,0,sub_12
-0.0070100000000001,0.0135568000000012,-0.0056925999999999,0.0076382000000003,-0.003173199999999,0.0029760000000001,0,sub_12
-0.0065764000000001,0.0110390000000012,-0.0058557999999999,0.0086920000000003,-0.005307999999999,0.0034114000000001,0,sub_12
-0.0052116000000001,0.0088886000000012,-0.0054041999999999,0.0067662000000003,-0.005940199999999,0.0036104000000001,0,sub_12
-0.0039470000000001,0.0081764000000012,-0.0056175999999999,0.0031398000000003,-0.006350999999999,0.0029448000000001,0,sub_12
-0.0035408000000001,0.0080264000000012,-0.0055183999999999,0.0001554000000003,-0.006125799999999,0.0024964000000001,0,sub_12
-0.0040972000000001,0.0095816000000012,-0.0061519999999999,-0.0013289999999996,-0.004624399999999,0.0016282000000001,0,sub_12
-0.0040316000000001,0.0111776000000012,-0.0067537999999999,-0.0013147999999996,-0.002699799999999,0.0001290000000001,0,sub_12
-0.0046778000000001,0.0134182000000012,-0.0076547999999999,-0.0008681999999996,-0.000346999999999,-0.0022221999999998,0,sub_12
-0.0050960000000001,0.0138600000000012,-0.0071973999999999,-0.0004169999999996,0.0032830000000009,-0.0043615999999998,0,sub_12
-0.0045060000000001,0.0140540000000012,-0.0064425999999999,-0.0016659999999996,0.0081982000000009,-0.0067279999999998,0,sub_12
-0.0034478000000001,0.0128338000000012,-0.0054889999999999,-0.0033517999999996,0.0111936000000008,-0.0084525999999998,0,sub_12
-0.0040136000000001,0.0125324000000012,-0.0049679999999999,-0.0042081999999996,0.0109818000000008,-0.0080309999999998,0,sub_12
-0.0037254000000001,0.0112906000000012,-0.0043103999999999,-0.0031567999999996,0.0094790000000008,-0.0060989999999998,0,sub_12
-0.0043988000000001,0.0109226000000012,-0.0047613999999999,-0.0014745999999996,0.0066924000000008,-0.0033061999999998,0,sub_12
-0.0050286000000001,0.0108812000000012,-0.0045991999999999,0.0016878000000003,0.0009186000000008,-0.0005037999999998,0,sub_12
-0.0054902000000001,0.0102570000000012,-0.0037901999999999,0.0046386000000003,-0.004216199999999,0.0025098000000001,0,sub_12
-0.0048006000000001,0.0091928000000012,-0.0039695999999999,0.0061064000000003,-0.008063199999999,0.0044434000000001,0,sub_12
-0.0051412000000001,0.0088558000000012,-0.0039355999999999,0.0041622000000003,-0.011472199999999,0.0063526000000001,0,sub_12
-0.0045318000000001,0.0085506000000012,-0.0041193999999998,0.0009454000000003,-0.013172399999999,0.0082506000000001,0,sub_12
-0.0048554000000001,0.0083442000000012,-0.0058995999999998,-0.0020455999999996,-0.012528799999999,0.0097244000000001,0,sub_12
-0.0052318000000001,0.0099826000000012,-0.0072949999999998,-0.0041715999999996,-0.011665799999999,0.0088540000000001,0,sub_12
-0.0055934000000001,0.0112562000000012,-0.0073227999999999,-0.0043591999999996,-0.008246799999999,0.0064982000000001,0,sub_12
-0.0046428000000001,0.0135388000000012,-0.0078893999999999,-0.0023969999999996,-0.0022681999999991,0.0022330000000002,0,sub_12
-0.0040468000000001,0.0155356000000012,-0.0074699999999999,-0.0002109999999996,0.0045678000000008,-0.0035271999999997,0,sub_12
-0.0027522000000001,0.0170050000000012,-0.0059385999999999,0.0006900000000003,0.0107674000000008,-0.0088683999999997,0,sub_12
-0.0017886000000001,0.0172412000000012,-0.0057573999999999,0.0003088000000003,0.0171820000000008,-0.0135777999999997,0,sub_12
-0.0018012000000001,0.0169470000000012,-0.0053827999999999,-0.0013707999999996,0.0212506000000008,-0.0165841999999998,0,sub_12
-0.0028418000000001,0.0158906000000012,-0.0049581999999999,-0.0028749999999996,0.0199732000000009,-0.0155247999999998,0,sub_12
-0.0049440000000001,0.0136752000000012,-0.0051811999999999,-0.0037725999999996,0.0150564000000009,-0.0106109999999998,0,sub_12
-0.0073214000000001,0.0102630000000012,-0.0064217999999999,-0.0065963999999996,0.0107778000000009,-0.0037885999999998,0,sub_12
-0.0082768000000001,0.0077814000000012,-0.0066243999999999,-0.0094273999999996,0.0049970000000009,0.0041042000000001,0,sub_12
-0.0078212000000001,0.0065406000000012,-0.0069003999999999,-0.0099025999999996,-0.000572199999999,0.0103042000000001,0,sub_12
-0.0064716000000001,0.0055850000000012,-0.0069699999999999,-0.0086421999999996,-0.003150999999999,0.0130940000000001,0,sub_12
-0.0043270000000001,0.0065222000000012,-0.0066833999999999,-0.0082093999999996,-0.0027329999999991,0.0130968000000001,0,sub_12
-0.0030708000000001,0.0092656000000012,-0.0058813999999998,-0.0071171999999996,0.0002462000000008,0.0113918000000001,0,sub_12
-0.0038250000000001,0.0119678000000012,-0.0051699999999999,-0.0055967999999996,0.0045088000000008,0.0096878000000001,0,sub_12
-0.0050494000000001,0.0136864000000012,-0.0046703999999999,-0.0042983999999996,0.0070670000000008,0.0081980000000001,0,sub_12
-0.0053382000000001,0.0140394000000012,-0.0038619999999998,-0.0032209999999996,0.0068604000000008,0.0056420000000001,0,sub_12
-0.0042348000000001,0.0146036000000012,-0.0031289999999998,-0.0004475999999996,0.0036702000000008,0.0022444000000001,0,sub_12
-0.0019686000000001,0.0154664000000012,-0.0022141999999999,0.0031696000000003,-0.001653399999999,-0.0011445999999998,0,sub_12
0.0003683999999998,0.0152978000000012,-0.0016047999999999,0.0061526000000003,-0.005059799999999,-0.0038995999999998,0,sub_12
0.0008081999999998,0.0150256000000012,-0.0020643999999999,0.0065788000000003,-0.005695399999999,-0.0047531999999998,0,sub_12
-0.0005998000000001,0.0149454000000012,-0.0031885999999999,0.0061544000000003,-0.003566799999999,-0.0034797999999998,0,sub_12
-0.0023116000000001,0.0132280000000012,-0.0045873999999999,0.0048818000000003,-0.000584599999999,-0.0022105999999998,0,sub_12
-0.0050428000000001,0.0107078000000012,-0.0064033999999999,0.0044590000000003,0.0011178000000009,-0.0013611999999998,0,sub_12
-0.0068594000000001,0.0088716000000012,-0.0077685999999999,0.0046704000000003,0.0011152000000009,-0.0009323999999998,0,sub_12
-0.0071738000000001,0.0079614000000012,-0.0080549999999999,0.0040316000000003,0.0008988000000009,-0.0013583999999998,0,sub_12
-0.0070112000000001,0.0074146000000012,-0.0077333999999999,0.0012668000000003,0.0021822000000009,-0.0020147999999998,0,sub_12
-0.0078670000000001,0.0082604000000012,-0.0074423999999999,-0.0010789999999996,0.0036694000000009,-0.0007457999999998,0,sub_12
-0.0082850000000001,0.0101178000000012,-0.0069745999999999,-0.0021513999999996,0.0042974000000009,0.0011742000000001,0,sub_12
-0.0087728000000001,0.0121122000000012,-0.0069409999999999,-0.0021557999999996,0.0040736000000009,0.0020346000000001,0,sub_12
-0.0089612000000001,0.0126494000000012,-0.0060143999999999,0.0001904000000003,0.0038524000000009,0.0020514000000001,0,sub_12
-0.0083074000000001,0.0120090000000012,-0.0047271999999999,0.0035948000000003,0.0012854000000009,0.0016512000000001,0,sub_12
-0.0050632000000001,0.0101312000000012,-0.0032583999999999,0.0048664000000003,-0.001697599999999,0.0005958000000001,0,sub_12
-0.0012328000000001,0.0069348000000012,-0.0025761999999999,0.0027272000000003,-0.003598999999999,0.0001514000000001,0,sub_12
0.0024125999999998,0.0035588000000012,-0.0019487999999999,-0.0028279999999996,-0.004428999999999,0.0011772000000001,0,sub_12
0.0038879999999998,0.0040244000000012,-0.0023399999999999,-0.0092355999999996,-0.004406599999999,0.0028370000000001,0,sub_12
0.0037677999999998,0.0065018000000012,-0.0035683999999999,-0.0137191999999996,-0.003538599999999,0.0045092000000001,0,sub_12
0.0008351999999998,0.0123540000000012,-0.0057699999999999,-0.0135027999999996,-0.002045199999999,0.0055724000000001,0,sub_12
-0.0031040000000001,0.0183190000000012,-0.0067149999999999,-0.0085865999999996,-0.000356999999999,0.0053910000000001,0,sub_12
-0.0075994000000001,0.0215094000000012,-0.0075705999999999,0.0003884000000003,0.0011090000000009,0.0039562000000001,0,sub_12
-0.0090768000000001,0.0204192000000012,-0.0083875999999999,0.0102168000000003,-0.000637199999999,0.0014716000000001,0,sub_12
-0.0085878000000001,0.0180134000000012,-0.0082355999999999,0.0179040000000003,-0.004080199999999,-0.0010255999999998,0,sub_12
-0.0081386000000001,0.0126708000000012,-0.0067721999999998,0.0208940000000003,-0.007509599999999,-0.0029147999999998,0,sub_12
-0.0070078000000001,0.0069922000000012,-0.0055781999999998,0.0181162000000003,-0.010500399999999,-0.0029219999999998,0,sub_12
-0.0042544000000001,0.0034388000000012,-0.0049923999999998,0.0123484000000003,-0.012634399999999,-0.0014555999999998,0,sub_12
-0.0022494000000001,0.0030168000000012,-0.0052281999999998,0.0057232000000003,-0.012620599999999,0.0008482000000001,0,sub_12
-0.0024934000000001,0.0037434000000012,-0.0056749999999999,0.0006060000000003,-0.010052999999999,0.0025182000000001,0,sub_12
-0.0028028000000001,0.0046298000000012,-0.0063221999999999,-0.0025839999999996,-0.006212799999999,0.0039866000000001,0,sub_12
-0.0040560000000001,0.0069634000000012,-0.0076065999999999,-0.0025685999999996,-0.002167199999999,0.0046224000000001,0,sub_12
-0.0060266000000001,0.0093750000000012,-0.0073429999999999,-0.0012491999999996,0.0022902000000009,0.0037626000000001,0,sub_12
-0.0070730000000001,0.0103754000000012,-0.0059075999999999,0.0009180000000003,0.0054662000000009,0.0029104000000001,0,sub_12
-0.0072050000000001,0.0108630000000012,-0.0050113999999999,0.0026430000000003,0.0058716000000009,0.0026996000000001,0,sub_12
-0.0055416000000001,0.0119094000000012,-0.0038653999999999,0.0032934000000003,0.0045762000000009,0.0024834000000001,0,sub_12
-0.0039284000000001,0.0125210000000012,-0.0022517999999999,0.0035114000000003,0.0022160000000009,0.0024794000000001,0,sub_12
-0.0018890000000001,0.0136218000000012,-0.0018077999999999,0.0028482000000003,-0.001834199999999,0.0035482000000001,0,sub_12
-0.0014878000000001,0.0138370000000012,-0.0022165999999999,0.0032520000000003,-0.005887799999999,0.0046246000000001,0,sub_12
-0.0012972000000001,0.0132640000000012,-0.0027679999999999,0.0040882000000003,-0.009089199999999,0.0052754000000001,0,sub_12
-0.0017478000000001,0.0121882000000012,-0.0039917999999999,0.0070636000000003,-0.011669199999999,0.0059380000000001,0,sub_12
-0.0011414000000001,0.0110152000000012,-0.0050593999999999,0.0098380000000003,-0.012964199999999,0.0051020000000001,0,sub_12
-0.0016074000000001,0.0095490000000012,-0.0060985999999999,0.0117734000000003,-0.011909199999999,0.0034028000000001,0,sub_12
-0.0019006000000001,0.0092826000000012,-0.0071019999999999,0.0109396000000003,-0.009991599999999,0.0014692000000001,0,sub_12
-0.0020338000000001,0.0102186000000012,-0.0078451999999999,0.0088314000000003,-0.006366599999999,-4.799999999983203e-05,0,sub_12
-0.0039840000000001,0.0124292000000012,-0.0083531999999999,0.0054404000000003,-0.002726799999999,-0.0015717999999998,0,sub_12
-0.0056178000000001,0.0140462000000012,-0.0086471999999999,0.0024714000000003,0.0004828000000009,-0.0024511999999998,0,sub_12
-0.0068920000000001,0.0155864000000012,-0.0089841999999999,0.0018312000000003,0.0004850000000009,-0.0024557999999998,0,sub_12
-0.0076246000000001,0.0150110000000012,-0.0084839999999999,0.0031112000000003,0.0006826000000009,-0.0018099999999998,0,sub_12
-0.0083810000000001,0.0139598000000012,-0.0079043999999999,0.0037446000000003,-0.000184599999999,-0.0007399999999998,0,sub_12
-0.0072076000000001,0.0115218000000012,-0.0064429999999999,0.0030976000000003,-0.000410599999999,0.0009610000000001,0,sub_12
-0.0061630000000001,0.0091342000000012,-0.0053933999999999,0.0015962000000003,-0.000209999999999,0.0032964000000001,0,sub_12
-0.0046520000000001,0.0068424000000012,-0.0040687999999999,-0.0013921999999996,0.0010628000000009,0.0051928000000001,0,sub_12
-0.0035086000000001,0.0063304000000012,-0.0034739999999999,-0.0052299999999996,0.0023520000000009,0.0058052000000001,0,sub_12
-0.0020368000000001,0.0058548000000012,-0.0031185999999999,-0.0073571999999996,0.0034264000000008,0.0053616000000001,0,sub_12
-0.0010376000000001,0.0064388000000012,-0.0034023999999999,-0.0088371999999996,0.0045044000000008,0.0034272000000001,0,sub_12
-0.0009030000000001,0.0080592000000012,-0.0036057999999999,-0.0092467999999996,0.0053724000000008,0.0002114000000001,0,sub_12
-0.0015070000000001,0.0093648000000012,-0.0040343999999999,-0.0081587999999996,0.0066628000000008,-0.0034217999999998,0,sub_12
-0.0020366000000001,0.0107718000000012,-0.0040117999999999,-0.0058001999999996,0.0064550000000008,-0.0064031999999998,0,sub_12
-0.0028842000000001,0.0122868000000012,-0.0034855999999999,-0.0032309999999996,0.0060316000000009,-0.0089555999999998,0,sub_12
-0.0037564000000001,0.0129982000000012,-0.0037445999999999,0.0001790000000003,0.0041088000000009,-0.0102183999999998,0,sub_12
-0.0041214000000001,0.0137678000000012,-0.0039595999999999,0.0025098000000003,0.0006908000000009,-0.0099839999999998,0,sub_12
-0.0040586000000001,0.0138500000000012,-0.0037767999999999,0.0039794000000003,-0.003367399999999,-0.0086865999999998,0,sub_12
-0.0039246000000001,0.0138978000000012,-0.0042341999999999,0.0041708000000003,-0.005934199999999,-0.0063317999999998,0,sub_12
-0.0037776000000001,0.0127432000000012,-0.0049465999999999,0.0041496000000003,-0.008074799999999,-0.0037653999999998,0,sub_12
-0.0039916000000001,0.0115414000000012,-0.0056429999999999,0.0037016000000003,-0.008705999999999,-0.0022805999999998,0,sub_12
-0.0039840000000001,0.0097506000000012,-0.0066217999999999,0.0036948000000003,-0.006991599999999,-0.0016501999999998,0,sub_12
-0.0044374000000001,0.0093416000000011,-0.0077869999999999,0.0028422000000003,-0.004843199999999,-0.0023081999999998,0,sub_12
-0.0050008000000001,0.0087662000000011,-0.0084999999999998,0.0013542000000003,-0.002475999999999,-0.0038255999999997,0,sub_12
-0.0059160000000001,0.0091862000000012,-0.0088331999999998,-0.0005603999999996,0.0005292000000009,-0.0047057999999997,0,sub_12
-0.0070162000000001,0.0108310000000012,-0.0082429999999998,-0.0020453999999996,0.0028764000000009,-0.0042917999999997,0,sub_12
-0.0080178000000001,0.0130264000000011,-0.0077087999999998,-0.0024945999999996,0.0028896000000009,-0.0032403999999998,0,sub_12
-0.0074890000000001,0.0139028000000012,-0.0065115999999998,-0.0018825999999996,0.0028942000000009,-0.0008995999999998,0,sub_12
-0.0070306000000001,0.0135530000000012,-0.0048789999999999,0.0002144000000003,0.0016126000000009,0.0020942000000001,0,sub_12
-0.0049570000000001,0.0130886000000012,-0.0042475999999999,0.0020970000000003,-0.000517999999999,0.0044466000000001,0,sub_12
-0.0026236000000001,0.0115470000000012,-0.0040747999999999,0.0027100000000003,-0.001998199999999,0.0050800000000001,0,sub_12
-0.0009886000000001,0.0092606000000012,-0.0031809999999999,0.0018546000000003,-0.002421399999999,0.0050746000000001,0,sub_12
-0.0013488000000001,0.0076764000000012,-0.0031603999999999,0.0005782000000003,-0.002413599999999,0.0042110000000001,0,sub_12
-0.0009236000000001,0.0078116000000012,-0.0041875999999999,-0.0019707999999996,-0.001757799999999,0.0022696000000001,0,sub_12
-0.0016624000000001,0.0090846000000012,-0.0047955999999999,-0.0040871999999996,-0.000461799999999,-0.0003105999999998,0,sub_12
-0.0028226000000001,0.0102904000000012,-0.0048041999999999,-0.0045237999999996,0.0006334000000009,-0.0024609999999998,0,sub_12
-0.0042456000000001,0.0115936000000012,-0.0052437999999999,-0.0036811999999996,0.0019356000000009,-0.0041755999999998,0,sub_12
-0.0044710000000001,0.0123132000000012,-0.0049775999999999,-0.0022041999999996,0.0025938000000009,-0.0052437999999998,0,sub_12
-0.0047624000000001,0.0125024000000012,-0.0048341999999999,0.0001224000000003,0.0026090000000009,-0.0060917999999998,0,sub_12
-0.0055462000000001,0.0112344000000012,-0.0045023999999999,0.0020174000000003,0.0021970000000009,-0.0063011999999998,0,sub_12
-0.0048234000000001,0.0103022000000012,-0.0044773999999999,0.0024374000000003,0.0013408000000009,-0.0056561999999998,0,sub_12
-0.0037026000000001,0.0097336000000012,-0.0049587999999999,0.0015744000000003,6.200000000090855e-05,-0.0048059999999998,0,sub_12
-0.0027524000000001,0.0097142000000012,-0.0057303999999999,-0.0001373999999996,-0.000997399999999,-0.0048165999999998,0,sub_12
-0.0030722000000001,0.0102508000000012,-0.0061413999999999,-0.0018545999999996,-0.000773799999999,-0.0041979999999998,0,sub_12
-0.0033244000000001,0.0118278000000012,-0.0064167999999999,-0.0033583999999996,-0.000550799999999,-0.0035779999999998,0,sub_12
-0.0044972000000001,0.0132240000000012,-0.0066059999999998,-0.0035829999999996,-0.000545399999999,-0.0029485999999998,0,sub_12
-0.0056718000000001,0.0139614000000012,-0.0066563999999998,-0.0021005999999996,-0.000757999999999,-0.0025205999999998,0,sub_12
-0.0063890000000001,0.0142336000000012,-0.0066645999999998,-0.0004095999999996,-0.001187799999999,-0.0012363999999998,0,sub_12
-0.0062048000000001,0.0133260000000012,-0.0062269999999998,0.0010734000000003,-0.002051199999999,0.0002706000000001,0,sub_12
-0.0055512000000001,0.0119224000000012,-0.0056333999999999,0.0019164000000003,-0.002275799999999,0.0024132000000001,0,sub_12
-0.0048136000000001,0.0102536000000012,-0.0057275999999999,0.0016912000000003,-0.001849999999999,0.0041270000000001,0,sub_12
-0.0039368000000001,0.0087310000000012,-0.0053223999999999,0.0006192000000003,-0.000778799999999,0.0049796000000001,0,sub_12
-0.0038088000000001,0.0078840000000012,-0.0049849999999999,-0.0002327999999996,0.0002976000000009,0.0043382000000001,0,sub_12
-0.0040370000000001,0.0077518000000012,-0.0046469999999998,-0.0010837999999996,0.0009506000000009,0.0030564000000001,0,sub_12
-0.0041506000000001,0.0076600000000012,-0.0042095999999998,-0.0015061999999996,0.0011794000000009,0.0009236000000002,0,sub_12
-0.0040808000000001,0.0081136000000012,-0.0034425999999999,-0.0014975999999996,0.0011870000000009,-0.0009991999999997,0,sub_12
-0.0037480000000001,0.0090212000000012,-0.0034061999999999,-0.0014927999999996,0.0009792000000009,-0.0022807999999997,0,sub_12
-0.0039746000000001,0.0101128000000012,-0.0036229999999999,-0.0012783999999996,0.0009794000000009,-0.0024929999999997,0,sub_12
-0.0037926000000001,0.0107128000000012,-0.0039025999999999,-0.0010629999999996,0.0011926000000009,-0.0027053999999997,0,sub_12
-0.0039420000000001,0.0111198000000012,-0.0047443999999999,-0.0008565999999996,0.0007718000000009,-0.0026931999999998,0,sub_12
-0.0044298000000001,0.0110766000000012,-0.0053589999999999,-0.0002243999999996,0.0005608000000008,-0.0022509999999998,0,sub_12
-0.0049290000000001,0.0110178000000012,-0.0060013999999999,0.0001926000000003,-7.579999999911139e-05,-0.0018099999999998,0,sub_12
-0.0040286000000001,0.0108458000000012,-0.0056803999999999,0.0008238000000003,-0.0007121999999991,-0.0015809999999998,0,sub_12
-0.0035184000000001,0.0106364000000012,-0.0054395999999999,0.0012408000000003,-0.0011363999999991,-0.0009263999999998,0,sub_12
-0.0026002000000001,0.0106830000000012,-0.0048957999999999,0.0012380000000003,-0.0009267999999991,-7.219999999983243e-05,0,sub_12
