userAcceleration.x,userAcceleration.y,userAcceleration.z,rotationRate.x,rotationRate.y,rotationRate.z,label,subject
0.0065509999999998,0.0294598000000012,0.006916,-0.0033241999999996,-0.0016285999999991,0.0016124000000001,0,sub_12
0.0053185999999998,0.0295240000000012,0.0064694,-0.0024645999999996,-0.001855999999999,0.0009712000000001,0,sub_12
0.0035611999999998,0.0283850000000012,0.005041,-0.0016069999999996,-0.002721799999999,0.0001170000000001,0,sub_12
0.0021209999999998,0.0272298000000012,0.004393,-0.0015963999999996,-0.001439199999999,-0.0009527999999998,0,sub_12
-0.0007420000000001,0.0265194000000012,0.003982,-0.0018019999999996,0.0004782000000009,-0.0007429999999998,0,sub_12
-0.0024662000000001,0.0260340000000012,0.0033568,-0.0022353999999996,0.0002614000000009,0.0005362000000001,0,sub_12
-0.0021104000000001,0.0259758000000012,0.0028838,-0.0030985999999996,-0.000804999999999,0.0015996000000001,0,sub_12
-0.0004594000000002,0.0262960000000012,0.0037194,-0.0039633999999996,-0.001445199999999,0.0020290000000001,0,sub_12
0.0019265999999997,0.0265698000000012,0.004691,-0.0046117999999996,-0.001871399999999,0.0020322000000001,0,sub_12
0.0050125999999997,0.0273316000000012,0.0061502,-0.0039753999999996,-0.002297799999999,0.0009762000000001,0,sub_12
0.0068891999999997,0.0276380000000012,0.0075326,-0.0033311999999996,-0.0016563999999991,-0.0007219999999998,0,sub_12
0.0078349999999998,0.0275374000000012,0.0083228,-0.0026819999999996,-0.0005863999999991,-0.0030615999999998,0,sub_12
0.0065745999999998,0.0277676000000012,0.0081834,-0.0011739999999996,0.0004822000000008,-0.0051887999999998,0,sub_12
0.0044847999999998,0.0285864000000012,0.0075794,0.0007530000000003,0.0006936000000008,-0.0064573999999998,0,sub_12
0.0023375999999998,0.0283886000000012,0.0066682,0.0018190000000003,-0.0001619999999991,-0.0066533999999998,0,sub_12
0.0002815999999998,0.0282700000000012,0.0057034,0.0030934000000003,-0.0010223999999991,-0.0057797999999998,0,sub_12
-0.0012152000000001,0.0283134000000012,0.0050136,0.0037248000000003,-0.001458799999999,-0.0038429999999998,0,sub_12
-0.0012920000000001,0.0280974000000012,0.0041002,0.0032856000000003,-0.001894999999999,-0.0010591999999998,0,sub_12
-0.0016082000000001,0.0267816000000012,0.003598,0.0026350000000003,-0.001904199999999,0.0017226000000001,0,sub_12
-0.0016848000000001,0.0261204000000012,0.0032674,0.0019890000000003,-0.001058199999999,0.0038534000000001,0,sub_12
-0.0010270000000001,0.0255076000000012,0.002965,0.0007078000000003,-0.000417999999999,0.0046982000000001,0,sub_12
-0.0005020000000001,0.0246414000000012,0.0025112,7.060000000035632e-05,0.0004356000000009,0.0049064000000001,0,sub_12
-0.0005674000000001,0.0244164000000012,0.00345,-0.0003503999999996,0.0015032000000009,0.0046886000000001,0,sub_12
0.0005653999999998,0.0252016000000012,0.0040164,-0.0009841999999996,0.0025792000000009,0.0040478000000001,0,sub_12
0.0017229999999998,0.0258456000000012,0.0047858,-0.0009825999999996,0.0028000000000009,0.0036262,0,sub_12
0.0032713999999998,0.0261424000000012,0.0058592,-0.0001313999999996,0.0025900000000009,0.0036382000000001,0,sub_12
0.0046803999999998,0.0264522000000012,0.0067928,0.0002920000000003,0.0017440000000009,0.0032208000000001,0,sub_12
0.0061237999999998,0.0269840000000012,0.007077,0.0005040000000003,0.0006884000000009,0.0021612000000001,0,sub_12
0.0059535999999998,0.0267192000000012,0.0076326,0.0005058000000003,-0.000158599999999,0.0008804000000001,0,sub_12
0.0055359999999998,0.0268470000000012,0.0075168,0.0007220000000003,-0.001005599999999,-0.0006125999999998,0,sub_12
0.0044951999999998,0.0267378000000012,0.00701,0.0009412000000003,-0.001637799999999,-0.0025329999999998,0,sub_12
0.0036581999999997,0.0268296000000012,0.0064178,0.0015958000000003,-0.001416999999999,-0.0042369999999998,0,sub_12
0.0021699999999997,0.0268124000000012,0.0056926,0.0026744000000003,-0.000987999999999,-0.0050835999999998,0,sub_12
0.0017167999999997,0.0266976000000012,0.0044658,0.0046016000000003,-0.0005661999999991,-0.0048561999999998,0,sub_12
0.0013571999999998,0.0260846000000012,0.0036886,0.0054620000000003,0.0002838000000008,-0.0042093999999998,0,sub_12
0.0006747999999998,0.0257648000000012,0.003068,0.0048286000000003,0.0017756000000008,-0.0029329999999998,0,sub_12
-0.0005072000000001,0.0259318000000012,0.0030652,0.0033292000000003,0.0024124000000008,-0.0010213999999998,0,sub_12
-0.0008104000000001,0.0262896000000012,0.003309,0.0011868000000003,0.0024122000000008,0.0008864000000001,0,sub_12
-0.0014276000000001,0.0267630000000012,0.0041362,-0.0009439999999996,0.0022036000000008,0.0023674000000001,0,sub_12
-0.0014888000000001,0.0272864000000012,0.0048502,-0.0024367999999996,0.0017788000000008,0.0040666000000001,0,sub_12
-0.0010292000000001,0.0278314000000012,0.0058488,-0.0024377999999996,0.0009228000000008,0.0057770000000001,0,sub_12
0.0006265999999998,0.0278688000000012,0.0063942,-0.0015795999999996,0.0002812000000008,0.0064246000000001,0,sub_12
0.0026095999999998,0.0269512000000012,0.0065012,-0.0002917999999996,-0.000147199999999,0.0066478000000001,0,sub_12
0.0045265999999998,0.0261002000000012,0.0062516,0.0001378000000003,-0.000145999999999,0.0060098000000001,0,sub_12
0.0054391999999998,0.0252796000000012,0.0061758,0.0003608000000003,0.0004984000000009,0.0045152000000001,0,sub_12
0.0052549999999998,0.0249326000000012,0.0059064,0.0005876000000003,0.0015706000000009,0.0025926000000001,0,sub_12
0.0041667999999998,0.0249482000000012,0.0051864,0.0012452000000003,0.0024304000000009,0.0013198000000001,0,sub_12
0.0028033999999998,0.0258858000000012,0.0050862,0.0014732000000003,0.0026526000000009,4.480000000017964e-05,0,sub_12
0.0015529999999998,0.0269884000000012,0.0052924,0.0025470000000003,0.0022282000000009,-0.0001551999999998,0,sub_12
0.0013179999999997,0.0281594000000012,0.0049736,0.0029750000000003,0.0009524000000009,6.860000000017954e-05,0,sub_12
0.0021647999999997,0.0286082000000012,0.0054518,0.0027610000000003,-0.000747399999999,0.0002884000000001,0,sub_12
0.0029891999999997,0.0286190000000012,0.0063624,0.0023296000000003,-0.001598999999999,0.0005002000000001,0,sub_12
0.0033047999999997,0.0279126000000012,0.006239,0.0025400000000003,-0.002026599999999,0.0007158000000001,0,sub_12
0.0030375999999997,0.0270322000000012,0.0055052,0.0025428000000003,-0.002023999999999,7.48000000001595e-05,0,sub_12
0.0023907999999998,0.0261328000000012,0.005124,0.0038296000000003,-0.000961599999999,-0.0003449999999998,0,sub_12
0.0014487999999998,0.0252312000000012,0.0045228,0.0044774000000003,0.0001040000000009,-0.0003435999999998,0,sub_12
0.0003139999999998,0.0246960000000012,0.0040506,0.0042670000000003,0.0001074000000009,-0.0003467999999998,0,sub_12
-6.76000000001724e-05,0.0244276000000012,0.0041662,0.0032042000000003,0.0005390000000009,-0.0001429999999998,0,sub_12
0.0002847999999998,0.0251996000000012,0.0046756,0.0019232000000003,0.0003306000000009,0.0004876000000001,0,sub_12
0.0007787999999998,0.0259324000000012,0.0053766,0.0004288000000003,-0.000301399999999,0.0006900000000001,0,sub_12
0.0012389999999998,0.0268790000000012,0.0056752,0.0002116000000003,-0.001152799999999,0.0006896000000001,0,sub_12
0.0021867999999997,0.0277682000000012,0.0056398,0.0004240000000003,-0.001578799999999,0.0004780000000001,0,sub_12
0.0027263999999997,0.0277554000000012,0.0053034,0.0012772000000003,-0.002004799999999,5.620000000017959e-05,0,sub_12
0.0026761999999997,0.0272184000000012,0.0056802,0.0019236000000003,-0.001150999999999,-0.0005823999999998,0,sub_12
0.0025725999999997,0.0265516000000012,0.0053256,0.0023548000000003,-0.000510399999999,-0.0010085999999998,0,sub_12
0.0017309999999997,0.0263100000000012,0.0047554,0.0023584000000003,-8.119999999906682e-05,-0.0014375999999998,0,sub_12
0.0007719999999998,0.0257302000000012,0.0046854,0.0023600000000003,0.0003462000000009,-0.0014393999999998,0,sub_12
0.0002701999999997,0.0262884000000012,0.0048714,0.0019312000000003,0.0003460000000009,-0.0010149999999998,0,sub_12
0.0005421999999998,0.0262326000000012,0.0042298,0.0019274000000003,-8.179999999908687e-05,-0.0005871999999998,0,sub_12
0.0007627999999998,0.0265624000000012,0.0044174,0.0014950000000003,-0.000509799999999,0.0002648000000001,0,sub_12
0.0014983999999997,0.0261958000000012,0.0045008,0.0006376000000003,-0.000722599999999,0.0009000000000001,0,sub_12
0.0021363999999997,0.0263422000000012,0.0040312,-0.0006475999999996,-0.000720399999999,0.0011040000000001,0,sub_12
0.0022011999999998,0.0257682000000012,0.0038052,-0.0012897999999996,-0.000505999999999,0.0008848000000001,0,sub_12
0.0022127999999998,0.0251768000000012,0.0037458,-0.0015051999999996,-0.000292799999999,0.0006686000000001,0,sub_12
0.0025919999999998,0.0246296000000012,0.003772,-0.0012891999999996,0.0001352000000009,-0.0003993999999998,0,sub_12
0.0025767999999998,0.0254126000000012,0.0043314,-0.0002177999999996,0.0011986000000008,-0.0012483999999998,0,sub_12
0.0023909999999998,0.0260434000000011,0.005014,0.0012806000000003,0.0014098000000008,-0.0020925999999998,0,sub_12
0.0025953999999998,0.0268338000000012,0.0053734,0.0025600000000003,0.0011924000000008,-0.0020833999999998,0,sub_12
0.0025857999999998,0.0277806000000012,0.0063548,0.0029818000000003,0.0001256000000008,-0.0020789999999998,0,sub_12
0.0020289999999998,0.0279264000000012,0.0057324,0.0031808000000003,-0.0013733999999991,-0.0012287999999998,0,sub_12
0.0023701999999998,0.0270644000000012,0.0051196,0.0029522000000003,-0.003508199999999,-0.0008081999999998,0,sub_12
0.0021669999999998,0.0264420000000012,0.0048844,0.0027302000000003,-0.004151799999999,-0.0003893999999998,0,sub_12
0.0016531999999998,0.0258360000000012,0.0048264,0.0023014000000003,-0.003939999999999,-0.0006139999999998,0,sub_12
0.0010071999999998,0.0256416000000012,0.0039226,0.0025168000000003,-0.003090399999999,-0.0010485999999998,0,sub_12
0.0008517999999998,0.0252280000000012,0.0040062,0.0029512000000003,-0.002448399999999,-0.0021145999999998,0,sub_12
0.0008775999999998,0.0247698000000012,0.00435,0.0027474000000003,-0.001165999999999,-0.0029721999999998,0,sub_12
0.0014149999999998,0.0245626000000012,0.0043322,0.0025406000000003,-0.000310399999999,-0.0036157999999998,0,sub_12
0.0020485999999998,0.0249198000000012,0.0041262,0.0021080000000003,-9.55999999990868e-05,-0.0040519999999998,0,sub_12
0.0026381999999998,0.0250872000000012,0.0044494,0.0008170000000003,0.0001180000000009,-0.0034259999999998,0,sub_12
0.0029215999999998,0.0255342000000012,0.0049674,-0.0009005999999996,0.0007574000000008,-0.0023761999999998,0,sub_12
0.0027109999999997,0.0264750000000012,0.0047626,-0.0017685999999996,0.0007538000000008,-0.0011059999999998,0,sub_12
0.0027267999999997,0.0268364000000012,0.0050972,-0.0024231999999996,0.0001128000000008,-0.0004743999999998,0,sub_12
0.0025561999999998,0.0266920000000012,0.0055406,-0.0024259999999996,-0.000314199999999,-0.0002601999999998,0,sub_12
0.0026585999999998,0.0263206000000012,0.005587,-0.0017819999999996,-0.0001007999999991,-0.0008967999999998,0,sub_12
0.0027345999999998,0.0262112000000012,0.0053052,-0.0007219999999996,-0.0001015999999991,-0.0015337999999998,0,sub_12
0.0024639999999998,0.0260162000000012,0.0055716,0.0003390000000003,-0.0001015999999991,-0.0023845999999998,0,sub_12
0.0022653999999998,0.0254012000000012,0.005564,0.0009724000000003,0.0001112000000008,-0.0028111999999998,0,sub_12
0.0025333999999998,0.0250720000000012,0.0047046,-0.0001001999999996,0.0007554000000008,-0.0030367999999998,0,sub_12
0.0020065999999998,0.0250176000000012,0.0047924,-0.0020319999999996,0.0009730000000008,-0.0024133999999998,0,sub_12
0.0015613999999998,0.0255708000000012,0.0047484,-0.0035263999999996,0.0009774000000009,-0.0022101999999998,0,sub_12
0.0019007999999998,0.0263248000000012,0.0042218,-0.0054475999999995,0.0007712000000009,-0.0022231999999998,0,sub_12
0.0014407999999998,0.0266018000000012,0.0040786,-0.0069411999999995,0.0003520000000009,-0.0026603999999998,0,sub_12
0.0008807999999998,0.0266816000000012,0.0049328,-0.0063029999999995,-0.000288599999999,-0.0028687999999998,0,sub_12
0.0008331999999997,0.0261636000000012,0.0043794,-0.0048219999999995,-0.001569399999999,-0.0032859999999998,0,sub_12
0.0016579999999998,0.0255218000000012,0.0045906,-0.0037657999999996,-0.002210399999999,-0.0034933999999998,0,sub_12
0.0021373999999998,0.0245548000000012,0.0048614,-0.0018521999999996,-0.001365599999999,-0.0030557999999998,0,sub_12
0.0034733999999998,0.0245720000000012,0.004319,0.0006986000000003,-0.000313199999999,-0.0017593999999998,0,sub_12
0.0034765999999998,0.0244612000000012,0.0046806,0.0011194000000003,0.0013866000000009,-0.0006921999999998,0,sub_12
0.0032243999999998,0.0250480000000012,0.0053518,-0.0007961999999996,0.0028830000000009,-0.0002801999999998,0,sub_12
0.0007031999999998,0.0256980000000012,0.005613,-0.0039919999999996,0.0045960000000009,0.0003362000000001,0,sub_12
-0.0012720000000001,0.0270092000000012,0.0058582,-0.0063503999999996,0.0041788000000009,0.0005348000000001,0,sub_12
-0.0030652000000001,0.0277948000000012,0.0059244,-0.0072149999999996,0.0026952000000009,-0.0003229999999998,0,sub_12
-0.0026868000000001,0.0284612000000012,0.0046502,-0.0048789999999996,0.0001396000000009,-0.0022251999999998,0,sub_12
-0.0013090000000001,0.0271692000000012,0.0047162,0.0006634000000003,-0.001573399999999,-0.0045333999999998,0,sub_12
0.0012307999999998,0.0257544000000012,0.0047286,0.0068400000000003,-0.003717999999999,-0.0059819999999998,0,sub_12
0.0036577999999998,0.0237762000000012,0.0048418,0.0091852000000003,-0.003940199999999,-0.0057515999999998,0,sub_12
0.0052541999999998,0.0223726000000012,0.0049956,0.0074764000000003,-0.002025999999999,-0.0034157999999998,0,sub_12
0.0052295999999998,0.0215202000000012,0.0051636,0.0019278000000003,0.0013878000000009,0.0001730000000001,0,sub_12
0.0033515999999998,0.0235616000000012,0.0045758,-0.0044881999999996,0.0037448000000009,0.0035488000000001,0,sub_12
0.0005691999999998,0.0255256000000012,0.0041074,-0.0094037999999996,0.0054658000000009,0.0047994000000001,0,sub_12
-0.0021936000000001,0.0277110000000012,0.0032862,-0.0111149999999996,0.0052694000000009,0.0032976000000001,0,sub_12
-0.0028964000000001,0.0296990000000012,0.00364,-0.0087723999999996,0.0033610000000009,0.0001170000000001,0,sub_12
-0.0020294000000001,0.0311622000000012,0.0046354,-0.0036605999999996,0.0003776000000009,-0.0030427999999998,0,sub_12
0.0006323999999998,0.0306282000000012,0.0051994,0.0016756000000003,-0.001973599999999,-0.0057797999999998,0,sub_12
0.0045937999999998,0.0294276000000012,0.0061352,0.0067964000000003,-0.004113399999999,-0.0078775999999998,0,sub_12
0.0067121999999998,0.0276128000000012,0.0064518,0.0106352000000003,-0.006038399999999,-0.0093439999999998,0,sub_12
0.0059357999999998,0.0262600000000012,0.0054338,0.0114860000000003,-0.008377999999999,-0.0110441999999998,0,sub_12
0.0033595999999998,0.0251242000000012,0.0040504,0.0116936000000003,-0.011347399999999,-0.0138089999999998,0,sub_12
0.0002869999999998,0.0249062000000012,0.002953,0.0114744000000003,-0.014103199999999,-0.0163633999999998,0,sub_12
-0.0037280000000001,0.0246094000000012,0.0016134,0.0114678000000003,-0.015799599999999,-0.0176357999999998,0,sub_12
-0.0044032000000001,0.0241310000000012,0.0015592,0.0108200000000003,-0.016221399999999,-0.0174185999999998,0,sub_12
-0.0026968000000001,0.0228576000000012,0.0026124,0.0095300000000003,-0.014520799999999,-0.0146449999999998,0,sub_12
0.0005599999999998,0.0212648000000012,0.004079,0.0075972000000003,-0.010917799999999,-0.0082537999999998,0,sub_12
0.0046701999999998,0.0193568000000012,0.0055524,0.0048004000000003,-0.006896799999999,0.0009082000000001,0,sub_12
0.0089553999999998,0.0186982000000012,0.0063708,-0.0018333999999996,-0.001161399999999,0.0108958000000001,0,sub_12
0.0092419999999998,0.0200422000000012,0.0072542,-0.0090899999999996,0.0069234000000009,0.0204594000000001,0,sub_12
0.0066515999999998,0.0233796000000012,0.007201,-0.0148481999999996,0.0133098000000009,0.0272582000000001,0,sub_12
0.0031497999999998,0.0273550000000012,0.0060602,-0.0184717999999996,0.0145968000000009,0.0287374000000001,0,sub_12
-0.0016856000000001,0.0305920000000012,0.0054162,-0.0186661999999996,0.0135512000000009,0.0244752000000001,0,sub_12
-0.0044298000000001,0.0326050000000012,0.0048904,-0.0141517999999996,0.0105922000000009,0.0151208000000001,0,sub_12
-0.0045538000000001,0.0331220000000012,0.0045466,-0.0062283999999996,0.0046486000000009,0.0027924000000001,0,sub_12
-0.0016936000000001,0.0308368000000012,0.004996,0.0036164000000003,-0.000876599999999,-0.0093093999999998,0,sub_12
0.0024565999999997,0.0281640000000012,0.0065744,0.0117596000000003,-0.003427999999999,-0.0177847999999998,0,sub_12
0.0073815999999997,0.0253250000000012,0.0075328,0.0166880000000003,-0.003646599999999,-0.0207309999999998,0,sub_12
0.0106525999999997,0.0228308000000012,0.0086268,0.0188164000000003,-0.003666399999999,-0.0177149999999998,0,sub_12
0.0121333999999997,0.0207858000000012,0.0083294,0.0175100000000003,-0.003692999999999,-0.0100227999999998,0,sub_12
0.0083565999999998,0.0210518000000012,0.0073142,0.0108626000000003,-0.002645999999999,0.0001946000000001,0,sub_12
0.0031001999999998,0.0222522000000012,0.0053744,0.0016560000000003,0.0005410000000009,0.0103812000000001,0,sub_12
-0.0026648000000001,0.0249612000000012,0.0029454,-0.0066857999999996,0.0028864000000009,0.0171566000000001,0,sub_12
-0.0072454000000001,0.0279376000000012,0.0012812,-0.0118143999999996,0.0031096000000009,0.0190434000000001,0,sub_12
-0.0099300000000001,0.0298126000000012,0.0007566,-0.0115923999999996,0.0026920000000008,0.0166954000000001,0,sub_12
-0.0079188000000001,0.0290300000000012,0.000704,-0.0066589999999996,0.0020530000000008,0.0118264000000001,0,sub_12
-0.0035226000000001,0.0262366000000012,0.0010668,-0.0002309999999996,0.0007730000000008,0.0061140000000001,0,sub_12
0.0012485999999998,0.0236210000000012,0.0017166,0.0034204000000003,0.0009854000000009,0.0025168000000001,0,sub_12
0.0042801999999998,0.0216548000000012,0.0024434,0.0032254000000003,0.0026916000000009,0.0016682000000001,0,sub_12
0.0056703999999998,0.0214714000000012,0.0034418,-0.0003893999999996,0.0052536000000008,0.0029310000000001,0,sub_12
0.0054235999999998,0.0229040000000012,0.0045136,-0.0050777999999996,0.0076094000000008,0.0039634000000001,0,sub_12
0.0044785999999998,0.0257896000000012,0.0055662,-0.0069941999999996,0.0088926000000008,0.0043756000000001,0,sub_12
0.0032857999999998,0.0286564000000012,0.0070166,-0.0052867999999996,0.0086874000000008,0.0031286000000001,0,sub_12
0.0028247999999998,0.0308876000000012,0.008424,-0.0010333999999996,0.0063384000000008,0.0029704000000001,0,sub_12
0.0036277999999998,0.0315838000000012,0.0090072,0.0034188000000003,0.0024904000000008,0.0045246000000001,0,sub_12
0.0061261999999998,0.0306804000000012,0.0087132,0.0063708000000003,-0.001994999999999,0.0069236000000001,0,sub_12
0.0069115999999998,0.0296088000000012,0.0084624,0.0074062000000003,-0.005621399999999,0.0093084000000001,0,sub_12
0.0078687999999998,0.0276580000000012,0.0081436,0.0078128000000003,-0.008611599999999,0.0108106000000001,0,sub_12
0.0073359999999998,0.0254806000000012,0.005256,0.0086720000000003,-0.008821599999999,0.0093212000000001,0,sub_12
0.0056801999999998,0.0230752000000012,0.0024038,0.0089170000000003,-0.006672199999999,0.0044064000000001,0,sub_12
0.0022951999999998,0.0212940000000012,0.0004304,0.0095984000000003,-0.003030399999999,-0.0011481999999998,0,sub_12
-0.0017992000000001,0.0199752000000012,-0.0013131999999999,0.0092040000000003,0.0006316000000009,-0.0064811999999998,0,sub_12
-0.0058770000000001,0.0194586000000012,-0.0025907999999999,0.0073062000000003,0.0042902000000009,-0.0096881999999998,0,sub_12
-0.0068378000000001,0.0215080000000012,-0.0009013999999999,0.0032574000000003,0.0066678000000009,-0.0103447999999998,0,sub_12
-0.0061956000000001,0.0240920000000012,0.001225,-0.0008141999999995,0.0069028000000009,-0.0080077999999998,0,sub_12
-0.0040410000000001,0.0267730000000012,0.0033458,-0.0034075999999995,0.0049972000000009,-0.0043759999999998,0,sub_12
0.0005055999999998,0.0280156000000012,0.0054446,-0.0040763999999995,0.0020030000000009,-0.0009585999999998,0,sub_12
0.0049901999999998,0.0286484000000012,0.0074854,-0.0038849999999995,-0.000563799999999,0.0013960000000001,0,sub_12
0.0065067999999998,0.0270996000000012,0.007896,-0.0030457999999995,-0.002277199999999,0.0028996000000001,0,sub_12
0.0063103999999998,0.0252978000000012,0.0075582,-0.0026255999999996,-0.002277199999999,0.0035480000000001,0,sub_12
0.0055587999999998,0.0245094000000012,0.0066266,-0.0024099999999996,-0.000995799999999,0.0035524000000001,0,sub_12
0.0038555999999997,0.0248090000000012,0.0058368,-0.0011267999999996,7.060000000093313e-05,0.0031372000000001,0,sub_12
0.0027579999999998,0.0252612000000012,0.0044328,0.0016464000000003,-0.000356999999999,0.0020936000000001,0,sub_12
0.0029391999999998,0.0258966000000012,0.0045392,0.0042072000000003,-0.000995199999999,0.0006212000000001,0,sub_12
0.0033481999999997,0.0266788000000012,0.0043308,0.0063468000000003,-0.001421999999999,-0.0010725999999998,0,sub_12
0.0031437999999997,0.0269144000000012,0.0047466,0.0065640000000003,-0.002055999999999,-0.0025655999999998,0,sub_12
0.0018469999999998,0.0267384000000012,0.0043164,0.0042180000000003,-0.002683399999999,-0.0034357999999998,0,sub_12
-0.0002298000000001,0.0262392000000012,0.003983,0.0014388000000003,-0.002885399999999,-0.0034653999999998,0,sub_12
-0.0016084000000001,0.0251214000000012,0.0027398,-0.0002763999999996,-0.003518199999999,-0.0032731999999998,0,sub_12
-0.0024314000000001,0.0239992000000012,0.0024736,-0.0004969999999996,-0.004155199999999,-0.0032841999999997,0,sub_12
-0.0024048000000001,0.0230620000000012,0.0019448,-0.0002869999999996,-0.004153599999999,-0.0035067999999997,0,sub_12
-0.0013604000000001,0.0222658000000012,0.0025376,0.0001382000000003,-0.002877999999999,-0.0028747999999998,0,sub_12
0.0009111999999997,0.0226444000000012,0.0030032,-0.0004951999999996,-0.000959999999999,-0.0024543999999998,0,sub_12
0.0017439999999997,0.0232708000000012,0.0034414,-0.0026191999999996,0.0018146000000009,-0.0018317999999998,0,sub_12
0.0021623999999997,0.0242622000000012,0.004713,-0.0041121999999996,0.0032960000000008,-0.0003661999999998,0,sub_12
0.0021277999999997,0.0249212000000012,0.0055688,-0.0049697999999996,0.0039222000000008,0.0013186000000001,0,sub_12
0.0022285999999998,0.0252090000000012,0.0058812,-0.0058243999999996,0.0043388000000008,0.0021492000000001,0,sub_12
0.0020109999999998,0.0249378000000012,0.0062078,-0.0053959999999996,0.0051778000000008,0.0027746000000001,0,sub_12
0.0029215999999998,0.0251064000000012,0.0066094,-0.0024149999999996,0.0045158000000008,0.0036332000000001,0,sub_12
0.0039447999999998,0.0248982000000012,0.006035,-0.0004955999999996,0.0047204000000008,0.0040736000000001,0,sub_12
0.0048987999999998,0.0243044000000012,0.0047082,-6.89999999996231e-05,0.0055676000000008,0.0049300000000001,0,sub_12
0.0038185999999998,0.0249260000000012,0.0043144,-0.0007139999999996,0.0055656000000008,0.0059936000000001,0,sub_12
0.0007527999999998,0.0262496000000012,0.0044512,-0.0022161999999996,0.0049266000000008,0.0072658000000001,0,sub_12
-0.0024612000000001,0.0266940000000012,0.0033924,-0.0047863999999996,0.0057856000000008,0.0072296000000001,0,sub_12
