userAcceleration.x,userAcceleration.y,userAcceleration.z,rotationRate.x,rotationRate.y,rotationRate.z,label,subject
0.0006777999999998,-0.0012171999999987,-0.0051801999999998,0.0049198000000003,0.0003212000000008,0.0078366000000001,0,sub_14
0.0010287999999998,-0.0004827999999987,-0.0053569999999998,0.0044940000000003,0.0003236000000008,0.0076200000000001,0,sub_14
0.0016657999999997,0.0003602000000012,-0.0047839999999998,0.0038568000000003,0.0003284000000008,0.0069746000000001,0,sub_14
0.0022285999999997,0.0010466000000012,-0.0051593999999998,0.0025788000000003,-9.419999999911236e-05,0.0063218000000001,0,sub_14
0.0029739999999998,0.0016814000000012,-0.0051207999999998,0.0008720000000003,-0.0007291999999991,0.0058800000000001,0,sub_14
0.0032615999999998,0.0013454000000012,-0.0053667999999999,-0.0012585999999996,-0.0013599999999991,0.0047942000000001,0,sub_14
0.0035777999999998,0.0006208000000012,-0.0049171999999999,-0.0025355999999996,-0.0017817999999991,0.0039278000000001,0,sub_14
0.0026765999999998,-0.0001607999999987,-0.0051263999999999,-0.0038125999999996,-0.0017789999999991,0.0034882000000001,0,sub_14
0.0017731999999998,-0.0012191999999987,-0.0050485999999999,-0.0040229999999996,-0.0015635999999991,0.0030592000000001,0,sub_14
0.0011797999999998,-0.0025915999999987,-0.0045373999999999,-0.0031655999999996,-0.0011387999999991,0.0026374000000001,0,sub_14
0.0005241999999998,-0.0031615999999987,-0.0043187999999999,-0.0012457999999996,-0.0007237999999991,0.0024336000000001,0,sub_14
0.0004407999999998,-0.0036445999999987,-0.0046083999999999,0.0008892000000003,0.0003288000000008,0.0024442000000001,0,sub_14
0.0010297999999998,-0.0038555999999987,-0.0044667999999999,0.0030222000000003,0.0013796000000008,0.0028820000000001,0,sub_14
0.0013253999999998,-0.0032341999999987,-0.0043999999999999,0.0045112000000003,0.0020050000000008,0.0037432000000001,0,sub_14
0.0017011999999998,-0.0024757999999986,-0.0050425999999999,0.0049306000000003,0.0024192000000008,0.0050244000000001,0,sub_14
0.0020693999999998,-0.0020301999999986,-0.0051021999999999,0.0047104000000003,0.0024140000000008,0.0065184000000001,0,sub_14
0.0021201999999998,-0.0011537999999986,-0.0050037999999999,0.0044902000000003,0.0021966000000008,0.0077990000000001,0,sub_14
0.0018751999999998,0.0001232000000013,-0.0054217999999999,0.0040598000000003,0.0017704000000008,0.0082238000000001,0,sub_14
0.0017261999999998,0.0005198000000012,-0.0055591999999999,0.0034206000000003,0.0015614000000008,0.0077924000000001,0,sub_14
0.0012659999999998,0.0005352000000012,-0.0053639999999999,0.0034266000000003,0.0011360000000008,0.0062936000000001,0,sub_14
0.0013557999999998,0.0010040000000012,-0.0048831999999999,0.0036480000000003,0.0011360000000008,0.0047956000000001,0,sub_14
0.0016755999999998,0.0014786000000012,-0.0051429999999999,0.0030140000000003,0.0005006000000008,0.0030790000000001,0,sub_14
0.0017185999999998,0.0006538000000012,-0.0051129999999999,0.0019512000000003,7.72000000008877e-05,0.0020000000000001,0,sub_14
0.0021925999999998,0.0006354000000012,-0.0050887999999999,0.0008886000000003,7.820000000088772e-05,0.0013476000000001,0,sub_14
0.0030269999999998,0.0012448000000012,-0.0045193999999999,-0.0008143999999996,0.0005120000000008,0.0009078000000001,0,sub_14
0.0030393999999998,0.0014938000000012,-0.0047923999999999,-0.0025183999999996,0.0005204000000008,0.0002550000000001,0,sub_14
0.0018673999999998,0.0006028000000012,-0.0047747999999999,-0.0037965999999996,0.0007388000000008,3.2000000000151414e-05,0,sub_14
0.0010077999999998,0.0013866000000012,-0.0043601999999999,-0.0029383999999996,0.0011552000000008,0.0002420000000001,0,sub_14
0.0004559999999998,0.0005162000000012,-0.0048963999999999,-0.0025041999999996,0.0011514000000008,-0.0006185999999998,0,sub_14
-0.0002752000000001,-0.0013605999999987,-0.0055607999999999,-0.0024929999999996,0.0017892000000008,-0.0016965999999998,0,sub_14
-0.0009832000000001,-0.0026305999999987,-0.0055053999999999,-0.0020549999999996,0.0024254000000008,-0.0027717999999998,0,sub_14
-0.0002466000000001,-0.0028311999999987,-0.0047583999999999,-0.0007635999999996,0.0028464000000008,-0.0040541999999998,0,sub_14
0.0013471999999998,-0.0033535999999987,-0.0054049999999999,-0.0007521999999996,0.0034934000000008,-0.0059777999999998,0,sub_14
0.0021789999999998,-0.0026895999999987,-0.0051475999999999,-0.0001081999999996,0.0039190000000008,-0.0064011999999998,0,sub_14
0.0030693999999998,-0.0003293999999987,-0.0045731999999999,0.0007386000000003,0.0028490000000008,-0.0059667999999998,0,sub_14
0.0036593999999998,0.0014334000000012,-0.0047157999999999,-0.0003395999999996,0.0022064000000008,-0.0051389999999998,0,sub_14
0.0039851999999998,0.0020344000000012,-0.0053519999999999,-0.0020557999999996,0.0019922000000008,-0.0043163999999998,0,sub_14
0.0035437999999998,0.0015918000000012,-0.0053115999999999,-0.0035625999999996,0.0011370000000008,-0.0032777999999998,0,sub_14
0.0030657999999998,0.0011698000000012,-0.0047873999999998,-0.0057037999999996,0.0007136000000008,-0.0030985999999998,0,sub_14
0.0017337999999998,-0.0002589999999987,-0.0049979999999999,-0.0072039999999996,0.0005012000000008,-0.0029151999999998,0,sub_14
0.0015135999999998,-0.0018901999999987,-0.0045815999999999,-0.0078459999999996,0.0002896000000008,-0.0027057999999998,0,sub_14
0.0005933999999998,-0.0024983999999987,-0.0046131999999999,-0.0072069999999996,-0.0001379999999991,-0.0029143999999998,0,sub_14
0.0003107999999998,-0.0024453999999987,-0.0046501999999999,-0.0061363999999996,-0.0001381999999991,-0.0037613999999998,0,sub_14
0.0001885999999998,-0.0025813999999987,-0.0048571999999999,-0.0042145999999996,-0.0001433999999991,-0.0044103999999998,0,sub_14
0.0006575999999998,-0.0023341999999987,-0.0047581999999999,-0.0025059999999996,-0.0001479999999991,-0.0050607999999998,0,sub_14
0.0008641999999998,-0.0016315999999987,-0.0048593999999999,-0.0005831999999996,0.0002720000000008,-0.0054963999999998,0,sub_14
0.0018365999999997,-0.0012639999999987,-0.0046115999999999,-0.0003719999999996,0.0004814000000008,-0.0050891999999998,0,sub_14
0.0022283999999997,-0.0011415999999987,-0.0043455999999999,-0.0005913999999996,0.0004766000000008,-0.0040437999999998,0,sub_14
0.0020115999999997,-0.0003981999999987,-0.0040623999999999,-0.0014543999999996,0.0002588000000008,-0.0021265999999998,0,sub_14
0.0019969999999998,-6.959999999874269e-05,-0.0041727999999999,-0.0025259999999996,0.0006826000000008,-0.0006389999999998,0,sub_14
0.0017331999999998,0.0002382000000012,-0.0045681999999999,-0.0031709999999996,0.0002560000000009,-2.1999999998086486e-06,0,sub_14
0.0011821999999998,0.0006502000000012,-0.0054275999999999,-0.0029685999999996,-0.000174799999999,-2.679999999980866e-05,0,sub_14
0.0009249999999998,0.0011340000000012,-0.0057517999999999,-0.0025497999999996,-0.000391599999999,-0.0004775999999998,0,sub_14
0.0008497999999998,0.0009540000000012,-0.0064319999999999,-0.0017003999999996,-0.000818799999999,-0.0019933999999997,0,sub_14
0.0008703999999998,0.0005436000000012,-0.0064539999999999,-0.0008539999999996,-0.001248599999999,-0.0028681999999997,0,sub_14
0.0008227999999998,-0.0001089999999987,-0.0065691999999999,-0.0006513999999996,-0.001679399999999,-0.0028927999999998,0,sub_14
0.0013369999999998,-0.0008767999999987,-0.0056529999999999,-0.0015037999999996,-0.001463399999999,-0.0028991999999998,0,sub_14
0.0018319999999998,-0.0011841999999987,-0.0048023999999999,-0.0023573999999996,-0.001248199999999,-0.0026917999999998,0,sub_14
0.0025347999999998,-0.0019915999999986,-0.0039577999999999,-0.0027871999999996,-0.0010369999999991,-0.0018403999999998,0,sub_14
0.0026967999999998,-0.0018053999999986,-0.0040663999999999,-0.0027941999999996,-0.0010427999999991,-0.0014335999999998,0,sub_14
0.0029917999999998,-0.0015119999999987,-0.0036109999999999,-0.0023677999999996,-0.0001953999999991,-0.0016657999999998,0,sub_14
0.0029219999999998,-0.0005415999999987,-0.0037231999999999,-0.0017337999999996,9.60000000088748e-06,-0.0012547999999998,0,sub_14
0.0024515999999998,-0.0002679999999987,-0.0044747999999999,-0.0013129999999996,3.0000000008874814e-06,-0.0010587999999998,0,sub_14
0.0020909999999998,0.0007628000000012,-0.0050249999999999,-0.0011045999999996,0.0004224000000008,-0.0006511999999998,0,sub_14
0.0019121999999998,0.0006628000000012,-0.0056361999999999,-0.0015303999999996,0.0006370000000008,-0.0006545999999998,0,sub_14
0.0019209999999998,0.0008728000000012,-0.0058499999999999,-0.0019609999999996,0.0004228000000008,-1.6399999999828834e-05,0,sub_14
0.0018783999999998,0.0002690000000012,-0.0057417999999999,-0.0021723999999996,0.0002130000000008,-0.0006585999999998,0,sub_14
0.0023451999999998,0.0002388000000012,-0.0055069999999999,-0.0021715999999996,-6.399999999112541e-06,-0.0010901999999998,0,sub_14
0.0021559999999998,-0.0004431999999987,-0.0047993999999998,-0.0015315999999996,-0.0006533999999991,-0.0017303999999998,0,sub_14
0.0023467999999998,0.0003906000000012,-0.0032417999999998,0.0010306000000003,-0.0004565999999991,-0.0019309999999998,0,sub_14
0.0023369999999998,0.0006322000000012,-0.0032873999999998,0.0021032000000003,-0.000463399999999,-0.0032099999999998,0,sub_14
0.0023091999999998,0.0005614000000012,-0.0042229999999998,0.0018944000000003,-4.219999999909253e-05,-0.0038573999999998,0,sub_14
0.0015731999999998,-0.0001839999999987,-0.0041163999999998,0.0006180000000003,0.0006022000000008,-0.0040807999999998,0,sub_14
0.0015781999999998,-0.0005147999999987,-0.0039383999999999,-0.0004479999999996,0.0010312000000008,-0.0038751999999998,0,sub_14
0.0018403999999998,-0.0022857999999987,-0.0042917999999999,-0.0025797999999996,0.0016770000000008,-0.0036771999999998,0,sub_14
0.0020555999999998,-0.0029067999999987,-0.0048071999999999,-0.0027923999999996,0.0025274000000008,-0.0030387999999998,0,sub_14
0.0022607999999998,-0.0026599999999987,-0.0048047999999999,-0.0019313999999996,0.0025154000000008,-0.0023861999999998,0,sub_14
0.0028445999999998,-0.0014201999999987,-0.0050651999999999,-0.0008551999999996,0.0020798000000008,-0.0025859999999998,0,sub_14
0.0029821999999998,-0.0003687999999987,-0.0057275999999999,-0.0006285999999996,0.0020750000000008,-0.0032195999999997,0,sub_14
0.0024935999999998,0.0007256000000012,-0.0065367999999999,-0.0008335999999996,0.0010064000000009,-0.0038549999999997,0,sub_14
0.0020489999999998,0.0006248000000012,-0.0062081999999999,-0.0018927999999996,0.0001522000000009,-0.0040693999999998,0,sub_14
0.0015037999999998,0.0003916000000012,-0.0055233999999999,-0.0029643999999996,-0.000272799999999,-0.0034353999999998,0,sub_14
0.0006913999999998,-0.0005519999999987,-0.0054109999999999,-0.0038101999999996,-0.000277599999999,-0.0025769999999998,0,sub_14
0.0004397999999998,-0.0015711999999987,-0.0052747999999999,-0.0038033999999996,-7.419999999909248e-05,-0.0012855999999998,0,sub_14
0.0005335999999998,-0.0017093999999987,-0.0048555999999999,-0.0033679999999996,0.0001294000000008,-0.0004183999999998,0,sub_14
0.0005793999999998,-0.0016939999999987,-0.0048759999999999,-0.0020781999999996,0.0001188000000008,2.7800000000150966e-05,0,sub_14
0.0006647999999998,-0.0016847999999987,-0.0054025999999999,-0.0007827999999996,0.0005376000000008,-0.0003811999999998,0,sub_14
0.0016615999999998,-0.0010487999999987,-0.0052017999999999,0.0007098000000003,0.0003192000000008,-0.0003703999999998,0,sub_14
0.0020259999999998,-0.0001051999999987,-0.0053407999999999,0.0013498000000003,-0.0001073999999991,-0.0007925999999998,0,sub_14
0.0019099999999998,-3.8399999998702906e-05,-0.0052887999999999,0.0011364000000003,-0.0001065999999991,-0.0007939999999998,0,sub_14
0.0017989999999998,0.0003418000000012,-0.0054501999999998,0.0002790000000003,-0.0001069999999991,5.460000000017092e-05,0,sub_14
0.0021881999999998,0.0005686000000012,-0.0052485999999999,-0.0007815999999996,-0.0005335999999991,0.0009134000000001,0,sub_14
0.0018703999999998,0.0003268000000012,-0.0050143999999998,-0.0011963999999996,-0.0005329999999991,0.0009216000000001,0,sub_14
0.0017333999999998,-2.779999999872292e-05,-0.0050891999999998,-0.0013957999999996,-0.0005313999999991,0.0005040000000001,0,sub_14
0.0016747999999998,6.300000000127707e-05,-0.0051551999999998,-0.0007417999999996,-0.0007451999999991,-0.0001209999999998,0,sub_14
0.0019081999999998,0.0002448000000012,-0.0050599999999999,-0.0005125999999996,-0.000955799999999,-0.0011761999999998,0,sub_14
0.0017909999999998,0.0003906000000012,-0.0049573999999999,-0.0002961999999996,-0.000953999999999,-0.0018155999999998,0,sub_14
0.0017565999999998,0.0001376000000012,-0.0050417999999999,-0.0009361999999996,-0.0007395999999991,-0.0016065999999998,0,sub_14
0.0019647999999998,-0.0002785999999987,-0.0049003999999999,-0.0013629999999996,-0.0005259999999991,-0.0013961999999998,0,sub_14
0.0025999999999998,-0.0005869999999987,-0.0048097999999999,-0.0022061999999996,-0.0003117999999991,-0.0009655999999998,0,sub_14
0.0026841999999997,-0.0009485999999987,-0.0047951999999999,-0.0019825999999996,-0.0001011999999991,-0.0005273999999998,0,sub_14
0.0025491999999997,-0.0014829999999987,-0.0046943999999999,-0.0011189999999996,-0.0001051999999991,-0.0002981999999998,0,sub_14
0.0023333999999997,-0.0011861999999987,-0.0051895999999999,-0.0002523999999996,0.0001056000000008,-0.0004965999999998,0,sub_14
0.0024935999999997,-0.0003009999999987,-0.0052837999999999,0.0003990000000003,0.0003154000000008,-0.0002689999999998,0,sub_14
0.0022247999999997,0.0002324000000012,-0.0051495999999999,0.0008228000000003,9.920000000088751e-05,0.0001616000000001,0,sub_14
0.0019361999999998,0.0006098000000012,-0.0049571999999999,0.0010342000000003,9.660000000088756e-05,0.0005902000000001,0,sub_14
0.0018001999999998,0.0011956000000012,-0.0048427999999999,0.0008208000000003,0.0003094000000008,0.0008022000000001,0,sub_14
0.0017095999999998,0.0008146000000012,-0.0044881999999999,0.0001868000000003,9.560000000088756e-05,0.0010248000000001,0,sub_14
0.0013833999999998,0.0002426000000012,-0.0045999999999999,-0.0004481999999996,-0.000118999999999,0.0014610000000001,0,sub_14
0.0009545999999998,5.480000000125712e-05,-0.0044339999999999,-0.0004389999999996,9.200000000088751e-05,0.0014740000000001,0,sub_14
0.0019257999999998,-0.0005153999999987,-0.0042957999999999,-0.0004269999999996,9.340000000088752e-05,0.0006328000000001,0,sub_14
0.0022483999999998,-0.0012955999999987,-0.0041141999999999,9.800000000350412e-06,9.160000000088752e-05,0.0002216000000001,0,sub_14
0.0020223999999998,-0.0013767999999987,-0.0040239999999999,0.0029990000000003,0.0005074000000008,0.0002420000000001,0,sub_14
0.0025401999999998,-0.0010815999999987,-0.0048403999999999,0.0047128000000003,0.0007196000000008,-0.0010281999999998,0,sub_14
0.0032045999999998,-0.0013893999999987,-0.0064231999999999,0.0036546000000003,0.0013676000000008,-0.0023183999999997,0,sub_14
0.0030401999999998,-0.0017017999999987,-0.0068621999999999,0.0019624000000003,0.0017994000000008,-0.0029573999999998,0,sub_14
0.0024597999999998,-0.0016647999999987,-0.0061119999999999,0.0013342000000003,0.0018004000000008,-0.0033747999999998,0,sub_14
0.0028879999999998,-0.0018521999999987,-0.0057169999999999,-0.0003617999999996,0.0020164000000008,-0.0033725999999998,0,sub_14
0.0025141999999998,-0.0025431999999987,-0.0053979999999999,-0.0012051999999996,0.0026532000000008,-0.0027239999999998,0,sub_14
0.0026403999999998,-0.0018199999999987,-0.0043517999999999,-0.0003445999999996,0.0024326000000008,-0.0022759999999998,0,sub_14
0.0020101999999998,-0.0006633999999987,-0.0041663999999999,0.0002918000000003,0.0022148000000008,-0.0016303999999998,0,sub_14
0.0028813999999998,0.0001430000000012,-0.0047289999999999,-0.0003471999999996,0.0024302000000008,-0.0016349999999998,0,sub_14
0.0029371999999998,0.0005146000000012,-0.0057923999999999,-0.0016207999999996,0.0017956000000008,-0.0020603999999998,0,sub_14
0.0027687999999998,0.0007930000000012,-0.0056615999999999,-0.0026857999999996,0.0005192000000008,-0.0020561999999998,0,sub_14
0.0022285999999998,5.620000000127719e-05,-0.0057683999999999,-0.0026819999999996,-0.0001225999999991,-0.0018317999999998,0,sub_14
0.0021559999999998,-0.0010485999999987,-0.0058143999999999,-0.0020351999999996,-0.0003397999999991,-0.0018169999999998,0,sub_14
0.0015285999999998,-0.0018591999999987,-0.0061891999999999,-0.0011779999999996,-0.0003479999999991,-0.0009463999999998,0,sub_14
0.0011523999999998,-0.0018713999999987,-0.0055853999999999,-0.0005425999999996,-0.0005667999999991,-8.71999999998289e-05,0,sub_14
0.0013473999999998,-0.0017531999999987,-0.0053961999999999,-0.0001167999999996,6.740000000086751e-05,0.0007696000000001,0,sub_14
0.0011835999999998,-0.0016529999999987,-0.0057803999999999,-0.0005453999999996,0.0002794000000008,0.0014074000000001,0,sub_14
0.0013557999999998,-0.0011403999999987,-0.0057713999999999,-0.0005411999999996,0.0002770000000008,0.0020564000000001,0,sub_14
0.0015717999999998,-0.0005117999999987,-0.0057203999999999,-0.0001093999999996,-0.0003627999999991,0.0018546000000001,0,sub_14
0.0015611999999998,-0.0001395999999987,-0.0062031999999999,0.0005396000000003,-0.0003631999999991,0.0014400000000001,0,sub_14
0.0015765999999998,-6.179999999874282e-05,-0.0061885999999999,0.0007600000000003,-0.000788199999999,0.0010228000000001,0,sub_14
0.0020713999999998,-0.0002241999999987,-0.0054841999999999,0.0016204000000003,-0.001215599999999,0.0006100000000001,0,sub_14
0.0020771999999998,-7.75999999987428e-05,-0.0052065999999999,0.0018328000000003,-0.001429399999999,0.0006118000000001,0,sub_14
0.0019161999999998,-0.0002211999999987,-0.0052143999999999,0.0009784000000003,-0.001214999999999,0.0010328000000001,0,sub_14
0.0023925999999998,-0.0005563999999987,-0.0050467999999999,-9.03999999996497e-05,-0.001212999999999,0.0014526000000001,0,sub_14
0.0025313999999998,-0.0005325999999987,-0.0051773999999999,-0.0003037999999996,-0.001212199999999,0.0014512000000001,0,sub_14
0.0019053999999998,-4.099999999872283e-05,-0.0053433999999999,-0.0009381999999996,-0.000784599999999,0.0016646000000001,0,sub_14
0.0022403999999998,-3.2799999998722835e-05,-0.0053717999999999,-0.0009315999999996,-0.000782999999999,0.0012420000000001,0,sub_14
0.0025265999999998,-7.019999999870283e-05,-0.0055143999999999,-0.0004971999999996,-0.000569799999999,0.0008222000000001,0,sub_14
0.0023959999999998,-0.0001275999999986,-0.0051907999999999,0.0001524000000003,-0.000355599999999,-2.339999999982885e-05,0,sub_14
0.0023911999999998,-0.0005615999999986,-0.0048171999999999,0.0003714000000003,-0.000355599999999,-0.0002309999999998,0,sub_14
0.0026837999999998,-0.0005043999999986,-0.0050123999999999,0.0005858000000003,-0.000355599999999,-0.0004431999999998,0,sub_14
0.0023365999999998,-0.0008103999999986,-0.0052327999999999,0.0007982000000003,-0.000357199999999,-0.0002281999999998,0,sub_14
0.0020165999999998,-0.0004999999999986,-0.0054957999999999,0.0010096000000003,-0.000571799999999,-1.2799999999828834e-05,0,sub_14
0.0015149999999998,1.5600000001297173e-05,-0.0058093999999999,0.0005790000000003,-0.000785999999999,0.0006254000000001,0,sub_14
0.0006449999999998,0.0004690000000012,-0.0057643999999999,0.0003626000000003,-0.000577199999999,0.0014826000000001,0,sub_14
0.0003891999999998,0.0004726000000012,-0.0056791999999999,0.0001452000000003,-0.000581399999999,0.0023402000000001,0,sub_14
0.0001857999999998,0.0006744000000012,-0.0052091999999999,-0.0002825999999996,-0.0003701999999991,0.0027688000000001,0,sub_14
0.0004261999999998,0.0003816000000012,-0.0048437999999999,-0.0002815999999996,-0.0001587999999991,0.0027730000000001,0,sub_14
0.0013263999999998,-0.0005163999999987,-0.0047617999999999,0.0003624000000003,0.0002652000000008,0.0023540000000001,0,sub_14
0.0020939999999998,-0.0007131999999987,-0.0047339999999998,0.0010064000000003,5.420000000088748e-05,0.0012906000000001,0,sub_14
0.0027265999999997,-0.0009237999999987,-0.0048453999999998,0.0018660000000003,-0.0001623999999991,2.300000000019101e-05,0,sub_14
0.0031903999999997,-0.0006839999999987,-0.0049449999999998,0.0020806000000003,-0.0005931999999991,-0.0003941999999998,0,sub_14
0.0033373999999997,-0.0007355999999987,-0.0050725999999998,0.0016570000000003,-0.0003833999999991,-0.0006029999999998,0,sub_14
0.0032791999999997,-0.0004589999999986,-0.0048669999999998,0.0008028000000003,-0.0003877999999991,-0.0001733999999998,0,sub_14
0.0026963999999997,-0.0006631999999986,-0.0048211999999999,-5.1199999999669655e-05,-0.0001799999999991,0.0004694000000001,0,sub_14
0.0022541999999998,-0.0010813999999986,-0.0047045999999999,-0.0004807999999996,0.0002434000000008,0.0015342000000001,0,sub_14
0.0017617999999998,-0.0018115999999986,-0.0046237999999999,-0.0002663999999996,0.0008802000000008,0.0019622000000001,0,sub_14
0.0011633999999998,-0.0019515999999987,-0.0045073999999999,0.0005842000000003,0.0008746000000008,0.0026090000000001,0,sub_14
0.0006281999999998,-0.0019589999999987,-0.0047749999999999,0.0020730000000003,0.0006530000000008,0.0034742000000001,0,sub_14
0.0005583999999998,-0.0018549999999987,-0.0049465999999999,0.0031426000000003,0.0010716000000008,0.0036990000000001,0,sub_14
0.0002151999999998,-0.0016723999999987,-0.0048377999999999,0.0037826000000003,0.0010646000000008,0.0041350000000001,0,sub_14
-0.0005364000000001,-0.0010089999999987,-0.0045861999999999,0.0054876000000003,0.0012646000000008,0.0052192000000001,0,sub_14
-0.0009300000000001,0.0003298000000012,-0.0038765999999999,0.0069840000000003,0.0012574000000008,0.0050202000000001,0,sub_14
-3.200000000015222e-05,0.0003380000000012,-0.0049979999999999,0.0057152000000003,0.0016918000000008,0.0033058000000001,0,sub_14
0.0004665999999998,0.0002348000000012,-0.0049985999999999,0.0040158000000003,0.0021290000000008,0.0020116000000001,0,sub_14
0.0005795999999998,9.120000000127728e-05,-0.0040855999999999,0.0027356000000003,0.0014970000000008,0.0013624000000001,0,sub_14
0.0013439999999998,-0.0002779999999987,-0.0043231999999999,0.0006038000000003,0.0010816000000008,0.0004934000000001,0,sub_14
0.0023515999999998,-0.0020917999999987,-0.0060005999999998,-0.0015273999999996,0.0015154000000008,0.0004782000000001,0,sub_14
0.0026025999999998,-0.0017935999999987,-0.0050659999999998,-0.0013191999999996,0.0010854000000008,0.0013350000000001,0,sub_14
0.0024921999999998,-0.0012877999999987,-0.0048573999999998,-0.0006851999999996,1.640000000086737e-05,0.0017682000000001,0,sub_14
0.0028011999999998,-0.0011507999999987,-0.0057147999999998,-0.0006827999999996,0.0004426000000008,0.0017680000000001,0,sub_14
0.0027149999999998,-0.0010125999999987,-0.0067221999999999,-0.0008937999999996,0.0004452000000008,0.0013394000000001,0,sub_14
0.0021691999999998,-0.0006655999999987,-0.0058051999999999,-0.0008977999999996,-0.0001947999999991,0.0015540000000001,0,sub_14
0.0011947999999998,-0.0011897999999987,-0.0054891999999999,-0.0013283999999996,-0.0001967999999991,0.0024056000000001,0,sub_14
0.0007011999999998,-0.0023967999999987,-0.0061287999999999,-0.0011191999999996,1.260000000088731e-05,0.0034740000000001,0,sub_14
0.0003605999999998,-0.0034283999999987,-0.0056153999999999,-0.0002687999999996,0.0002206000000008,0.0043332000000001,0,sub_14
-0.0001222000000001,-0.0033875999999987,-0.0048969999999999,0.0016484000000003,0.0002128000000008,0.0049866000000001,0,sub_14
-9.240000000015225e-05,-0.0024239999999987,-0.0052435999999999,0.0033580000000003,0.0004228000000008,0.0045698000000001,0,sub_14
0.0002051999999998,-0.0014069999999987,-0.0057675999999999,0.0052828000000003,0.0008462000000008,0.0039408000000001,0,sub_14
0.0009877999999998,0.0005210000000012,-0.0053349999999999,0.0059230000000003,0.0012682000000008,0.0043720000000001,0,sub_14
0.0018759999999998,0.0027702000000012,-0.0059231999999999,0.0052800000000003,0.0012680000000008,0.0050084000000001,0,sub_14
0.0031471999999998,0.0036616000000012,-0.0062253999999999,0.0027166000000003,0.0012744000000008,0.0056314000000001,0,sub_14
0.0036309999999998,0.0029872000000012,-0.0058043999999999,-0.0002781999999996,0.0004292000000008,0.0064662000000001,0,sub_14
0.0027811999999998,0.0025694000000012,-0.0053071999999999,-0.0030583999999996,-0.0006247999999991,0.0064444000000001,0,sub_14
0.0026181999999998,0.0013100000000012,-0.0051135999999999,-0.0039135999999996,-0.0014689999999991,0.0055814000000001,0,sub_14
0.0022811999999998,-0.0001169999999987,-0.0048995999999999,-0.0030579999999996,-0.0021037999999991,0.0040890000000001,0,sub_14
0.0020359999999998,-0.0016153999999987,-0.0049233999999999,-0.0015611999999996,-0.0025275999999991,0.0026008000000001,0,sub_14
0.0015371999999998,-0.0021863999999987,-0.0046789999999999,-6.359999999964975e-05,-0.0021017999999991,0.0017526000000001,0,sub_14
0.0019575999999998,-0.0032603999999987,-0.0046003999999999,0.0018576000000003,-0.0018955999999991,0.0017658000000001,0,sub_14
0.0011339999999998,-0.0034125999999987,-0.0045845999999999,0.0031358000000003,-0.0014773999999991,0.0026288000000001,0,sub_14
0.0005357999999998,-0.0032773999999987,-0.0051005999999999,0.0037686000000003,-0.0008455999999991,0.0039072000000001,0,sub_14
3.999999999827579e-06,-0.0024077999999987,-0.0051255999999999,0.0048272000000003,-3.999999999112526e-06,0.0056156000000001,0,sub_14
0.0002609999999998,-0.0015945999999987,-0.0057645999999999,0.0058848000000003,0.0004124000000008,0.0071108000000001,0,sub_14
0.0003679999999998,-0.0002165999999987,-0.0059567999999999,0.0058786000000003,0.0008352000000008,0.0079578000000001,0,sub_14
0.0010599999999998,0.0006808000000012,-0.0067741999999999,0.0054466000000003,0.0004114000000008,0.0077346000000001,0,sub_14
0.0014993999999998,0.0015104000000012,-0.0065781999999999,0.0048056000000003,-0.0002237999999991,0.0073038000000001,0,sub_14
