userAcceleration.x,userAcceleration.y,userAcceleration.z,rotationRate.x,rotationRate.y,rotationRate.z,label,subject
-0.0023632000000001,0.0106208000000012,0.0016294,-0.0168919999999996,0.0831476000000009,0.2471342,0,sub_6
0.0026965999999997,0.0118946000000012,-0.0052971999999999,-0.0037237999999996,0.1037726000000009,0.2344474,0,sub_6
0.0079281999999997,0.0099864000000012,-0.0026663999999999,0.0045050000000003,0.1148860000000009,0.218681,0,sub_6
0.0172075999999997,0.0139634000000012,-0.0050167999999999,0.0109550000000003,0.1106632000000009,0.2035628,0,sub_6
0.0260571999999997,0.0200716000000012,-0.0102297999999999,0.0143508000000003,0.0953566000000009,0.192283,0,sub_6
0.0232663999999997,0.0248300000000012,-0.0141577999999999,0.0121874000000004,0.0787860000000009,0.1822478,0,sub_6
0.0139683999999998,0.0248986000000012,-0.0137689999999998,0.0100028000000004,0.0447872000000009,0.1635812,0,sub_6
0.0035851999999998,0.0273138000000012,-0.0129351999999998,0.0161188000000004,0.0045868000000009,0.143485,0,sub_6
-0.0121314000000001,0.0233598000000012,-0.0096241999999998,0.0331914000000004,-0.017548199999999,0.1249378,0,sub_6
-0.0272436000000001,0.0153412000000012,-0.0081809999999998,0.0484194000000004,-0.021996399999999,0.1072096,0,sub_6
-0.0391726000000001,0.0173238000000012,-0.0081665999999998,0.0570032000000004,-0.034299399999999,0.0881632,0,sub_6
-0.0379008000000001,0.0139568000000012,-0.0068923999999999,0.0666126000000003,-0.046421599999999,0.074359,0,sub_6
-0.0343148000000001,0.0087404000000012,-0.0069393999999999,0.0675638000000003,-0.045276599999999,0.0536406000000001,0,sub_6
-0.0262926000000001,0.0061744000000012,-0.0090519999999999,0.0606530000000003,-0.038557799999999,0.0311510000000001,0,sub_6
-0.0172544000000001,0.0071174000000012,-0.0107133999999999,0.0571760000000004,-0.029504599999999,0.0122844,0,sub_6
-0.0068382000000001,-0.0007011999999987,-0.0116939999999999,0.0575292000000003,-0.016654399999999,-0.0003643999999999,0,sub_6
0.0033671999999998,0.0031332000000012,-0.0114763999999999,0.0561496000000004,-0.000850599999999,-0.0042697999999999,0,sub_6
0.0147569999999997,0.0055690000000012,-0.0088557999999999,0.0546952000000003,0.0104306000000009,0.0040078,0,sub_6
0.0200543999999997,0.0056554000000012,-0.0041167999999999,0.0480996000000003,0.0200142000000009,0.015029,0,sub_6
0.0200101999999997,0.0046598000000012,0.0030554,0.0378280000000003,0.0215090000000009,0.0230738,0,sub_6
0.0181517999999997,0.0039638000000012,0.0086314,0.0290356000000003,0.0155586000000009,0.0268656,0,sub_6
0.0150111999999997,0.0066344000000012,0.00927,0.0202576000000003,0.0087724000000009,0.0265994,0,sub_6
0.0126485999999997,0.0116082000000012,0.0072926,0.0146850000000003,0.0021914000000009,0.0255008,0,sub_6
0.0121429999999997,0.0166016000000012,0.0055564,0.0136070000000004,-0.005274399999999,0.0250024,0,sub_6
0.0108123999999997,0.0171846000000012,0.0041052,0.0159460000000003,-0.011264199999999,0.0253806,0,sub_6
0.0088011999999997,0.0151768000000012,0.002888,0.0198150000000003,-0.010648599999999,0.0242654,0,sub_6
0.0037799999999997,0.0100060000000012,0.0013264,0.0234764000000003,-0.010239399999999,0.0216536,0,sub_6
9.679999999979428e-05,0.0058212000000012,-0.0013119999999999,0.0267062000000003,-0.011742799999999,0.0181866,0,sub_6
-0.0032878000000002,0.0020960000000012,-0.0035215999999998,0.0286438000000003,-0.011734199999999,0.0143546,0,sub_6
-0.0044686000000001,0.0034670000000012,-0.0054615999999998,0.0286668000000003,-0.008742799999999,0.0122144,0,sub_6
-0.0050490000000001,0.0048970000000012,-0.0072559999999998,0.0267434000000003,-0.008101999999999,0.013482,0,sub_6
-0.0023272000000002,0.0083956000000012,-0.0082427999999998,0.0243328000000003,-0.005557799999999,0.0167076,0,sub_6
-0.0015002000000002,0.0104950000000012,-0.0066529999999998,0.0206420000000003,-0.003009199999999,0.0199244,0,sub_6
-0.0007648000000002,0.0124248000000012,-0.0055705999999998,0.0169590000000004,0.0008192000000009,0.0227122,0,sub_6
-0.0003064000000002,0.0112526000000012,-0.0043853999999998,0.0149858000000004,0.0033710000000009,0.023591,0,sub_6
0.0013107999999997,0.0099028000000012,-0.0014569999999998,0.0151522000000004,0.0046474000000009,0.0219224,0,sub_6
0.0027195999999998,0.0060230000000012,0.0023192,0.0156010000000004,0.0050898000000009,0.0174384,0,sub_6
0.0050903999999997,0.0044136000000012,0.004431,0.0154154000000004,0.0055396000000009,0.011668,0,sub_6
0.0080831999999997,0.0044834000000012,0.0067102,0.0147744000000004,0.0008726000000009,0.007183,0,sub_6
0.0099053999999997,0.0070674000000012,0.0066592,0.0129912000000004,-0.002964599999999,0.006152,0,sub_6
0.0092153999999997,0.0105604000000012,0.0034946000000001,0.0107802000000003,-0.003618199999999,0.0085324,0,sub_6
0.0070107999999997,0.0148956000000012,0.0003390000000001,0.0102590000000003,-0.005141799999999,0.0139168,0,sub_6
0.0028835999999997,0.0152374000000012,-0.0019165999999998,0.0110142000000003,-0.006461199999999,0.020378,0,sub_6
-0.0030510000000002,0.0124646000000012,-0.0051425999999998,0.0115722000000003,-0.005855399999999,0.0251262,0,sub_6
-0.0080406000000002,0.0087094000000012,-0.0069527999999998,0.0111454000000003,-0.005217199999999,0.0257634,0,sub_6
-0.0092152000000001,0.0051858000000012,-0.0067477999999998,0.0085888000000004,-0.007751199999999,0.0223306,0,sub_6
-0.0088482000000001,0.0034524000000012,-0.0068529999999998,0.0041874000000004,-0.007889799999999,0.0163544,0,sub_6
-0.0065442000000001,0.0039764000000012,-0.0074193999999998,0.0004452000000004,-0.003557399999999,0.0105908,0,sub_6
-0.0030386000000002,0.0065642000000012,-0.0050627999999999,-0.0013833999999995,0.0005500000000009,0.0061226,0,sub_6
0.0012677999999997,0.0083952000000012,-0.0022463999999999,-0.0011031999999995,0.0016570000000009,0.0042368,0,sub_6
0.0034187999999997,0.0094058000000012,-0.0006661999999999,0.0004524000000003,0.0044530000000009,0.005135,0,sub_6
0.0058175999999997,0.0097000000000012,0.0004744,0.0015144000000003,0.0052938000000009,0.0070642,0,sub_6
0.0067821999999997,0.0095198000000012,0.0024674,0.0012828000000004,0.0020954000000009,0.0079212,0,sub_6
0.0072955999999997,0.0099714000000012,0.0014772,0.0006304000000004,-3.539999999907697e-05,0.0085604,0,sub_6
0.0070781999999997,0.0106276000000012,0.0007762,0.0002018000000004,-0.000884399999999,0.0081312,0,sub_6
0.0059109999999997,0.0113600000000012,0.000382,0.0008410000000004,-0.002372999999999,0.0068558,0,sub_6
0.0033873999999997,0.0108996000000012,-0.0001617999999999,0.0023404000000004,-0.002160999999999,0.0057978,0,sub_6
0.0010167999999997,0.0102686000000012,-0.0013301999999999,0.0049048000000004,-0.002590999999999,0.0045344,0,sub_6
-0.0007612000000002,0.0085570000000012,-0.0010871999999999,0.0071492000000004,-0.003868399999999,0.0024272,0,sub_6
-0.0024588000000002,0.0072454000000012,-0.0021379999999999,0.0087536000000003,-0.004719199999999,0.0007422,0,sub_6
-0.0031228000000002,0.0060338000000012,-0.0031003999999998,0.0088614000000003,-0.005991599999999,-0.0007389999999999,0,sub_6
-0.0029492000000002,0.0061724000000012,-0.0048181999999998,0.0072592000000003,-0.007472799999999,-0.0018045999999999,0,sub_6
-0.0024018000000001,0.0061020000000012,-0.0056067999999998,0.0054456000000003,-0.007890599999999,-0.0022319999999999,0,sub_6
-0.0027076000000001,0.0064938000000012,-0.0058949999999998,0.0030994000000004,-0.007457199999999,-0.0020351999999999,0,sub_6
-0.0023726000000001,0.0070052000000012,-0.0067181999999998,0.0005532000000004,-0.004464599999999,-0.0022703999999999,0,sub_6
-0.0007132000000001,0.0080958000000012,-0.0067721999999998,-0.0007115999999995,-0.001475599999999,-0.0027103999999999,0,sub_6
0.0009871999999998,0.0092726000000012,-0.0044405999999998,0.0007840000000004,-0.001266999999999,-0.0029137999999999,0,sub_6
0.0017315999999998,0.0091464000000012,-0.0033411999999998,0.0014280000000004,-0.000416999999999,-0.0029103999999999,0,sub_6
0.0028875999999998,0.0079612000000012,-0.0026201999999998,0.0012290000000004,0.0017186000000009,-0.0039827999999999,0,sub_6
0.0035267999999997,0.0074014000000012,-0.0001843999999998,-4.7399999999583714e-05,0.0019386000000009,-0.0046327999999999,0,sub_6
0.0021259999999997,0.0073584000000011,0.0008618000000001,-0.0009105999999995,0.0002354000000009,-0.0042093999999999,0,sub_6
0.0009449999999997,0.0073722000000011,-2.839999999986664e-05,-0.0024127999999995,-0.000403599999999,-0.0029371999999999,0,sub_6
2.9599999999775294e-05,0.0085248000000012,-0.0010355999999998,-0.0036959999999995,0.0010838000000009,-0.0008115999999999,0,sub_6
-0.0013644000000002,0.0104132000000012,-0.0020223999999998,-0.0035027999999995,-0.000420199999999,0.0021828,0,sub_6
-0.0034296000000002,0.0105680000000012,-0.0037845999999998,-0.0018139999999995,-0.002351999999999,0.0043334,0,sub_6
-0.0043960000000002,0.0092976000000012,-0.0051197999999998,-0.0011717999999995,-0.001715999999999,0.0045508,0,sub_6
-0.0051846000000001,0.0084146000000012,-0.0056739999999998,-0.0011593999999995,-0.000431799999999,0.0030536,0,sub_6
-0.0047186000000001,0.0079888000000012,-0.0045523999999998,0.0003334000000004,-0.002135599999999,0.0015706,0,sub_6
-0.0037148000000001,0.0072916000000012,-0.0035125999999998,0.0018300000000004,-0.002562799999999,0.0005132,0,sub_6
-0.0016306000000001,0.0067570000000012,-0.0036437999999998,0.0022596000000004,-0.001925199999999,0.0005154,0,sub_6
-5.900000000018469e-05,0.0061824000000012,-0.0024069999999998,0.0014060000000004,-0.001709999999999,0.0007228,0,sub_6
0.0013459999999997,0.0059114000000012,-0.0011223999999998,0.0007612000000004,-0.002560799999999,0.0009332,0,sub_6
0.0025851999999997,0.0060048000000012,-0.0016471999999999,-0.0005189999999995,-0.002768399999999,0.000711,0,sub_6
0.0033673999999997,0.0066502000000012,-0.0018139999999999,-0.0020135999999995,-0.003612799999999,6.0800000000077765e-05,0,sub_6
0.0025565999999997,0.0075894000000012,-0.0008551999999999,-0.0037215999999995,-0.004668799999999,-0.0008043999999999,0,sub_6
0.0020041999999997,0.0088196000000012,-0.0015419999999999,-0.0034865999999995,-0.005951999999999,-0.0012527999999999,0,sub_6
0.0009853999999997,0.0090290000000012,-0.0030545999999999,-0.0026077999999995,-0.006385199999999,-0.0016977999999999,0,sub_6
-0.0003060000000002,0.0088142000000012,-0.0031071999999999,-0.0019413999999995,-0.007028999999999,-0.0025711999999999,0,sub_6
-0.0020322000000002,0.0069938000000012,-0.0038527999999999,-0.0012739999999995,-0.007459599999999,-0.0034449999999999,0,sub_6
-0.0023802000000001,0.0055730000000012,-0.0055427999999998,3.2600000000416326e-05,-0.008529999999999,-0.0047405999999998,0,sub_6
-0.0031238000000001,0.0045770000000012,-0.0054377999999998,2.960000000041636e-05,-0.010017799999999,-0.0055931999999998,0,sub_6
-0.0042736000000001,0.0037382000000012,-0.0041259999999998,-0.0008295999999995,-0.011929599999999,-0.0062377999999999,0,sub_6
-0.0051274000000001,0.0023604000000012,-0.0043353999999998,-0.0010563999999995,-0.015123799999999,-0.0064489999999999,0,sub_6
-0.0039236000000001,0.0019830000000012,-0.0055891999999998,-0.0015777999999995,-0.018298799999999,-0.0067687999999999,0,sub_6
-0.0029404000000002,0.0021052000000012,-0.0060093999999998,-0.0044269999999995,-0.017840999999999,-0.0077505999999999,0,sub_6
-0.0018780000000002,0.0034266000000012,-0.0056865999999998,-0.0087487999999995,-0.013539799999999,-0.0096021999999999,0,sub_6
-0.0006800000000002,0.0054526000000012,-0.0049245999999998,-0.0130687999999995,-0.008175799999999,-0.0108139999999999,0,sub_6
-0.0005910000000002,0.0076084000000012,-0.0036437999999998,-0.0169591999999995,-0.001749799999999,-0.0115969999999999,0,sub_6
-0.0020592000000002,0.0088560000000012,-0.0021851999999998,-0.0199079999999995,0.0057218000000009,-0.0126953999999999,0,sub_6
-0.0001970000000002,0.0084624000000012,-0.0011267999999998,-0.0217929999999995,0.0110650000000009,-0.0152791999999999,0,sub_6
0.0008959999999997,0.0067774000000012,-0.0009183999999999,-0.0223879999999995,0.0159878000000009,-0.0204171999999999,0,sub_6
0.0022503999999997,0.0071734000000012,-0.0010505999999999,-0.0230351999999995,0.0209306000000009,-0.0266905999999999,0,sub_6
0.0040713999999997,0.0082132000000012,-0.0009533999999999,-0.0243493999999995,0.0226688000000009,-0.0301871999999999,0,sub_6
0.0055821999999997,0.0112250000000012,-0.0007987999999999,-0.0252743999999995,0.0194916000000009,-0.0302563999999999,0,sub_6
0.0055925999999997,0.0148532000000012,-0.0012517999999999,-0.0234705999999995,0.0113842000000009,-0.0251725999999999,0,sub_6
0.0066559999999997,0.0167226000000012,-0.0033359999999999,-0.0219241999999995,-0.001854599999999,-0.0153837999999999,0,sub_6
0.0047301999999997,0.0143416000000012,-0.0050061999999999,-0.0216019999999995,-0.014468799999999,-0.0046831999999999,0,sub_6
0.0004127999999997,0.0107764000000012,-0.0057799999999999,-0.0208213999999995,-0.023448999999999,0.0025978,0,sub_6
-0.0033136000000001,0.0056064000000012,-0.0069067999999999,-0.0189297999999995,-0.027088799999999,0.005393,0,sub_6
-0.0083700000000001,0.0011818000000012,-0.0076987999999999,-0.0174481999999995,-0.023874999999999,0.0027872,0,sub_6
-0.0120484000000001,-0.0006045999999987,-0.0081209999999999,-0.0150891999999995,-0.016822999999999,-0.0013127999999999,0,sub_6
-0.0116330000000002,-0.0004237999999987,-0.0080283999999999,-0.0118863999999995,-0.010843799999999,-0.0043371999999999,0,sub_6
-0.0091168000000002,0.0005720000000012,-0.0082321999999998,-0.0101809999999995,-0.003164999999999,-0.0048105999999999,0,sub_6
-0.0077748000000002,0.0039162000000012,-0.0074187999999998,-0.0108475999999995,0.0021658000000009,-0.0020927999999999,0,sub_6
-0.0075492000000002,0.0069388000000012,-0.0054109999999998,-0.0140817999999995,0.0023594000000009,0.0055756,0,sub_6
-0.0085452000000002,0.0080868000000012,-0.0031291999999998,-0.0179733999999995,0.0002056000000009,0.0147378,0,sub_6
-0.0086198000000002,0.0083904000000012,-0.0031753999999998,-0.0220533999999995,-0.000227599999999,0.020051,0,sub_6
-0.0072680000000002,0.0093662000000012,-0.0042557999999998,-0.0235469999999995,0.0002020000000009,0.0204672,0,sub_6
-0.0036738000000002,0.0111532000000012,-0.0026593999999998,-0.0220539999999995,0.0021446000000009,0.0172402,0,sub_6
0.0008729999999997,0.0125436000000012,-0.0012799999999998,-0.0154169999999996,0.0057874000000009,0.0106286,0,sub_6
0.0047457999999997,0.0140568000000012,0.0015714,-0.0042847999999996,0.0107006000000009,0.002124,0,sub_6
0.0086783999999997,0.0130574000000012,0.0032374,0.0093734000000003,0.0104814000000009,-0.0037927999999999,0,sub_6
0.0110229999999997,0.0095386000000012,0.005386,0.0183230000000003,0.0085682000000009,-0.0082445999999999,0,sub_6
0.0131709999999997,0.0041104000000012,0.004292,0.0212976000000003,0.0043026000000009,-0.0097137999999999,0,sub_6
0.0135023999999997,0.0001964000000012,0.0029764,0.0180730000000004,-0.000163599999999,-0.0088759999999999,0,sub_6
0.0116611999999997,-0.0031875999999987,-0.0004759999999999,0.0099104000000004,-0.006928599999999,-0.0059389999999999,0,sub_6
0.0066035999999997,-0.0030901999999987,-0.0034717999999999,0.0006762000000004,-0.012845399999999,-0.0010877999999999,0,sub_6
0.0006921999999997,0.0007740000000012,-0.0083549999999999,-0.0060165999999995,-0.021122399999999,0.0057068,0,sub_6
-0.0075072000000002,0.0040642000000012,-0.0120725999999999,-0.0105639999999995,-0.027911199999999,0.0114462,0,sub_6
-0.0166382000000002,0.0057140000000012,-0.0147385999999999,-0.0116697999999995,-0.031504399999999,0.0142146,0,sub_6
-0.0220480000000002,0.0060596000000012,-0.0160421999999999,-0.0099559999999995,-0.029806799999999,0.014438,0,sub_6
-0.0248230000000002,0.0058664000000012,-0.0165663999999999,-0.0084229999999995,-0.024047599999999,0.0114504,0,sub_6
-0.0226304000000002,0.0046388000000012,-0.0159423999999999,-0.0072967999999995,-0.015722799999999,0.0065338,0,sub_6
-0.0162000000000002,0.0046354000000012,-0.0120369999999999,-0.0057197999999995,-0.002921799999999,0.00076,0,sub_6
-0.0075430000000002,0.0058592000000012,-0.0080811999999999,-0.0045477999999995,0.0086050000000009,-0.0032697999999999,0,sub_6
0.0015675999999997,0.0078122000000012,-0.0040331999999999,-0.0032035999999996,0.0130916000000009,-0.0051529999999999,0,sub_6
0.0103589999999997,0.0092836000000012,-0.0005339999999999,-0.0014623999999996,0.0124574000000009,-0.0055313999999999,0,sub_6
0.0152465999999997,0.0097552000000011,0.0038278,-0.0016597999999996,0.0086310000000009,-0.0050645999999999,0,sub_6
0.0150031999999997,0.0067114000000012,0.0037414,-0.0035871999999996,0.0007582000000009,-0.0035363999999999,0,sub_6
0.0147485999999997,0.0026714000000012,0.0012376,-0.0072585999999996,-0.007331999999999,-0.0018425999999999,0,sub_6
0.0129207999999997,-8.15999999987986e-05,-0.0020519999999999,-0.0123959999999995,-0.010935999999999,-0.0018737999999999,0,sub_6
0.0081123999999997,-0.0009523999999988,-0.0035125999999999,-0.0165921999999995,-0.010890199999999,-0.0031435999999999,0,sub_6
0.0028795999999997,-0.0017091999999987,-0.0050227999999998,-0.0163007999999995,-0.009368799999999,-0.0043839999999999,0,sub_6
-0.0002024000000002,-0.0004653999999987,-0.0057967999999998,-0.0123849999999995,-0.008074799999999,-0.0051715999999998,0,sub_6
-0.0037850000000002,0.0018008000000011,-0.0055147999999998,-0.0071917999999996,-0.007212199999999,-0.0057357999999998,0,sub_6
-0.0076470000000002,0.0037800000000011,-0.0055209999999998,-0.0026443999999996,-0.006352599999999,-0.0050227999999998,0,sub_6
-0.0101042000000002,0.0040636000000012,-0.0066833999999998,-0.0011593999999996,-0.004880199999999,-0.0015959999999998,0,sub_6
-0.0126658000000002,0.0083622000000012,-0.0067031999999999,-0.0043963999999996,-0.006174599999999,0.0052198000000001,0,sub_6
-0.0138980000000002,0.0133936000000011,-0.0068523999999999,-0.0070105999999996,-0.007486599999999,0.0158856,0,sub_6
-0.0124920000000001,0.0176682000000012,-0.0072215999999999,-0.0075169999999995,-0.012648599999999,0.0284936,0,sub_6
-0.0096092000000001,0.0198354000000012,-0.0066163999999999,-0.0047399999999995,-0.016736799999999,0.0411332,0,sub_6
-0.0070804000000001,0.0192732000000012,-0.0043145999999999,0.0012604000000004,-0.018693799999999,0.0508016,0,sub_6
-0.0021716000000001,0.0145116000000011,-0.0032243999999999,0.0100682000000004,-0.017872199999999,0.0557858,0,sub_6
0.0028639999999998,0.0092236000000012,-0.0026473999999999,0.0178362000000004,-0.015749799999999,0.0560608,0,sub_6
0.0074391999999997,0.0033014000000012,-0.0025779999999999,0.0249918000000004,-0.011053999999999,0.0526964,0,sub_6
0.0090855999999997,-0.0006755999999987,-0.0011891999999999,0.0280182000000004,-0.006997799999999,0.0480122,0,sub_6
0.0098321999999997,-0.0028791999999987,-0.0003435999999999,0.0274146000000004,-0.002931399999999,0.0439434,0,sub_6
0.0084195999999997,-0.0041381999999987,-0.0002845999999999,0.0242534000000004,0.0017832000000009,0.039856,0,sub_6
0.0041639999999997,-0.0033759999999987,-0.0006883999999999,0.0191916000000004,0.0014086000000009,0.0355556,0,sub_6
-0.0009548000000002,-0.0014603999999987,-0.0014871999999999,0.0128390000000004,0.0001802000000009,0.0327428,0,sub_6
-0.0044050000000001,0.0001756000000012,-0.0054021999999999,0.0071382000000004,2.1000000000965383e-05,0.0284374,0,sub_6
-0.0070910000000001,0.0024120000000012,-0.0098855999999998,0.0029386000000004,-0.000136599999999,0.0224336,0,sub_6
-0.0101662000000001,0.0032232000000012,-0.0129605999999998,0.0019482000000004,0.0011876000000009,0.016023,0,sub_6
-0.0110570000000001,0.0023234000000012,-0.0148645999999998,0.0026468000000003,0.0067546000000009,0.0085432,0,sub_6
-0.0103926000000001,0.0024952000000012,-0.0142943999999998,0.0037828000000003,0.0142392000000009,0.0006366,0,sub_6
-0.0087134000000001,0.0022290000000012,-0.0121571999999998,0.0066454000000003,0.0179190000000009,-0.0064065999999999,0,sub_6
-0.0062832000000001,0.0016922000000012,-0.0097961999999998,0.0090612000000003,0.0183994000000009,-0.0121671999999999,0,sub_6
-0.0024976000000001,0.0005538000000012,-0.0084509999999999,0.0084794000000003,0.0180320000000009,-0.0164519999999999,0,sub_6
0.0007609999999997,-0.0002149999999987,-0.0071843999999999,0.0044846000000003,0.0185262000000009,-0.0201207999999999,0,sub_6
0.0002805999999997,-8.859999999877889e-05,-0.0060419999999999,-0.0012315999999995,0.0177406000000009,-0.0218771999999999,0,sub_6
-0.0006096000000002,0.0027138000000012,-0.0044369999999999,-0.0059457999999995,0.0154050000000009,-0.0197707999999999,0,sub_6
-0.0001830000000002,0.0068488000000012,-0.0043075999999999,-0.0079015999999995,0.0124094000000009,-0.0148667999999999,0,sub_6
-0.0002342000000002,0.0112778000000012,-0.0035867999999999,-0.0070903999999995,0.0091860000000009,-0.0086613999999999,0,sub_6
-0.0006528000000002,0.0133826000000012,-0.0029789999999999,-0.0030479999999995,0.0044860000000009,-0.0013619999999999,0,sub_6
2.599999999793913e-06,0.0125214000000012,-0.0041469999999999,0.0022968000000003,0.0014988000000009,0.0027396,0,sub_6
-0.0011408000000002,0.0092352000000012,-0.0055389999999999,0.0057520000000003,0.0008796000000009,0.0023386,0,sub_6
-0.0032144000000001,0.0044086000000012,-0.0056025999999999,0.0062344000000003,0.0013448000000009,-0.0002209999999999,0,sub_6
-0.0046986000000001,0.0010940000000012,-0.0066819999999999,0.0067168000000003,0.0015978000000009,-0.0029939999999999,0,sub_6
-0.0050074000000001,-0.0006035999999987,-0.0083627999999999,0.0062988000000003,0.0018192000000009,-0.0047063999999999,0,sub_6
-0.0054518000000001,-0.0014841999999987,-0.0086309999999999,0.0039440000000003,0.0011838000000009,-0.0036537999999999,0,sub_6
-0.0053558000000001,-0.0020437999999987,-0.0090361999999999,0.0005204000000003,0.0026726000000009,-4.779999999992221e-05,0,sub_6
-0.0050832000000001,-0.0001799999999987,-0.0099993999999999,-0.0020171999999995,0.0033464000000009,0.0037484,0,sub_6
-0.0055110000000001,0.0011388000000012,-0.0098015999999999,-0.0045489999999995,0.0036010000000009,0.005836,0,sub_6
-0.0066208000000002,0.0029410000000012,-0.0088217999999999,-0.0066415999999995,0.0040774000000009,0.0053628,0,sub_6
-0.0062608000000002,0.0051690000000012,-0.0081141999999999,-0.0063823999999995,0.0043378000000009,0.0036244,0,sub_6
-0.0057610000000002,0.0077986000000012,-0.0074371999999998,-0.0037741999999996,0.0035306000000009,0.0004084,0,sub_6
-0.0050050000000002,0.0074142000000012,-0.0052337999999999,0.0002904000000003,0.0031014000000009,-0.0023399999999999,0,sub_6
-0.0025740000000002,0.0065710000000012,-0.0052377999999999,0.0041378000000003,0.0026694000000009,-0.0042353999999999,0,sub_6
-0.0007906000000002,0.0050340000000012,-0.0051677999999999,0.0062792000000003,0.0035176000000009,-0.0050761999999999,0,sub_6
-0.0004930000000001,0.0031048000000012,-0.0046839999999999,0.0064914000000003,0.0050554000000009,-0.0060473999999999,0,sub_6
0.0006519999999998,0.0017774000000012,-0.0051901999999999,0.0049812000000004,0.0048878000000009,-0.0053193999999999,0,sub_6
0.0008495999999998,0.0018930000000012,-0.0069203999999998,0.0026164000000004,0.0049346000000009,-0.0041701999999999,0,sub_6
-0.0010952000000001,0.0024904000000012,-0.0065505999999998,-0.0003845999999995,0.0056238000000009,-0.0032397999999999,0,sub_6
-0.0031282000000001,0.0030650000000012,-0.0070427999999998,-0.0018957999999995,0.0056676000000009,-0.0020845999999999,0,sub_6
-0.0047368000000001,0.0035164000000012,-0.0087993999999998,-0.0016853999999995,0.0056642000000009,-0.0014421999999999,0,sub_6
-0.0069950000000001,0.0034770000000012,-0.0094109999999998,-0.0012489999999995,0.0069446000000009,-0.0022953999999999,0,sub_6
-0.0081550000000001,0.0037116000000012,-0.0098893999999998,-0.0008105999999995,0.0082266000000009,-0.0035757999999999,0,sub_6
-0.0080142000000001,0.0035552000000012,-0.0100875999999998,0.0006878000000004,0.0084378000000009,-0.0044201999999999,0,sub_6
-0.0070488000000001,0.0034344000000012,-0.0092273999999998,0.0025846000000004,0.0080172000000009,-0.0049297999999999,0,sub_6
-0.0064102000000002,0.0034012000000012,-0.0078739999999999,0.0034098000000004,0.0075960000000009,-0.0043785999999999,0,sub_6
