userAcceleration.x,userAcceleration.y,userAcceleration.z,rotationRate.x,rotationRate.y,rotationRate.z,label,subject
0.0007865999999997,-0.0001261999999987,-0.0072137999999998,-0.0011667999999996,-0.0009903999999991,0.00067,0,sub_3
0.0006399999999997,-0.0002197999999987,-0.0071887999999998,-0.0007441999999996,-0.0007691999999991,0.0008832,0,sub_3
0.0005239999999997,-8.39999999881747e-06,-0.0069089999999998,-0.0001023999999996,9.300000000089394e-05,0.000456,0,sub_3
0.0004803999999997,0.0006892000000011,-0.0070599999999998,0.0003240000000003,0.0005300000000008,2.8000000000110747e-05,0,sub_3
0.0005781999999997,0.0004360000000012,-0.0070605999999998,0.0007476000000003,0.0003278000000008,-0.0003991999999998,0,sub_3
0.0007973999999998,4.720000000122246e-05,-0.0081793999999998,0.0003208000000003,-9.519999999910598e-05,-0.0008289999999998,0,sub_3
0.0010835999999997,-0.0001873999999987,-0.0086519999999998,-0.0007517999999995,-0.000945399999999,-0.0004081999999998,0,sub_3
0.0013219999999997,-0.0004855999999987,-0.0089379999999998,-0.0013951999999995,-0.000506599999999,-0.0002023999999998,0,sub_3
0.0015253999999997,-0.0007711999999987,-0.0089729999999998,-0.0011859999999995,-7.159999999908602e-05,0.0002228,0,sub_3
0.0017213999999997,-0.0007373999999987,-0.0089457999999999,-0.0011881999999995,0.0003658000000009,0.0002192,0,sub_3
0.0024793999999997,-0.0006705999999987,-0.0080207999999999,-0.0009769999999995,0.0005904000000009,4.0000000000907145e-06,0,sub_3
0.0024521999999997,0.0003874000000012,-0.0074297999999999,-0.0001257999999996,0.0012370000000008,0.0002198,0,sub_3
0.0022825999999997,0.0014182000000012,-0.0079087999999998,0.0013630000000003,0.0005910000000008,0.0006582,0,sub_3
0.0021959999999997,0.0015772000000012,-0.0077163999999998,0.0020032000000003,0.0003766000000008,0.0004494,0,sub_3
0.0018787999999997,0.0015160000000012,-0.0077371999999998,0.0024252000000003,-0.0002657999999991,0.0008806,0,sub_3
0.0014737999999997,0.0012686000000012,-0.0084385999999998,0.0026298000000003,-0.0006833999999991,0.0010904,0,sub_3
0.0012809999999997,1.2200000001222518e-05,-0.0087283999999998,0.0030488000000003,-0.0013127999999991,0.0008748,0,sub_3
0.0012341999999997,-0.0009437999999987,-0.0081197999999999,0.0021874000000003,-0.0015135999999991,0.001077,0,sub_3
0.0007307999999997,-0.0015395999999987,-0.0087297999999999,0.0013250000000003,-0.0019273999999991,0.0012794,0,sub_3
0.0009043999999997,-0.0020601999999987,-0.0093303999999999,0.0006808000000003,-0.0017009999999991,0.0010552,0,sub_3
0.0008489999999997,-0.0022215999999987,-0.0089813999999999,0.0006846000000003,-0.0008487999999991,0.001054,0,sub_3
0.0010979999999997,-0.0017321999999987,-0.0090269999999999,-0.0001631999999996,-0.0002041999999991,0.0004062,0,sub_3
0.0013705999999997,-0.0014305999999987,-0.0091701999999999,-0.0005831999999996,0.0008644000000008,-2.5399999999909294e-05,0,sub_3
0.0017967999999997,-0.0004391999999987,-0.0086549999999998,-0.0010083999999996,0.0017298000000008,-0.0008919999999999,0,sub_3
0.0018603999999997,0.0004476000000012,-0.0078881999999998,-0.0012201999999996,0.0025944000000008,-0.0017571999999998,0,sub_3
0.0018231999999997,0.0004144000000012,-0.0085793999999998,-0.0018663999999996,0.0023928000000008,-0.0019827999999998,0,sub_3
0.0018507999999997,-0.0001159999999987,-0.0085515999999998,-0.0020877999999996,0.0019758000000008,-0.0019915999999998,0,sub_3
0.0019847999999997,-0.0001321999999987,-0.0083265999999998,-0.0016643999999996,0.0017730000000008,-0.0028507999999998,0,sub_3
0.0021191999999997,-0.0004469999999987,-0.0084313999999999,-0.0010281999999996,0.0013430000000008,-0.0024183999999998,0,sub_3
0.0022433999999997,-0.0013555999999987,-0.0088383999999998,-0.0008273999999995,-0.0001541999999991,-0.0011331999999998,0,sub_3
0.0027637999999997,-0.0012571999999987,-0.0077935999999998,-0.0008331999999995,-0.0012201999999991,-0.0009183999999998,0,sub_3
0.0027917999999997,-0.0006957999999987,-0.0084769999999998,-0.0006217999999995,-0.0010103999999991,-0.0002761999999999,0,sub_3
0.0022669999999997,-0.0004547999999987,-0.0081865999999998,-0.0002051999999995,-0.0012271999999991,0.0012182,0,sub_3
0.0016301999999997,-0.0005157999999987,-0.0080281999999998,4.60000000038728e-06,-0.0012249999999991,0.001429,0,sub_3
0.0013083999999997,0.0003658000000011,-0.0078237999999998,0.0004374000000003,-0.0003661999999991,0.0003586,0,sub_3
0.0013267999999997,0.0012772000000011,-0.0080619999999998,0.0012920000000003,0.0002746000000008,0.000146,0,sub_3
0.0012109999999997,0.0014494000000011,-0.0073401999999998,0.0019286000000003,6.300000000087381e-05,0.0001464,0,sub_3
0.0010543999999997,0.0015044000000011,-0.0076125999999998,0.0019256000000003,-0.0010003999999991,-0.0002795999999999,0,sub_3
0.0017559999999997,0.0011350000000012,-0.0078605999999998,0.0010664000000003,-0.0018513999999991,0.0001428,0,sub_3
0.0017381999999997,0.0006640000000012,-0.0080339999999998,0.0004216000000003,-0.0018475999999991,0.000777,0,sub_3
0.0016035999999997,-0.0003015999999987,-0.0083183999999998,0.0004200000000003,-0.0014191999999991,0.0012016,0,sub_3
0.0016913999999997,-0.0015515999999987,-0.0083399999999999,0.0002078000000003,-0.0009873999999991,0.000984,0,sub_3
0.0023385999999997,-0.0023643999999987,-0.0088229999999999,-0.0006425999999996,-0.0001273999999991,0.0007612,0,sub_3
0.0022261999999997,-0.0024759999999987,-0.0088167999999999,-0.0002107999999996,0.0009420000000008,0.0003334,0,sub_3
0.0022465999999997,-0.0022543999999987,-0.0089027999999999,0.0006438000000003,0.0011520000000008,0.0003392,0,sub_3
0.0020261999999997,-0.0022115999999987,-0.0085093999999999,0.0002200000000003,0.0015804000000008,0.000122,0,sub_3
0.0018435999999997,-0.0009175999999987,-0.0083419999999999,-0.0006315999999996,0.0017972000000008,-9.799999999990938e-05,0,sub_3
0.0013037999999997,0.0001438000000012,-0.0081495999999999,-0.0006295999999996,0.0017988000000008,-0.0005251999999999,0,sub_3
0.0008555999999997,0.0008056000000012,-0.0081943999999999,-0.0004199999999996,0.0017994000000008,-0.0003127999999999,0,sub_3
0.0010859999999997,0.0009740000000012,-0.0082389999999998,-0.0012773999999996,0.0013792000000008,-0.0005347999999998,0,sub_3
0.0009417999999997,0.0009652000000012,-0.0083059999999998,-0.0010727999999996,0.0003144000000008,-0.0003211999999998,0,sub_3
0.0011495999999997,0.0002628000000012,-0.0089325999999998,-0.0006537999999996,-0.0005381999999991,-0.0001063999999999,0,sub_3
0.0014005999999997,-0.0005301999999987,-0.0087247999999998,-0.0004471999999996,-0.0009647999999991,0.00032,0,sub_3
0.0017131999999997,-0.0010647999999987,-0.0083501999999998,-0.0004481999999996,-0.0011779999999991,0.0003202,0,sub_3
0.0013589999999997,-0.0012541999999987,-0.0083095999999998,-0.0002337999999996,-0.0007535999999991,0.0005348,0,sub_3
0.0018227999999997,-0.0014927999999987,-0.0087283999999998,-0.0006575999999996,-0.0005373999999991,0.0001044000000001,0,sub_3
0.0017849999999997,-0.0010233999999987,-0.0080089999999998,-0.0006527999999995,0.0005290000000008,-0.0001129999999998,0,sub_3
0.0013997999999997,-0.0003441999999987,-0.0080151999999998,-0.0010745999999995,0.0015968000000008,-0.0003333999999998,0,sub_3
0.0015377999999997,-0.0001807999999987,-0.0088173999999998,-0.0019261999999995,0.0018148000000008,-0.0007693999999998,0,sub_3
0.0019135999999997,-0.0005201999999987,-0.0085931999999998,-0.0017041999999995,0.0028838000000008,-0.0018399999999998,0,sub_3
0.0018143999999997,0.0006172000000012,-0.0081219999999998,-0.0012677999999995,0.0048016000000008,-0.0022693999999999,0,sub_3
0.0013965999999997,0.0008932000000012,-0.0081419999999998,-0.0012705999999996,0.0043746000000008,-0.0020553999999999,0,sub_3
0.0014349999999997,0.0002516000000012,-0.0079183999999998,-0.0010591999999996,0.0039478000000008,-0.0020533999999999,0,sub_3
0.0016837999999997,7.660000000122252e-05,-0.0075665999999998,-0.0006323999999996,0.0039462000000008,-0.0020503999999999,0,sub_3
0.0015629999999997,1.2400000001222545e-05,-0.0076865999999998,-0.0006367999999996,0.0037272000000008,-0.0007683999999999,0,sub_3
0.0007407999999997,-0.0011379999999987,-0.0078315999999998,-0.0012765999999996,0.0039390000000008,-0.0001321999999999,0,sub_3
0.0010709999999997,-0.0018585999999987,-0.0085639999999998,-0.0016913999999996,0.0054336000000008,-0.0007779999999999,0,sub_3
0.0014577999999997,-0.0019493999999987,-0.0088665999999998,-0.0023185999999995,0.0071420000000008,-0.0014255999999999,0,sub_3
0.0012329999999997,-0.0012149999999987,-0.0085927999999998,-0.0027361999999995,0.0082096000000008,-0.0018573999999999,0,sub_3
0.0009551999999997,-0.0004561999999987,-0.0082689999999998,-0.0035837999999995,0.0086420000000008,-0.0027183999999999,0,sub_3
0.0013275999999997,0.0003212000000012,-0.0080561999999998,-0.0040093999999995,0.0080078000000008,-0.0035751999999999,0,sub_3
0.0015427999999997,0.0005434000000012,-0.0074943999999998,-0.0046479999999995,0.0077988000000008,-0.0040081999999999,0,sub_3
0.0017997999999997,0.0011446000000012,-0.0064627999999998,-0.0042207999999996,0.0073732000000008,-0.0044335999999999,0,sub_3
0.0019363999999997,3.0000000001222625e-05,-0.0061461999999998,-0.0042193999999996,0.0075866000000008,-0.0044353999999999,0,sub_3
0.0021059999999997,-0.0008711999999987,-0.0061245999999998,-0.0048591999999996,0.0071648000000008,-0.0048681999999999,0,sub_3
0.0024549999999997,-0.0014205999999987,-0.0066417999999998,-0.0050721999999996,0.0073780000000008,-0.0046579999999999,0,sub_3
0.0023495999999997,-0.0018463999999987,-0.0071945999999998,-0.0046493999999996,0.0071610000000008,-0.0040139999999999,0,sub_3
0.0020977999999997,-0.0022479999999987,-0.0082895999999998,-0.0046531999999996,0.0069452000000008,-0.0033727999999999,0,sub_3
0.0017003999999997,-0.0019321999999987,-0.0083619999999998,-0.0050789999999996,0.0069474000000008,-0.0035893999999999,0,sub_3
0.0018693999999997,-0.0012885999999987,-0.0093735999999999,-0.0046507999999996,0.0071568000000008,-0.0033741999999998,0,sub_3
0.0015493999999997,-0.0009729999999987,-0.0089685999999999,-0.0046483999999995,0.0069442000000008,-0.0038021999999998,0,sub_3
0.0013437999999997,-0.0003793999999987,-0.0084373999999999,-0.0044315999999995,0.0067316000000008,-0.0044423999999998,0,sub_3
0.0011413999999997,-0.0004023999999987,-0.0083341999999999,-0.0046455999999995,0.0060928000000008,-0.0046579999999998,0,sub_3
0.0012911999999997,-0.0003609999999987,-0.0089471999999998,-0.0046489999999995,0.0054508000000008,-0.0042311999999998,0,sub_3
0.0014105999999997,-0.0007781999999987,-0.0084391999999998,-0.0044365999999995,0.0052370000000008,-0.0042293999999999,0,sub_3
0.0019225999999997,-0.0012723999999987,-0.0084341999999998,-0.0044375999999996,0.0054484000000008,-0.0038023999999999,0,sub_3
0.0022293999999997,-0.0016515999999987,-0.0086327999999998,-0.0044395999999996,0.0056590000000008,-0.0031617999999999,0,sub_3
0.0027203999999997,-0.0015705999999987,-0.0084595999999998,-0.0044361999999996,0.0058716000000008,-0.0031617999999999,0,sub_3
0.0028495999999997,-0.0016441999999987,-0.0081535999999998,-0.0040041999999996,0.0058722000000008,-0.0037993999999999,0,sub_3
0.0025255999999997,-0.0016289999999987,-0.0083145999999998,-0.0040027999999996,0.0058708000000008,-0.0035855999999999,0,sub_3
0.0024451999999997,-0.0010927999999987,-0.0088477999999998,-0.0044327999999995,0.0050178000000008,-0.0031599999999998,0,sub_3
0.0020301999999997,-0.0008905999999987,-0.0087221999999998,-0.0044293999999995,0.0048060000000008,-0.0035867999999998,0,sub_3
0.0016917999999997,-0.0004955999999987,-0.0086645999999998,-0.0037833999999995,0.0058698000000008,-0.0037971999999998,0,sub_3
0.0012827999999997,0.0007068000000012,-0.0085081999999998,-0.0033651999999995,0.0045874000000008,-0.0031517999999998,0,sub_3
0.0010127999999997,0.0008392000000012,-0.0082667999999998,-0.0027365999999995,0.0026652000000008,-0.0025039999999998,0,sub_3
0.0011641999999997,0.0005438000000012,-0.0082237999999998,-0.0008203999999996,0.0011564000000008,-0.0020569999999999,0,sub_3
0.0012437999999997,0.0004198000000012,-0.0079851999999998,0.0004510000000003,-0.0005667999999991,-0.0007595999999999,0,sub_3
0.0010255999999997,0.0004670000000012,-0.0085123999999998,0.0017166000000003,-0.0033559999999991,0.0007526,0,sub_3
0.0009275999999997,-0.0001577999999987,-0.0085301999999998,0.0032080000000003,-0.0040129999999991,0.001623,0,sub_3
0.0013459999999997,0.0008880000000012,-0.0084149999999998,0.0040632000000003,-0.0046643999999991,0.0016342,0,sub_3
0.0013207999999997,0.0017506000000012,-0.0078593999999998,0.0042726000000003,-0.0055173999999991,0.0016368,0,sub_3
0.0008265999999997,0.0017276000000012,-0.0080685999999998,0.0044820000000003,-0.006158199999999,0.0018528,0,sub_3
0.0006823999999997,0.0009502000000012,-0.0083241999999998,0.0029826000000003,-0.007431199999999,0.001844,0,sub_3
0.0012885999999997,0.0006696000000012,-0.0083559999999998,0.0019224000000003,-0.007873199999999,0.0018448,0,sub_3
0.0014761999999997,-0.0005189999999987,-0.0085349999999998,0.0019312000000003,-0.007468399999999,0.0022794,0,sub_3
0.0014455999999997,-0.0012283999999987,-0.0091487999999998,0.0019430000000003,-0.006848999999999,0.0022862,0,sub_3
0.0020461999999997,-0.0015867999999987,-0.0089269999999998,0.0017432000000003,-0.0066513999999991,0.0014376,0,sub_3
0.0025767999999997,-0.0011623999999987,-0.0079099999999998,0.0028246000000003,-0.0056087999999991,0.0012378,0,sub_3
0.0022875999999997,-0.0009807999999987,-0.0082035999999998,0.0034648000000003,-0.0053987999999991,0.0014556,0,sub_3
0.0023261999999997,-0.0004149999999987,-0.0082197999999998,0.0032504000000003,-0.0056109999999991,0.0014544,0,sub_3
0.0019403999999997,-0.0005469999999987,-0.0083117999999999,0.0028216000000003,-0.0060355999999991,0.001452,0,sub_3
0.0018237999999997,-0.0002153999999987,-0.0087137999999999,0.0026206000000003,-0.0060657999999991,0.0021046,0,sub_3
0.0017999999999997,-0.0003225999999987,-0.0094063999999999,0.0022062000000003,-0.0067315999999991,0.0021156,0,sub_3
0.0017121999999997,-0.0006949999999987,-0.0090965999999999,0.0015794000000003,-0.0069715999999991,0.002338,0,sub_3
0.0015409999999997,-0.0014595999999987,-0.0095523999999999,0.0018072000000003,-0.0072137999999991,0.0023528,0,sub_3
0.0012099999999997,-0.0016737999999987,-0.0097485999999999,0.0020320000000003,-0.0076705999999991,0.0027952,0,sub_3
0.0013281999999997,-0.0013057999999987,-0.0102843999999999,0.0020310000000003,-0.0078835999999991,0.0027954,0,sub_3
0.0011517999999997,-0.0012763999999987,-0.0097931999999998,0.0022462000000003,-0.0074583999999991,0.0027964,0,sub_3
0.0012813999999997,-0.0007213999999987,-0.0096539999999998,0.0028912000000003,-0.0068197999999991,0.0023728,0,sub_3
0.0018053999999997,-0.0005121999999987,-0.0091515999999998,0.0022722000000003,-0.0064215999999991,0.0021714,0,sub_3
0.0023457999999997,-0.0002019999999987,-0.0085979999999998,0.0020868000000003,-0.0049579999999991,0.0015446,0,sub_3
0.0022249999999997,-3.619999999877736e-05,-0.0081321999999998,0.0021082000000003,-0.0043497999999991,0.0015612,0,sub_3
0.0026967999999997,-0.0006885999999987,-0.0086151999999999,0.0014874000000003,-0.0039531999999991,0.0017872,0,sub_3
0.0027541999999997,-0.0012241999999987,-0.0091605999999999,0.0010838000000003,-0.0029173999999991,0.0018004,0,sub_3
0.0027865999999997,-0.0005871999999987,-0.0087017999999998,0.0017298000000003,-0.0018533999999991,0.00159,0,sub_3
0.0020487999999997,-0.0005287999999987,-0.0085113999999998,0.0021470000000003,-0.003136599999999,0.002449,0,sub_3
0.0023235999999997,-0.0011007999999987,-0.0082803999999998,0.0021440000000003,-0.003563599999999,0.0026632,0,sub_3
0.0022685999999997,-0.0006037999999987,-0.0073769999999998,0.0034224000000003,-0.003569799999999,0.0030994,0,sub_3
0.0020313999999997,-0.0001319999999987,-0.0073353999999998,0.0042850000000003,-0.004454999999999,0.0037642,0,sub_3
0.0009971999999997,-0.0006249999999987,-0.0076465999999999,0.0040808000000003,-0.005548799999999,0.0042082,0,sub_3
0.0014579999999997,-0.0010721999999987,-0.0074733999999999,0.0041064000000003,-0.0040821999999991,0.0035824,0,sub_3
0.0015149999999997,-0.0012511999999987,-0.0075663999999999,0.0034870000000003,-0.0036785999999991,0.0029532,0,sub_3
0.0013781999999997,-0.0009139999999987,-0.0081413999999999,0.0030820000000003,-0.003487199999999,0.0018986000000001,0,sub_3
0.0012713999999997,-0.0015641999999987,-0.0075709999999999,0.0022344000000003,-0.002842399999999,0.0012510000000001,0,sub_3
0.0012903999999997,-0.0017545999999987,-0.0076913999999999,0.0011732000000003,-0.002196799999999,0.0006018000000001,0,sub_3
0.0012461999999997,-0.0014301999999987,-0.0081675999999999,-0.0005273999999996,-0.002195599999999,-4.4599999999889086e-05,0,sub_3
0.0013385999999997,-0.0010463999999987,-0.0083999999999999,-0.0005189999999996,-0.001349999999999,-0.0002525999999998,0,sub_3
0.0011969999999997,-0.0017693999999987,-0.0080351999999998,-0.0011537999999996,-0.0005045999999991,0.0001756,0,sub_3
0.0020035999999997,-0.0014559999999987,-0.0082021999999998,-0.0017885999999996,-0.0007201999999991,-0.0004629999999999,0,sub_3
0.0028237999999997,-0.0013829999999987,-0.0080275999999998,-0.0015705999999996,-0.0005151999999991,-0.0004551999999999,0,sub_3
0.0031751999999997,-0.0010671999999987,-0.0078225999999998,-7.999999999963296e-05,-0.0007351999999991,-1.7199999999909128e-05,0,sub_3
0.0028033999999997,-0.0012023999999987,-0.0075609999999998,0.0003430000000003,-0.0013765999999991,0.0002002,0,sub_3
0.0031849999999997,-0.0003703999999987,-0.0078745999999998,0.0003430000000003,-0.001800999999999,-0.0002263999999999,0,sub_3
0.0027337999999997,6.90000000012425e-05,-0.0079407999999999,0.0007656000000003,-0.001580999999999,-1.099999999990914e-05,0,sub_3
0.0025873999999997,0.0004182000000012,-0.0083107999999999,0.0009728000000003,-0.001574199999999,0.0004168,0,sub_3
0.0025427999999997,0.0001036000000012,-0.0079785999999998,0.0005400000000003,-0.0017773999999991,0.0006268,0,sub_3
0.0020509999999997,0.0001272000000012,-0.0078473999999998,0.0001090000000003,-0.0017665999999991,0.0006228,0,sub_3
0.0012775999999997,-0.0004335999999987,-0.0081021999999998,0.0001020000000003,-0.0021841999999991,0.000836,0,sub_3
0.0011663999999997,-0.0012163999999987,-0.0082983999999998,9.920000000038705e-05,-0.0026111999999991,0.0010502,0,sub_3
0.0005485999999998,-0.0012639999999987,-0.0081935999999998,0.0003146000000003,-0.0023981999999991,0.0008378,0,sub_3
0.0007041999999998,-0.0014115999999987,-0.0085435999999998,0.0005318000000003,-0.0019709999999991,0.0004114,0,sub_3
0.0015197999999997,-0.0017369999999987,-0.0087581999999998,0.0007388000000003,-0.0019507999999991,0.000192,0,sub_3
0.0018605999999997,-0.0015017999999987,-0.0081541999999998,0.0009526000000003,-0.0004391999999991,-2.9199999999929152e-05,0,sub_3
0.0014781999999998,-0.0009969999999987,-0.0076275999999998,0.0009492000000003,0.0002210000000008,-0.0002509999999999,0,sub_3
0.0021217999999997,-0.0015397999999987,-0.0076157999999998,0.0003018000000003,0.0004556000000008,-4.939999999992914e-05,0,sub_3
0.0021767999999997,-0.0013343999999987,-0.0078853999999998,-0.0001291999999996,0.0011164000000008,-6.019999999992913e-05,0,sub_3
0.0020679999999998,-6.499999999875754e-05,-0.0077525999999998,9.0000000000387e-05,0.0021818000000008,-0.0002735999999999,0,sub_3
0.0022121999999998,0.0005600000000012,-0.0080165999999998,0.0002928000000003,0.0006862000000008,0.0005842,0,sub_3
0.0026369999999997,0.0001344000000012,-0.0084885999999998,0.0002870000000003,4.440000000091333e-05,0.001226,0,sub_3
0.0023537999999997,0.0004014000000012,-0.0083503999999998,0.0009132000000003,-0.001000599999999,0.0010082,0,sub_3
0.0019911999999997,0.0003230000000012,-0.0079445999999999,0.0015366000000003,-0.001835999999999,0.0016444,0,sub_3
0.0012483999999997,-0.0006701999999987,-0.0081453999999998,0.0021590000000003,-0.002459999999999,0.0027078,0,sub_3
0.0006061999999997,-0.0017171999999987,-0.0081669999999998,0.0019404000000003,-0.0020087999999991,0.0020548,0,sub_3
0.0003069999999997,-0.0011233999999987,-0.0078099999999998,0.0023610000000003,-0.0019851999999991,0.001193,0,sub_3
0.0001133999999997,-0.0009831999999987,-0.0076209999999998,0.0027906000000003,-0.0013473999999991,0.001195,0,sub_3
0.0003301999999997,-0.0010923999999987,-0.0082797999999998,0.0021542000000003,-0.0009173999999991,0.0007628,0,sub_3
0.0008393999999997,-0.0012241999999987,-0.0078349999999998,0.0008760000000003,-0.0013355999999991,-0.0001001999999999,0,sub_3
0.0014277999999997,-0.0013475999999987,-0.0080877999999998,-0.0004133999999996,-0.0010969999999991,-0.0003339999999999,0,sub_3
0.0019239999999997,-0.0015259999999987,-0.0077839999999998,-0.0012749999999995,-0.0002223999999991,-0.0001381999999999,0,sub_3
0.0022025999999997,-0.0021047999999987,-0.0074307999999998,-0.0019231999999995,0.0002270000000008,-0.0003677999999999,0,sub_3
0.0018887999999997,-0.0019913999999987,-0.0063957999999998,-0.0017207999999995,3.4400000000893175e-05,-0.0005905999999999,0,sub_3
0.0018833999999997,-0.0019505999999987,-0.0061703999999999,-0.0017299999999995,0.0006930000000008,-0.0003887999999999,0,sub_3
0.0018245999999997,-0.0013555999999987,-0.0063795999999999,-0.0008793999999995,0.0004752000000008,4.480000000009086e-05,0,sub_3
0.0014987999999997,-0.0009047999999987,-0.0067881999999999,-0.0006699999999995,-0.0003777999999991,4.720000000009085e-05,0,sub_3
0.0012411999999997,-0.0002077999999987,-0.0073201999999999,-0.0004575999999996,-0.0005915999999991,4.9000000000090855e-05,0,sub_3
0.0013719999999997,-0.0001621999999987,-0.0077891999999999,-0.0006689999999996,-0.0003769999999991,-0.0001663999999999,0,sub_3
0.0011231999999997,-4.65999999987976e-05,-0.0084887999999999,-0.0002503999999996,-0.0009993999999991,-0.0005981999999999,0,sub_3
0.0011621999999997,-0.0002975999999987,-0.0077137999999999,0.0001710000000003,-0.0007703999999991,-0.0008173999999999,0,sub_3
0.0014197999999997,-0.0012151999999987,-0.0083111999999999,0.0003772000000003,-0.0007543999999991,-0.0008239999999999,0,sub_3
0.0015369999999997,-0.0015891999999987,-0.0083123999999999,-0.0002739999999996,-0.0013755999999991,-0.0006221999999999,0,sub_3
0.0017011999999997,-0.0012033999999987,-0.0082313999999998,-7.079999999961318e-05,-0.0015743999999991,-0.0002015999999999,0,sub_3
0.0023069999999997,-0.0012311999999987,-0.0081179999999998,-0.0002823999999996,-0.0009353999999991,9.800000000070842e-06,0,sub_3
0.0023501999999997,-0.0009245999999987,-0.0081579999999998,-0.0004937999999995,-0.0007207999999991,-0.0002055999999999,0,sub_3
0.0026931999999997,-0.0005795999999987,-0.0078231999999998,-0.0009225999999995,-6.459999999912673e-05,-0.0004289999999999,0,sub_3
0.0028917999999997,-0.0002785999999987,-0.0078755999999998,-0.0004969999999995,0.0008018000000008,-0.0006465999999999,0,sub_3
0.0028523999999997,-0.0005521999999987,-0.0075347999999999,-0.0002855999999995,0.0012436000000008,-0.0010785999999999,0,sub_3
0.0028317999999997,-0.0006207999999987,-0.0069789999999999,-7.59999999996132e-05,0.0014716000000008,-0.0012967999999999,0,sub_3
0.0023611999999997,-0.0005251999999987,-0.0068627999999999,-0.0005093999999996,0.0014872000000008,-0.0010919999999999,0,sub_3
0.0022011999999997,-0.0011019999999987,-0.0067085999999998,-0.0007265999999996,0.0010602000000008,-0.0006655999999999,0,sub_3
0.0022279999999997,-0.0014773999999987,-0.0065763999999998,-0.0005101999999996,0.0016986000000008,-0.0006649999999999,0,sub_3
0.0025349999999997,-0.0011841999999987,-0.0069427999999998,-0.0007225999999996,0.0021246000000009,-0.0004533999999999,0,sub_3
0.0021173999999997,-0.0013087999999987,-0.0073507999999998,-0.0005269999999996,0.0008492000000009,0.001041,0,sub_3
0.0022551999999997,-0.0017993999999987,-0.0074479999999998,0.0001038000000003,0.0002164000000009,0.0012556,0,sub_3
0.0019485999999997,-0.0012773999999987,-0.0080671999999998,0.0011644000000003,0.0002214000000009,0.0014724,0,sub_3
0.0015369999999997,-0.0006613999999987,-0.0077983999999998,0.0017914000000003,-0.001051199999999,0.0019016,0,sub_3
0.0007525999999997,-0.0009789999999987,-0.0076957999999998,0.0026348000000003,-0.001897599999999,0.002118,0,sub_3
0.0009967999999998,-0.0006039999999987,-0.0080155999999998,0.0028576000000003,-0.001253199999999,0.0006232,0,sub_3
0.0009629999999998,-0.0001351999999987,-0.0082753999999998,0.0026472000000003,-0.001037599999999,0.0001942,0,sub_3
0.0009597999999998,-7.139999999877745e-05,-0.0078723999999998,0.0026500000000003,-0.0008227999999991,-0.0002331999999999,0,sub_3
0.0011065999999998,-0.0004971999999987,-0.0077371999999999,0.0022210000000003,-0.0001731999999991,-0.0002409999999999,0,sub_3
