userAcceleration.x,userAcceleration.y,userAcceleration.z,rotationRate.x,rotationRate.y,rotationRate.z,label,subject
-0.0858518000000002,0.0118920000000012,-0.0259255999999999,0.0761736000000004,-0.1233667999999991,-0.0051245999999999,0,sub_22
-0.1070436000000002,0.0088664000000012,-0.0321255999999999,0.1115906000000004,-0.1131111999999991,-0.0525955999999999,0,sub_22
-0.1227090000000002,0.0089814000000012,-0.0243923999999998,0.1445698000000004,-0.0857613999999991,-0.1103601999999999,0,sub_22
-0.1090696000000001,0.0111600000000012,-0.0206561999999999,0.1743736000000004,-0.0032545999999991,-0.2027661999999999,0,sub_22
-0.0765848000000002,0.0158616000000012,-0.0041045999999999,0.1731784000000004,0.0491964000000008,-0.2645853999999999,0,sub_22
-0.0430668000000002,0.0207950000000012,0.0076218,0.1541176000000004,0.0472692000000008,-0.2986859999999999,0,sub_22
-0.0174436000000001,0.0294906000000012,0.0147688000000001,0.1318396000000004,0.0133180000000008,-0.3135399999999999,0,sub_22
0.0037907999999998,0.0355454000000012,0.0068100000000001,0.1124644000000003,-0.0292067999999991,-0.3181077999999999,0,sub_22
0.0217151999999997,0.0414994000000012,-0.0018363999999998,0.0911938000000004,-0.0555761999999991,-0.3120269999999999,0,sub_22
0.0329287999999997,0.0415438000000012,-0.0061613999999998,0.0693646000000003,-0.0485553999999991,-0.2906103999999999,0,sub_22
0.0406437999999997,0.0409064000000011,-0.0056657999999998,0.0548130000000003,-0.0220169999999991,-0.2546401999999999,0,sub_22
0.0484189999999997,0.0404498000000011,-0.0027293999999998,0.0483264000000003,0.0078498000000008,-0.2055855999999999,0,sub_22
0.0502343999999997,0.0374628000000011,0.0041538,0.0406916000000004,0.0272500000000008,-0.1488343999999999,0,sub_22
0.0456431999999997,0.0322462000000011,0.0117528000000001,0.0336538000000003,0.0338776000000008,-0.0952671999999999,0,sub_22
0.0355091999999997,0.0283512000000011,0.0174238,0.0270772000000003,0.0354416000000008,-0.0545091999999999,0,sub_22
0.0213621999999997,0.0271804000000012,0.020609,0.0186360000000003,0.0323932000000008,-0.0308497999999998,0,sub_22
0.0102869999999997,0.0293974000000012,0.0187216,0.0057686000000004,0.0289848000000008,-0.0198257999999999,0,sub_22
0.0074725999999997,0.0365184000000012,0.0146516,-0.0045231999999995,0.0245202000000008,-0.0132689999999999,0,sub_22
0.0098039999999997,0.0436930000000012,0.0093196,-0.0080167999999995,0.0163978000000008,-0.0036689999999999,0,sub_22
0.0121851999999997,0.0481486000000012,0.0063584,-0.0047207999999995,0.0043978000000008,0.0106836,0,sub_22
0.0135753999999997,0.0455878000000012,0.00384,0.0024178000000004,-0.0050673999999991,0.0271962,0,sub_22
0.0136119999999997,0.0353428000000012,0.0017246,0.0102214000000004,-0.0123907999999991,0.0402924,0,sub_22
0.0109361999999997,0.0204298000000012,0.000613,0.0150810000000004,-0.0188165999999991,0.0446074,0,sub_22
0.0072963999999997,0.0075836000000012,0.0003304,0.0157182000000004,-0.0266727999999991,0.037358,0,sub_22
0.0053601999999997,-0.0012025999999987,-0.0003415999999999,0.0151060000000004,-0.0374679999999991,0.020276,0,sub_22
0.0055103999999997,-0.0037919999999987,-0.0009175999999999,0.0153778000000004,-0.0461169999999991,-0.0015027999999999,0,sub_22
0.0051299999999997,-0.0003483999999987,-0.0031225999999999,0.0167376000000004,-0.0483849999999991,-0.0215729999999999,0,sub_22
0.0020357999999997,0.0062404000000012,-0.0059873999999999,0.0166076000000004,-0.0432173999999991,-0.0350401999999999,0,sub_22
-0.0012334000000002,0.0111262000000012,-0.0082317999999998,0.0137078000000004,-0.0303973999999991,-0.0416997999999999,0,sub_22
-0.0040554000000002,0.0154766000000012,-0.0076589999999999,0.0090864000000004,-0.0154621999999991,-0.0430329999999999,0,sub_22
-0.0058800000000002,0.0209768000000012,-0.0065007999999999,0.0053070000000004,-0.0011767999999991,-0.0424365999999999,0,sub_22
-0.0074840000000002,0.0253794000000012,-0.0035833999999999,0.0015046000000004,0.0079954000000008,-0.0418339999999999,0,sub_22
-0.0078632000000002,0.0279598000000012,-0.0009859999999999,-0.0010337999999995,0.0131168000000008,-0.0416445999999999,0,sub_22
-0.0068212000000002,0.0303646000000012,0.000267,-0.0020911999999996,0.0156754000000008,-0.0412279999999999,0,sub_22
-0.0054504000000002,0.0325508000000012,-0.0006653999999999,-0.0042065999999996,0.0207918000000008,-0.0401811999999999,0,sub_22
-0.0060164000000002,0.0318870000000012,-0.0014481999999999,-0.0071755999999996,0.0288820000000008,-0.0361531999999999,0,sub_22
-0.0067344000000002,0.0305312000000012,-0.0004767999999999,-0.0090843999999995,0.0388724000000008,-0.0287015999999999,0,sub_22
-0.0066728000000002,0.0284526000000012,0.0006246,-0.0086633999999995,0.0473538000000008,-0.0188817999999999,0,sub_22
-0.0055944000000002,0.0270066000000012,0.0019818,-0.0076203999999995,0.0513606000000008,-0.0094793999999999,0,sub_22
-0.0002844000000002,0.0228218000000012,0.0040466,-0.0044611999999995,0.0489786000000008,-0.0026175999999999,0,sub_22
0.0054865999999997,0.0186494000000012,0.0067644,-0.0021551999999995,0.0425678000000008,0.0001842,0,sub_22
0.0109753999999997,0.0135672000000012,0.0076978,-0.0002683999999995,0.0336188000000008,-0.0012867999999999,0,sub_22
0.0140339999999997,0.0089192000000012,0.0074332,-0.0002999999999995,0.0223440000000008,-0.0055455999999999,0,sub_22
0.0147309999999997,0.0038028000000012,0.0081228000000001,0.0003170000000004,0.0127722000000008,-0.0100155999999999,0,sub_22
0.0115765999999997,0.0021284000000012,0.0076678,-0.0003305999999996,0.0078870000000008,-0.0132185999999999,0,sub_22
0.0084995999999997,0.0028558000000012,0.0059516,-0.0011801999999996,0.0064080000000008,-0.0155727999999999,0,sub_22
0.0054669999999997,0.0043546000000012,0.0041266,-0.0020231999999996,0.0068448000000008,-0.0175019999999999,0,sub_22
0.0041175999999997,0.0067196000000012,0.003117,-0.0017915999999996,0.0079214000000008,-0.0204925999999999,0,sub_22
0.0036141999999997,0.0109254000000012,0.000679,-0.0021991999999996,0.0068790000000008,-0.0258351999999999,0,sub_22
0.0007475999999997,0.0150416000000012,-0.0005317999999999,-0.0021723999999996,0.0049930000000008,-0.0337373999999999,0,sub_22
-0.0028590000000002,0.0180102000000012,-0.0018265999999998,0.0006282000000003,0.0009754000000008,-0.0437539999999999,0,sub_22
-0.0054480000000002,0.0209332000000012,-0.0039967999999998,0.0053532000000003,-0.002621199999999,-0.0541849999999999,0,sub_22
-0.0091350000000002,0.0231312000000012,-0.0047623999999998,0.0096552000000003,-0.004090999999999,-0.0633397999999999,0,sub_22
-0.0105048000000001,0.0254516000000012,-0.0045951999999998,0.0139736000000003,0.0033662000000008,-0.0671647999999999,0,sub_22
-0.0086950000000001,0.0281374000000012,-0.0049885999999999,0.0178220000000003,0.0035706000000008,-0.0686329999999999,0,sub_22
-0.0053354000000001,0.0304394000000012,-0.0045075999999999,0.0188736000000003,0.0052496000000008,-0.0634995999999999,0,sub_22
-0.0007380000000002,0.0328260000000012,-0.0021103999999999,0.0181952000000004,0.0079752000000008,-0.0521839999999999,0,sub_22
0.0052483999999997,0.0349792000000012,-0.0004581999999999,0.0164212000000004,0.0089814000000008,-0.0361735999999999,0,sub_22
0.0097483999999997,0.0349832000000011,0.001414,0.0122732000000004,0.0053034000000008,-0.0188917999999999,0,sub_22
0.0122531999999997,0.0339774000000011,0.0029746,0.0058098000000004,0.0135462000000008,0.0032716,0,sub_22
0.0123663999999997,0.0324772000000011,0.0043064,-0.0008669999999995,0.0220018000000008,0.0256468,0,sub_22
0.0097681999999997,0.0291548000000011,0.0042936,-0.0066989999999995,0.0259906000000008,0.04547,0,sub_22
0.0090649999999997,0.0249810000000012,0.0034424,-0.0108049999999995,0.0302028000000008,0.0612456,0,sub_22
0.0072903999999997,0.0194020000000012,0.0027022,-0.0146715999999995,0.0333764000000008,0.0701876,0,sub_22
0.0063191999999997,0.0135860000000012,0.0018496,-0.0144697999999995,0.0310312000000008,0.0704056,0,sub_22
0.0063231999999997,0.0084752000000012,0.000762,-0.0095439999999995,0.0261498000000008,0.0614732,0,sub_22
0.0063325999999997,0.0060250000000012,-0.0006417999999999,-0.0022451999999995,0.0206464000000008,0.0461488,0,sub_22
0.0045427999999997,0.0051924000000012,-0.0008185999999999,0.0042116000000004,0.0143074000000008,0.0274012,0,sub_22
0.0031763999999997,0.0063518000000012,-0.0003669999999999,0.0119352000000004,0.0056178000000008,0.0093064,0,sub_22
0.0027187999999997,0.0087312000000012,0.0001866,0.0192176000000003,-0.0026585999999991,-0.0051599999999999,0,sub_22
0.0036227999999997,0.0115346000000012,0.0008462,0.0222144000000003,-0.0098753999999991,-0.0145301999999999,0,sub_22
0.0044861999999997,0.0142974000000012,0.0019992,0.0209150000000003,-0.0158321999999991,-0.0194127999999999,0,sub_22
0.0054213999999997,0.0169472000000012,0.0021008,0.0196042000000003,-0.0211627999999991,-0.0210915999999999,0,sub_22
0.0056427999999997,0.0185708000000012,0.0013562,0.0176514000000003,-0.0241585999999991,-0.0200003999999999,0,sub_22
0.0042111999999997,0.0191558000000012,0.0006362,0.0120770000000004,-0.0248023999999991,-0.0178691999999999,0,sub_22
0.0019719999999997,0.0195718000000012,-0.0002159999999999,0.0077770000000004,-0.0260923999999991,-0.0150873999999999,0,sub_22
0.0005895999999998,0.0194024000000012,-0.0013735999999999,0.0043506000000004,-0.0269403999999991,-0.0131873999999999,0,sub_22
-0.0021858000000001,0.0170230000000012,-0.0028001999999998,0.0011500000000004,-0.0265047999999991,-0.0127829999999999,0,sub_22
-0.0056662000000001,0.0153320000000012,-0.0045865999999998,-0.0005493999999995,-0.0267041999999991,-0.0147173999999999,0,sub_22
-0.0085578000000001,0.0147566000000012,-0.0068615999999998,0.0010870000000004,-0.0261615999999991,-0.0187375999999999,0,sub_22
-0.0108070000000001,0.0136236000000012,-0.0090667999999998,0.0029532000000004,-0.0241197999999991,-0.0248945999999999,0,sub_22
-0.0109688000000001,0.0122018000000012,-0.0099739999999998,0.0039822000000004,-0.0188775999999991,-0.0314887999999999,0,sub_22
-0.0095366000000001,0.0131336000000012,-0.0100303999999998,0.0045922000000004,-0.0106561999999991,-0.0368077999999999,0,sub_22
-0.0065458000000002,0.0136986000000012,-0.0083519999999998,0.0043514000000004,-9.519999999912238e-05,-0.0404265999999999,0,sub_22
-0.0006374000000002,0.0137654000000012,-0.0039981999999998,0.0029134000000004,0.0112060000000008,-0.0415193999999999,0,sub_22
0.0053149999999997,0.0137490000000011,0.0010772,0.0001874000000004,0.0246270000000008,-0.0387781999999999,0,sub_22
0.0097915999999997,0.0149658000000011,0.0040294,-0.0008861999999995,0.0284444000000008,-0.0334493999999999,0,sub_22
0.0133315999999997,0.0143312000000011,0.0076968,-0.0025011999999995,0.0277018000000008,-0.0257061999999999,0,sub_22
0.0163421999999997,0.0143904000000012,0.0100288,-0.0045551999999995,0.0250398000000008,-0.0171091999999999,0,sub_22
0.0157677999999997,0.0141944000000011,0.0091318,-0.0068331999999995,0.0204594000000008,-0.0080837999999999,0,sub_22
0.0130055999999997,0.0141594000000011,0.005767,-0.0086921999999995,0.0124754000000008,-0.0007603999999999,0,sub_22
0.0085989999999998,0.0125136000000011,0.0024084,-0.0141295999999995,0.0132478000000008,0.0043904,0,sub_22
0.0041231999999998,0.0128428000000011,-0.0028835999999999,-0.0200779999999995,0.0190210000000008,0.0043414,0,sub_22
-0.0009924000000001,0.0132148000000011,-0.0172663999999998,-0.0300403999999995,0.0312102000000008,0.0016926,0,sub_22
-0.0046782000000001,0.0137220000000012,-0.0275793999999999,-0.0444507999999995,0.0512956000000008,-0.0003565999999999,0,sub_22
-0.0002954000000001,0.0159778000000012,-0.0117367999999999,-0.0508875999999995,0.0595146000000008,0.0035704,0,sub_22
0.0108655999999997,0.0213914000000012,0.006785,-0.0439825999999995,0.0529552000000008,0.0153006,0,sub_22
0.0209411999999997,0.0234448000000012,0.0180510000000001,-0.0415229999999995,0.0576898000000009,0.0304036,0,sub_22
0.0215959999999998,0.0183784000000012,0.0307214000000001,-0.0361575999999995,0.0421824000000009,0.0434164,0,sub_22
0.0194913999999998,0.0137586000000012,0.0408186000000001,-0.0246927999999995,0.0034450000000008,0.0528696,0,sub_22
0.0079935999999998,0.0121734000000012,0.0235014000000001,-0.0170871999999995,-0.0140497999999991,0.0523042,0,sub_22
-0.0071252000000001,0.0140252000000012,-0.0034853999999998,-0.0210587999999995,-0.0078083999999991,0.0400908,0,sub_22
-0.0181166000000001,0.0169534000000012,-0.0186109999999999,-0.0201795999999995,-0.0154275999999991,0.0266472,0,sub_22
-0.0173444000000001,0.0253928000000012,-0.0190429999999998,-0.0148427999999995,-0.0097341999999991,0.0192616,0,sub_22
-0.0115552000000002,0.0303864000000012,-0.0159591999999999,-0.0060601999999995,0.0074342000000008,0.016372,0,sub_22
-0.0001250000000002,0.0295250000000012,-0.0102997999999998,-0.0056651999999995,0.0169338000000008,0.0204838,0,sub_22
0.0087693999999997,0.0226182000000012,0.0048090000000001,-0.0095925999999995,0.0230044000000008,0.0333292,0,sub_22
0.0135109999999997,0.0175584000000012,0.0163552000000001,-0.0105507999999995,0.0271386000000008,0.0483344,0,sub_22
0.0139761999999997,0.0129038000000012,0.0188386000000001,-0.0120969999999995,0.0268848000000008,0.0598608,0,sub_22
0.0092527999999997,0.0110084000000012,0.0154742000000001,-0.0178877999999995,0.0264542000000008,0.0660166,0,sub_22
2.079999999978072e-05,0.0100180000000012,0.0126378000000001,-0.0168247999999995,0.0243250000000008,0.064745,0,sub_22
-0.0088166000000001,0.0083710000000012,0.0101192000000001,-0.0038501999999995,0.0162326000000008,0.0546668,0,sub_22
-0.0123940000000002,0.0075166000000012,0.0062376000000001,0.0112774000000004,0.0070888000000008,0.0392638,0,sub_22
-0.0123060000000001,0.0079594000000012,0.0027048000000001,0.0238540000000004,-0.0030985999999991,0.0206396,0,sub_22
-0.0106896000000001,0.0088558000000012,0.0001886000000001,0.0360038000000004,-0.0151943999999991,9.22000000000464e-05,0,sub_22
-0.0075880000000001,0.0100542000000012,-0.0021183999999998,0.0481374000000004,-0.0298509999999991,-0.0193839999999999,0,sub_22
-0.0041574000000002,0.0132126000000012,-0.0060077999999998,0.0547500000000004,-0.0462151999999991,-0.0353401999999999,0,sub_22
-0.0032524000000001,0.0154636000000012,-0.0100515999999998,0.0562444000000004,-0.0581027999999991,-0.0474921999999999,0,sub_22
-0.0030210000000001,0.0170884000000012,-0.0121671999999998,0.0569018000000004,-0.0614847999999991,-0.0547471999999999,0,sub_22
-0.0010374000000001,0.0159144000000012,-0.0108699999999998,0.0558228000000004,-0.058922799999999,-0.0569953999999999,0,sub_22
0.0035839999999998,0.0146738000000012,-0.0081569999999998,0.0489808000000004,-0.052734799999999,-0.0552289999999999,0,sub_22
0.0079169999999998,0.0129232000000012,-0.0049557999999999,0.0370198000000004,-0.043556599999999,-0.0509385999999999,0,sub_22
0.0116311999999997,0.0117004000000011,-3.19999999999189e-05,0.0256942000000004,-0.034809399999999,-0.0460023999999999,0,sub_22
0.0143911999999997,0.0115412000000011,0.0030212,0.0171288000000004,-0.0286301999999991,-0.0406161999999999,0,sub_22
0.0158665999999997,0.0141420000000011,0.0036686000000001,0.0113658000000003,-0.024155399999999,-0.0357483999999999,0,sub_22
0.0148675999999997,0.0164892000000011,0.0023086000000001,0.0098702000000003,-0.020544599999999,-0.0317041999999999,0,sub_22
0.0106557999999997,0.0187438000000011,0.0020922000000001,0.0124318000000003,-0.017581999999999,-0.0289125999999999,0,sub_22
0.0075813999999997,0.0201086000000012,4.800000000012121e-05,0.0156286000000003,-0.015898999999999,-0.0263285999999999,0,sub_22
0.0045947999999997,0.0199244000000012,0.0011646000000001,0.0173512000000003,-0.018327199999999,-0.0247521999999999,0,sub_22
0.0034111999999997,0.0191346000000012,0.0006742000000001,0.0177982000000004,-0.0194735999999991,-0.0229727999999999,0,sub_22
0.0026939999999997,0.0188820000000012,0.0004368000000001,0.0167564000000004,-0.0189127999999991,-0.0205651999999999,0,sub_22
0.0036537999999997,0.0174542000000012,-0.0014395999999998,0.0157098000000004,-0.0183563999999991,-0.0170893999999999,0,sub_22
0.0035923999999997,0.0160672000000012,-0.0016687999999998,0.0138030000000004,-0.018439599999999,-0.0127641999999999,0,sub_22
0.0041061999999997,0.0150790000000012,-0.0036003999999998,0.0112348000000004,-0.014617999999999,-0.0072323999999999,0,sub_22
0.0028759999999997,0.0142842000000012,-0.0041917999999998,0.0088800000000004,-0.009735999999999,-0.0006321999999999,0,sub_22
0.0001643999999997,0.0120808000000012,-0.0040695999999998,0.0057470000000004,-0.005133199999999,0.0052918,0,sub_22
-0.0016122000000002,0.0102836000000012,-0.0040879999999998,0.0019748000000004,-0.0020125999999991,0.0095042,0,sub_22
-0.0033422000000001,0.0092944000000012,-0.0045931999999998,-0.0013619999999995,0.0011142000000008,0.0117968,0,sub_22
-0.0049794000000001,0.0090392000000012,-0.0046245999999998,-0.0042623999999995,0.0046724000000008,0.0123828,0,sub_22
-0.0057022000000001,0.0093846000000012,-0.0040229999999998,-0.0069435999999995,0.0075982000000008,0.0110484,0,sub_22
-0.0043716000000001,0.0112864000000012,-0.0038025999999998,-0.0084189999999995,0.0095294000000008,0.0088992,0,sub_22
-0.0026222000000001,0.0130330000000012,-0.0031291999999998,-0.0092541999999995,0.0116706000000008,0.0069678,0,sub_22
-0.0008076000000002,0.0145910000000012,-0.0019487999999998,-0.0092397999999995,0.0138054000000008,0.005897,0,sub_22
0.0004457999999997,0.0163120000000012,-7.819999999989901e-05,-0.0093837999999995,0.0147870000000008,0.005349,0,sub_22
0.0021929999999997,0.0173566000000012,0.0010008000000001,-0.0088991999999995,0.0140584000000008,0.0056622,0,sub_22
0.0029709999999997,0.0182122000000012,0.0011672000000001,-0.0082049999999995,0.0124768000000008,0.005978,0,sub_22
0.0041625999999997,0.0193768000000012,0.0017502000000001,-0.0068669999999995,0.0119574000000008,0.0065106,0,sub_22
0.0047629999999997,0.0192008000000012,0.0024224000000001,-0.0061671999999995,0.0116542000000008,0.0068248,0,sub_22
0.0063111999999997,0.0187188000000012,0.0024262000000001,-0.0029723999999995,0.0107890000000008,0.0072756,0,sub_22
0.0069655999999997,0.0175436000000012,0.0029024000000001,0.0002262000000004,0.0099274000000008,0.0068718,0,sub_22
0.0079929999999997,0.0159096000000011,0.0038602000000001,0.0042716000000004,0.0077836000000008,0.0066892,0,sub_22
0.0081413999999997,0.0136332000000012,0.0038514000000001,0.0076164000000003,0.0028942000000008,0.0064796,0,sub_22
0.0078143999999997,0.0127138000000012,0.0031154000000001,0.0109614000000003,-0.0026319999999991,0.00563,0,sub_22
0.0064403999999997,0.0117100000000012,0.0012076000000001,0.0121792000000003,-0.0068713999999991,0.0045502,0,sub_22
0.0055159999999997,0.0112948000000012,-0.0012887999999998,0.0119082000000003,-0.009615999999999,0.0038854,0,sub_22
0.0045087999999997,0.0108960000000012,-0.0023903999999998,0.0095132000000003,-0.0104347999999991,0.0029896,0,sub_22
0.0032987999999997,0.0127270000000012,-0.0029065999999998,0.0067518000000003,-0.0093531999999991,0.0012598,0,sub_22
0.0021215999999997,0.0150308000000012,-0.0033879999999998,0.0037760000000003,-0.0082713999999991,-0.0002579999999999,0,sub_22
0.0013375999999997,0.0175194000000012,-0.0030009999999998,0.0018652000000003,-0.0078317999999991,-0.0019809999999999,0,sub_22
-2.060000000021888e-05,0.0203106000000012,-0.0016101999999998,0.0013672000000003,-0.0077455999999991,-0.0036327999999999,0,sub_22
-0.0008760000000002,0.0226970000000012,-0.0009311999999998,0.0025730000000004,-0.0078801999999991,-0.0048449999999999,0,sub_22
-0.0005674000000002,0.0235210000000012,-0.0012179999999998,0.0037742000000004,-0.0084433999999991,-0.0054157999999999,0,sub_22
0.0009725999999997,0.0234310000000012,-0.0013827999999998,0.0056126000000004,-0.0090113999999991,-0.0053411999999999,0,sub_22
0.0023629999999997,0.0219134000000012,-0.0006205999999998,0.0068148000000004,-0.0085127999999991,-0.0050587999999999,0,sub_22
0.0036931999999997,0.0194170000000012,1.840000000010089e-05,0.0074538000000004,-0.0083037999999991,-0.0046271999999999,0,sub_22
0.0049241999999997,0.0176854000000012,-6.319999999989908e-05,0.0074472000000004,-0.0087341999999991,-0.0035583999999999,0,sub_22
0.0055861999999997,0.0148796000000012,0.0001230000000001,0.0070156000000003,-0.0085245999999991,-0.0022797999999999,0,sub_22
0.0063443999999997,0.0125234000000012,0.0010298,0.0058666000000003,-0.0080189999999991,-0.0007319999999999,0,sub_22
0.0068667999999997,0.0106744000000012,0.00072,0.0049318000000003,-0.0075133999999991,0.0006036,0,sub_22
0.0076571999999997,0.0101426000000012,0.000671,0.0042086000000003,-0.0076467999999991,0.0017278,0,sub_22
0.0070619999999997,0.0086952000000012,0.0011,0.0032786000000003,-0.0073489999999991,0.0017818,0,sub_22
0.0062637999999997,0.0088136000000012,0.0016496,0.0032014000000003,-0.0076917999999991,0.0014154,0,sub_22
0.0044669999999997,0.0095374000000012,0.0013324000000001,0.0034176000000003,-0.0083265999999991,0.000136,0,sub_22
0.0032431999999997,0.0106904000000012,0.0014516000000001,0.0034186000000003,-0.0098109999999991,-0.0015711999999999,0,sub_22
0.0017223999999997,0.0112016000000012,0.0006974000000001,0.0030034000000003,-0.0097991999999991,-0.0041377999999999,0,sub_22
0.0007051999999997,0.0119048000000012,-0.0001385999999998,0.0025516000000003,-0.0095361999999991,-0.0068925999999999,0,sub_22
-0.0007530000000002,0.0127686000000012,-0.0006477999999998,0.0018862000000004,-0.0094845999999991,-0.0098623999999999,0,sub_22
-0.0016336000000002,0.0133992000000012,-0.0010695999999998,0.0005818000000004,-0.0087933999999991,-0.0124101999999999,0,sub_22
-0.0026192000000001,0.0142772000000011,-0.0016717999999998,-0.0011455999999995,-0.0070363999999991,-0.0147485999999999,0,sub_22
-0.0037956000000001,0.0147710000000011,-0.0020523999999998,-0.0030853999999995,-0.0040043999999991,-0.0160219999999999,0,sub_22
-0.0046432000000002,0.0159550000000011,-0.0022163999999998,-0.0041359999999995,-0.0005909999999991,-0.0162473999999999,0,sub_22
-0.0040000000000002,0.0162566000000011,-0.0020719999999998,-0.0045549999999995,0.0026002000000008,-0.0147587999999999,0,sub_22
-0.0024114000000001,0.0161292000000011,-0.0017117999999998,-0.0041253999999995,0.0051476000000008,-0.0128361999999999,0,sub_22
-0.0006798000000002,0.0158184000000012,-0.0009487999999998,-0.0037301999999995,0.0068464000000008,-0.0098403999999999,0,sub_22
0.0015449999999997,0.0158662000000012,8.540000000010102e-05,-0.0027081999999995,0.0064090000000008,-0.0059827999999999,0,sub_22
0.0035387999999997,0.0158032000000012,0.0005168000000001,-0.0023293999999995,0.0057590000000008,-0.0017021999999999,0,sub_22
0.0050265999999997,0.0166136000000012,0.0008158000000001,-0.0025887999999995,0.0055374000000008,0.0025734,0,sub_22
0.0048497999999997,0.0180242000000012,0.0010250000000001,-0.0030633999999995,0.0053148000000008,0.0072748,0,sub_22
0.0045165999999997,0.0190630000000012,0.0015712000000001,-0.0032957999999995,0.0057230000000008,0.0119728,0,sub_22
0.0044463999999997,0.0209592000000012,0.0013074000000001,-0.0033111999999995,0.0057092000000008,0.015391,0,sub_22
0.0045833999999997,0.0226704000000012,0.0023092000000001,-0.0026871999999995,0.0050560000000008,0.0183872,0,sub_22
0.0042135999999997,0.0217062000000012,0.0024996000000001,-0.0023053999999995,0.0040000000000008,0.0205288,0,sub_22
0.0055387999999997,0.0195984000000012,0.0017936000000001,-0.0012823999999996,0.0014572000000008,0.0209676,0,sub_22
0.0069003999999997,0.0169078000000012,0.0008922000000001,-0.0002509999999996,-0.0012901999999991,0.0192704,0,sub_22
0.0066915999999997,0.0133496000000012,0.0007692000000001,-5.9599999999609184e-05,-0.0019005999999991,0.01671,0,sub_22
0.0060019999999997,0.0101558000000012,-0.0002549999999998,0.0001384000000003,-0.0022927999999991,0.0128674,0,sub_22
0.0049211999999998,0.0092044000000012,-0.0010951999999998,0.0001558000000003,-0.0033383999999991,0.007955,0,sub_22
0.0033283999999998,0.0095204000000012,-0.0009253999999998,-0.0004603999999995,-0.0022537999999991,0.0036764,0,sub_22
0.0013643999999998,0.0108236000000012,-0.0011169999999998,-0.0002267999999996,-0.0009633999999991,0.0004716,0,sub_22
0.0004499999999998,0.0125852000000012,-0.0016569999999998,-4.799999999609235e-06,-0.0009563999999991,-0.0014497999999999,0,sub_22
