userAcceleration.x,userAcceleration.y,userAcceleration.z,rotationRate.x,rotationRate.y,rotationRate.z,label,subject
0.0029277999999998,0.0106558000000012,-0.0061925999999999,-0.0002271999999996,0.0037670000000009,-0.0059077999999998,0,sub_16
0.0027869999999997,0.0090480000000012,-0.0077467999999999,-2.8999999999640906e-05,0.0025012000000009,-0.0052563999999998,0,sub_16
0.0026579999999997,0.0064804000000012,-0.0082991999999999,0.0008064000000003,0.0003818000000009,-0.0048131999999998,0,sub_16
0.0023643999999998,0.0023800000000012,-0.0079713999999998,0.0014256000000003,-0.001527199999999,-0.0035171999999998,0,sub_16
0.0021055999999998,-0.0016867999999987,-0.0060879999999998,0.0020438000000003,-0.003224799999999,-0.0017941999999998,0,sub_16
0.0008445999999998,-0.0048265999999987,-0.0037429999999999,0.0024542000000003,-0.004726199999999,0.0003470000000001,0,sub_16
0.0003305999999998,-0.0066913999999987,-0.0019947999999999,0.0024436000000003,-0.005372199999999,0.0020568000000001,0,sub_16
0.0001051999999998,-0.0063029999999987,-8.579999999990809e-05,0.0009382000000003,-0.005356799999999,0.0035478000000001,0,sub_16
0.0009919999999998,-0.0036751999999987,0.0014418,-0.0003441999999996,-0.004484999999999,0.0037574000000001,0,sub_16
0.0017429999999998,-0.0004339999999987,0.002112,-0.0014045999999996,-0.002332999999999,0.0033262000000001,0,sub_16
0.0041607999999998,0.0044194000000012,0.001629,-0.0018161999999996,0.0006732000000009,0.0018302000000001,0,sub_16
0.0058283999999998,0.0093960000000012,0.0009432,-0.0018039999999996,0.0028266000000009,0.0001246000000001,0,sub_16
0.0067593999999998,0.0129986000000012,-0.0007771999999999,-0.0011513999999996,0.0041086000000009,-0.0013679999999998,0,sub_16
0.0068435999999998,0.0148302000000012,-0.0034835999999999,-0.0002941999999996,0.0043214000000009,-0.0020031999999998,0,sub_16
0.0064047999999998,0.0155142000000012,-0.0058359999999998,0.0007660000000003,0.0026140000000009,-0.0022071999999998,0,sub_16
0.0047007999999998,0.0136098000000012,-0.0079125999999998,0.0018194000000003,5.200000000091451e-05,-0.0017693999999998,0,sub_16
0.0024969999999998,0.0091100000000012,-0.0082703999999999,0.0022336000000003,-0.001431399999999,-0.0011169999999998,0,sub_16
0.0004231999999998,0.0042148000000012,-0.0084549999999999,0.0024382000000003,-0.001849799999999,-0.0002537999999998,0,sub_16
-0.0015934000000001,-0.0006613999999987,-0.0071749999999999,0.0022170000000003,-0.002265799999999,0.0003928000000001,0,sub_16
-0.0032168000000001,-0.0052453999999987,-0.0057139999999999,0.0019986000000003,-0.002466999999999,0.0006118000000001,0,sub_16
-0.0037028000000001,-0.0083301999999987,-0.0037579999999999,0.0009306000000003,-0.002025199999999,0.0006106000000001,0,sub_16
-0.0027580000000001,-0.0076867999999987,-0.0026009999999999,-0.0001333999999996,-0.001170199999999,0.0008156000000001,0,sub_16
-0.0009826000000001,-0.0057743999999987,-0.0009697999999999,-0.0011935999999996,-9.939999999906516e-05,0.0003796000000001,0,sub_16
0.0016193999999998,-0.0020221999999987,-0.0002969999999999,-0.0022545999999996,0.0018340000000009,0.0001638000000001,0,sub_16
0.0042413999999998,0.0028838000000012,-7.919999999990811e-05,-0.0031003999999996,0.0046172000000009,0.0003756000000001,0,sub_16
0.0065303999999998,0.0077888000000012,-0.0006349999999999,-0.0026705999999996,0.0063306000000009,0.0005976,0,sub_16
0.0081203999999998,0.0110616000000012,-0.0015731999999999,-0.0016075999999996,0.0063384000000009,0.0006128,0,sub_16
0.0086785999999998,0.0133982000000012,-0.0029135999999999,8.900000000035893e-05,0.0050646000000009,0.0008476,0,sub_16
0.0081745999999998,0.0128988000000012,-0.0039377999999999,0.0015692000000003,0.0020766000000009,0.0008618,0,sub_16
0.0064531999999998,0.0106432000000012,-0.0047673999999999,0.0026180000000003,-0.001762799999999,0.0010878,0,sub_16
0.0046247999999998,0.0072370000000012,-0.0049977999999999,0.0026084000000003,-0.003468799999999,0.0015172000000001,0,sub_16
0.0021839999999998,0.0033334000000012,-0.0046817999999999,0.0015364000000003,-0.003674799999999,0.0021602000000001,0,sub_16
1.939999999980265e-05,-0.0006217999999987,-0.0044119999999999,-0.0003883999999996,-0.003452399999999,0.0030104000000001,0,sub_16
-0.0016818000000001,-0.0029889999999987,-0.0049189999999999,-0.0025177999999996,-0.001311799999999,0.0038566000000001,0,sub_16
-0.0018730000000001,-0.0040435999999987,-0.0042653999999999,-0.0046395999999996,0.0018966000000009,0.0040606000000001,0,sub_16
-0.0016134000000001,-0.0035137999999987,-0.0040559999999999,-0.0057001999999996,0.0036106000000009,0.0040604000000001,0,sub_16
-0.0007416000000001,-0.0019975999999987,-0.0044151999999999,-0.0059069999999996,0.0046784000000009,0.0036302000000001,0,sub_16
0.0011743999999997,0.0011614000000012,-0.0044543999999999,-0.0052581999999996,0.0059570000000009,0.0029920000000001,0,sub_16
0.0034229999999997,0.0042942000000012,-0.0038103999999999,-0.0033339999999996,0.0063782000000009,0.0025776000000001,0,sub_16
0.0049251999999997,0.0070578000000012,-0.0039843999999999,-0.0007783999999996,0.0050918000000009,0.0023834000000001,0,sub_16
0.0057899999999998,0.0091864000000012,-0.0037965999999999,0.0009228000000003,0.0042436000000009,0.0021890000000001,0,sub_16
0.0059855999999998,0.0104482000000012,-0.0033295999999999,0.0019812000000003,0.0029706000000009,0.0022044000000001,0,sub_16
0.0054093999999998,0.0097598000000012,-0.0035335999999999,0.0021842000000003,0.0010624000000009,0.0020010000000001,0,sub_16
0.0041541999999998,0.0085206000000012,-0.0035835999999999,0.0017518000000003,9.400000000954592e-06,0.0015784000000001,0,sub_16
0.0034163999999998,0.0070110000000012,-0.0033317999999999,0.0008994000000003,0.0004492000000009,0.0011510000000001,0,sub_16
0.0021557999999998,0.0045488000000012,-0.0028183999999998,-0.0008045999999996,0.0010944000000009,0.0011382000000001,0,sub_16
0.0019687999999998,0.0028290000000012,-0.0030549999999998,-0.0018655999999996,0.0023764000000009,0.0011292000000001,0,sub_16
0.0013743999999998,0.0014920000000012,-0.0028461999999998,-0.0035693999999996,0.0043006000000009,0.0017602000000001,0,sub_16
0.0011241999999998,0.0003740000000012,-0.0030277999999998,-0.0044215999999996,0.0055834000000009,0.0021844000000001,0,sub_16
0.0006527999999998,0.0005308000000012,-0.0035201999999998,-0.0048517999999996,0.0064362000000009,0.0032528000000001,0,sub_16
0.0008563999999998,0.0021480000000012,-0.0043349999999999,-0.0046447999999996,0.0062232000000009,0.0039000000000001,0,sub_16
0.0006457999999998,0.0035358000000012,-0.0042033999999998,-0.0046531999999996,0.0053726000000009,0.0043328000000001,0,sub_16
0.0011175999999998,0.0046920000000012,-0.0044103999999998,-0.0029499999999996,0.0038778000000009,0.0037058000000001,0,sub_16
0.0017779999999998,0.0055106000000012,-0.0040145999999998,-0.0016715999999996,0.0028106000000009,0.0030752000000001,0,sub_16
0.0024375999999998,0.0058096000000012,-0.0037175999999998,-0.0003883999999996,0.0023842000000009,0.0020166000000001,0,sub_16
0.0030745999999998,0.0055524000000012,-0.0030523999999998,0.0006828000000003,0.0023866000000009,0.0007454000000001,0,sub_16
0.0028499999999998,0.0050696000000012,-0.0031803999999998,0.0009006000000003,0.0026042000000009,-0.0003183999999998,0,sub_16
0.0025065999999998,0.0048334000000012,-0.0034689999999998,0.0006916000000003,0.0034598000000009,-0.0007451999999998,0,sub_16
0.0020925999999998,0.0048738000000012,-0.0037909999999998,-0.0001603999999996,0.0036786000000009,-0.0011755999999998,0,sub_16
0.0022175999999998,0.0047088000000012,-0.0037637999999998,-0.0012295999999996,0.0034704000000009,-0.0011795999999998,0,sub_16
0.0023723999999998,0.0043578000000012,-0.0039635999999998,-0.0014447999999996,0.0032572000000008,-0.0009671999999998,0,sub_16
0.0031489999999998,0.0036124000000012,-0.0036615999999998,-0.0014485999999996,0.0026172000000008,-0.0007527999999998,0,sub_16
0.0034227999999998,0.0029612000000012,-0.0031475999999998,-0.0014561999999996,0.0019738000000009,0.0003162000000001,0,sub_16
0.0034203999999998,0.0031102000000012,-0.0029033999999998,-0.0012493999999996,0.0019666000000009,0.0015986000000001,0,sub_16
0.0031697999999998,0.0029724000000012,-0.0031301999999998,-0.0014703999999996,0.0015356000000009,0.0026648000000001,0,sub_16
0.0024841999999998,0.0026764000000012,-0.0034515999999998,-0.0023315999999996,0.0008946000000009,0.0035132000000001,0,sub_16
0.0018717999999998,0.0029484000000012,-0.0034175999999998,-0.0025477999999996,0.0011044000000008,0.0041514000000001,0,sub_16
0.0018935999999998,0.0034494000000012,-0.0035367999999998,-0.0021191999999996,0.0013164000000008,0.0037258000000001,0,sub_16
0.0022441999999998,0.0036826000000012,-0.0036267999999998,-0.0019019999999996,0.0015312000000008,0.0030860000000001,0,sub_16
0.0021167999999998,0.0037844000000012,-0.0030685999999999,-0.0016819999999996,0.0019608000000008,0.0020188000000001,0,sub_16
0.0021233999999998,0.0038904000000012,-0.0029319999999999,-0.0003967999999996,0.0023850000000009,0.0013862000000001,0,sub_16
0.0023717999999998,0.0042562000000012,-0.0030859999999999,0.0002518000000003,0.0028018000000009,0.0009564000000001,0,sub_16
0.0026757999999998,0.0043560000000012,-0.0031241999999999,0.0002592000000003,0.0030076000000009,0.0005226000000001,0,sub_16
0.0027719999999998,0.0042372000000012,-0.0028973999999998,0.0004752000000003,0.0023598000000009,0.0003048000000001,0,sub_16
0.0027247999999998,0.0044074000000012,-0.0034435999999998,0.0006894000000003,0.0014980000000009,0.0003008000000001,0,sub_16
0.0029189999999998,0.0048016000000012,-0.0035949999999998,5.180000000035892e-05,0.0008530000000009,7.720000000012388e-05,0,sub_16
0.0027223999999998,0.0048318000000012,-0.0038351999999998,-0.0001645999999996,0.0002146000000009,7.640000000012386e-05,0,sub_16
0.0023897999999997,0.0048112000000012,-0.0035431999999998,-0.0005959999999996,-0.000424799999999,0.0005014000000001,0,sub_16
0.0019051999999998,0.0047948000000012,-0.0040951999999998,-0.0010237999999996,-0.000424199999999,0.0007122000000001,0,sub_16
0.0020137999999998,0.0039918000000012,-0.0042861999999998,-0.0010237999999996,-0.000211999999999,0.0009256000000001,0,sub_16
0.0021573999999998,0.0031980000000012,-0.0038589999999998,-0.0005919999999996,-0.000438799999999,0.0007078000000001,0,sub_16
0.0022393999999998,0.0023814000000012,-0.0035707999999998,-0.0001611999999996,-0.000878799999999,0.0004904000000001,0,sub_16
0.0022801999999998,0.0026738000000012,-0.0035899999999998,0.0002704000000003,-0.001317799999999,5.9200000000123866e-05,0,sub_16
0.0024879999999998,0.0035640000000012,-0.0028235999999998,0.0006992000000003,-0.002183799999999,-0.0001577999999998,0,sub_16
0.0023113999999998,0.0044854000000012,-0.0021263999999998,0.0013452000000003,-0.003047199999999,-0.0012277999999998,0,sub_16
0.0026445999999998,0.0047526000000012,-0.0021715999999998,0.0017748000000003,-0.003046199999999,-0.0018657999999998,0,sub_16
0.0030047999999998,0.0054078000000012,-0.0023205999999998,0.0019940000000003,-0.002405199999999,-0.0025059999999998,0,sub_16
0.0031565999999998,0.0050626000000012,-0.0022469999999998,0.0020048000000003,-0.001994999999999,-0.0027281999999998,0,sub_16
0.0031151999999998,0.0044016000000012,-0.0023647999999998,0.0015928000000003,-0.001367799999999,-0.0035947999999998,0,sub_16
0.0030163999999997,0.0038910000000012,-0.0031511999999998,0.0007472000000003,-0.001169399999999,-0.0033955999999998,0,sub_16
0.0025325999999997,0.0042196000000012,-0.0034253999999998,-0.0003147999999996,-0.001184999999999,-0.0027703999999998,0,sub_16
0.0021061999999997,0.0047072000000012,-0.0035395999999998,-0.0007413999999996,-0.002055799999999,-0.0019259999999998,0,sub_16
0.0020367999999998,0.0047670000000012,-0.0041177999999998,-0.0011709999999996,-0.002481399999999,-0.0017149999999998,0,sub_16
0.0022267999999998,0.0043836000000012,-0.0042135999999998,-0.0011767999999996,-0.002910999999999,-0.0008599999999998,0,sub_16
0.0022415999999998,0.0041870000000012,-0.0035013999999998,-0.0007547999999996,-0.003341199999999,-0.0002155999999998,0,sub_16
0.0023979999999998,0.0040418000000012,-0.0036599999999998,-0.0001081999999996,-0.003361199999999,-3.3999999998561387e-06,0,sub_16
0.0026643999999998,0.0039646000000012,-0.0036461999999999,0.0001144000000003,-0.002952799999999,-8.39999999987615e-06,0,sub_16
0.0025363999999998,0.0040916000000012,-0.0033683999999999,0.0007590000000003,-0.003398799999999,0.0002044000000001,0,sub_16
0.0021375999999998,0.0037500000000012,-0.0032819999999999,0.0014054000000003,-0.004055399999999,-0.0002235999999998,0,sub_16
0.0025803999999998,0.0040466000000012,-0.0038199999999999,0.0009878000000003,-0.0040691999999989,-0.0006597999999998,0,sub_16
0.0024121999999998,0.0040610000000012,-0.0026835999999999,0.0005600000000003,-0.004705199999999,-0.0010891999999998,0,sub_16
0.0022901999999998,0.0039184000000012,-0.0027125999999999,0.0007734000000003,-0.005130399999999,-0.0015145999999998,0,sub_16
0.0024441999999998,0.0037418000000012,-0.0025595999999999,0.0009954000000003,-0.004062599999999,-0.0023689999999998,0,sub_16
0.0029861999999998,0.0039308000000012,-0.0023755999999999,0.0012204000000003,-0.002586199999999,-0.0021637999999998,0,sub_16
0.0030479999999998,0.0041522000000012,-0.0022207999999999,0.0018674000000003,-0.001964399999999,-0.0017409999999998,0,sub_16
0.0032159999999998,0.0044594000000012,-0.0031159999999998,0.0016580000000003,-0.001554399999999,-0.0008967999999998,0,sub_16
0.0033119999999998,0.0046540000000012,-0.0029855999999998,0.0008064000000003,-0.001780399999999,-0.0002695999999998,0,sub_16
0.0030903999999997,0.0051378000000012,-0.0036455999999998,-0.0002603999999996,-0.002431799999999,0.0003564000000001,0,sub_16
0.0027123999999998,0.0058644000000012,-0.0044895999999998,-0.0006919999999996,-0.003283399999999,0.0005680000000001,0,sub_16
0.0024541999999998,0.0057812000000012,-0.0044113999999998,-0.0011177999999996,-0.003280999999999,0.0003514000000001,0,sub_16
0.0026157999999998,0.0052948000000012,-0.0041907999999998,-0.0008987999999996,-0.002427799999999,-7.539999999987617e-05,0,sub_16
0.0027337999999998,0.0048078000000012,-0.0041303999999998,-0.0004661999999996,-0.001575399999999,-0.0005007999999998,0,sub_16
0.0027789999999998,0.0039452000000012,-0.0040045999999998,0.0001808000000003,-0.001160999999999,-0.0005037999999998,0,sub_16
0.0030319999999998,0.0032424000000012,-0.0034287999999998,0.0004032000000003,-0.000743399999999,-0.0009369999999998,0,sub_16
0.0031261999999998,0.0032926000000012,-0.0034725999999998,0.0008368000000003,-0.000540599999999,-0.0011547999999998,0,sub_16
0.0025735999999998,0.0034814000000012,-0.0033109999999998,0.0010544000000003,-0.001188199999999,-0.0015865999999998,0,sub_16
0.0021839999999998,0.0036608000000012,-0.0035439999999998,0.0016986000000003,-0.001837399999999,-0.0020155999999998,0,sub_16
0.0022511999999998,0.0039082000000012,-0.0033297999999998,0.0021254000000003,-0.002475399999999,-0.0026525999999998,0,sub_16
0.0022803999999998,0.0039212000000012,-0.0033525999999998,0.0023378000000003,-0.002901399999999,-0.0028641999999998,0,sub_16
0.0023169999999998,0.0037636000000011,-0.0034319999999998,0.0023398000000003,-0.003328199999999,-0.0032927999999998,0,sub_16
0.0024261999999998,0.0037610000000012,-0.0031761999999998,0.0021312000000003,-0.002902999999999,-0.0035101999999998,0,sub_16
0.0026383999999998,0.0039256000000012,-0.0028657999999998,0.0012806000000003,-0.002265199999999,-0.0030913999999998,0,sub_16
0.0024677999999998,0.0040900000000012,-0.0025989999999998,0.0004300000000003,-0.001415199999999,-0.0024591999999998,0,sub_16
0.0026275999999998,0.0044364000000012,-0.0026659999999999,-0.0004243999999996,-0.001204999999999,-0.0016125999999998,0,sub_16
0.0023065999999998,0.0045018000000012,-0.0026643999999999,-0.0010673999999996,-0.001205399999999,-0.0009759999999998,0,sub_16
0.0024893999999998,0.0045248000000012,-0.0031059999999999,-0.0008567999999996,-0.001420999999999,-0.0005469999999998,0,sub_16
0.0024283999999998,0.0039512000000012,-0.0029977999999998,-0.0002165999999996,-0.001635399999999,-0.0007557999999998,0,sub_16
0.0024205999999998,0.0039886000000012,-0.0033841999999998,0.0004218000000003,-0.002484799999999,-0.0009619999999998,0,sub_16
0.0019641999999998,0.0038052000000012,-0.0036143999999998,0.0008486000000003,-0.002695199999999,-0.0009567999999998,0,sub_16
0.0017619999999998,0.0037230000000012,-0.0035761999999998,0.0012764000000003,-0.002692399999999,-0.0009519999999998,0,sub_16
0.0017813999999998,0.0036502000000012,-0.0038855999999998,0.0017032000000003,-0.003114999999999,-0.0011601999999998,0,sub_16
0.0020831999999998,0.0034908000000012,-0.0043039999999998,0.0017042000000003,-0.003322999999999,-0.0013715999999998,0,sub_16
0.0020519999999998,0.0032916000000012,-0.0038341999999998,0.0017050000000003,-0.003109999999999,-0.0013719999999998,0,sub_16
0.0025833999999998,0.0036526000000012,-0.0040325999999998,0.0019222000000003,-0.002682999999999,-0.0017981999999998,0,sub_16
0.0032761999999998,0.0035398000000012,-0.0038621999999998,0.0021386000000003,-0.002256799999999,-0.0020107999999998,0,sub_16
0.0035137999999998,0.0034568000000012,-0.0036207999999998,0.0017138000000003,-0.001829199999999,-0.0020143999999998,0,sub_16
0.0035225999999998,0.0040770000000012,-0.0031837999999998,0.0012850000000003,-0.001393599999999,-0.0013721999999998,0,sub_16
0.0038691999999998,0.0042630000000012,-0.0029495999999999,0.0010686000000003,-0.001171599999999,-0.0007279999999998,0,sub_16
0.0033751999999998,0.0045196000000012,-0.0026883999999999,0.0008512000000003,-0.001374999999999,-0.0002971999999998,0,sub_16
0.0030971999999998,0.0048732000000012,-0.0029899999999999,0.0004212000000003,-0.001576799999999,-8.13999999998761e-05,0,sub_16
0.0030953999999998,0.0051602000000012,-0.0028759999999999,0.0002066000000003,-0.001565399999999,-7.779999999987615e-05,0,sub_16
0.0027597999999997,0.0048122000000012,-0.0031525999999999,0.0002066000000003,-0.001777599999999,-0.0002911999999998,0,sub_16
0.0027353999999997,0.0050458000000012,-0.0033427999999999,0.0002094000000003,-0.001562999999999,-0.0007187999999998,0,sub_16
0.0028621999999997,0.0043458000000012,-0.0029713999999999,0.0002096000000002,-0.001125999999999,-0.0005015999999998,0,sub_16
0.0025933999999998,0.0042096000000012,-0.0028695999999999,0.0004250000000002,-0.000475999999999,-0.0004969999999998,0,sub_16
0.0025575999999998,0.0034894000000012,-0.0034087999999999,0.0006366000000003,-4.15999999990653e-05,0.0001488000000001,0,sub_16
0.0024623999999998,0.0035220000000012,-0.0032793999999999,0.0010672000000003,0.0006094000000009,-0.0002721999999998,0,sub_16
0.0024161999999998,0.0033502000000012,-0.0033623999999999,0.0012808000000003,0.0010456000000009,-5.3599999999876166e-05,0,sub_16
0.0023447999999998,0.0039506000000012,-0.0032751999999999,0.0012826000000003,0.0008350000000009,-0.0006941999999998,0,sub_16
0.0025805999999998,0.0041012000000012,-0.0033641999999999,0.0014942000000003,-1.6199999999065313e-05,-0.0011187999999998,0,sub_16
0.0024351999999998,0.0048426000000012,-0.0035509999999999,0.0017066000000003,-0.001078799999999,-0.0019705999999998,0,sub_16
0.0024935999999998,0.0048548000000012,-0.0039605999999998,0.0012750000000003,-0.001701799999999,-0.0021799999999998,0,sub_16
0.0021957999999998,0.0047598000000012,-0.0040211999999998,0.0012730000000003,-0.002323799999999,-0.0030271999999998,0,sub_16
0.0022441999999998,0.0040274000000012,-0.0042555999999998,0.0010576000000003,-0.002096199999999,-0.0030225999999998,0,sub_16
0.0017223999999998,0.0037120000000012,-0.0040705999999998,-1.239999999964117e-05,-0.001442199999999,-0.0023835999999998,0,sub_16
0.0017591999999998,0.0034042000000012,-0.0038493999999998,-0.0008649999999996,-0.000360999999999,-0.0021707999999998,0,sub_16
0.0021323999999998,0.0036220000000012,-0.0036527999999998,-0.0008649999999996,6.340000000093465e-05,-0.0017439999999998,0,sub_16
0.0026087999999998,0.0035058000000012,-0.0039731999999998,-0.0006555999999996,-0.000152999999999,-0.0011013999999998,0,sub_16
0.0026927999999998,0.0035360000000012,-0.0040601999999998,-0.0004459999999996,-0.001218199999999,-0.0013121999999998,0,sub_16
0.0028405999999998,0.0032638000000012,-0.0042009999999998,0.0004036000000003,-0.002285599999999,-0.0015183999999998,0,sub_16
0.0024405999999998,0.0035162000000012,-0.0039301999999998,0.0010358000000003,-0.003128599999999,-0.0010771999999998,0,sub_16
0.0021373999999998,0.0033258000000012,-0.0040133999999998,0.0014566000000003,-0.003969199999999,-0.0010647999999998,0,sub_16
0.0018051999999998,0.0031866000000012,-0.0039123999999998,0.0018822000000003,-0.003956599999999,-0.0012669999999998,0,sub_16
0.0016055999999998,0.0032352000000012,-0.0039043999999998,0.0025172000000003,-0.003948399999999,-0.0006131999999998,0,sub_16
0.0018609999999998,0.0040438000000012,-0.0038053999999999,0.0025142000000003,-0.003723999999999,-0.0001777999999998,0,sub_16
0.0018051999999998,0.0042622000000012,-0.0035157999999999,0.0023036000000003,-0.003084199999999,-0.0001799999999998,0,sub_16
0.0018645999999998,0.0041776000000012,-0.0033677999999999,0.0018816000000003,-0.001805199999999,2.9000000000123863e-05,0,sub_16
0.0020629999999998,0.0041806000000012,-0.0025489999999999,0.0012400000000003,-0.000513799999999,0.0006718000000001,0,sub_16
0.0021537999999998,0.0039090000000012,-0.0021801999999998,0.0003880000000003,0.0012054000000008,0.0010992000000001,0,sub_16
0.0025461999999998,0.0031338000000012,-0.0021659999999998,-0.0002525999999996,0.0024978000000008,0.0015284,0,sub_16
0.0027255999999998,0.0032712000000012,-0.0026189999999998,-0.0004711999999996,0.0029356000000008,0.0021754,0,sub_16
0.0028375999999998,0.0036372000000012,-0.0025389999999998,-0.0006927999999996,0.0025218000000008,0.00261,0,sub_16
0.0027309999999998,0.0036828000000012,-0.0026309999999998,-0.0009079999999996,0.0020964000000008,0.0026092000000001,0,sub_16
0.0028281999999998,0.0043126000000012,-0.0028653999999998,-0.0011213999999996,0.0018850000000009,0.0023942000000001,0,sub_16
0.0024427999999998,0.0045546000000012,-0.0026921999999998,-0.0009079999999996,0.0016720000000009,0.0021824000000001,0,sub_16
0.0019503999999998,0.0043440000000012,-0.0027359999999998,-0.0015475999999996,0.0021132000000009,0.0017558000000001,0,sub_16
0.0013411999999998,0.0051408000000012,-0.0031213999999999,-0.0015451999999996,0.0031906000000009,0.0015464000000001,0,sub_16
0.0014867999999998,0.0062166000000012,-0.0037381999999999,-0.0019695999999996,0.0044816000000009,0.0015474000000001,0,sub_16
0.0023517999999998,0.0059362000000012,-0.0046933999999999,-0.0017547999999996,0.0053450000000009,0.0013400000000001,0,sub_16
0.0030459999999998,0.0053172000000012,-0.0062619999999999,-0.0017563999999996,0.0062066000000009,0.0017718000000001,0,sub_16
0.0042725999999998,0.0038164000000012,-0.0071557999999999,-0.0006923999999996,0.0066246000000009,0.0028470000000001,0,sub_16
0.0043967999999998,0.0014830000000012,-0.0065209999999998,0.0003610000000003,0.0055480000000009,0.0047786000000001,0,sub_16
0.0029101999999998,-0.0004761999999987,-0.0048835999999998,0.0022564000000003,0.0014872000000009,0.0062926000000001,0,sub_16
0.0006321999999998,-0.0014593999999987,-0.0021105999999998,0.0026582000000003,-0.002992599999999,0.0073694000000001,0,sub_16
-0.0006232000000001,-0.0006591999999987,0.0006438000000001,0.0011510000000003,-0.005109599999999,0.0073678000000001,0,sub_16
-0.0012944000000001,0.0018002000000012,0.0028406000000001,-0.0011887999999996,-0.003809599999999,0.0060740000000001,0,sub_16
-0.0002824000000001,0.0054368000000012,0.0024208,-0.0037167999999996,0.0013326000000009,0.0030650000000001,0,sub_16
0.0020275999999998,0.0088084000000012,8.22000000000921e-05,-0.0064447999999996,0.0094586000000009,5.080000000012384e-05,0,sub_16
0.0043411999999998,0.0127562000000012,-0.0025405999999999,-0.0074697999999996,0.0169384000000009,-0.0027371999999998,0,sub_16
0.0063333999999998,0.0149898000000012,-0.0052925999999999,-0.0065979999999996,0.0190736000000009,-0.0046565999999998,0,sub_16
0.0073913999999998,0.0147672000000012,-0.0079411999999999,-0.0051157999999996,0.0160872000000009,-0.0050695999999998,0,sub_16
0.0071495999999998,0.0110020000000012,-0.0091209999999999,-0.0034437999999996,0.0096952000000009,-0.0044013999999998,0,sub_16
0.0061741999999998,0.0057666000000012,-0.0095951999999999,-0.0007143999999996,0.0026542000000009,-0.0022295999999998,0,sub_16
0.0028985999999998,-0.0012973999999987,-0.0078941999999999,0.0024390000000003,-0.003753999999999,0.0012264000000001,0,sub_16
-0.0012692000000001,-0.0070521999999987,-0.0052009999999999,0.0047522000000003,-0.007600999999999,0.0042460000000001,0,sub_16
-0.0051384000000001,-0.0110069999999987,-0.0020895999999999,0.0053776000000003,-0.008666199999999,0.0057546000000001,0,sub_16
-0.0062102000000001,-0.0107927999999987,0.0007238,0.0036832000000003,-0.005465999999999,0.0061658000000001,0,sub_16
-0.0058820000000001,-0.0075223999999987,0.0030368,0.0002980000000003,-0.000123399999999,0.0050672000000001,0,sub_16
-0.0021764000000001,-0.0014587999999987,0.002198,-0.0039291999999996,0.0065054000000009,0.0026790000000001,0,sub_16
0.0023337999999998,0.0051212000000012,0.000715,-0.0073067999999996,0.0127036000000009,0.0007246000000001,0,sub_16
