userAcceleration.x,userAcceleration.y,userAcceleration.z,rotationRate.x,rotationRate.y,rotationRate.z,label,subject
-0.0040048000000002,-2.939999999878049e-05,-0.0090481999999998,0.0008586000000004,-0.002010599999999,0.0004798,0,sub_6
-0.0038830000000001,-0.0005087999999987,-0.0097277999999998,0.0004276000000004,-0.002438799999999,0.000686,0,sub_6
-0.0041448000000001,-4.21999999987805e-05,-0.0095289999999998,-0.0002099999999995,-0.002011599999999,0.0002488,0,sub_6
-0.0040864000000001,-0.0002465999999987,-0.0100281999999998,-0.0002047999999995,-0.001583999999999,-0.0008249999999999,0,sub_6
-0.0036408000000001,-0.0009033999999987,-0.0108227999999998,5.200000000443296e-06,-0.003074599999999,-0.0018947999999998,0,sub_6
-0.0034168000000001,-0.0011373999999987,-0.0097693999999998,0.0002234000000004,-0.002646799999999,-0.0025347999999998,0,sub_6
-0.0027302000000001,-0.0004731999999988,-0.0085293999999998,0.0002262000000004,-0.002007599999999,-0.0025355999999998,0,sub_6
-0.0016750000000002,-0.0005323999999988,-0.0079229999999998,0.0004386000000004,-0.001160399999999,-0.0014669999999998,0,sub_6
-0.0014888000000002,0.0005204000000011,-0.0062453999999999,0.0004378000000004,0.0001120000000009,2.680000000010365e-05,0,sub_6
-0.0025958000000002,0.0018664000000011,-0.0052077999999998,0.0006518000000004,0.0018092000000009,0.0010918,0,sub_6
-0.0036966000000002,0.0028014000000011,-0.0065345999999998,0.0012828000000004,0.0013744000000009,0.0021624,0,sub_6
-0.0047396000000002,0.0023750000000012,-0.0083097999999998,0.0017024000000004,0.0009420000000009,0.0028042,0,sub_6
-0.0055592000000001,0.0015404000000012,-0.0089849999999998,0.0014828000000004,-0.000335999999999,0.0023744,0,sub_6
-0.0061932000000001,-2.6199999998780496e-05,-0.0097751999999998,0.0012622000000004,-0.002039399999999,0.0017316,0,sub_6
-0.0054284000000001,-0.0017073999999987,-0.0099073999999998,0.0008316000000004,-0.003526799999999,0.0010894,0,sub_6
-0.0036174000000001,-0.0018913999999987,-0.0092861999999998,0.0004078000000004,-0.003522799999999,0.0004454000000001,0,sub_6
-0.0022680000000001,-0.0013327999999987,-0.0082817999999998,-0.0004437999999995,-0.003305799999999,0.0002256000000001,0,sub_6
-0.0013786000000002,0.0002080000000012,-0.0086711999999998,-0.0008705999999995,-0.002239799999999,0.0002196,0,sub_6
-0.0019882000000002,0.0021606000000012,-0.0079501999999998,-0.0010791999999995,-0.000321399999999,4.0000000008358e-07,0,sub_6
-0.0027070000000002,0.0036190000000012,-0.0076947999999999,-0.0006505999999995,0.0011678000000009,6.353424730765056e-17,0,sub_6
-0.0039400000000002,0.0034258000000012,-0.0081805999999999,-7.599999999576695e-06,0.0018084000000009,-0.0010659999999999,0,sub_6
-0.0045638000000002,0.0029894000000012,-0.0087753999999999,0.0010640000000004,0.0018124000000009,-0.0031965999999999,0,sub_6
-0.0049398000000002,0.0018066000000012,-0.0086213999999999,0.0023480000000004,0.0009626000000009,-0.0048955999999998,0,sub_6
-0.0027496000000002,0.0004948000000012,-0.0100577999999999,0.0031986000000004,-0.000528399999999,-0.0057421999999998,0,sub_6
-0.0005596000000002,-0.0011597999999987,-0.0107441999999999,0.0027574000000004,-0.001804399999999,-0.0051041999999998,0,sub_6
0.0006037999999997,-0.0015687999999987,-0.0098803999999999,0.0008226000000004,-0.002226399999999,-0.0036231999999998,0,sub_6
-0.0001204000000002,-0.0011941999999987,-0.0083999999999999,-0.0011139999999995,-0.002225599999999,-0.0012879999999998,0,sub_6
-0.0015124000000002,-0.0001655999999987,-0.0084933999999999,-0.0026199999999995,-0.001586399999999,0.0008356,0,sub_6
-0.0037856000000002,0.0008950000000012,-0.0082001999999998,-0.0032667999999995,-0.000732799999999,0.0018968,0,sub_6
-0.0053596000000002,0.0024902000000012,-0.0082413999999998,-0.0026169999999995,0.0005466000000009,0.0010452,0,sub_6
-0.0066058000000002,0.0038238000000012,-0.0082339999999998,-4.6999999999576894e-05,0.0011826000000009,-0.0004329999999999,0,sub_6
-0.0058888000000002,0.0031484000000012,-0.0092371999999998,0.0025192000000004,0.0011786000000009,-0.0016969999999999,0,sub_6
-0.0043596000000002,0.0018038000000012,-0.0090815999999998,0.0037920000000004,0.0001192000000009,-0.0025419999999998,0,sub_6
-0.0030164000000002,0.0004982000000012,-0.0087615999999998,0.0031444000000004,-0.000296799999999,-0.0027603999999998,0,sub_6
-0.0023174000000002,-0.0009121999999987,-0.0083695999999998,0.0020700000000004,-7.459999999906135e-05,-0.0023415999999998,0,sub_6
-0.0014606000000002,-0.0023955999999987,-0.0090319999999998,0.0001384000000004,0.0001472000000009,-0.0010743999999999,0,sub_6
-0.0011996000000002,-0.0022829999999987,-0.0091913999999998,-0.0017903999999995,0.0007958000000009,-2.1199999999916337e-05,0,sub_6
-0.0012036000000002,-0.0018399999999987,-0.0094065999999998,-0.0032763999999995,0.0027176000000009,0.0001796,0,sub_6
-0.0026192000000002,-0.0010705999999988,-0.0084821999999998,-0.0032697999999995,0.0033602000000009,-0.0006757999999999,0,sub_6
-0.0043202000000002,0.0004088000000011,-0.0088623999999998,-0.0026285999999995,0.0025100000000009,-0.0017383999999999,0,sub_6
-0.0051412000000002,0.0012836000000011,-0.0090897999999998,-0.0017759999999995,0.0012330000000009,-0.0027989999999999,0,sub_6
-0.0047514000000002,0.0017588000000011,-0.0095021999999999,-0.0007123999999995,0.0003890000000009,-0.0040717999999999,0,sub_6
-0.0050120000000002,0.0025922000000011,-0.0082621999999999,0.0003522000000004,0.0001824000000009,-0.0049179999999999,0,sub_6
-0.0038590000000002,0.0029880000000011,-0.0080957999999999,0.0016254000000004,0.0003950000000009,-0.0042677999999999,0,sub_6
-0.0022744000000002,0.0024380000000011,-0.0070951999999999,0.0018258000000004,0.0003940000000009,-0.0025567999999999,0,sub_6
-0.0017674000000002,0.0021652000000011,-0.0065167999999999,0.0005336000000004,0.0001868000000009,-0.0012829999999999,0,sub_6
-0.0023892000000002,0.0022186000000011,-0.0050307999999999,-0.0009627999999995,0.0006138000000009,-0.0002257999999999,0,sub_6
-0.0024186000000001,0.0020508000000011,-0.0054375999999999,-0.0009695999999995,0.0003956000000009,0.0010562,0,sub_6
-0.0015920000000001,0.0013304000000012,-0.0075853999999999,-0.0007705999999995,-0.000667999999999,0.0021246,0,sub_6
-0.0015288000000001,0.0008038000000012,-0.0088487999999999,-0.0007781999999996,-0.001088199999999,0.0023364,0,sub_6
-0.0021808000000001,3.400000001219615e-06,-0.0080391999999999,-0.0001321999999996,0.0010478000000009,0.002122,0,sub_6
-0.0031630000000001,-0.0010225999999987,-0.0095065999999999,0.0009346000000004,0.0021160000000009,0.0021256,0,sub_6
-0.0039118000000001,-0.0022657999999987,-0.0104593999999999,0.0002908000000004,0.0019136000000009,0.0016916,0,sub_6
-0.0055276000000001,-0.0013833999999987,-0.0094857999999998,-0.0011939999999995,0.0029876000000009,0.0008254,0,sub_6
-0.0058562000000001,-2.9399999998780228e-05,-0.0089461999999998,-0.0011861999999995,0.0042676000000009,0.0003964,0,sub_6
-0.0054802000000001,0.0013994000000012,-0.0098235999999998,-0.0001327999999995,0.0021298000000009,0.001261,0,sub_6
-0.0044500000000001,0.0021568000000012,-0.0091147999999998,-0.0003623999999995,-0.000217999999999,0.0025444,0,sub_6
-0.0042158000000002,0.0023980000000012,-0.0087479999999998,-0.0010177999999995,-0.001068799999999,0.0040398,0,sub_6
-0.0030426000000002,0.0010094000000012,-0.0094609999999998,-0.0016809999999995,-0.002987399999999,0.0061774,0,sub_6
-0.0021186000000002,-0.0007593999999987,-0.0105409999999998,-0.0031947999999995,-0.005324799999999,0.0072416,0,sub_6
-0.0006704000000002,-0.0012585999999987,-0.0098753999999998,-0.0046931999999995,-0.005526599999999,0.0070212,0,sub_6
-0.0001946000000002,-0.0008919999999987,-0.0083805999999998,-0.0053245999999995,-0.004234199999999,0.0053094,0,sub_6
0.0005295999999997,0.0005602000000012,-0.0066919999999998,-0.0040299999999995,-0.002952599999999,0.0033940000000001,0,sub_6
0.0007421999999997,0.0026200000000012,-0.0059589999999998,-0.0018761999999995,-0.001456799999999,0.0004162000000001,0,sub_6
8.979999999979742e-05,0.0047160000000012,-0.0044299999999998,0.0004938000000004,0.0006774000000009,-0.0025609999999998,0,sub_6
-0.0018348000000002,0.0050716000000011,-0.0052191999999998,0.0028630000000003,0.0030308000000009,-0.0059607999999998,0,sub_6
-0.0033182000000002,0.0044008000000011,-0.0070881999999998,0.0058568000000003,0.0032462000000009,-0.0080715999999998,0,sub_6
-0.0043866000000001,0.0021256000000012,-0.0095147999999998,0.0075628000000004,0.0021860000000009,-0.0097623999999999,0,sub_6
-0.0053462000000001,-0.0012233999999987,-0.0099893999999998,0.0073476000000004,0.0015560000000009,-0.0108263999999999,0,sub_6
-0.0057742000000001,-0.0041305999999987,-0.0111489999999999,0.0060598000000004,0.0009248000000009,-0.0106159999999999,0,sub_6
-0.0046542000000001,-0.0049251999999987,-0.0109655999999998,0.0036964000000004,-0.000566999999999,-0.0084939999999999,0,sub_6
-0.0045176000000001,-0.0035807999999987,-0.0105319999999998,0.0004824000000004,-0.000143399999999,-0.0050987999999999,0,sub_6
-0.0051160000000002,-0.0003187999999987,-0.0092233999999998,-0.0035879999999995,0.0009174000000009,-0.0004283999999999,0,sub_6
-0.0062744000000002,0.0028870000000012,-0.0087129999999998,-0.0063845999999995,0.0011210000000009,0.0046858,0,sub_6
-0.0076490000000002,0.0048070000000012,-0.0074561999999998,-0.0076837999999995,0.0004738000000009,0.0081024,0,sub_6
-0.0089292000000001,0.0054624000000012,-0.0067747999999999,-0.0070511999999995,0.0002546000000009,0.0093954,0,sub_6
-0.0077054000000001,0.0036546000000012,-0.0073533999999999,-0.0053429999999995,-0.000597199999999,0.0081332,0,sub_6
-0.0045482000000001,0.0008420000000012,-0.0072709999999999,-0.0019201999999995,-0.001660599999999,0.0049604,0,sub_6
-0.0011920000000001,-0.0012417999999987,-0.0062139999999999,0.0012976000000004,-0.001868799999999,0.000924,0,sub_6
0.0022605999999998,-0.0027211999999987,-0.0057929999999999,0.0032334000000004,-0.001225399999999,-0.0018407999999999,0,sub_6
0.0040977999999997,-0.0036115999999987,-0.0056097999999999,0.0028146000000004,-0.000366999999999,-0.0029077999999999,0,sub_6
0.0038819999999997,-0.0030631999999987,-0.0049361999999998,0.0017470000000004,0.0002738000000009,-0.0022699999999999,0,sub_6
0.0018949999999997,-0.0016197999999987,-0.0053755999999998,-0.0001739999999995,0.0015542000000009,-0.0009979999999999,0,sub_6
-0.0010596000000002,-3.059999999878056e-05,-0.0070339999999998,-0.0014577999999995,0.0024054000000009,0.0004926,0,sub_6
-0.0040838000000002,0.0022508000000012,-0.0087221999999998,-0.0010347999999995,0.0024018000000009,0.0011418,0,sub_6
-0.0062918000000002,0.0037428000000012,-0.0098363999999998,-0.0001793999999995,0.0021884000000009,0.0005072,0,sub_6
-0.0075006000000002,0.0039160000000012,-0.0105969999999999,0.0006750000000004,0.0009130000000009,-0.0009805999999999,0,sub_6
-0.0078588000000002,0.0029960000000012,-0.0107745999999999,0.0015294000000004,-0.000786799999999,-0.0028951999999999,0,sub_6
-0.0070138000000002,0.0022416000000012,-0.0098439999999999,0.0019628000000004,-0.000569999999999,-0.0041741999999999,0,sub_6
-0.0056288000000002,0.0004324000000012,-0.0092997999999999,0.0013264000000004,-0.000355599999999,-0.0043943999999999,0,sub_6
-0.0022548000000002,-0.0012621999999987,-0.0094691999999999,0.0013166000000004,-0.001640999999999,-0.0031129999999999,0,sub_6
0.0002531999999997,-0.0019049999999987,-0.0088979999999998,0.0004610000000004,-0.001218799999999,-0.0018395999999999,0,sub_6
0.0005389999999997,-0.0017367999999987,-0.0075787999999998,-0.0014595999999995,-0.000154599999999,-0.0003607999999999,0,sub_6
0.0008195999999997,-0.0014233999999987,-0.0079499999999998,-0.0033887999999995,-0.001007999999999,0.0011204,0,sub_6
0.0006753999999997,-0.0002377999999987,-0.0084501999999998,-0.0046709999999995,-0.001005199999999,0.0015386,0,sub_6
-0.0014824000000001,0.0020010000000012,-0.0063071999999998,-0.0057215999999995,0.0015594000000009,0.0004598,0,sub_6
-0.0032292000000001,0.0036858000000012,-0.0049819999999998,-0.0048603999999995,0.0021998000000009,-0.0006033999999999,0,sub_6
-0.0031208000000001,0.0046274000000012,-0.0058305999999998,-0.0020817999999995,0.0013454000000009,-0.0016547999999999,0,sub_6
-0.0036438000000001,0.0045000000000012,-0.0057705999999998,0.0009178000000004,0.0015580000000009,-0.0033467999999998,0,sub_6
-0.0036898000000001,0.0034926000000012,-0.0055423999999998,0.0028438000000003,0.0009196000000009,-0.0044041999999998,0,sub_6
-0.0023908000000002,0.0013598000000012,-0.0087049999999998,0.0041172000000003,-0.001425199999999,-0.0043957999999998,0,sub_6
-0.0019880000000002,-0.0010807999999987,-0.0103701999999998,0.0034750000000004,-0.002697999999999,-0.0044019999999998,0,sub_6
-0.0023794000000002,-0.0028517999999987,-0.0103721999999998,0.0019842000000004,-0.002690199999999,-0.0050531999999998,0,sub_6
-0.0023388000000002,-0.0045733999999987,-0.0105297999999998,-0.0001495999999995,-0.003319199999999,-0.0057081999999999,0,sub_6
-0.0028136000000002,-0.0054683999999987,-0.0095977999999998,-0.0022737999999995,-0.002878799999999,-0.0074327999999999,0,sub_6
-0.0051634000000002,-0.0055273999999987,-0.0078459999999998,-0.0035409999999995,-0.002438399999999,-0.0099989999999998,0,sub_6
-0.0054658000000002,-0.0043783999999987,-0.0072123999999999,-0.0035317999999995,-0.002218199999999,-0.0119151999999998,0,sub_6
-0.0042450000000002,-0.0031817999999987,-0.0079815999999999,-0.0028967999999995,-0.003710399999999,-0.0123293999999998,0,sub_6
-0.0030040000000002,-0.0019571999999987,-0.0078031999999999,-0.0035401999999995,-0.004559999999999,-0.0125395999999998,0,sub_6
-0.0039448000000002,-0.0001093999999987,-0.0062747999999999,-0.0039633999999995,-0.004131199999999,-0.0129633999999998,0,sub_6
-0.0031040000000002,0.0022808000000012,-0.0045961999999999,-0.0028973999999995,-0.003286799999999,-0.0118887999999998,0,sub_6
-0.0024022000000002,0.0048328000000012,-0.0045769999999998,-0.0007855999999995,-0.005011399999999,-0.0086671999999999,0,sub_6
-0.0010936000000002,0.0056440000000012,-0.0054873999999998,0.0013304000000004,-0.006945399999999,-0.0062999999999999,0,sub_6
-0.0003670000000002,0.0058632000000012,-0.0056383999999998,0.0032380000000004,-0.008449799999999,-0.0045757999999999,0,sub_6
-0.0001866000000002,0.0050560000000012,-0.0063067999999998,0.0036586000000004,-0.008457599999999,-0.0028639999999999,0,sub_6
-0.0019668000000002,0.0043626000000012,-0.0064657999999998,0.0017368000000004,-0.008665399999999,-0.0024501999999999,0,sub_6
-0.0048678000000002,0.0042444000000012,-0.0066983999999999,0.0015296000000004,-0.008023399999999,-0.0028799999999999,0,sub_6
-0.0065152000000001,0.0051418000000012,-0.0072887999999998,0.0027974000000004,-0.009948799999999,-0.0020139999999999,0,sub_6
-0.0075880000000001,0.0051510000000012,-0.0098615999999998,0.0040584000000004,-0.011243599999999,0.0009874,0,sub_6
-0.0066510000000001,0.0041576000000012,-0.0105947999999998,0.0048812000000004,-0.014668999999999,0.0044158,0,sub_6
-0.0063098000000001,0.0001796000000012,-0.0130179999999998,0.0042258000000004,-0.014255999999999,0.0082564,0,sub_6
-0.0047912000000001,-0.0045973999999987,-0.0150939999999998,0.0012298000000004,-0.014253799999999,0.009948,0,sub_6
-0.0031732000000001,-0.0053429999999988,-0.0127475999999998,-0.0036587999999995,-0.010612799999999,0.0090578,0,sub_6
-0.0013442000000002,-0.0042429999999988,-0.0086209999999998,-0.0063973999999995,-0.005691599999999,0.005831,0,sub_6
-0.0004996000000001,-0.0017409999999988,-0.0091247999999998,-0.0067839999999995,0.0013476000000009,0.0036862,0,sub_6
0.0022799999999998,0.0025434000000011,-0.0081373999999998,-0.0037883999999995,0.0015564000000009,0.0017872,0,sub_6
0.0024171999999998,0.0067680000000011,-0.0049915999999998,-0.0020621999999995,0.0036894000000009,-0.0003399999999999,0,sub_6
-0.0004600000000001,0.0072696000000012,-0.0036401999999999,-0.0009713999999995,0.0075266000000009,-0.0018327999999999,0,sub_6
-0.0030954000000001,0.0069208000000012,-0.0040059999999999,-0.0005295999999995,0.0090182000000009,-0.0026815999999999,0,sub_6
-0.0030536000000001,0.0065476000000012,-0.0050163999999998,0.0005368000000004,0.0073108000000009,-0.0033081999999999,0,sub_6
-0.0031224000000001,0.0058314000000012,-0.0064683999999998,0.0005412000000004,0.0068848000000009,-0.0037301999999999,0,sub_6
-0.0024502000000001,0.0045356000000012,-0.0068947999999998,0.0003312000000004,0.0073074000000009,-0.0030865999999999,0,sub_6
-0.0025304000000001,0.0023646000000012,-0.0076351999999998,0.0005414000000004,0.0075104000000009,-0.0011579999999999,0,sub_6
-0.0022372000000001,0.0005998000000012,-0.0084955999999998,0.0020186000000004,0.0060052000000009,0.0009908,0,sub_6
0.0003463999999998,0.0007746000000012,-0.0082079999999998,0.0039236000000004,0.0034384000000009,0.001862,0,sub_6
0.0011297999999998,0.0003836000000012,-0.0066097999999998,0.0052106000000004,0.0042886000000009,0.001229,0,sub_6
0.0018773999999998,0.0004910000000011,-0.0071301999999998,0.0079988000000004,0.0062014000000009,-3.5799999999916804e-05,0,sub_6
0.0021627999999998,0.0003430000000012,-0.0081579999999998,0.0116388000000004,0.0062018000000009,-0.0023437999999998,0,sub_6
0.0001335999999998,0.0005120000000012,-0.0095377999999999,0.0140006000000004,0.0068452000000009,-0.0044481999999998,0,sub_6
-0.0054484000000001,-0.0015409999999987,-0.0108641999999999,0.0144266000000004,0.0062084000000009,-0.0044279999999998,0,sub_6
-0.0088330000000001,-0.0031075999999987,-0.0128449999999999,0.0122806000000004,0.0053580000000009,-0.0020753999999998,0,sub_6
-0.0105294000000001,-0.0038659999999987,-0.0142501999999998,0.0073514000000004,0.0036602000000009,0.0015408,0,sub_6
-0.0107560000000001,-0.0032921999999987,-0.0149271999999998,0.0013492000000004,0.0021710000000009,0.0062008,0,sub_6
-0.0099692000000001,-0.0026987999999987,-0.0141369999999998,-0.0044453999999995,0.0002514000000009,0.0117176,0,sub_6
-0.0080842000000002,-0.0020753999999987,-0.0114179999999998,-0.0104315999999995,0.0011198000000009,0.0161912,0,sub_6
-0.0066852000000002,-0.0007255999999987,-0.0089797999999998,-0.0134217999999995,0.0024100000000009,0.0191898,0,sub_6
-0.0036306000000002,5.90000000012191e-05,-0.0074685999999998,-0.0142765999999995,0.0032698000000009,0.0213492,0,sub_6
0.0020369999999997,0.0015040000000011,-0.0061753999999998,-0.0147007999999995,0.0030706000000009,0.0215902,0,sub_6
0.0074455999999997,0.0036356000000011,-0.0034879999999998,-0.0144617999999995,0.0047996000000009,0.0186288,0,sub_6
0.0105507999999997,0.0063580000000011,-0.0011981999999998,-0.0118791999999995,0.0056592000000009,0.0145866,0,sub_6
0.0118431999999997,0.0082628000000011,0.0011666,-0.0063247999999995,0.0028872000000009,0.010356,0,sub_6
0.0108801999999997,0.0101762000000011,0.0025814,0.0007242000000004,-0.000313599999999,0.0054956,0,sub_6
0.0065673999999997,0.0099626000000011,0.0019234,0.0077896000000004,0.0009884000000009,0.001286,0,sub_6
0.0008119999999997,0.0062836000000011,-0.0025783999999999,0.0152606000000004,-0.000700799999999,-0.0012079999999998,0,sub_6
-0.0038564000000002,0.0020006000000011,-0.0078579999999999,0.0210092000000004,-0.004943999999999,-0.0028559999999998,0,sub_6
-0.0076300000000002,-0.0026015999999987,-0.0140531999999999,0.0214368000000004,-0.006185799999999,-0.0045449999999998,0,sub_6
-0.0115230000000001,-0.0071825999999987,-0.0172509999999999,0.0171896000000004,-0.002725599999999,-0.0058455999999998,0,sub_6
-0.0146728000000001,-0.0095335999999987,-0.0182667999999998,0.0103752000000004,0.0002810000000009,-0.0058969999999998,0,sub_6
-0.0154576000000001,-0.0072613999999987,-0.0159585999999998,0.0024852000000004,0.0032838000000009,-0.0040331999999999,0,sub_6
-0.0135752000000001,-0.0035041999999988,-0.0130195999999998,-0.0041311999999995,0.0069126000000009,-2.4999999999916755e-05,0,sub_6
-0.0106876000000001,0.0008238000000011,-0.0093373999999998,-0.0086231999999995,0.0092654000000009,0.0057168,0,sub_6
-0.0057782000000002,0.0033404000000011,-0.0074749999999998,-0.0103635999999995,0.0071328000000009,0.011911,0,sub_6
-0.0016466000000002,0.0046468000000011,-0.0054651999999998,-0.0095473999999995,0.0028658000000009,0.0168438,0,sub_6
0.0021037999999997,0.0041088000000011,-0.0048537999999998,-0.0082841999999995,0.0001006000000009,0.0187868,0,sub_6
0.0037999999999997,0.0028988000000011,-0.0051847999999998,-0.0072055999999995,0.0003326000000009,0.0173064,0,sub_6
0.0049501999999997,0.0012982000000011,-0.0055061999999998,-0.0061213999999995,0.0005564000000009,0.0136818,0,sub_6
0.0040623999999997,0.0007504000000011,-0.0060775999999998,-0.0048189999999995,0.0005714000000009,0.008777,0,sub_6
0.0024445999999997,0.0007778000000011,-0.0069575999999999,-0.0033041999999995,0.0005850000000009,0.0040872,0,sub_6
0.0001525999999997,0.0007778000000011,-0.0081507999999999,-0.0017991999999995,0.0016566000000009,0.0008988,0,sub_6
-0.0027018000000002,-6.619999999880046e-05,-0.0083687999999999,-0.0015867999999995,0.0014484000000009,-0.0008015999999999,0,sub_6
-0.0049126000000002,0.0005190000000011,-0.0094435999999999,-0.0015945999999995,0.0012350000000009,-0.0010079999999999,0,sub_6
-0.0069542000000002,0.0010210000000011,-0.0099813999999999,-0.0022443999999995,0.0014466000000009,-0.0003647999999999,0,sub_6
-0.0073472000000002,0.0005692000000011,-0.0105941999999999,-0.0024683999999995,0.0016558000000009,0.000495,0,sub_6
-0.0075788000000001,0.0007174000000012,-0.0099479999999999,-0.0024663999999995,0.0020818000000009,0.0004944,0,sub_6
-0.0069098000000001,0.0007450000000012,-0.0102183999999998,-0.0020291999999995,0.0037872000000009,-0.0001455999999999,0,sub_6
-0.0060742000000001,0.0002558000000012,-0.0092067999999998,-0.0015919999999995,0.0048562000000009,-0.0014257999999999,0,sub_6
-0.0039032000000001,0.0009426000000012,-0.0078327999999998,0.0001118000000004,0.0048410000000009,-0.0020667999999999,0,sub_6
-0.0020204000000001,0.0021010000000012,-0.0075041999999998,0.0005354000000004,0.0050424000000009,-0.0025033999999998,0,sub_6
0.0003619999999997,0.0020454000000011,-0.0076345999999998,0.0003112000000004,0.0043906000000009,-0.0020887999999998,0,sub_6
0.0007541999999997,0.0020808000000011,-0.0068661999999998,8.320000000046354e-05,0.0033110000000009,-0.0012463999999998,0,sub_6
0.0009401999999997,0.0015652000000011,-0.0063487999999998,-0.0001417999999995,0.0028704000000009,-0.0004049999999998,0,sub_6
-0.0002320000000002,0.0006180000000011,-0.0069487999999998,-0.0005703999999995,0.0030824000000009,0.0002326000000001,0,sub_6
-0.0009640000000002,0.0003974000000011,-0.0072457999999998,-0.0003599999999995,0.0024424000000009,0.0002350000000001,0,sub_6
-0.0017636000000002,0.0010158000000011,-0.0072269999999998,0.0002802000000004,0.0018034000000009,-0.0004007999999999,0,sub_6
-0.0014462000000002,0.0016086000000011,-0.0078045999999998,0.0002830000000004,0.0011692000000009,-0.0016819999999999,0,sub_6
-0.0019934000000002,0.0019214000000012,-0.0090337999999998,0.0002948000000004,0.0020186000000009,-0.0034211999999999,0,sub_6
-0.0023092000000002,0.0022746000000012,-0.0088039999999999,9.620000000042358e-05,0.0030836000000009,-0.0055895999999999,0,sub_6
-0.0033890000000002,0.0018298000000012,-0.0078839999999999,0.0001062000000004,0.0041436000000009,-0.0066881999999999,0,sub_6
-0.0035426000000002,0.0010826000000012,-0.0078413999999999,0.0003180000000004,0.0041316000000009,-0.0062883999999999,0,sub_6
-0.0036080000000002,0.0003766000000012,-0.0080999999999999,0.0009538000000004,0.0041156000000009,-0.0052447999999999,0,sub_6
-0.0033094000000001,0.0001620000000012,-0.0077931999999998,0.0007270000000004,0.0030434000000009,-0.0033221999999999,0,sub_6
-0.0031492000000001,2.9600000001219668e-05,-0.0082437999999998,-0.0005695999999995,0.0017600000000009,-0.0009793999999999,0,sub_6
-0.0025534000000001,0.0001848000000012,-0.0089551999999998,-0.0022943999999995,0.0011096000000009,0.000696,0,sub_6
-0.0032036000000001,0.0004998000000012,-0.0093789999999998,-0.0046525999999995,0.0011040000000009,0.0015116,0,sub_6
-0.0037180000000001,0.0012132000000012,-0.0095079999999998,-0.0067955999999995,0.0013116000000009,0.002115,0,sub_6
-0.0043152000000002,0.0018004000000011,-0.0087229999999998,-0.0076515999999995,0.0021572000000009,0.0018718,0,sub_6
-0.0048064000000002,0.0021250000000011,-0.0080173999999998,-0.0074415999999995,0.0023618000000009,0.0012096,0,sub_6
-0.0049484000000002,0.0025018000000011,-0.0073641999999998,-0.0061613999999995,0.0019330000000009,0.0007918000000001,0,sub_6
-0.0037032000000002,0.0029638000000011,-0.0066229999999998,-0.0044535999999995,0.0019280000000009,0.0005902,0,sub_6
-0.0025702000000002,0.0024344000000011,-0.0060395999999998,-0.0027445999999995,0.0021360000000009,0.0003882,0,sub_6
