userAcceleration.x,userAcceleration.y,userAcceleration.z,rotationRate.x,rotationRate.y,rotationRate.z,label,subject
0.0034229999999998,0.0036976000000011,-0.0043901999999998,-0.0018701999999995,-0.003070599999999,-0.0073029999999999,0,sub_15
0.0031083999999997,0.0046062000000011,-0.0042009999999998,-0.0027501999999995,-0.003062999999999,-0.0064731999999999,0,sub_15
0.0028941999999997,0.0059350000000012,-0.0035153999999998,-0.0023519999999995,-0.002849199999999,-0.0049937999999999,0,sub_15
0.0036307999999997,0.0076798000000012,-0.0033511999999999,-0.0004591999999995,-0.0028519999999989,-0.0039309999999999,0,sub_15
0.0041999999999997,0.0089572000000012,-0.0029543999999999,0.0012220000000004,-0.0022157999999989,-0.0026567999999999,0,sub_15
0.0040641999999997,0.0099222000000012,-0.0034087999999999,0.0022890000000004,-0.001582999999999,-0.0020093999999999,0,sub_15
0.0044973999999998,0.0099384000000012,-0.0036479999999999,0.0035692000000004,-0.001162999999999,-0.0015737999999998,0,sub_15
0.0054181999999998,0.0093216000000012,-0.0040059999999999,0.0039978000000004,-0.0007383999999989,-0.0015713999999998,0,sub_15
0.0064843999999998,0.0090280000000012,-0.0044661999999999,0.0037512000000004,-0.000275599999999,-0.0022123999999998,0,sub_15
0.0076583999999998,0.0076878000000012,-0.0047773999999999,0.0032932000000004,0.0004018000000009,-0.0030687999999998,0,sub_15
0.0081891999999998,0.0068716000000011,-0.0049403999999999,0.0026160000000004,0.0004382000000009,-0.0032847999999999,0,sub_15
0.0078629999999998,0.0068398000000011,-0.0055323999999999,0.0012988000000004,0.0004768000000009,-0.0035053999999999,0,sub_15
0.0076959999999998,0.0066262000000011,-0.0051641999999999,0.0008312000000004,0.0007212000000009,-0.0026519999999999,0,sub_15
0.0069985999999997,0.0059874000000011,-0.0053611999999999,0.0003968000000004,7.92000000009663e-05,-0.0015859999999999,0,sub_15
0.0057785999999997,0.0068124000000011,-0.0048617999999999,-3.839999999955034e-05,-0.000563599999999,-0.0003063999999999,0,sub_15
0.0049763999999997,0.0074258000000012,-0.0044933999999999,-0.0011109999999995,-0.000352799999999,0.0011814,0,sub_15
0.0046815999999997,0.0081826000000012,-0.0040695999999999,-0.0015405999999995,-0.000141599999999,0.0020328,0,sub_15
0.0044965999999997,0.0089522000000012,-0.0041315999999999,-0.0024409999999995,-0.000532599999999,0.0020326,0,sub_15
0.0044565999999997,0.0097036000000011,-0.0038449999999999,-0.0031241999999995,-0.000496599999999,0.0016062,0,sub_15
0.0049633999999997,0.0098494000000011,-0.0043203999999999,-0.0033787999999995,-0.000460399999999,0.0007556,0,sub_15
0.0055957999999997,0.0087094000000011,-0.0041463999999999,-0.0032037999999995,-0.000210799999999,-0.0005197999999999,0,sub_15
0.0061951999999997,0.0078350000000011,-0.0039955999999999,-0.0032431999999995,0.0002508000000009,-0.0013695999999999,0,sub_15
0.0063367999999997,0.0071322000000011,-0.0043591999999999,-0.0034517999999995,0.0006802000000009,-0.0020123999999999,0,sub_15
0.0065489999999997,0.0065560000000011,-0.0045263999999999,-0.0040879999999995,0.0013224000000009,-0.0022311999999999,0,sub_15
0.0068123999999998,0.0063392000000012,-0.0048703999999998,-0.0043439999999995,0.0017818000000009,-0.0022141999999999,0,sub_15
0.0065285999999998,0.0066894000000011,-0.0053745999999999,-0.0043903999999995,0.0013882000000009,-0.0021945999999999,0,sub_15
0.0062165999999998,0.0074428000000011,-0.0054167999999999,-0.0044357999999995,0.0012076000000009,-0.0021751999999999,0,sub_15
0.0061249999999998,0.0078498000000011,-0.0054971999999999,-0.0051213999999995,0.0014536000000009,-0.0017335999999999,0,sub_15
0.0060563999999998,0.0081842000000011,-0.0053967999999999,-0.0049525999999995,0.0014854000000009,-0.0017131999999999,0,sub_15
0.0061361999999997,0.0082176000000011,-0.0056687999999999,-0.0049507999999995,0.0016994000000009,-0.0019271999999999,0,sub_15
0.0063587999999997,0.0090708000000011,-0.0055163999999999,-0.0049469999999995,0.0023394000000009,-0.0021415999999999,0,sub_15
0.0058357999999997,0.0089900000000011,-0.0058099999999999,-0.0047327999999995,0.0027640000000009,-0.0019269999999998,0,sub_15
0.0059337999999997,0.0088770000000011,-0.0055229999999999,-0.0032371999999995,0.0027606000000009,-0.0023439999999998,0,sub_15
0.0062503999999997,0.0094574000000012,-0.0061055999999998,-0.0028439999999995,0.0023566000000009,-0.0023161999999998,0,sub_15
0.0060803999999998,0.0100724000000012,-0.0065039999999998,-0.0035193999999995,0.0015302000000009,-0.0022953999999998,0,sub_15
0.0068507999999998,0.0097936000000012,-0.0064787999999998,-0.0039823999999995,0.0004900000000009,-0.0022727999999998,0,sub_15
0.0072851999999998,0.0104736000000012,-0.0064093999999998,-0.0052921999999995,0.0005196000000009,-0.0026847999999998,0,sub_15
0.0071261999999998,0.0106670000000012,-0.0065775999999998,-0.0078851999999995,0.0014000000000009,-0.0016113999999998,0,sub_15
0.0075329999999998,0.0093512000000012,-0.0059539999999999,-0.0087377999999995,0.0022526000000009,-0.0009775999999999,0,sub_15
0.0076199999999998,0.0078596000000012,-0.0047329999999999,-0.0080977999999995,0.0026748000000009,-0.0005463999999999,0,sub_15
0.0066853999999997,0.0075916000000012,-0.0040025999999999,-0.0081207999999995,0.0033288000000009,-9.759999999993892e-05,0,sub_15
0.0061435999999997,0.0067770000000012,-0.0031883999999998,-0.0077199999999995,0.0031300000000009,0.0001416,0,sub_15
0.0062861999999997,0.0070116000000012,-0.0029767999999998,-0.0062523999999995,0.0020786000000009,-0.0004649999999999,0,sub_15
0.0057767999999997,0.0077364000000012,-0.0028131999999998,-0.0045711999999995,0.0012386000000009,-0.0008567999999999,0,sub_15
0.0050977999999997,0.0087264000000012,-0.0025147999999999,-0.0039559999999995,0.0008274000000009,-0.0010429999999999,0,sub_15
0.0051825999999998,0.0094610000000012,-0.0032531999999999,-0.0028911999999995,0.0003974000000009,-0.0010349999999999,0,sub_15
0.0061945999999998,0.0096490000000012,-0.0042587999999999,-0.0016109999999995,-3.15999999990736e-05,-0.0014527999999999,0,sub_15
0.0061743999999997,0.0095822000000012,-0.0043525999999999,-0.0005411999999995,-3.2799999999093625e-05,-0.0020863999999999,0,sub_15
0.0059777999999997,0.0093750000000012,-0.0044621999999999,-0.0009809999999995,-0.000443399999999,-0.0027131999999999,0,sub_15
0.0069295999999997,0.0091832000000012,-0.0055321999999999,-0.0012053999999995,-0.000428599999999,-0.0033387999999999,0,sub_15
0.0072973999999997,0.0089470000000012,-0.0053711999999999,-0.0016421999999995,-0.000412199999999,-0.0041795999999999,0,sub_15
0.0069019999999997,0.0085720000000012,-0.0047777999999999,-0.0020817999999995,2.600000000094636e-05,-0.0039527999999999,0,sub_15
0.0073679999999998,0.0085248000000012,-0.0049985999999999,-0.0027367999999995,0.0004632000000009,-0.0033001999999999,0,sub_15
0.0077957999999997,0.0088322000000012,-0.0049429999999999,-0.0038017999999995,0.0013174000000009,-0.0028813999999999,0,sub_15
0.0073833999999997,0.0094422000000012,-0.0046367999999999,-0.0040161999999995,0.0015296000000009,-0.0024559999999999,0,sub_15
0.0073543999999997,0.0095834000000012,-0.0050217999999999,-0.0038057999999995,0.0013142000000009,-0.0020269999999999,0,sub_15
0.0074831999999997,0.0101346000000012,-0.0051437999999999,-0.0040221999999995,0.0008880000000009,-0.0018141999999999,0,sub_15
0.0070949999999997,0.0100470000000012,-0.0050701999999999,-0.0046623999999995,0.0008958000000009,-0.0018051999999999,0,sub_15
0.0069705999999998,0.0098550000000012,-0.0051013999999999,-0.0044499999999995,0.0006876000000009,-0.0017899999999999,0,sub_15
0.0069419999999998,0.0094488000000012,-0.0048129999999999,-0.0042365999999995,0.0004800000000009,-0.0019883999999999,0,sub_15
0.0065707999999998,0.0088224000000012,-0.0041287999999999,-0.0042345999999995,0.0009114000000009,-0.0019753999999999,0,sub_15
0.0063871999999998,0.0083330000000012,-0.0038283999999999,-0.0042325999999995,0.0011308000000009,-0.0021759999999999,0,sub_15
0.0062435999999998,0.0084018000000011,-0.0043347999999999,-0.0042325999999995,0.0009186000000009,-0.0023893999999999,0,sub_15
0.0061615999999998,0.0085374000000011,-0.0043933999999999,-0.0038057999999995,0.0009170000000009,-0.0023863999999999,0,sub_15
0.0066003999999998,0.0085978000000011,-0.0042779999999999,-0.0040081999999995,0.0013418000000009,-0.0019483999999999,0,sub_15
0.0073109999999998,0.0086830000000011,-0.0045465999999999,-0.0042125999999995,0.0013406000000009,-0.0015099999999999,0,sub_15
0.0078241999999998,0.0090660000000011,-0.0051647999999999,-0.0042017999999995,0.0013402000000009,-0.0014971999999999,0,sub_15
0.0081755999999997,0.0087928000000011,-0.0046255999999999,-0.0037641999999995,0.0009138000000009,-0.0019081999999999,0,sub_15
0.0087225999999997,0.0090462000000011,-0.0045167999999999,-0.0039665999999995,0.0009142000000009,-0.0018969999999999,0,sub_15
0.0088225999999997,0.0088132000000011,-0.0047507999999998,-0.0048191999999995,0.0007058000000009,-0.0023299999999999,0,sub_15
0.0085791999999997,0.0092606000000011,-0.0049529999999998,-0.0050297999999995,0.0009212000000009,-0.0027589999999999,0,sub_15
0.0082135999999997,0.0094856000000011,-0.0047865999999998,-0.0050287999999995,0.0013464000000009,-0.0025459999999999,0,sub_15
0.0079593999999997,0.0102826000000012,-0.0043071999999998,-0.0054545999999995,0.0019854000000009,-0.0021225999999999,0,sub_15
0.0074835999999997,0.0101360000000012,-0.0044125999999998,-0.0039393999999995,0.0017636000000009,-0.0023149999999999,0,sub_15
0.0072853999999997,0.0101558000000012,-0.0044491999999998,-0.0028507999999995,0.0015432000000009,-0.0025103999999999,0,sub_15
0.0075133999999997,0.0097948000000012,-0.0049055999999998,-0.0030433999999995,0.0011144000000009,-0.0027143999999999,0,sub_15
0.0081681999999997,0.0095532000000012,-0.0052307999999998,-0.0030217999999995,0.0004734000000009,-0.0033437999999999,0,sub_15
0.0077411999999997,0.0097926000000012,-0.0061105999999998,-0.0034257999999995,0.0004714000000009,-0.0035497999999999,0,sub_15
0.0075659999999997,0.0100250000000012,-0.0061263999999998,-0.0059853999999995,0.0019666000000009,-0.0022875999999999,0,sub_15
0.0077875999999997,0.0097180000000012,-0.0063973999999998,-0.0064159999999995,0.0026014000000009,-0.0007957999999999,0,sub_15
0.0079055999999997,0.0095220000000011,-0.0056041999999999,-0.0057825999999995,0.0023810000000009,0.0004908,0,sub_15
0.0077563999999997,0.0091950000000011,-0.0049735999999999,-0.0051231999999995,0.0023734000000009,0.0009336,0,sub_15
0.0083169999999997,0.0084368000000011,-0.0041579999999999,-0.0042485999999995,0.0019422000000009,0.000524,0,sub_15
0.0088871999999997,0.0079462000000011,-0.0043827999999999,-0.0029385999999995,0.0013050000000009,-0.0020187999999999,0,sub_15
0.0089215999999997,0.0079690000000011,-0.0036623999999999,-0.0020505999999995,0.0010980000000009,-0.0052059999999999,0,sub_15
0.0086903999999997,0.0080462000000011,-0.0035613999999999,-0.0007329999999995,0.0008920000000009,-0.0090311999999999,0,sub_15
0.0083735999999997,0.0080878000000011,-0.0037325999999999,0.0005578000000004,4.82000000009664e-05,-0.0122257999999999,0,sub_15
0.0084797999999998,0.0084460000000011,-0.0044143999999999,0.0016352000000004,-0.000582799999999,-0.0152083999999999,0,sub_15
0.0083677999999998,0.0091368000000011,-0.0037651999999999,0.0020640000000004,-0.001643599999999,-0.0166995999999999,0,sub_15
0.0083065999999998,0.0102532000000012,-0.0042563999999999,0.0027218000000004,-0.002502799999999,-0.0166821999999999,0,sub_15
0.0083521999999998,0.0112618000000012,-0.0051301999999999,0.0031624000000004,-0.002727999999999,-0.0151715999999999,0,sub_15
0.0086097999999998,0.0119322000000012,-0.0057651999999999,0.0027456000000004,-0.002529399999999,-0.0123853999999999,0,sub_15
0.0079865999999998,0.0124164000000012,-0.0054885999999999,0.0023250000000004,-0.002546199999999,-0.0089581999999999,0,sub_15
0.0078221999999997,0.0123194000000011,-0.0062113999999999,0.0016938000000004,-0.002347599999999,-0.0059599999999999,0,sub_15
0.0079035999999997,0.0121336000000011,-0.0058335999999999,0.0001896000000004,-0.002351799999999,-0.0036203999999999,0,sub_15
0.0079903999999997,0.0110448000000011,-0.0052477999999999,-0.0013107999999995,-0.002352599999999,-0.0021351999999999,0,sub_15
0.0081651999999997,0.0102236000000011,-0.0045471999999999,-0.0021671999999995,-0.002352199999999,-0.0015003999999999,0,sub_15
0.0091269999999997,0.0095746000000011,-0.0046643999999999,-0.0023587999999995,-0.002570399999999,-0.0012751999999999,0,sub_15
0.0094489999999998,0.0089214000000011,-0.0043411999999998,-0.0019101999999995,-0.003002999999999,-0.0012587999999999,0,sub_15
0.0090625999999998,0.0086524000000011,-0.0045933999999998,-0.0012453999999995,-0.002797199999999,-0.0012415999999999,0,sub_15
0.0085499999999998,0.0091226000000011,-0.0044513999999998,-0.0016481999999995,-0.002800799999999,-0.0012317999999999,0,sub_15
0.0079597999999998,0.0101760000000011,-0.0042151999999999,-0.0018357999999995,-0.002378799999999,-0.0012207999999999,0,sub_15
0.0074837999999998,0.0107614000000011,-0.0044047999999999,-0.0016233999999995,-0.002168199999999,-0.0007921999999999,0,sub_15
0.0073243999999998,0.0118964000000011,-0.0044477999999999,-0.0014099999999995,-0.001956599999999,-0.0005773999999999,0,sub_15
0.0073117999999998,0.0120744000000011,-0.0047281999999999,-0.0009803999999995,-0.001530999999999,-0.0007885999999999,0,sub_15
0.0069799999999998,0.0121266000000012,-0.0045107999999999,-0.0007375999999995,-0.000684999999999,-0.0009885999999999,0,sub_15
0.0067599999999998,0.0118018000000012,-0.0049593999999999,-0.0004995999999995,-0.000480199999999,-0.0007605999999999,0,sub_15
0.0066499999999998,0.0110578000000012,-0.0045487999999999,-0.0002565999999995,0.0001534000000009,-0.0011739999999999,0,sub_15
0.0068733999999997,0.0100094000000012,-0.0049859999999999,-1.8599999999550346e-05,-6.61999999990337e-05,-0.0013725999999999,0,sub_15
0.0073177999999997,0.0094996000000012,-0.0052147999999999,-0.0006357999999995,-0.000284399999999,-0.0011499999999999,0,sub_15
0.0076643999999997,0.0089610000000012,-0.0056263999999999,-0.0008509999999995,-7.319999999903376e-05,-0.0005107999999999,0,sub_15
0.0085645999999997,0.0090400000000012,-0.0055935999999999,-0.0006403999999995,-0.000500799999999,-0.0002951999999999,0,sub_15
0.0089979999999997,0.0098320000000012,-0.0057613999999999,-0.0008307999999995,-0.000722199999999,0.0001414,0,sub_15
0.0094021999999997,0.0109444000000012,-0.0052461999999999,-0.0003751999999995,0.0001202000000009,0.0003674,0,sub_15
0.0093973999999997,0.0120776000000012,-0.0048883999999999,-0.0001321999999995,0.0005398000000009,-4.83999999999582e-05,0,sub_15
0.0097863999999997,0.0130946000000012,-0.0054883999999999,-0.0005331999999995,0.0001094000000009,-0.0004675999999999,0,sub_15
0.0097671999999997,0.0128110000000012,-0.0058319999999999,-0.0011445999999995,0.0001066000000009,-0.0011023999999999,0,sub_15
0.0102023999999997,0.0122432000000012,-0.0057639999999998,-0.0011427999999995,-0.000103999999999,-0.0017431999999999,0,sub_15
0.0082911999999997,0.0120016000000012,-0.0065897999999999,-0.0034899999999995,0.0005408000000009,-0.0011193999999999,0,sub_15
0.0083415999999997,0.0112404000000012,-0.0067353999999999,-0.0045587999999995,0.0013916000000009,0.0001538,0,sub_15
0.0087815999999997,0.0096298000000011,-0.0063141999999999,-0.0045587999999995,0.0024526000000009,0.0012206,0,sub_15
0.0090591999999997,0.0088920000000011,-0.0063079999999999,-0.0053909999999995,0.0037276000000009,0.0016672,0,sub_15
0.0085621999999997,0.0089302000000011,-0.0071739999999999,-0.0068621999999995,0.0050058000000009,0.0018958,0,sub_15
0.0099929999999998,0.0090080000000011,-0.0065455999999999,-0.0070561999999995,0.0043670000000009,0.0008538,0,sub_15
0.0096307999999997,0.0096220000000011,-0.0060573999999999,-0.0070347999999995,0.0035170000000009,-0.0008271999999999,0,sub_15
0.0084771999999997,0.0111036000000011,-0.0057307999999999,-0.0061599999999995,0.0024518000000009,-0.0027155999999999,0,sub_15
0.0075531999999997,0.0124146000000011,-0.0051597999999999,-0.0044549999999995,0.0009588000000009,-0.0037699999999999,0,sub_15
0.0067557999999997,0.0130332000000011,-0.0039565999999999,-0.0025395999999995,-0.001174199999999,-0.0048219999999999,0,sub_15
0.0063089999999997,0.0129680000000011,-0.0034567999999999,0.0004588000000004,-0.001818799999999,-0.0054103999999999,0,sub_15
0.0068477999999998,0.0131108000000011,-0.0040107999999999,0.0021702000000004,-0.002464999999999,-0.0045123999999999,0,sub_15
0.0077621999999998,0.0129274000000011,-0.0047649999999999,0.0030262000000004,-0.003109799999999,-0.0031929999999999,0,sub_15
0.0085399999999998,0.0129750000000011,-0.0053313999999999,0.0032432000000004,-0.003114999999999,-0.0014515999999999,0,sub_15
0.0096585999999998,0.0128402000000011,-0.0057795999999999,0.0032458000000004,-0.002695799999999,0.0009286,0,sub_15
0.0106967999999997,0.0127490000000011,-0.0058039999999998,0.0030210000000004,-0.002917399999999,0.0032774,0,sub_15
0.0105417999999997,0.0118258000000011,-0.0056001999999998,0.0032296000000004,-0.002922399999999,0.0043472,0,sub_15
0.0104603999999997,0.0114752000000012,-0.0050459999999998,0.0028020000000004,-0.002497399999999,0.0049846,0,sub_15
0.0098293999999997,0.0110864000000012,-0.0049113999999998,0.0023770000000004,-0.002494199999999,0.0045544,0,sub_15
0.0099379999999997,0.0104056000000011,-0.0052767999999998,0.0021800000000004,-0.002694199999999,0.0030808,0,sub_15
0.0090529999999997,0.0101916000000011,-0.0059659999999999,0.0009180000000004,-0.003100999999999,0.000959,0,sub_15
0.0089823999999997,0.0108856000000011,-0.0058925999999999,-0.0001343999999995,-0.003723999999999,-0.0005201999999999,0,sub_15
0.0086309999999997,0.0116322000000011,-0.0062599999999999,-0.0009715999999995,-0.003921799999999,-0.0019983999999999,0,sub_15
0.0088013999999998,0.0123886000000011,-0.0062805999999999,-0.0020219999999995,-0.003482199999999,-0.0028379999999999,0,sub_15
0.0080681999999998,0.0128754000000011,-0.0057187999999999,-0.0024457999999995,-0.002417199999999,-0.0024151999999999,0,sub_15
0.0079747999999997,0.0128828000000011,-0.0050975999999999,-0.0018075999999995,-0.001572199999999,-0.0011299999999999,0,sub_15
0.0078453999999997,0.0124380000000011,-0.0051381999999999,-0.0009473999999995,-0.000722599999999,-4.0799999999938365e-05,0,sub_15
0.0079839999999997,0.0119400000000011,-0.0048237999999999,-9.099999999955064e-05,-0.000512999999999,0.0012626,0,sub_15
0.0077755999999997,0.0107734000000012,-0.0042381999999999,0.0007664000000004,-0.000302399999999,0.0023526,0,sub_15
0.0080533999999997,0.0104408000000012,-0.0046967999999999,0.0009836000000004,-0.000514199999999,0.0030114,0,sub_15
0.0083247999999998,0.0101876000000012,-0.0052259999999999,0.0005636000000004,-0.000721199999999,0.0030246,0,sub_15
0.0087869999999998,0.0100932000000012,-0.0052921999999999,0.0001398000000004,-0.000717199999999,0.0023806,0,sub_15
0.0093061999999998,0.0112652000000012,-0.0054093999999999,-0.0007097999999995,-0.000498599999999,0.0017336,0,sub_15
0.0100453999999998,0.0127102000000012,-0.0059417999999999,-0.0017775999999995,-0.000495799999999,0.0019398,0,sub_15
0.0104319999999998,0.0138624000000012,-0.0058991999999999,-0.0024067999999995,-0.000497599999999,0.0023746,0,sub_15
0.0106809999999997,0.0146702000000012,-0.0061211999999999,-0.0024007999999995,-0.001142599999999,0.0032422,0,sub_15
0.0105069999999997,0.0154510000000012,-0.0064755999999999,-0.0021861999999995,-0.002004799999999,0.004966,0,sub_15
0.0106865999999997,0.0144828000000012,-0.0066637999999999,-0.0002673999999995,-0.003299999999999,0.0069158,0,sub_15
0.0100849999999997,0.0127324000000011,-0.0065455999999999,0.0025124000000004,-0.004166999999999,0.0075892,0,sub_15
0.0088383999999997,0.0115170000000011,-0.0064427999999999,0.0025076000000004,-0.003959199999999,0.0088708,0,sub_15
0.0082953999999998,0.0107758000000011,-0.0058029999999999,0.0022944000000004,-0.002685199999999,0.0101496,0,sub_15
0.0084041999999998,0.0094614000000011,-0.0054389999999999,0.0025144000000004,-0.001406799999999,0.0099358,0,sub_15
0.0079803999999998,0.0094540000000011,-0.0048795999999999,0.0023106000000004,-0.000124199999999,0.0090782,0,sub_15
0.0081245999999998,0.0104236000000012,-0.0050297999999999,0.0021202000000004,0.0007314000000009,0.0080194,0,sub_15
0.0093313999999998,0.0112134000000011,-0.0046659999999999,0.0044920000000004,0.0005186000000009,0.0054844,0,sub_15
0.0099099999999998,0.0118956000000011,-0.0049553999999999,0.0060102000000004,-0.000115799999999,0.0025166,0,sub_15
0.0093269999999998,0.0132406000000011,-0.0050853999999999,0.0064588000000004,-0.000748799999999,0.0001824,0,sub_15
0.0099925999999998,0.0135264000000011,-0.0053599999999999,0.0069044000000004,-0.0018087999999989,-0.0019377999999999,0,sub_15
0.0107849999999998,0.0130604000000011,-0.0053227999999999,0.0077540000000004,-0.0035127999999989,-0.0027841999999999,0,sub_15
0.0115225999999998,0.0116434000000011,-0.0052671999999999,0.0086046000000004,-0.0050035999999989,-0.0036307999999999,0,sub_15
0.0122477999999998,0.0102982000000011,-0.0056817999999999,0.0098842000000004,-0.006279799999999,-0.0038295999999999,0,sub_15
0.0131703999999998,0.0091070000000011,-0.0060875999999999,0.0111598000000004,-0.007771799999999,-0.0033871999999999,0,sub_15
0.0129819999999997,0.0084312000000011,-0.0064069999999999,0.0122222000000004,-0.008838599999999,-0.0025195999999999,0,sub_15
0.0125177999999997,0.0089302000000011,-0.0065491999999999,0.0128616000000004,-0.009476199999999,-0.0020827999999999,0,sub_15
0.0118523999999997,0.0101850000000011,-0.0071897999999999,0.0132838000000004,-0.009904199999999,-0.0005795999999999,0,sub_15
0.0107209999999997,0.0115086000000012,-0.0068759999999999,0.0132770000000004,-0.010122399999999,0.0007024,0,sub_15
0.0098177999999997,0.0121602000000012,-0.0060219999999999,0.0137028000000004,-0.0097001999999989,0.0013456,0,sub_15
0.0088117999999997,0.0130952000000011,-0.0056839999999999,0.0137056000000004,-0.008848799999999,0.0015582,0,sub_15
0.0081863999999997,0.0128436000000011,-0.0048607999999999,0.0130702000000004,-0.007356799999999,0.0019792,0,sub_15
0.0078935999999997,0.0126620000000011,-0.0049549999999999,0.0122284000000004,-0.006276599999999,0.0013342,0,sub_15
0.0083073999999997,0.0121946000000011,-0.0050639999999999,0.0118174000000004,-0.004982399999999,5.100000000006159e-05,0,sub_15
0.0091713999999997,0.0123196000000011,-0.0052321999999999,0.0116150000000004,-0.004329799999999,-0.0008025999999999,0,sub_15
0.0100609999999998,0.0117356000000011,-0.0055369999999999,0.0107694000000004,-0.003889799999999,-0.0012331999999999,0,sub_15
0.0109793999999998,0.0119560000000011,-0.0060603999999999,0.0105650000000004,-0.004087799999999,-0.0025131999999999,0,sub_15
0.0118245999999998,0.0119808000000012,-0.0064365999999999,0.0105640000000004,-0.0049375999999989,-0.0031531999999999,0,sub_15
0.0126589999999997,0.0116348000000012,-0.0062123999999999,0.0107734000000004,-0.0064269999999989,-0.0037907999999999,0,sub_15
0.0130235999999997,0.0112686000000012,-0.0069577999999999,0.0101322000000004,-0.007274399999999,-0.0044351999999999,0,sub_15
0.0133251999999997,0.0112858000000012,-0.0069613999999999,0.0101376000000004,-0.007901599999999,-0.0052939999999999,0,sub_15
0.0125677999999997,0.0107306000000012,-0.0074163999999998,0.0103534000000004,-0.008532199999999,-0.0055103999999999,0,sub_15
0.0113485999999997,0.0106590000000012,-0.0066481999999998,0.0107798000000004,-0.009165999999999,-0.0050841999999999,0,sub_15
0.0096399999999998,0.0113652000000011,-0.0067959999999998,0.0112062000000004,-0.009587799999999,-0.0044447999999999,0,sub_15
0.0085659999999997,0.0118716000000011,-0.0064425999999998,0.0114182000000004,-0.010009599999999,-0.0035931999999999,0,sub_15
0.0076291999999997,0.0122624000000011,-0.0058031999999998,0.0120574000000004,-0.009375999999999,-0.0027347999999999,0,sub_15
0.0067175999999997,0.0130094000000011,-0.0050373999999998,0.0114192000000004,-0.008310999999999,-0.0020995999999999,0,sub_15
0.0069585999999997,0.0129562000000011,-0.0059365999999998,0.0095070000000004,-0.006162799999999,-0.0023491999999999,0,sub_15
0.0077163999999997,0.0129320000000011,-0.0059017999999999,0.0069556000000004,-0.003799399999999,-0.0026031999999999,0,sub_15
0.0088545999999997,0.0120546000000011,-0.0058539999999999,0.0061102000000004,-0.002503799999999,-0.0036985999999999,0,sub_15
0.0090181999999997,0.0113988000000011,-0.0060175999999999,0.0039844000000004,-0.000779399999999,-0.0043763999999999,0,sub_15
0.0107113999999997,0.0107006000000011,-0.0065675999999999,0.0016406000000004,0.0009416000000009,-0.0039873999999999,0,sub_15
0.0115845999999997,0.0102146000000012,-0.0058053999999999,0.0003670000000004,0.0024374000000009,-0.0039981999999999,0,sub_15
0.0116961999999997,0.0105086000000012,-0.0059633999999999,-0.0002711999999995,0.0030780000000009,-0.0037899999999999,0,sub_15
0.0107227999999997,0.0113652000000012,-0.0059043999999999,-0.0015495999999995,0.0045696000000009,-0.0027325999999999,0,sub_15
