userAcceleration.x,userAcceleration.y,userAcceleration.z,rotationRate.x,rotationRate.y,rotationRate.z,label,subject
0.0073835999999998,0.0027514000000011,-0.0029219999999999,0.0055332000000004,-0.005708799999999,-0.0078231999999999,0,sub_2
0.0046131999999998,0.0056550000000011,-0.0016885999999999,0.0044394000000004,-0.009548599999999,-0.0056895999999999,0,sub_2
0.0014695999999998,0.0068786000000011,-0.0016469999999999,0.0041924000000004,-0.012548399999999,-0.0012009999999999,0,sub_2
-0.0001570000000001,0.0066486000000011,-0.0017757999999999,0.0041790000000004,-0.014072399999999,0.002233,0,sub_2
0.0001153999999998,0.0063484000000012,-0.0018583999999999,0.0033352000000004,-0.014299799999999,0.0018138,0,sub_2
0.0005813999999998,0.0058692000000011,-0.0024525999999999,0.0018724000000004,-0.012596399999999,-0.0013895999999999,0,sub_2
0.0014859999999998,0.0059132000000011,-0.0030001999999998,0.0002068000000004,-0.009185199999999,-0.0052373999999999,0,sub_2
0.0021591999999998,0.0073790000000011,-0.0025399999999998,-0.0016711999999995,-0.005135999999999,-0.0086601999999999,0,sub_2
0.0028145999999998,0.0081068000000011,-0.0022469999999998,-0.0027217999999995,-0.0023591999999991,-0.0095257999999999,0,sub_2
0.0025833999999997,0.0083584000000011,-0.0021435999999998,-0.0025111999999995,-0.0008769999999991,-0.0073897999999999,0,sub_2
0.0018989999999997,0.0084986000000011,-0.0023615999999998,-0.0018873999999995,-0.0006815999999991,-0.0035399999999999,0,sub_2
0.0010841999999997,0.0085066000000012,-0.0021465999999999,-0.0014397999999995,-0.0007677999999991,0.0001278,0,sub_2
0.0007425999999997,0.0080740000000012,-0.0012581999999999,-0.0001349999999995,-0.0010655999999991,0.0027336,0,sub_2
-0.0005094000000002,0.0083672000000012,-0.0015335999999999,0.0009670000000004,-0.0007167999999991,0.003628,0,sub_2
-0.0011266000000001,0.0082492000000012,-0.0021727999999999,0.0014356000000004,-0.0001477999999991,0.0032358,0,sub_2
-0.0011146000000001,0.0082552000000012,-0.0017071999999998,0.0014842000000004,0.0006410000000008,0.0015586,0,sub_2
-0.0002700000000002,0.0082162000000011,-0.0016631999999998,0.0019224000000004,0.0017106000000008,6.480000000009507e-05,0,sub_2
0.0003703999999997,0.0074492000000011,-0.0017779999999998,0.0021396000000004,0.0017132000000008,-0.0007883999999998,0,sub_2
0.0016955999999997,0.0065298000000011,-0.0016151999999998,0.0023512000000004,0.0004376000000009,-0.0016397999999998,0,sub_2
0.0030641999999997,0.0061722000000011,-0.0016227999999998,0.0014958000000004,-0.001046399999999,-0.0027119999999998,0,sub_2
0.0036589999999997,0.0068436000000012,-0.0016967999999999,0.0011098000000004,-0.001788599999999,-0.0026683999999998,0,sub_2
0.0036639999999997,0.0068490000000012,-0.0021239999999999,0.0007170000000004,-0.003385599999999,-0.0019827999999998,0,sub_2
0.0037455999999997,0.0068662000000012,-0.0025203999999999,0.0007500000000004,-0.004560599999999,-0.0006537999999998,0,sub_2
0.0025795999999997,0.0071096000000012,-0.0025229999999999,0.0005714000000004,-0.005308799999999,0.000673,0,sub_2
0.0013273999999997,0.0078532000000012,-0.0017045999999999,0.0012464000000004,-0.005847799999999,0.0022192,0,sub_2
0.0002669999999998,0.0073856000000012,-0.0018417999999999,0.0016664000000004,-0.006703999999999,0.002864,0,sub_2
0.0002111999999998,0.0075664000000012,-0.0017475999999999,0.0023036000000004,-0.006920999999999,0.003296,0,sub_2
-0.0003268000000001,0.0077176000000012,-0.0022885999999999,0.0027472000000004,-0.007388799999999,0.0033082,0,sub_2
-0.0002792000000001,0.0080946000000012,-0.0027747999999999,0.0031908000000004,-0.007856599999999,0.0033204,0,sub_2
0.0002161999999997,0.0076394000000012,-0.0034535999999999,0.0036334000000004,-0.008961799999999,0.002906,0,sub_2
0.0009221999999997,0.0075546000000011,-0.0031925999999999,0.0038616000000004,-0.009854999999999,0.0029172,0,sub_2
0.0011545999999997,0.0073332000000011,-0.0029317999999999,0.0038802000000004,-0.010319599999999,0.002499,0,sub_2
0.0014647999999997,0.0076678000000011,-0.0023505999999999,0.0038820000000004,-0.010529999999999,0.0018584,0,sub_2
0.0016875999999997,0.0070998000000011,-0.0021633999999998,0.0038858000000004,-0.010526599999999,0.0010038,0,sub_2
0.0014049999999997,0.0073068000000011,-0.0018481999999998,0.0041038000000004,-0.010098599999999,0.000364,0,sub_2
0.0013777999999997,0.0072142000000012,-0.0015543999999998,0.0041094000000004,-0.010093399999999,-0.0009177999999999,0,sub_2
0.0012405999999997,0.0070790000000012,-0.0010681999999999,0.0041120000000004,-0.010093799999999,-0.0017663999999998,0,sub_2
0.0015927999999997,0.0068360000000012,-0.0010579999999998,0.0039022000000004,-0.009668399999999,-0.0024035999999998,0,sub_2
0.0024865999999997,0.0067188000000012,-0.0007301999999999,0.0039010000000004,-0.009459999999999,-0.0021843999999998,0,sub_2
0.0033175999999997,0.0065522000000012,-0.0008627999999999,0.0032578000000004,-0.009675599999999,-0.0019691999999998,0,sub_2
0.0033457999999997,0.0064424000000012,-0.0014527999999999,0.0028280000000004,-0.009679799999999,-0.0015389999999998,0,sub_2
0.0028133999999997,0.0069638000000012,-0.0019691999999998,0.0024032000000004,-0.009252199999999,-0.0015425999999999,0,sub_2
0.0021667999999997,0.0074962000000012,-0.0013043999999999,0.0024032000000004,-0.009039999999999,-0.0013291999999999,0,sub_2
0.0013183999999997,0.0080636000000012,-0.0010943999999999,0.0024088000000004,-0.008610599999999,-0.0021841999999999,0,sub_2
0.0005145999999998,0.0081590000000012,-0.0017207999999999,0.0026252000000004,-0.007962399999999,-0.0026009999999999,0,sub_2
0.0001207999999998,0.0088158000000011,-0.0020329999999999,0.0019930000000004,-0.006457999999999,-0.0032385999999999,0,sub_2
0.0010709999999998,0.0087228000000012,-0.0017317999999999,0.0020000000000004,-0.005381199999999,-0.0040847999999999,0,sub_2
0.0016681999999998,0.0078594000000011,-0.0020565999999999,0.0022204000000004,-0.004304999999999,-0.0049295999999998,0,sub_2
0.0022419999999998,0.0071998000000011,-0.0019881999999999,0.0024350000000004,-0.004082799999999,-0.0053459999999998,0,sub_2
0.0027717999999998,0.0062864000000011,-0.0010773999999999,0.0020084000000004,-0.004929999999999,-0.0062025999999998,0,sub_2
0.0028757999999998,0.0063196000000011,-0.0008285999999999,0.0030714000000004,-0.005998199999999,-0.0064073999999998,0,sub_2
0.0021503999999997,0.0066184000000011,-0.0010197999999999,0.0034864000000004,-0.006633999999999,-0.0055429999999998,0,sub_2
0.0018245999999997,0.0078364000000012,-0.0016047999999999,0.0034766000000004,-0.007266599999999,-0.0051087999999999,0,sub_2
0.0016991999999997,0.0086188000000012,-0.0018627999999999,0.0034688000000004,-0.007260799999999,-0.0044617999999999,0,sub_2
0.0016281999999997,0.0089970000000012,-0.0022981999999999,0.0041040000000004,-0.006193799999999,-0.0033843999999998,0,sub_2
0.0020223999999997,0.0083238000000011,-0.0017455999999999,0.0043114000000004,-0.005762599999999,-0.0027363999999998,0,sub_2
0.0025051999999997,0.0074032000000011,-0.0017485999999999,0.0045258000000004,-0.005762399999999,-0.0029485999999998,0,sub_2
0.0025885999999997,0.0068796000000011,-0.0017301999999999,0.0041038000000004,-0.005332199999999,-0.0035929999999998,0,sub_2
0.0019191999999997,0.0065708000000011,-0.0022423999999999,0.0034704000000004,-0.004687399999999,-0.0044527999999998,0,sub_2
0.0017437999999997,0.0072374000000011,-0.0019911999999999,0.0030398000000004,-0.004023399999999,-0.0048837999999998,0,sub_2
0.0014033999999998,0.0075854000000011,-0.0020905999999999,0.0026064000000004,-0.003149799999999,-0.0044607999999998,0,sub_2
0.0006769999999998,0.0080264000000012,-0.0023755999999999,0.0017452000000004,-0.002275599999999,-0.0038269999999998,0,sub_2
0.0009373999999998,0.0079688000000012,-0.0022239999999999,0.0015204000000004,-0.001831399999999,-0.0027607999999998,0,sub_2
0.0019825999999998,0.0084840000000011,-0.0016693999999999,0.0012946000000004,-0.001387999999999,-0.0014809999999998,0,sub_2
0.0021689999999998,0.0084844000000012,-0.0022591999999999,0.0008650000000004,-0.000964599999999,-0.0004163999999999,0,sub_2
0.0029869999999998,0.0083724000000011,-0.0023297999999999,0.0002220000000004,-0.000752799999999,0.0004334,0,sub_2
0.0033089999999997,0.0078562000000011,-0.0024155999999999,0.0002192000000004,-0.000755399999999,0.0010744,0,sub_2
0.0033581999999997,0.0073238000000011,-0.0022719999999999,1.0000000004434088e-06,-0.001183399999999,0.0017142,0,sub_2
0.0027389999999997,0.0063020000000011,-0.0024611999999999,-0.0002329999999995,-0.001574799999999,0.0023526,0,sub_2
0.0028623999999997,0.0056518000000011,-0.0016733999999999,-0.0002497999999995,-0.001751199999999,0.0023514,0,sub_2
0.0024907999999997,0.0054834000000011,-0.0021611999999999,-0.0002663999999995,-0.002139799999999,0.002137,0,sub_2
0.0027223999999998,0.0059844000000011,-0.0020021999999999,-7.159999999955657e-05,-0.002106399999999,0.002778,0,sub_2
0.0027179999999998,0.0068008000000011,-0.0019313999999999,-9.399999999955658e-05,-0.003136799999999,0.0032052,0,sub_2
0.0027999999999998,0.0073788000000011,-0.0021685999999998,-9.57999999995566e-05,-0.003138399999999,0.0036326,0,sub_2
0.0022537999999998,0.0076302000000011,-0.0021647999999998,-0.0003101999999995,-0.002714199999999,0.0042716,0,sub_2
0.0015305999999998,0.0079818000000012,-0.0016329999999998,-0.0003257999999995,-0.002245399999999,0.0044878,0,sub_2
0.0013285999999998,0.0080922000000012,-0.0016683999999998,-0.0007661999999995,-0.002197799999999,0.0038472,0,sub_2
0.0009955999999998,0.0076796000000011,-0.0017131999999998,-0.0009883999999995,-0.000873399999999,0.0034202,0,sub_2
0.0009695999999998,0.0078964000000011,-0.0018341999999998,-0.0012125999999995,-0.000399599999999,0.0025668,0,sub_2
0.0013715999999997,0.0086540000000011,-0.0020829999999998,-0.0014375999999995,-0.000350999999999,0.0015002000000001,0,sub_2
0.0019015999999997,0.0082694000000011,-0.0021851999999998,-0.0014327999999995,7.78000000008862e-05,0.0008588000000001,0,sub_2
0.0020509999999997,0.0078832000000011,-0.0031879999999998,-0.0014261999999995,0.0011448000000008,0.0004302000000001,0,sub_2
0.0020511999999997,0.0077622000000012,-0.0041565999999998,-0.0026969999999995,0.0024310000000008,-0.0004349999999998,0,sub_2
0.0028403999999997,0.0080928000000012,-0.0039581999999998,-0.0037589999999995,0.0032878000000008,-0.0006571999999998,0,sub_2
0.0029357999999998,0.0069922000000012,-0.0036561999999999,-0.0035627999999995,0.0039642000000008,-1.9999999998849063e-06,0,sub_2
0.0033923999999998,0.0064952000000012,-0.0030491999999999,-0.0033713999999995,0.0035754000000009,0.0006544000000001,0,sub_2
0.0029565999999998,0.0065870000000011,-0.0019015999999999,-0.0033951999999995,0.0025490000000009,0.0010964000000001,0,sub_2
0.0027707999999998,0.0067724000000011,-0.0009557999999999,-0.0025681999999995,0.0015172000000009,0.0021854,0,sub_2
0.0016935999999998,0.0067068000000011,-0.0004381999999999,-0.0013099999999995,0.0009124000000008,0.0026358,0,sub_2
0.0014237999999998,0.0076318000000011,-0.0010161999999999,-0.0010975999999995,0.0004864000000008,0.002424,0,sub_2
0.0013103999999998,0.0087734000000011,-0.0008405999999998,-0.0013071999999995,0.0009148000000008,0.0019946,0,sub_2
0.0022729999999998,0.0092000000000012,-0.0009489999999998,-0.0008813999999995,0.0011248000000008,0.0024246,0,sub_2
0.0029281999999998,0.0089974000000012,-0.0005391999999999,0.0001668000000004,0.0009442000000008,0.002449,0,sub_2
0.0032823999999998,0.0081226000000012,-0.0005601999999999,0.0003598000000004,0.0003406000000008,0.0024682,0,sub_2
0.0034977999999998,0.0075230000000012,4.700000000009164e-05,0.0005548000000004,-4.9199999999113776e-05,0.0022734,0,sub_2
0.0034735999999998,0.0072028000000011,-0.0007675999999999,0.0001106000000004,-0.000223599999999,0.002074,0,sub_2
0.0027681999999998,0.0072160000000011,-0.0004863999999999,-0.0005421999999995,3.1200000000906264e-05,0.0012314,0,sub_2
0.0025201999999998,0.0073342000000011,-0.0011965999999999,-0.0009649999999995,0.0004604000000009,0.0008006,0,sub_2
0.0026343999999998,0.0074232000000011,-0.0016107999999999,-0.0011773999999995,0.0006742000000009,0.0007988,0,sub_2
0.0024697999999997,0.0072492000000011,-0.0026443999999999,-0.0013927999999995,0.0004610000000009,0.0010112,0,sub_2
0.0025501999999997,0.0070430000000011,-0.0025489999999999,-0.0009817999999995,5.940000000090628e-05,0.0012398,0,sub_2
0.0026617999999997,0.0066738000000011,-0.0027587999999998,-0.0007841999999995,-0.000341399999999,0.001467,0,sub_2
0.0030077999999997,0.0069302000000011,-0.0026145999999998,-0.0010113999999995,-0.000526799999999,0.0014772,0,sub_2
0.0030851999999997,0.0072994000000011,-0.0021251999999998,-0.0012403999999995,-0.000926199999999,0.0017014,0,sub_2
0.0027717999999998,0.0077932000000011,-0.0018249999999998,-0.0012559999999995,-0.001326199999999,0.0019272,0,sub_2
0.0024113999999998,0.0078140000000011,-0.0019001999999998,-0.0010481999999995,-0.001756399999999,0.0027838,0,sub_2
0.0024225999999998,0.0076444000000012,-0.0020427999999998,-0.0010519999999995,-0.001971999999999,0.003425,0,sub_2
0.0021407999999997,0.0074694000000012,-0.0018525999999998,-0.0010627999999995,-0.002166199999999,0.0040674,0,sub_2
0.0017941999999997,0.0072010000000012,-0.0018459999999998,-0.0004307999999995,-0.001935599999999,0.0045,0,sub_2
0.0016789999999997,0.0071572000000012,-0.0017355999999999,-9.199999999556612e-06,-0.001489599999999,0.0045036,0,sub_2
0.0017975999999997,0.0075316000000012,-0.0015247999999999,-1.2599999999556612e-05,-0.001040399999999,0.004077,0,sub_2
0.0015499999999997,0.0078886000000012,-0.0014817999999999,0.0001966000000004,-0.001017199999999,0.0034388,0,sub_2
0.0014765999999997,0.0078600000000011,-0.0012347999999998,0.0004138000000004,-0.001014399999999,0.0025858,0,sub_2
0.0019177999999997,0.0081072000000011,-0.0016835999999998,0.0004206000000004,-0.000371799999999,0.0017306,0,sub_2
0.0025957999999997,0.0084276000000011,-0.0016625999999998,0.0002110000000004,5.680000000092616e-05,0.0013012,0,sub_2
0.0027267999999997,0.0080442000000011,-0.0020379999999998,1.400000000423415e-06,-0.000140799999999,0.0002292,0,sub_2
0.0032611999999997,0.0079082000000012,-0.0018943999999998,-0.0002081999999995,0.0002982000000009,-0.0002027999999999,0,sub_2
0.0031611999999997,0.0082264000000012,-0.0020555999999998,-0.0004217999999995,0.0007338000000009,0.00022,0,sub_2
0.0028485999999997,0.0083678000000012,-0.0013223999999998,-0.0004257999999995,0.0005286000000009,0.0008586,0,sub_2
0.0021215999999997,0.0079582000000011,-0.0014073999999998,-0.0002163999999995,0.0003228000000009,0.0014988,0,sub_2
0.0022297999999997,0.0087276000000011,-0.0017239999999998,-0.0008545999999995,0.0016000000000009,0.0023472,0,sub_2
0.0025341999999998,0.0092410000000011,-0.0011217999999999,-0.0014909999999995,0.0028790000000009,0.0027684,0,sub_2
0.0037155999999998,0.0083104000000011,-0.0008707999999999,-0.0008517999999995,0.0033002000000009,0.0034132,0,sub_2
0.0041515999999998,0.0074066000000011,-0.0019967999999999,-0.0004297999999995,0.0026578000000009,0.0038442,0,sub_2
0.0047613999999998,0.0069390000000012,-0.0018987999999999,-0.0006413999999995,0.0018106000000009,0.0036236,0,sub_2
0.0044577999999998,0.0058826000000012,-0.0014375999999999,-5.99999999556771e-07,0.0007474000000009,0.0034094,0,sub_2
0.0038367999999998,0.0056612000000012,-0.0018803999999999,0.0008518000000004,-0.000318399999999,0.003624,0,sub_2
0.0025201999999997,0.0068886000000012,-0.0021643999999999,0.0004276000000004,-0.001163999999999,0.0031882,0,sub_2
0.0021929999999997,0.0082694000000012,-0.0015659999999998,-0.0002069999999995,-0.001157399999999,0.0029636,0,sub_2
0.0018079999999997,0.0086908000000011,-0.0013947999999998,0.0002216000000004,-0.000520599999999,0.0031794,0,sub_2
0.0015739999999997,0.0091898000000011,-0.0013343999999998,0.0006484000000004,-0.000522199999999,0.0031822,0,sub_2
0.0014393999999997,0.0087738000000011,-0.0013349999999998,0.0008656000000004,-0.000943999999999,0.0019022,0,sub_2
0.0017187999999998,0.0080734000000011,-0.0017475999999998,0.0008792000000004,-0.000510799999999,0.0003988,0,sub_2
0.0013757999999998,0.0072028000000011,-0.0023125999999998,0.0006802000000004,0.0003484000000009,-0.0008931999999999,0,sub_2
0.0022475999999998,0.0075316000000011,-0.0022911999999998,5.060000000044322e-05,0.0007812000000009,-0.0017601999999999,0,sub_2
0.0028907999999998,0.0071892000000011,-0.0022419999999998,-0.0001589999999995,0.0009944000000009,-0.0013419999999999,0,sub_2
0.0031267999999998,0.0066472000000011,-0.0027267999999998,-0.0005875999999995,0.0012032000000009,0.0003564,0,sub_2
0.0033921999999998,0.0062146000000011,-0.0026101999999998,-0.0010211999999995,0.0009866000000009,0.0016354,0,sub_2
0.0037647999999998,0.0064260000000012,-0.0018341999999998,-0.0010279999999995,0.0001318000000009,0.0022774,0,sub_2
0.0035377999999998,0.0059520000000012,-0.0016657999999998,-0.0008193999999995,-0.000297599999999,0.0029204,0,sub_2
0.0030751999999998,0.0068882000000012,-0.0016863999999998,-0.0010289999999995,-0.000719399999999,0.002694,0,sub_2
0.0032723999999998,0.0076674000000012,-0.0015111999999998,-0.0012377999999995,-0.001140199999999,0.0022542,0,sub_2
0.0029847999999998,0.0082960000000012,-0.0017143999999998,-0.0008101999999995,-0.001778999999999,0.00246,0,sub_2
0.0028781999999998,0.0082990000000012,-0.0020643999999998,-0.0003795999999995,-0.001778799999999,0.002665,0,sub_2
0.0026945999999998,0.0081294000000012,-0.0019229999999998,-0.0005881999999995,-0.001987599999999,0.0024384,0,sub_2
0.0028607999999998,0.0068636000000012,-0.0020501999999998,-0.0003747999999995,-0.002200599999999,0.0022266,0,sub_2
0.0029611999999998,0.0062314000000012,-0.0016589999999998,5.000000000044323e-05,-0.002628199999999,0.0022302,0,sub_2
0.0029427999999998,0.0060054000000012,-0.0012011999999998,0.0002686000000004,-0.002836599999999,0.0015794,0,sub_2
0.0030993999999998,0.0061348000000012,-0.0010669999999998,0.0002708000000004,-0.003470999999999,0.0011412,0,sub_2
0.0029537999999997,0.0072236000000012,-0.0012565999999998,0.0006988000000004,-0.004107799999999,0.0009196,0,sub_2
0.0020695999999997,0.0082818000000011,-0.0009977999999998,0.0011298000000004,-0.004105399999999,0.0006972,0,sub_2
0.0005207999999997,0.0094100000000011,-0.0008615999999998,0.0019942000000004,-0.003037599999999,4.920000000009489e-05,0,sub_2
-0.0007320000000002,0.0091740000000011,-0.0003233999999999,0.0026448000000004,-0.001332799999999,-0.0005893999999999,0,sub_2
-0.0011636000000002,0.0067290000000011,-0.0003171999999999,0.0037252000000004,0.0003730000000008,-0.0018657999999999,0,sub_2
0.0002961999999997,0.0026404000000012,-0.0008183999999999,0.0043750000000004,0.0008036000000008,-0.0035707999999998,0,sub_2
0.0036333999999997,-0.0015065999999987,-0.0012097999999999,0.0037402000000004,-4.179999999911407e-05,-0.0048673999999998,0,sub_2
0.0079531999999997,-0.0035011999999987,-0.0014229999999998,0.0020290000000004,-0.0028017999999991,-0.0059555999999998,0,sub_2
0.0114537999999997,-0.0026753999999987,-0.0025615999999998,0.0003034000000004,-0.0074843999999991,-0.0057593999999998,0,sub_2
0.0103289999999998,0.0032964000000012,-0.0043723999999998,-0.0020651999999995,-0.011530599999999,-0.0042865999999998,0,sub_2
0.0065831999999998,0.0118298000000012,-0.0052469999999998,-0.0044251999999995,-0.012810599999999,-0.0019627999999999,0,sub_2
0.0012041999999998,0.0212210000000012,-0.0046099999999998,-0.0040079999999995,-0.012396199999999,0.0006034,0,sub_2
-0.0064974000000001,0.0262690000000012,-0.0014123999999999,0.0006910000000004,-0.008800999999999,0.0031954,0,sub_2
-0.0112830000000001,0.0242042000000012,-0.0014827999999999,0.0062704000000004,-0.002001799999999,0.003012,0,sub_2
-0.0107998000000001,0.0171446000000012,-0.0011007999999999,0.0110048000000004,0.0037470000000009,-0.0001669999999998,0,sub_2
-0.0054752000000002,0.0059050000000012,-0.0006491999999999,0.0142462000000004,0.0069540000000008,-0.0057153999999998,0,sub_2
0.0028251999999998,-0.0063095999999987,-0.0019941999999999,0.0149280000000004,0.0093218000000008,-0.0123487999999998,0,sub_2
0.0129229999999998,-0.0141297999999987,-0.0065261999999999,0.0102632000000004,0.0089386000000008,-0.0190159999999998,0,sub_2
0.0200145999999997,-0.0136785999999987,-0.0067703999999999,0.0034416000000004,0.0055716000000008,-0.0235579999999998,0,sub_2
0.0231527999999997,-0.0087405999999988,-0.0050399999999999,-0.0019141999999995,0.0015380000000008,-0.0225341999999998,0,sub_2
0.0191369999999997,0.0007992000000011,-0.0036477999999999,-0.0041111999999995,-0.0050889999999991,-0.0150633999999999,0,sub_2
0.0089537999999997,0.0105356000000012,-0.0019917999999999,-0.0039753999999995,-0.012373599999999,-0.0050117999999999,0,sub_2
-0.0005590000000002,0.0170604000000011,-0.0011945999999999,-0.0012667999999995,-0.017533999999999,0.0044142,0,sub_2
-0.0074584000000002,0.0188936000000011,-0.0014929999999998,0.0020980000000004,-0.020348999999999,0.0129772,0,sub_2
-0.0107542000000001,0.0167800000000011,-0.0013573999999998,0.0046486000000004,-0.019518799999999,0.0164022,0,sub_2
-0.0083280000000002,0.0117646000000011,-0.0019595999999998,0.0064014000000004,-0.012906799999999,0.0131912,0,sub_2
-0.0028330000000001,0.0071690000000011,-0.0025715999999998,0.0054052000000004,-0.005413999999999,0.0052598,0,sub_2
0.0021913999999998,0.0043538000000012,-0.0020071999999998,0.0033374000000004,0.0003806000000008,-0.0033179999999998,0,sub_2
0.0051479999999998,0.0045010000000012,-0.0012433999999998,0.0021042000000004,0.0036098000000008,-0.0105947999999998,0,sub_2
0.0062741999999998,0.0056224000000012,-0.0017457999999998,0.0016928000000004,0.0032006000000008,-0.0144425999999998,0,sub_2
0.0045747999999997,0.0074332000000011,-0.0019235999999998,0.0001858000000004,1.080000000088649e-05,-0.0146625999999998,0,sub_2
0.0031277999999998,0.0082880000000011,-0.0028817999999998,-0.0002683999999995,-0.0023423999999991,-0.0106141999999998,0,sub_2
0.0017577999999998,0.0078652000000011,-0.0040653999999998,-0.0013463999999995,0.0002018000000009,-0.0052943999999999,0,sub_2
0.0015925999999998,0.0053314000000011,-0.0041605999999998,-0.0036797999999995,0.0059556000000009,-0.0023375999999999,0,sub_2
0.0026055999999997,0.0030556000000011,-0.0020419999999999,-0.0049347999999995,0.0100182000000009,-0.0036441999999999,0,sub_2
0.0033297999999998,0.0014634000000012,-0.0001769999999999,-0.0038427999999995,0.0117386000000009,-0.0072813999999999,0,sub_2
0.0024139999999997,0.0019992000000012,0.0008474,-0.0016869999999995,0.0115386000000009,-0.0123935999999999,0,sub_2
0.0007321999999997,0.0030786000000012,0.0013202,0.0010830000000004,0.0074936000000009,-0.0155737999999999,0,sub_2
-0.0020266000000002,0.0056718000000012,0.0005566,0.0051066000000004,0.0027956000000009,-0.0142593999999999,0,sub_2
-0.0064888000000001,0.0119658000000012,-0.0016165999999999,0.0074244000000004,0.0025606000000008,-0.0086895999999999,0,sub_2
-0.0104090000000001,0.0182282000000012,-0.0027357999999999,0.0095460000000004,0.0070100000000008,-0.0022725999999999,0,sub_2
-0.0119538000000001,0.0230018000000011,-0.0031345999999999,0.0118876000000004,0.0116768000000008,0.0028638,0,sub_2
-0.0104718000000001,0.0250860000000011,-0.0025173999999999,0.0157344000000004,0.0159244000000008,0.0050202,0,sub_2
-0.0078494000000001,0.0240672000000011,-0.0016355999999999,0.0189724000000004,0.0199782000000008,0.0007648,0,sub_2
-0.0024834000000001,0.0191670000000011,-0.0024141999999999,0.0211790000000004,0.0268260000000008,-0.0086289999999998,0,sub_2
0.0028895999999998,0.0127502000000011,-0.0019709999999999,0.0202022000000004,0.0337004000000008,-0.0218905999999998,0,sub_2
0.0085213999999998,0.0050974000000012,-0.0014843999999999,0.0177328000000004,0.0401564000000009,-0.0358029999999998,0,sub_2
0.0130325999999997,-0.0017693999999987,-0.0013417999999999,0.0146104000000004,0.0483232000000008,-0.0475787999999998,0,sub_2
0.0183513999999997,-0.0077315999999987,-0.0012291999999999,0.0112576000000004,0.0596586000000008,-0.0523099999999998,0,sub_2
0.0205295999999998,-0.0118409999999987,-0.0026213999999999,0.0072040000000004,0.0681838000000008,-0.0463601999999999,0,sub_2
0.0208289999999998,-0.0122755999999987,-0.0052279999999998,0.0047838000000004,0.0692104000000008,-0.0314165999999999,0,sub_2
