userAcceleration.x,userAcceleration.y,userAcceleration.z,rotationRate.x,rotationRate.y,rotationRate.z,label,subject
-0.0198258000000002,-0.0543061999999987,0.019687,-0.0036555999999995,-0.001406599999999,0.0019694,0,sub_5
-0.0194780000000002,-0.0525241999999987,0.0177372,-2.5399999999586903e-05,-0.001416599999999,0.001354,0,sub_5
-0.0179792000000002,-0.0505429999999987,0.0165466,0.0012586000000004,-0.001629999999999,0.000295,0,sub_5
-0.0171088000000002,-0.0488769999999987,0.0155424,-0.0004473999999995,-0.002047599999999,-0.0003571999999999,0,sub_5
-0.0155096000000002,-0.0466951999999987,0.0151996,-0.0049261999999995,-0.003091199999999,-0.0018825999999999,0,sub_5
-0.0143214000000002,-0.0468747999999987,0.0155274,-0.0098317999999995,-0.004133399999999,-0.0034109999999998,0,sub_5
-0.0130170000000002,-0.0464453999999987,0.0167568,-0.0153679999999995,-0.003679399999999,-0.0055867999999998,0,sub_5
-0.0120850000000001,-0.0469235999999987,0.0176308,-0.0211077999999995,-0.001306199999999,-0.0079799999999998,0,sub_5
-0.0112706000000001,-0.0474629999999987,0.0188582,-0.0259941999999995,0.0014884000000009,-0.0099405999999999,0,sub_5
-0.0116202000000001,-0.0483153999999987,0.0195434,-0.0295993999999995,0.0053402000000009,-0.0110389999999998,0,sub_5
-0.0129616000000001,-0.0487879999999987,0.0195774,-0.0314975999999995,0.0096106000000009,-0.0116987999999999,0,sub_5
-0.0146904000000001,-0.0506605999999987,0.0192188,-0.0312737999999995,0.0121656000000009,-0.0114867999999999,0,sub_5
-0.0172760000000001,-0.0528645999999987,0.0197154,-0.0282913999999995,0.0123630000000009,-0.0101843999999998,0,sub_5
-0.0204306000000001,-0.0547175999999987,0.0199442,-0.0236029999999995,0.0123414000000009,-0.0088697999999998,0,sub_5
-0.0236110000000001,-0.0563767999999987,0.0198086,-0.0184935999999995,0.0110402000000008,-0.0075505999999999,0,sub_5
-0.0241210000000001,-0.0576241999999987,0.019287,-0.0129631999999995,0.0078224000000008,-0.0068667999999998,0,sub_5
-0.0246428000000001,-0.0573699999999987,0.0188128,-0.0080717999999995,0.0039712000000009,-0.0070413999999998,0,sub_5
-0.0238956000000001,-0.0558981999999987,0.0181042,-0.0048759999999995,0.0014094000000009,-0.0085111999999999,0,sub_5
-0.0213260000000002,-0.0546837999999987,0.0170476,-0.0027451999999995,-0.001146999999999,-0.0104157999999999,0,sub_5
-0.0178376000000002,-0.0531627999999987,0.0168012,-0.0006181999999995,-0.004131199999999,-0.0118925999999999,0,sub_5
-0.0157216000000002,-0.0517225999999987,0.0172872,-0.0004077999999995,-0.005619799999999,-0.0127437999999999,0,sub_5
-0.0139554000000002,-0.0507753999999987,0.0177588,-0.0012631999999995,-0.005618599999999,-0.0123223999999999,0,sub_5
-0.0126780000000002,-0.0500611999999987,0.0182896,-0.0020889999999995,-0.005404799999999,-0.0110411999999999,0,sub_5
-0.0128058000000002,-0.0491919999999987,0.0189926,-0.0031279999999995,-0.004765799999999,-0.0093347999999999,0,sub_5
-0.0133358000000002,-0.0493413999999987,0.018899,-0.0048005999999995,-0.003057799999999,-0.0080615999999999,0,sub_5
-0.0142540000000002,-0.0505485999999987,0.0186178,-0.0060501999999995,-0.001354599999999,-0.0059307999999999,0,sub_5
-0.0154250000000002,-0.0520497999999987,0.018628,-0.0064501999999995,-0.000294399999999,-0.0035795999999999,0,sub_5
-0.0162804000000001,-0.0536309999999987,0.0181098,-0.0066721999999995,-8.919999999906405e-05,-0.0014449999999999,0,sub_5
-0.0174638000000001,-0.0550365999999987,0.0175146,-0.0062531999999995,-0.000521999999999,-0.0001595999999999,0,sub_5
-0.0185878000000001,-0.0562039999999987,0.0175088,-0.0043541999999995,-0.000952399999999,0.0006896,0,sub_5
-0.0196958000000001,-0.0552967999999987,0.0178328,-0.0020225999999995,-0.001591599999999,4.660000000009501e-05,0,sub_5
-0.0201228000000001,-0.0542577999999987,0.0176852,0.0003088000000004,-0.002654999999999,-0.0010231999999999,0,sub_5
-0.0203426000000002,-0.0528375999999987,0.0177114,0.0026422000000004,-0.003504599999999,-0.0023069999999999,0,sub_5
-0.0197784000000002,-0.0515639999999987,0.0178032,0.0041260000000004,-0.003286799999999,-0.0033843999999999,0,sub_5
-0.0189546000000002,-0.0501819999999987,0.0177996,0.0043412000000004,-0.003498199999999,-0.0040233999999999,0,sub_5
-0.0175672000000002,-0.0499663999999987,0.0178862,0.0045536000000004,-0.003499799999999,-0.0038083999999999,0,sub_5
-0.0164598000000002,-0.0501229999999987,0.0182444,0.0041288000000004,-0.002647799999999,-0.0033851999999999,0,sub_5
-0.0154784000000002,-0.0503573999999987,0.0181244,0.0032762000000004,-0.0015829999999991,-0.0025377999999999,0,sub_5
-0.0149844000000002,-0.0509627999999987,0.0182562,0.0018704000000004,-0.0013339999999991,-0.0013917999999999,0,sub_5
-0.0152068000000002,-0.0516145999999987,0.017978,0.0002534000000004,-0.0006579999999991,-0.0002479999999999,0,sub_5
-0.0155060000000002,-0.0517633999999987,0.0178708,-0.0015733999999995,0.0002342000000008,0.0002534,0,sub_5
-0.0158706000000002,-0.0514721999999987,0.0176334,-0.0031857999999995,0.0004898000000008,-9.759999999994509e-05,0,sub_5
-0.0166714000000002,-0.0518331999999987,0.017243,-0.0050133999999995,0.0001080000000009,-0.0006629999999999,0,sub_5
-0.0169296000000002,-0.0518111999999987,0.0174204,-0.0065031999999995,0.0001166000000009,-0.0015279999999999,0,sub_5
-0.0172194000000002,-0.0518005999999987,0.018058,-0.0065003999999995,-9.319999999906404e-05,-0.0023821999999999,0,sub_5
-0.0178168000000002,-0.0514077999999987,0.0179712,-0.0065285999999995,0.0001308000000009,-0.0028751999999999,0,sub_5
-0.0179242000000002,-0.0515157999999987,0.0172914,-0.0059185999999995,-7.339999999906402e-05,-0.0033629999999999,0,sub_5
-0.0180504000000002,-0.0512559999999987,0.0176048,-0.0044521999999995,-6.579999999908404e-05,-0.0042723999999999,0,sub_5
-0.0184988000000002,-0.0514915999999987,0.016853,-0.0027741999999995,-0.000485199999999,-0.0051797999999999,0,sub_5
-0.0185968000000002,-0.0517225999999987,0.0159676,-0.0021661999999995,-0.001115599999999,-0.0056671999999999,0,sub_5
-0.0181484000000002,-0.0522015999999987,0.0152014,-0.0021699999999995,-0.002816599999999,-0.0065195999999999,0,sub_5
-0.0184034000000001,-0.0519209999999987,0.0154844,-0.0032405999999995,-0.003877399999999,-0.0067393999999999,0,sub_5
-0.0180476000000001,-0.0517017999999987,0.0162928,-0.0047361999999995,-0.004086199999999,-0.0065359999999999,0,sub_5
-0.0173346000000001,-0.0508109999999987,0.0172816,-0.0068813999999995,-0.004283999999999,-0.0065721999999999,0,sub_5
-0.0160532000000001,-0.0493885999999987,0.0177044,-0.0088091999999995,-0.004266999999999,-0.0072479999999999,0,sub_5
-0.0153710000000001,-0.0489947999999987,0.0182936,-0.0105199999999995,-0.002973999999999,-0.0074965999999999,0,sub_5
-0.0146248000000001,-0.0488319999999987,0.0188292,-0.0122287999999995,-0.0010427999999991,-0.0075323999999999,0,sub_5
-0.0152684000000001,-0.0491455999999987,0.0175814,-0.0141585999999995,-0.0006031999999991,-0.0073541999999999,0,sub_5
-0.0159420000000001,-0.0498527999999987,0.0167308,-0.0150129999999995,-0.0001765999999991,-0.0067197999999999,0,sub_5
-0.0172470000000001,-0.0513133999999987,0.0159762,-0.0150101999999995,0.0013114000000008,-0.0058671999999999,0,sub_5
-0.0184538000000002,-0.0518081999999987,0.0163766,-0.0139421999999995,0.0021572000000008,-0.0052199999999999,0,sub_5
-0.0191264000000001,-0.0526595999999986,0.0161662,-0.0118077999999995,0.0019446000000009,-0.0049951999999999,0,sub_5
-0.0188702000000001,-0.0522675999999987,0.0167098,-0.0092417999999995,0.0023714000000009,-0.0051955999999999,0,sub_5
-0.0190452000000001,-0.0522063999999987,0.0170228,-0.0066729999999995,0.0030128000000009,-0.0058233999999999,0,sub_5
-0.0192680000000001,-0.0522051999999987,0.0174158,-0.0049641999999995,0.0023782000000009,-0.0062419999999998,0,sub_5
-0.0186532000000001,-0.0522521999999987,0.017182,-0.0045377999999995,0.0013220000000009,-0.0066689999999998,0,sub_5
-0.0183150000000001,-0.0517273999999987,0.0169584,-0.0041147999999995,0.0004682000000009,-0.0066649999999998,0,sub_5
-0.0181662000000001,-0.0516861999999987,0.0170068,-0.0036879999999995,0.0002546000000009,-0.0068753999999998,0,sub_5
-0.0176768000000001,-0.0514371999999987,0.017309,-0.0036887999999995,0.0002538000000008,-0.0066617999999998,0,sub_5
-0.0163060000000002,-0.0508519999999987,0.0176576,-0.0045421999999995,0.0009062000000008,-0.0064489999999999,0,sub_5
-0.0162318000000002,-0.0504797999999987,0.0174466,-0.0051811999999995,0.0024074000000008,-0.0055949999999999,0,sub_5
-0.0168784000000002,-0.0508719999999987,0.0177708,-0.0058221999999995,0.0028462000000008,-0.0053805999999999,0,sub_5
-0.0169218000000002,-0.0516107999999987,0.0172484,-0.0060401999999995,0.0028554000000008,-0.0047351999999999,0,sub_5
-0.0163062000000002,-0.0521343999999987,0.0167072,-0.0062545999999995,0.0032926000000009,-0.0045177999999999,0,sub_5
-0.0165836000000002,-0.0524369999999987,0.0162714,-0.0054087999999995,0.0022218000000009,-0.0038695999999999,0,sub_5
-0.0165356000000002,-0.0524393999999987,0.0165618,-0.0043485999999995,0.0007268000000009,-0.0038601999999999,0,sub_5
-0.0163588000000002,-0.0525475999999987,0.0167026,-0.0032807999999995,0.0005116000000009,-0.0042797999999999,0,sub_5
-0.0167294000000002,-0.0526509999999987,0.0176744,-0.0024143999999995,0.0011578000000009,-0.0049065999999999,0,sub_5
-0.0173362000000002,-0.0524631999999987,0.0177866,-0.0015563999999995,0.0011596000000009,-0.0042505999999999,0,sub_5
-0.0177622000000002,-0.0522665999999987,0.018257,-0.0013347999999995,0.0020158000000009,-0.0036001999999999,0,sub_5
-0.0172736000000001,-0.0524343999999987,0.0168508,-5.099999999956702e-05,0.0018030000000009,-0.0029409999999999,0,sub_5
-0.0173396000000001,-0.0511055999999987,0.0158182,0.0012194000000004,-0.000543599999999,-0.0014243999999999,0,sub_5
-0.0175578000000001,-0.0504475999999987,0.0159564,0.0018520000000004,-0.001613599999999,-0.0007775999999999,0,sub_5
-0.0174522000000001,-0.0506631999999987,0.0159168,0.0012138000000004,-0.001609599999999,-0.0012091999999999,0,sub_5
-0.0166908000000001,-0.0515339999999987,0.0147216,0.0012168000000004,-0.001819199999999,-0.0020633999999999,0,sub_5
-0.0174906000000002,-0.0523621999999987,0.0160012,0.0016630000000004,-0.001595799999999,-0.0024667999999999,0,sub_5
-0.0173754000000002,-0.0527913999999987,0.0170222,0.0004138000000004,0.0009778000000009,-0.0030987999999999,0,sub_5
-0.0169020000000002,-0.0525091999999987,0.0162218,-0.0004239999999995,0.0012020000000008,-0.0026565999999999,0,sub_5
-0.0168856000000002,-0.0519493999999987,0.0162776,0.0010786000000004,0.0003510000000008,-0.0017695999999999,0,sub_5
-0.0177064000000002,-0.0502067999999987,0.017003,0.0019496000000004,0.0007832000000009,-0.0015293999999999,0,sub_5
-0.0176618000000002,-0.0494149999999987,0.0170162,0.0008866000000004,0.0014268000000008,-0.0017511999999999,0,sub_5
-0.0168426000000002,-0.0497259999999987,0.0164836,0.0011018000000004,0.0016400000000008,-0.0019635999999999,0,sub_5
-0.0160516000000002,-0.0499523999999987,0.0161722,0.0015304000000004,0.0016402000000008,-0.0023879999999998,0,sub_5
-0.0162428000000002,-0.0500695999999987,0.0163184,0.0013576000000004,0.0016508000000008,-0.0032167999999998,0,sub_5
-0.0167188000000002,-0.0510145999999987,0.0167096,0.0011820000000004,0.0014466000000008,-0.0036181999999998,0,sub_5
-0.0170414000000002,-0.0506549999999987,0.0164692,0.0010072000000004,0.0010310000000008,-0.0044465999999998,0,sub_5
-0.0174286000000001,-0.0508215999999987,0.015846,0.0012592000000004,0.0008260000000008,-0.0050585999999999,0,sub_5
-0.0178774000000001,-0.0510917999999987,0.0157174,0.0017198000000004,0.0004040000000008,-0.0048141999999999,0,sub_5
-0.0179184000000001,-0.0509199999999987,0.01566,0.0021436000000004,-2.459999999910377e-05,-0.0045969999999999,0,sub_5
-0.0171196000000001,-0.0500695999999987,0.0157108,0.0025626000000004,-0.0015183999999991,-0.0043785999999999,0,sub_5
-0.0162698000000001,-0.0498919999999987,0.0155974,0.0029808000000004,-0.002588599999999,-0.0035197999999999,0,sub_5
-0.0162286000000001,-0.0491783999999987,0.0164424,0.0021548000000004,-0.003865799999999,-0.0028521999999999,0,sub_5
-0.0157486000000001,-0.0486645999999987,0.01751,0.0006972000000004,-0.004284399999999,-0.0032581999999999,0,sub_5
-0.0156868000000001,-0.0486011999999987,0.0172634,-0.0001257999999995,-0.005346799999999,-0.0030179999999999,0,sub_5
-0.0159810000000001,-0.0490205999999987,0.0169776,-0.0015775999999995,-0.004486999999999,-0.0034255999999999,0,sub_5
-0.0159732000000002,-0.0495071999999987,0.0169874,-0.0032427999999995,-0.004262999999999,-0.0044747999999999,0,sub_5
-0.0147964000000002,-0.0507263999999987,0.0163706,-0.0032465999999995,-0.004690799999999,-0.0040467999999999,0,sub_5
-0.0153792000000002,-0.0511641999999987,0.0155758,-0.0034685999999995,-0.005546599999999,-0.0029789999999999,0,sub_5
-0.0162262000000002,-0.0513513999999987,0.0159108,-0.0060319999999995,-0.005752399999999,-0.0025693999999999,0,sub_5
-0.0155848000000002,-0.0520179999999987,0.0156808,-0.0081535999999995,-0.008100999999999,-0.0004133999999999,0,sub_5
-0.0156902000000002,-0.0518369999999987,0.014946,-0.0085767999999995,-0.011312199999999,0.0028238,0,sub_5
-0.0178310000000002,-0.0501973999999987,0.016032,-0.0100411999999995,-0.011737999999999,0.003059,0,sub_5
-0.0177212000000002,-0.0496619999999987,0.0158388,-0.0125703999999995,-0.011945999999999,0.0030728,0,sub_5
-0.0157202000000002,-0.0493951999999987,0.015229,-0.0125381999999995,-0.011949999999999,0.0031042,0,sub_5
-0.0160262000000002,-0.0487775999999987,0.0155068,-0.0114617999999995,-0.010671999999999,0.0022554,0,sub_5
-0.0172034000000002,-0.0486575999999987,0.0161768,-0.0116531999999995,-0.007044199999999,0.0009674,0,sub_5
-0.0174370000000002,-0.0497735999999987,0.0153112,-0.0124873999999995,-0.0042655999999991,-0.0005375999999999,0,sub_5
-0.0183422000000002,-0.0512285999999987,0.0155092,-0.0105205999999995,-0.0014911999999991,-0.0037055999999999,0,sub_5
-0.0200376000000001,-0.0518579999999987,0.0157804,-0.0072811999999995,-0.0004255999999991,-0.0068623999999999,0,sub_5
-0.0208994000000001,-0.0524549999999987,0.0150898,-0.0027653999999995,0.0004200000000008,-0.0093691999999999,0,sub_5
-0.0204634000000001,-0.0522003999999987,0.01532,0.0015302000000004,0.0004116000000008,-0.0112353999999999,0,sub_5
-0.0193172000000001,-0.0520627999999987,0.0160672,0.0047388000000004,-0.001732999999999,-0.0107563999999999,0,sub_5
-0.0182514000000001,-0.0514473999999987,0.0166524,0.0036556000000004,-0.003016999999999,-0.0084121999999999,0,sub_5
-0.0165198000000002,-0.0512347999999987,0.0171606,-0.0019151999999995,-0.003866999999999,-0.0041771999999999,0,sub_5
-0.0147256000000002,-0.0506743999999987,0.0173808,-0.0094129999999995,-0.005989399999999,0.0002598,0,sub_5
-0.0133130000000001,-0.0508011999999987,0.0171588,-0.0164667999999995,-0.007262999999999,0.0040818,0,sub_5
-0.0129626000000001,-0.0504513999999987,0.0165366,-0.0205209999999995,-0.007050399999999,0.006641,0,sub_5
-0.0125766000000001,-0.0500971999999987,0.0163776,-0.0202989999999995,-0.006420599999999,0.007734,0,sub_5
-0.0131166000000001,-0.0499073999999987,0.0163012,-0.0166505999999995,-0.005154999999999,0.0067136,0,sub_5
-0.0149442000000001,-0.0505859999999987,0.0174086,-0.0129915999999995,-0.002606999999999,0.0046234,0,sub_5
-0.0160092000000001,-0.0515557999999987,0.017281,-0.0097679999999995,-0.000475599999999,0.001652,0,sub_5
-0.0160888000000001,-0.0518405999999987,0.0168984,-0.0067681999999995,0.0003738000000009,-0.0002509999999999,0,sub_5
-0.0170940000000002,-0.0513039999999987,0.0164226,-0.0046393999999995,-0.000698999999999,-0.0002347999999999,0,sub_5
-0.0181964000000002,-0.0508231999999987,0.0159918,-0.0040001999999995,-0.000489999999999,0.0001968,0,sub_5
-0.0180194000000001,-0.0501309999999987,0.0153928,-0.0031435999999995,-6.819999999908349e-05,0.0006538,0,sub_5
-0.0188490000000001,-0.0484107999999987,0.0155972,-0.0012345999999995,-0.001572799999999,0.0024026,0,sub_5
-0.0200998000000001,-0.0478425999999987,0.0165676,-0.0001637999999995,-0.001575399999999,0.0022208,0,sub_5
-0.0195518000000001,-0.0481935999999987,0.0159932,-0.0003653999999995,-0.000505599999999,0.0013878,0,sub_5
-0.0180760000000001,-0.0486229999999987,0.01578,0.0002768000000004,-0.000508399999999,0.0016302,0,sub_5
-0.0181560000000001,-0.0485639999999987,0.016346,0.0004786000000004,-0.001368199999999,0.0033418,0,sub_5
-0.0181854000000002,-0.0491897999999987,0.0169254,-0.0005909999999995,-0.000730399999999,0.0046154,0,sub_5
-0.0168476000000002,-0.0498959999999987,0.016693,-0.0025081999999995,-0.000719799999999,0.0069706,0,sub_5
-0.0165522000000002,-0.0505153999999987,0.017653,-0.0029347999999995,-0.001353599999999,0.0093372,0,sub_5
-0.0173058000000002,-0.0509269999999987,0.0186432,-0.0035709999999995,-0.001770999999999,0.0110612,0,sub_5
-0.0158726000000002,-0.0516307999999987,0.0175588,-0.0039859999999995,-0.001333599999999,0.0119312,0,sub_5
-0.0147442000000002,-0.0515635999999987,0.0166652,-0.0024807999999995,-0.000690799999999,0.0130278,0,sub_5
-0.0159238000000002,-0.0513929999999987,0.016492,7.380000000045267e-05,-0.000704999999999,0.0143276,0,sub_5
-0.0170164000000002,-0.0507155999999987,0.016536,0.0022038000000004,-0.001352599999999,0.0145568,0,sub_5
-0.0177486000000002,-0.0502023999999987,0.0156664,0.0041290000000004,-0.001354999999999,0.013502,0,sub_5
-0.0183308000000002,-0.0495595999999987,0.0157836,0.0058724000000003,-0.001545599999999,0.0120322,0,sub_5
-0.0183370000000002,-0.0502049999999987,0.0165008,0.0061224000000003,-0.002155199999999,0.0101252,0,sub_5
-0.0175668000000002,-0.0496693999999987,0.0171482,0.0059476000000003,-0.001700599999999,0.0088548,0,sub_5
-0.0166570000000002,-0.0495307999999987,0.0167982,0.0049162000000004,-0.000396799999999,0.009073,0,sub_5
-0.0159210000000002,-0.0491059999999987,0.0169308,0.0034496000000004,-0.000372399999999,0.0099306,0,sub_5
-0.0161014000000002,-0.0491355999999987,0.0171694,0.0019580000000004,-0.000577599999999,0.0092794,0,sub_5
-0.0159754000000001,-0.0488869999999987,0.016133,0.0011122000000004,0.0002810000000009,0.0084178,0,sub_5
-0.0152818000000001,-0.0490769999999987,0.015324,0.0002634000000004,0.0002884000000009,0.0073436,0,sub_5
-0.0158954000000001,-0.0489079999999987,0.0155214,9.360000000045264e-05,0.0003184000000009,0.0058606,0,sub_5
-0.0165756000000001,-0.0490881999999987,0.015933,0.0003542000000004,0.0007746000000009,0.0039528,0,sub_5
-0.0172550000000001,-0.0489685999999987,0.015806,0.0001872000000004,0.0016560000000008,0.0026824,0,sub_5
-0.0179416000000001,-0.0487615999999987,0.0165566,-0.0002037999999995,0.0006188000000008,0.0018402,0,sub_5
-0.0191584000000001,-0.0489913999999987,0.0162392,-0.0001631999999995,0.0002210000000008,0.000573,0,sub_5
-0.0190154000000001,-0.0494449999999987,0.0156204,-0.0010089999999995,0.0002308000000008,-0.0011419999999999,0,sub_5
-0.0184792000000001,-0.0500701999999987,0.01428,-0.0025015999999995,-0.0003997999999991,-0.0020061999999999,0,sub_5
-0.0177564000000002,-0.0502945999999987,0.0146662,-0.0031493999999995,-0.002314199999999,-0.0022217999999999,0,sub_5
-0.0172322000000002,-0.0504319999999987,0.014623,-0.0033149999999995,-0.002501399999999,-0.0035011999999999,0,sub_5
-0.0167462000000001,-0.0505923999999987,0.015519,-0.0041205999999995,-0.002686399999999,-0.0047849999999999,0,sub_5
-0.0160672000000001,-0.0500181999999987,0.016228,-0.0047167999999995,-0.003512199999999,-0.0058529999999999,0,sub_5
-0.0155394000000001,-0.0490943999999987,0.0171952,-0.0042403999999995,-0.003487599999999,-0.0073417999999999,0,sub_5
-0.0155860000000001,-0.0482045999999987,0.0168542,-0.0035389999999995,-0.001968399999999,-0.0098991999999999,0,sub_5
-0.0154420000000001,-0.0483139999999987,0.0164404,-0.0035283999999995,-0.001322399999999,-0.0116089999999999,0,sub_5
-0.0148316000000001,-0.0488951999999987,0.0153794,-0.0028863999999995,-0.001959599999999,-0.0126719999999999,0,sub_5
-0.0154182000000002,-0.0497691999999987,0.0150852,-0.0015983999999995,-0.001108399999999,-0.0135185999999999,0,sub_5
-0.0161012000000002,-0.0512281999999987,0.0146106,-0.0015599999999995,-2.679999999910315e-05,-0.0139555999999999,0,sub_5
-0.0161704000000001,-0.0525755999999987,0.014293,-0.0017503999999995,-0.000230999999999,-0.0122559999999999,0,sub_5
-0.0164756000000001,-0.0526083999999987,0.014702,-0.0017263999999995,-1.0799999999083158e-05,-0.0103417999999999,0,sub_5
-0.0175334000000001,-0.0522973999999987,0.0153466,-0.0016955999999995,0.0010642000000009,-0.0090695999999999,0,sub_5
-0.0174386000000001,-0.0520605999999987,0.0153554,-0.0012459999999995,0.0004332000000009,-0.0077923999999999,0,sub_5
-0.0175636000000001,-0.0514445999999987,0.0159824,0.0004524000000004,-0.000641399999999,-0.0069245999999999,0,sub_5
-0.0175672000000002,-0.0510485999999987,0.0165082,0.0019430000000004,-0.001285799999999,-0.0069133999999999,0,sub_5
-0.0178274000000002,-0.0508295999999987,0.0166626,0.0034336000000003,-0.001930199999999,-0.0069021999999999,0,sub_5
-0.0166850000000001,-0.0506081999999987,0.0164498,0.0047118000000003,-0.001936399999999,-0.0064659999999999,0,sub_5
-0.0162612000000001,-0.0506783999999987,0.0169042,0.0051548000000003,-0.001715799999999,-0.0058551999999999,0,sub_5
-0.0162842000000001,-0.0505379999999987,0.0163308,0.0053806000000003,-0.001497799999999,-0.0043913999999999,0,sub_5
-0.0163800000000001,-0.0505449999999987,0.0167542,0.0053988000000004,-0.000637599999999,-0.0035707999999999,0,sub_5
-0.0160158000000001,-0.0506321999999987,0.016558,0.0049884000000004,-0.000414199999999,-0.0029659999999999,0,sub_5
-0.0167440000000002,-0.0509645999999987,0.016662,0.0047922000000004,2.160000000091698e-05,-0.0023599999999999,0,sub_5
-0.0170660000000002,-0.0512123999999987,0.0165472,0.0043598000000004,1.8000000000937015e-05,-0.0010811999999999,0,sub_5
-0.0165826000000002,-0.0510277999999987,0.0168934,0.0037168000000004,1.760000000093705e-05,-0.0004445999999999,0,sub_5
-0.0168760000000002,-0.0510101999999987,0.016039,0.0030762000000004,-0.000615199999999,0.0003674,0,sub_5
-0.0169052000000001,-0.0510563999999987,0.0154166,0.0030794000000004,-0.000610199999999,0.0009694,0,sub_5
-0.0164722000000001,-0.0506943999999987,0.014787,0.0032942000000004,-0.001032199999999,0.0015736,0,sub_5
-0.0162422000000001,-0.0508789999999987,0.0143666,0.0039424000000004,-0.000813199999999,0.0013254,0,sub_5
-0.0167712000000001,-0.0511941999999987,0.014161,0.0045886000000004,-0.000595799999999,0.0015044,0,sub_5
-0.0166694000000001,-0.0511925999999987,0.0145804,0.0054450000000004,0.0004648000000009,0.0019364,0,sub_5
-0.0166950000000001,-0.0510055999999987,0.0146842,0.0062976000000004,0.0010974000000009,0.0027962,0,sub_5
-0.0173010000000001,-0.0512815999999987,0.0151652,0.0067196000000004,0.0006672000000009,0.0034406,0,sub_5
-0.0183904000000001,-0.0505875999999987,0.0153608,0.0075766000000004,0.0002418000000009,0.003852,0,sub_5
-0.0178500000000001,-0.0506691999999987,0.0155252,0.0073706000000004,0.0002480000000009,0.0038282,0,sub_5
-0.0173744000000001,-0.0507301999999987,0.015368,0.0073750000000004,-0.000385799999999,0.0038066,0,sub_5
