userAcceleration.x,userAcceleration.y,userAcceleration.z,rotationRate.x,rotationRate.y,rotationRate.z,label,subject
0.0185831999999998,-0.0324205999999987,0.0130598,0.0224712000000004,-0.002623799999999,-0.0066081999999998,0,sub_11
0.0163687999999998,-0.0320003999999987,0.0094112,0.0300034000000004,0.0039856000000009,-0.0142553999999998,0,sub_11
0.0136799999999998,-0.0327255999999987,0.0077274,0.0283128000000004,0.0074012000000009,-0.0144851999999998,0,sub_11
0.0101841999999998,-0.0344999999999987,0.0069246,0.0171876000000004,0.0076258000000009,-0.0077265999999998,0,sub_11
0.0074331999999998,-0.0370547999999987,0.0076668,0.0011338000000004,0.0069998000000009,0.0028444000000001,0,sub_11
0.0069689999999998,-0.0386439999999987,0.0084754,-0.0125679999999995,0.0087042000000009,0.0147106000000001,0,sub_11
0.0080193999999998,-0.0369577999999987,0.008785,-0.0209315999999995,0.0091200000000009,0.0244794000000001,0,sub_11
0.0087291999999997,-0.0357039999999987,0.0090124,-0.0233027999999995,0.0069850000000009,0.0276702000000001,0,sub_11
0.0096527999999997,-0.0335531999999987,0.0091626,-0.0188199999999995,0.0035758000000009,0.0238602000000001,0,sub_11
0.0107761999999997,-0.0327669999999987,0.0095918,-0.0091913999999995,0.0001710000000009,0.0145314000000001,0,sub_11
0.0116889999999997,-0.0324733999999987,0.009703,0.0012974000000004,-0.003867599999999,0.0030730000000001,0,sub_11
0.0121167999999997,-0.0341089999999987,0.0103942,0.0100802000000004,-0.007474799999999,-0.0081841999999998,0,sub_11
0.0130067999999998,-0.0368487999999987,0.0107374,0.0158710000000004,-0.009166199999999,-0.0164737999999998,0,sub_11
0.0141335999999998,-0.0385183999999987,0.0113984,0.0188726000000004,-0.009375999999999,-0.0198707999999998,0,sub_11
0.0149975999999998,-0.0391983999999987,0.0116692,0.0178086000000004,-0.007672199999999,-0.0188121999999998,0,sub_11
0.0158885999999998,-0.0388275999999987,0.0123278,0.0139622000000004,-0.004905199999999,-0.0147833999999998,0,sub_11
0.0159731999999998,-0.0374859999999987,0.012508,0.0098984000000004,-0.001716599999999,-0.0094747999999998,0,sub_11
0.0156029999999998,-0.0345201999999987,0.012093,0.0051898000000004,0.0012578000000009,-0.0033157999999998,0,sub_11
0.0148805999999997,-0.0327595999999987,0.011339,-0.0003741999999995,0.0031726000000009,0.0021976000000001,0,sub_11
0.0140747999999997,-0.0312247999999987,0.0112886,-0.0048769999999995,0.0031688000000009,0.0070800000000001,0,sub_11
0.0121491999999997,-0.0308229999999987,0.0102238,-0.0078795999999995,0.0031656000000009,0.0104774000000001,0,sub_11
0.0112613999999997,-0.0332391999999987,0.0089282,-0.0098085999999995,0.0023158000000009,0.0115332000000001,0,sub_11
0.0104759999999997,-0.0361875999999987,0.0090586,-0.0100275999999995,-2.2799999999088828e-05,0.0104664000000001,0,sub_11
0.0098911999999998,-0.0391251999999987,0.0099218,-0.0078919999999995,-0.001726199999999,0.0083472000000001,0,sub_11
0.0094915999999998,-0.0411323999999987,0.0098074000000001,-0.0038235999999995,-0.001303199999999,0.0055976000000001,0,sub_11
0.0110955999999998,-0.0412741999999987,0.0100702,0.0006668000000004,-0.001522599999999,0.0032792000000001,0,sub_11
0.0127099999999998,-0.0395283999999987,0.0106498,0.0045200000000004,-0.001524799999999,0.0005288000000001,0,sub_11
0.0149101999999998,-0.0378125999999987,0.0105504,0.0085846000000004,-0.001741799999999,-0.0020061999999998,0,sub_11
0.0149337999999998,-0.0353287999999987,0.0111202,0.0113604000000004,-0.003235199999999,-0.0039077999999998,0,sub_11
0.0146105999999998,-0.0337049999999987,0.011862,0.0113576000000004,-0.004723199999999,-0.0047603999999998,0,sub_11
0.0135451999999998,-0.0326973999999987,0.0119756,0.0105100000000004,-0.003653999999999,-0.0049813999999998,0,sub_11
0.0118605999999998,-0.0313003999999987,0.011849,0.0096594000000004,-0.002163199999999,-0.0041345999999998,0,sub_11
0.0089203999999998,-0.0292853999999987,0.0112836,0.0079494000000004,-0.001310799999999,-0.0026519999999998,0,sub_11
0.0075389999999998,-0.0282527999999987,0.0086422,0.0051784000000004,0.0008234000000009,-0.0011785999999998,0,sub_11
0.0065047999999998,-0.0286943999999987,0.0059766,0.0030474000000004,0.0018944000000009,-0.0007675999999998,0,sub_11
0.0056603999999998,-0.0309253999999987,0.0042058,0.0002686000000004,-9.99999999906926e-06,-0.0016391999999998,0,sub_11
0.0051879999999998,-0.0342513999999987,0.0044018,-0.0027329999999995,-0.003407399999999,-0.0018695999999998,0,sub_11
0.0055959999999998,-0.0376593999999987,0.0057098,-0.0055143999999995,-0.004677799999999,-0.0014601999999998,0,sub_11
0.0082093999999998,-0.0403849999999987,0.0085746,-0.0059487999999995,-0.007017199999999,-0.0021011999999998,0,sub_11
0.0114353999999998,-0.0407217999999987,0.0122216000000001,-0.0036045999999995,-0.009998799999999,-0.0044309999999998,0,sub_11
0.0141893999999998,-0.0401609999999987,0.0151406,0.0023824000000004,-0.011918399999999,-0.0090867999999998,0,sub_11
0.0171543999999998,-0.0402391999999987,0.0160756,0.0105260000000004,-0.011066399999999,-0.0160811999999998,0,sub_11
0.0222105999999997,-0.0381049999999987,0.0179836,0.0199584000000004,-0.009362399999999,-0.0241359999999998,0,sub_11
0.0257271999999998,-0.0345059999999987,0.0195594,0.0298282000000004,-0.005528599999999,-0.0324039999999998,0,sub_11
0.0285295999999998,-0.0301663999999987,0.0204238,0.0386360000000004,0.0012840000000009,-0.0387605999999998,0,sub_11
0.0287485999999998,-0.0285247999999987,0.0194862,0.0438096000000004,0.0102254000000009,-0.0415133999999998,0,sub_11
0.0274453999999997,-0.0264847999999987,0.0183932,0.0440518000000004,0.0189504000000009,-0.0391727999999998,0,sub_11
0.0225633999999998,-0.0273273999999987,0.0144742,0.0380812000000004,0.0274626000000009,-0.0315341999999998,0,sub_11
0.0161945999999998,-0.0282967999999987,0.0090782,0.0248128000000004,0.0336278000000009,-0.0166797999999998,0,sub_11
0.0100813999999998,-0.0307167999999987,0.0044604,0.0063898000000004,0.0363858000000009,0.0022024000000001,0,sub_11
0.0070923999999997,-0.0319289999999987,0.00179,-0.0137611999999995,0.0353114000000009,0.0219320000000001,0,sub_11
0.0034011999999998,-0.0355177999999987,0.0014376,-0.0317851999999995,0.0297674000000009,0.0386912000000001,0,sub_11
0.0011839999999998,-0.0381683999999987,0.0028512,-0.0440469999999995,0.0195358000000009,0.0505828000000001,0,sub_11
0.0004599999999998,-0.0429817999999987,0.0054972,-0.0479481999999995,0.0101586000000009,0.0546270000000001,0,sub_11
0.0001763999999998,-0.0465179999999987,0.0065124,-0.0449895999999995,0.0009980000000009,0.0518820000000001,0,sub_11
-0.0003318000000001,-0.0491815999999987,0.0071582,-0.0353809999999995,-0.006032199999999,0.0434124000000001,0,sub_11
0.0008911999999998,-0.0481939999999987,0.0061796,-0.0212725999999995,-0.011575799999999,0.0321948000000001,0,sub_11
0.0035465999999998,-0.0457507999999987,0.0060982,-0.0075775999999995,-0.015195999999999,0.0199036000000001,0,sub_11
0.0076107999999997,-0.0425495999999987,0.00611,0.0037724000000004,-0.017745199999999,0.0082356000000001,0,sub_11
0.0128485999999997,-0.0398147999999987,0.0082816,0.0132020000000004,-0.019438999999999,-0.0025921999999998,0,sub_11
0.0180219999999997,-0.0366525999999987,0.0117156,0.0185622000000004,-0.021980999999999,-0.0108835999999998,0,sub_11
0.0231063999999998,-0.0338631999999987,0.016146,0.0198674000000004,-0.021963199999999,-0.0164291999999997,0,sub_11
0.0265955999999998,-0.0315153999999987,0.0184094,0.0194762000000004,-0.018110599999999,-0.0204959999999997,0,sub_11
0.0287367999999998,-0.0304117999999987,0.0205482,0.0188706000000004,-0.013833799999999,-0.0239239999999997,0,sub_11
0.0277875999999998,-0.0306291999999987,0.021034,0.0171856000000004,-0.009776399999999,-0.0247955999999998,0,sub_11
0.0241793999999998,-0.0313623999999987,0.0194274,0.0146424000000004,-0.004447199999999,-0.0233247999999998,0,sub_11
0.0197679999999998,-0.0320987999999987,0.0153684,0.0120954000000004,0.0010908000000008,-0.0207859999999998,0,sub_11
0.0142141999999998,-0.0339621999999987,0.0121928,0.0099578000000004,0.0038534000000008,-0.0171725999999998,0,sub_11
0.0080935999999998,-0.0351069999999987,0.0085002,0.0071638000000004,0.0044818000000008,-0.0120653999999998,0,sub_11
0.0032543999999998,-0.0365487999999987,0.0058622,0.0039508000000004,0.0059674000000008,-0.0078167999999998,0,sub_11
0.0014317999999998,-0.0359691999999987,0.0046878,0.0020122000000004,0.0053214000000009,-0.0044111999999998,0,sub_11
0.0005259999999998,-0.0360131999999987,0.0048738,0.0002842000000004,0.0033988000000009,-0.0016433999999998,0,sub_11
0.0014251999999998,-0.0352589999999987,0.005215,-0.0012245999999995,0.0027538000000009,0.0011244000000001,0,sub_11
0.0048435999999998,-0.0350367999999987,0.0071176,-0.0025171999999995,0.0025350000000009,0.0036794000000001,0,sub_11
0.0085259999999998,-0.0336143999999987,0.0089552,-0.0029641999999995,0.0006088000000009,0.0062424000000001,0,sub_11
0.0128365999999998,-0.0328935999999987,0.0110774,-0.0040445999999995,-0.001096999999999,0.0075190000000001,0,sub_11
0.0168121999999998,-0.0342093999999987,0.014146,-0.0040503999999995,-0.002375199999999,0.0075206000000001,0,sub_11
0.0204137999999998,-0.0363153999999987,0.0170086,-0.0021271999999995,-0.003228199999999,0.0060396000000001,0,sub_11
0.0223745999999998,-0.0363605999999987,0.0169332,0.0002382000000004,-0.001522599999999,0.0037038000000001,0,sub_11
0.0224423999999998,-0.0376177999999987,0.016741,0.0021816000000004,0.0008252000000009,0.0009370000000001,0,sub_11
0.0203731999999998,-0.0393505999999987,0.0165378,0.0041116000000004,0.0016758000000009,-0.0003323999999998,0,sub_11
0.0175807999999998,-0.0374531999999987,0.0137814,0.0047604000000004,0.0035910000000009,-0.0003303999999998,0,sub_11
0.0145057999999998,-0.0356127999999987,0.0105068,0.0037020000000004,0.0069976000000009,0.0011532000000001,0,sub_11
0.0109845999999998,-0.0358505999999987,0.0084132,0.0007108000000004,0.0082778000000009,0.0032670000000001,0,sub_11
0.0078715999999998,-0.0367609999999987,0.007551,-0.0035737999999995,0.0076408000000009,0.0064426000000001,0,sub_11
0.0054805999999998,-0.0382867999999987,0.0064778,-0.0087147999999995,0.0065798000000009,0.0098262000000001,0,sub_11
0.0051009999999998,-0.0411515999999987,0.007638,-0.0130091999999995,0.0038122000000009,0.0130044000000001,0,sub_11
0.0057447999999998,-0.0426149999999987,0.0086294,-0.0140999999999995,0.0001872000000009,0.0147106000000001,0,sub_11
0.0068739999999998,-0.0428631999999987,0.0107876,-0.0113385999999995,-0.003653199999999,0.0136666000000001,0,sub_11
0.0094321999999998,-0.0408795999999987,0.0106616,-0.0060033999999995,-0.007702799999999,0.0094360000000001,0,sub_11
0.0122631999999998,-0.0385163999999987,0.0103666,0.0023450000000004,-0.009405599999999,0.0018054000000001,0,sub_11
0.0146241999999998,-0.0366169999999987,0.0104524000000001,0.0119870000000004,-0.010676599999999,-0.0083803999999998,0,sub_11
0.0154233999999998,-0.0364343999999987,0.0121394,0.0197040000000004,-0.014066999999999,-0.0196451999999998,0,sub_11
0.0166971999999998,-0.0331977999999987,0.012751,0.0252844000000004,-0.015542799999999,-0.0283635999999998,0,sub_11
0.0182097999999998,-0.0312657999999987,0.0129008,0.0287434000000004,-0.011482799999999,-0.0343265999999998,0,sub_11
0.0188805999999998,-0.0311167999999987,0.0134212,0.0291978000000004,-0.0074277999999991,-0.0364651999999998,0,sub_11
0.0169239999999998,-0.0295417999999987,0.0133318,0.0255600000000004,-0.0065755999999991,-0.0332871999999998,0,sub_11
0.0151383999999998,-0.0278209999999987,0.0125298,0.0176344000000004,-0.0046655999999991,-0.0245855999999997,0,sub_11
0.0130249999999998,-0.0308261999999987,0.011449,0.0079952000000004,-0.0016943999999991,-0.0133335999999998,0,sub_11
0.0103747999999998,-0.0326285999999987,0.0118776,-0.0005933999999995,-0.000651199999999,-0.0003625999999998,0,sub_11
0.0080961999999998,-0.0321291999999987,0.0121528,-0.0081131999999995,-0.000246799999999,0.0115486000000001,0,sub_11
0.0076051999999998,-0.0334167999999987,0.0112558,-0.0139019999999995,0.0027194000000009,0.0206912000000001,0,sub_11
0.0080545999999997,-0.0360589999999987,0.0094906,-0.0166843999999995,0.0052680000000009,0.0251550000000001,0,sub_11
0.0080501999999997,-0.0379831999999987,0.0087620000000001,-0.0173311999999995,0.0050520000000009,0.0264326000000001,0,sub_11
0.0083485999999997,-0.0404091999999987,0.0085864,-0.0162709999999995,0.0016470000000009,0.0245216000000001,0,sub_11
0.0096849999999997,-0.0431075999999987,0.0087612,-0.0134913999999995,-0.000903999999999,0.0206986000000001,0,sub_11
0.0108147999999997,-0.0445379999999987,0.0101342,-0.0077093999999995,-0.002178599999999,0.0147586000000001,0,sub_11
0.0118499999999998,-0.0441901999999987,0.011838,-0.0004297999999995,-0.002181799999999,0.0092546000000001,0,sub_11
0.0121029999999998,-0.0422219999999987,0.0126808,0.0064240000000004,-0.001121599999999,0.0046008000000001,0,sub_11
0.0130285999999998,-0.0383161999999987,0.0126558,0.0111460000000004,0.0014332000000009,0.0009986000000001,0,sub_11
0.0131909999999998,-0.0334465999999987,0.0116984,0.0130780000000004,0.0031344000000009,0.0001554000000001,0,sub_11
0.0137681999999998,-0.0281089999999987,0.009673,0.0096584000000004,0.0035656000000009,0.0018400000000001,0,sub_11
0.0152669999999998,-0.0289419999999987,0.0095252000000001,0.0038888000000004,0.0029414000000009,0.0030824000000001,0,sub_11
0.0171211999999998,-0.0317685999999987,0.0111226,-0.0018865999999995,-0.000234199999999,0.0030462000000001,0,sub_11
0.0171999999999998,-0.0356461999999987,0.0140150000000001,-0.0061665999999995,-0.002564599999999,0.0034464000000001,0,sub_11
0.0177173999999998,-0.0387755999999987,0.0153664000000001,-0.0072229999999995,-0.000429599999999,0.0032226000000001,0,sub_11
0.0183623999999998,-0.0428857999999987,0.0168872000000001,-0.0031373999999995,0.0046772000000009,0.0013218000000001,0,sub_11
0.0177561999999998,-0.0413023999999987,0.015454,0.0030810000000004,0.0085024000000009,-0.0016305999999998,0,sub_11
0.0147121999999998,-0.0421429999999987,0.0131774,0.0088716000000004,0.0116916000000008,-0.0050125999999998,0,sub_11
0.0116391999999998,-0.0443143999999987,0.0104172,0.0123030000000004,0.0127560000000008,-0.0077671999999998,0,sub_11
0.0087023999999998,-0.0461475999999987,0.010101,0.0129402000000004,0.0110536000000008,-0.0088287999999998,0,sub_11
0.0066581999999998,-0.0472859999999987,0.0090262,0.0129374000000004,0.0104144000000008,-0.0088279999999998,0,sub_11
0.0042055999999998,-0.0474141999999987,0.0080792,0.0118600000000004,0.0101966000000009,-0.0066987999999998,0,sub_11
0.0040263999999998,-0.0427167999999987,0.0063586,0.0094958000000004,0.0101896000000009,-0.0028695999999998,0,sub_11
0.0052431999999998,-0.0363775999999987,0.005674,0.0075610000000004,0.0093346000000009,-0.0005319999999998,0,sub_11
0.0064735999999998,-0.0323613999999987,0.0055696,0.0069074000000004,0.0059298000000009,-0.0009593999999998,0,sub_11
0.0078089999999998,-0.0297401999999987,0.0070184,0.0045354000000004,-0.000237999999999,-0.0016089999999998,0,sub_11
0.0099681999999998,-0.0285155999999987,0.0090128,0.0013146000000004,-0.005125399999999,-0.0020525999999998,0,sub_11
0.0126925999999998,-0.0289415999999987,0.0117816,-0.0016889999999995,-0.009161399999999,-0.0024957999999998,0,sub_11
0.0152403999999998,-0.0311863999999987,0.0145274,-0.0034045999999995,-0.010436199999999,-0.0018651999999998,0,sub_11
0.0180237999999998,-0.0339361999999987,0.0153562,-0.0038263999999995,-0.008308399999999,-0.0008027999999998,0,sub_11
0.0199113999999998,-0.0366205999999987,0.014761,-0.0046711999999995,-0.006175599999999,-0.0005977999999998,0,sub_11
0.0213515999999998,-0.0413993999999987,0.0153242,-0.0044529999999995,-0.005959799999999,-0.0014509999999998,0,sub_11
0.0213899999999997,-0.0440371999999987,0.0174734000000001,-0.0016695999999995,-0.004263399999999,-0.0018609999999998,0,sub_11
0.0204641999999998,-0.0434665999999987,0.0162368,0.0019846000000004,0.0006284000000009,-0.0029099999999998,0,sub_11
0.0186551999999998,-0.0410509999999987,0.0139972,0.0052282000000004,0.0082948000000009,-0.0048197999999998,0,sub_11
0.0163613999999998,-0.0384739999999987,0.0123878,0.0093186000000004,0.0140424000000009,-0.0071485999999998,0,sub_11
0.0123133999999998,-0.0341159999999987,0.010404,0.0125470000000004,0.0180878000000009,-0.0092677999999998,0,sub_11
0.0078343999999998,-0.0321781999999987,0.0061612,0.0136330000000004,0.0204354000000009,-0.0111859999999998,0,sub_11
0.0046103999999998,-0.0328025999999987,0.0028514,0.0102152000000004,0.0200194000000009,-0.0107819999999998,0,sub_11
0.0033631999999998,-0.0360673999999987,0.0025968,0.0037806000000004,0.0153434000000009,-0.0080435999999998,0,sub_11
0.0040639999999998,-0.0395951999999987,0.005819,-0.0015967999999995,0.0085332000000009,-0.0052949999999998,0,sub_11
0.0062783999999998,-0.0417821999999987,0.0093780000000001,-0.0035601999999995,0.0012866000000009,-0.0029493999999998,0,sub_11
0.0097155999999998,-0.0417687999999987,0.0128474000000001,-0.0025209999999995,-0.003622399999999,-0.0016539999999998,0,sub_11
0.0140787999999998,-0.0420431999999987,0.0148392,0.0021684000000004,-0.005340599999999,-0.0022599999999998,0,sub_11
0.0167923999999998,-0.0411911999999987,0.0158012000000001,0.0087858000000004,-0.006846599999999,-0.0043483999999997,0,sub_11
0.0180161999999998,-0.0393849999999987,0.0141096,0.0130560000000004,-0.006858999999999,-0.0049595999999998,0,sub_11
0.0188377999999998,-0.0371049999999987,0.0135566,0.0132798000000004,-0.003879599999999,-0.0043207999999998,0,sub_11
0.0200753999999998,-0.0364635999999987,0.013297,0.0094468000000004,-0.000676399999999,-0.0028561999999998,0,sub_11
0.0197627999999998,-0.0364493999999987,0.014513,0.0036790000000004,0.0006110000000009,-0.0001207999999998,0,sub_11
0.0173763999999998,-0.0365717999999987,0.0147368000000001,-0.0014467999999995,0.0029590000000009,0.0032588000000001,0,sub_11
0.0142975999999998,-0.0376701999999987,0.0135106,-0.0048663999999995,0.0044514000000009,0.0060104000000001,0,sub_11
0.0101757999999998,-0.0401009999999987,0.0109404,-0.0078611999999995,0.0057284000000009,0.0089788000000001,0,sub_11
0.0056997999999998,-0.0414861999999987,0.0073898,-0.0089339999999995,0.0076368000000009,0.0121736000000001,0,sub_11
0.0016113999999998,-0.0431697999999987,0.0032446,-0.0078747999999995,0.0076262000000009,0.0138902000000001,0,sub_11
0.0036733999999998,-0.0466681999999987,0.0013256,-0.0083349999999995,0.0037782000000009,0.0175238000000001,0,sub_11
0.0015609999999998,-0.0431153999999987,-0.0055243999999999,-0.0086643999999995,-0.012239399999999,0.0273696000000001,0,sub_11
0.0015225999999998,-0.0352839999999987,0.001555,-0.0078405999999995,-0.018422599999999,0.0278106000000001,0,sub_11
0.0063409999999998,-0.0332245999999987,0.0102730000000001,-0.0109681999999995,-0.007312199999999,0.0226470000000002,0,sub_11
0.0159331999999998,-0.0358259999999987,0.0142756000000001,-0.0158613999999995,-0.006645599999999,0.0200482000000002,0,sub_11
0.0186381999999998,-0.0342151999999986,0.0152584000000001,-0.0156681999999995,-0.014727799999999,0.0164280000000002,0,sub_11
0.0232799999999998,-0.0375615999999986,0.0239008000000001,-0.0134443999999995,-0.005954799999999,0.0051092000000002,0,sub_11
0.0254163999999998,-0.0451111999999987,0.0197132,-0.0104235999999995,-0.004025799999999,-0.0004269999999997,0,sub_11
0.0249855999999998,-0.0480257999999986,0.0137488,0.0008334000000004,-0.017904399999999,-0.0026805999999997,0,sub_11
0.0200345999999998,-0.0433825999999987,0.0138612,0.0149370000000004,-0.019844599999999,-0.0092025999999998,0,sub_11
0.0154501999999998,-0.0389583999999987,0.0160294,0.0231266000000004,-0.012161399999999,-0.0196237999999998,0,sub_11
0.0123963999999998,-0.0370565999999987,0.0172966,0.0274650000000004,-0.007020399999999,-0.0302821999999997,0,sub_11
0.0117145999999998,-0.0353875999999987,0.0155268000000001,0.0322224000000004,-0.000402199999999,-0.0377349999999998,0,sub_11
0.0108347999999998,-0.0327607999999987,0.0147136,0.0348326000000004,0.0049382000000009,-0.0434919999999998,0,sub_11
0.0075559999999998,-0.0294823999999987,0.0124178,0.0346366000000004,0.0079250000000009,-0.0443517999999998,0,sub_11
0.0060523999999998,-0.0288431999999987,0.01075,0.0327000000000004,0.0094026000000009,-0.0392397999999998,0,sub_11
0.0055249999999997,-0.0291543999999987,0.0088184,0.0236722000000004,0.0089506000000009,-0.0249881999999998,0,sub_11
0.0047319999999997,-0.0269071999999987,0.0077472,0.0126876000000004,0.0010460000000009,-0.0100995999999998,0,sub_11
0.0016199999999998,-0.0261567999999987,0.0067928,-0.0015051999999995,-0.008127399999999,0.0051954000000001,0,sub_11
0.0014795999999998,-0.0302235999999987,0.0090132,-0.0144063999999995,-0.016870599999999,0.0183626000000001,0,sub_11
0.0043225999999998,-0.0366407999999987,0.0090542,-0.0238589999999995,-0.021350999999999,0.0281300000000001,0,sub_11
0.0074633999999998,-0.0412373999999987,0.008296,-0.0249563999999995,-0.025406399999999,0.0309050000000001,0,sub_11
0.0110035999999998,-0.0476587999999987,0.0107694,-0.0260365999999995,-0.025414599999999,0.0338884000000001,0,sub_11
0.0160813999999998,-0.0524399999999987,0.013315,-0.0253897999999995,-0.020317999999999,0.0375184000000001,0,sub_11
0.0216603999999998,-0.0510757999999987,0.0150366,-0.0238663999999995,-0.011172199999999,0.0400810000000001,0,sub_11
0.0246997999999998,-0.0457329999999987,0.0186588,-0.0212723999999995,-0.002875599999999,0.0409430000000001,0,sub_11
0.0276995999999998,-0.0387005999999987,0.0222366,-0.0178067999999995,0.0079808000000009,0.0403122000000001,0,sub_11
0.0304433999999998,-0.0305733999999987,0.0216744,-0.0134693999999995,0.0194870000000009,0.0362686000000001,0,sub_11
0.0294653999999998,-0.0275873999999987,0.0202548,-0.0087099999999995,0.0248336000000009,0.0271082000000001,0,sub_11
0.0261229999999998,-0.0289881999999987,0.0183678,-0.0035421999999995,0.0244330000000009,0.0162490000000001,0,sub_11
0.0210411999999998,-0.0311509999999987,0.0152026,0.0016190000000004,0.0223290000000009,0.0051782000000001,0,sub_11
0.0143415999999998,-0.0369727999999987,0.0106902,0.0063574000000004,0.0202298000000009,-0.0067499999999998,0,sub_11
0.0067887999999998,-0.0448789999999987,0.0076614,0.0117310000000004,0.0174874000000009,-0.0182457999999998,0,sub_11
0.0019591999999998,-0.0483853999999987,0.0045194,0.0177284000000004,0.0145160000000009,-0.0263185999999998,0,sub_11
-0.0007402000000001,-0.0495015999999987,0.0033928000000001,0.0213770000000004,0.0121878000000009,-0.0333403999999998,0,sub_11
-0.0013046000000001,-0.0504151999999987,0.0033388000000001,0.0243756000000004,0.0085802000000009,-0.0395103999999998,0,sub_11
0.0007227999999998,-0.0470607999999987,0.006277,0.0284306000000004,0.0043228000000009,-0.0439631999999998,0,sub_11
0.0019937999999998,-0.0406581999999987,0.0096086,0.0314284000000004,0.0024120000000009,-0.0482125999999998,0,sub_11
0.0035743999999998,-0.0336831999999987,0.0161074,0.0284786000000004,0.0075486000000009,-0.0514443999999998,0,sub_11
0.0082665999999998,-0.0292081999999987,0.016746,0.0144592000000004,0.0250546000000009,-0.0481465999999998,0,sub_11
0.0097031999999998,-0.0270327999999987,0.0149462,0.0041734000000004,0.0244146000000009,-0.0390309999999998,0,sub_11
0.0090141999999998,-0.0276925999999987,0.0135284,-0.0048573999999995,0.0209894000000009,-0.0271255999999998,0,sub_11
0.0104273999999998,-0.0343097999999987,0.0117858,-0.0173211999999995,0.0198932000000009,-0.0086241999999998,0,sub_11
0.0128359999999998,-0.0411253999999987,0.0093082,-0.0309217999999995,0.0077040000000009,0.0143700000000001,0,sub_11
0.0122101999999998,-0.0476423999999987,0.0104002,-0.0330299999999995,-0.014949599999999,0.0336124000000001,0,sub_11
