userAcceleration.x,userAcceleration.y,userAcceleration.z,rotationRate.x,rotationRate.y,rotationRate.z,label,subject
0.0182209999999997,0.0194574000000012,-0.0047535999999998,0.0006122000000003,0.0009792000000008,-0.0002091999999998,0,sub_21
0.0190909999999997,0.0183756000000012,-0.0047479999999998,0.0008200000000003,0.0011804000000008,0.0015024,0,sub_21
0.0185927999999997,0.0180796000000012,-0.0040001999999998,0.0003856000000004,0.0011752000000008,0.0032086,0,sub_21
0.0186729999999997,0.0191880000000012,-0.0034451999999998,0.0014468000000004,0.0009542000000009,0.0042844,0,sub_21
0.0191043999999997,0.0201892000000012,-0.0029025999999998,0.0016648000000004,0.0013820000000009,0.0036444,0,sub_21
0.0183107999999997,0.0212118000000012,-0.0027117999999998,0.0025288000000004,0.0013884000000009,0.0013002,0,sub_21
0.0167985999999997,0.0211072000000012,-0.0038821999999998,0.0018938000000004,0.0001176000000009,-0.0012657999999999,0,sub_21
0.0163307999999997,0.0194254000000012,-0.0058791999999998,0.0008310000000004,-0.000515999999999,-0.0029809999999999,0,sub_21
0.0160037999999997,0.0168104000000012,-0.0047347999999998,0.0001900000000004,-0.0003063999999991,-0.0027713999999999,0,sub_21
0.0153469999999997,0.0165650000000012,-0.0057051999999998,-3.459999999959305e-05,-0.0009563999999991,-0.0010621999999999,0,sub_21
0.0153429999999997,0.0165068000000012,-0.0071747999999998,-0.0017537999999995,-0.0013897999999991,0.0010634,0,sub_21
0.0160523999999997,0.0189112000000012,-0.0069097999999998,-0.0019651999999995,-0.0001139999999991,0.001915,0,sub_21
0.0173973999999997,0.0216844000000012,-0.0046127999999998,-0.0008925999999995,0.0003118000000008,0.0010674,0,sub_21
0.0183107999999997,0.0234142000000012,-0.0048677999999998,-0.0008899999999995,-0.0003111999999991,-0.0010727999999999,0,sub_21
0.0188323999999997,0.0224844000000012,-0.0047383999999998,-0.0008873999999995,-0.0007219999999991,-0.0029995999999999,0,sub_21
0.0185163999999997,0.0206238000000012,-0.0042185999999998,-0.0004655999999995,-0.0009289999999991,-0.0030007999999999,0,sub_21
0.0189695999999997,0.0181418000000012,-0.0033693999999998,-0.0004803999999995,-0.0011429999999991,-0.0008687999999999,0,sub_21
0.0184337999999997,0.0166940000000012,-0.0034933999999998,-0.0009285999999995,-0.0009369999999991,0.0031826,0,sub_21
0.0180615999999997,0.0167706000000012,-0.0042731999999998,-0.0011561999999995,-0.0013733999999991,0.005959,0,sub_21
0.0177385999999997,0.0187184000000012,-0.0045371999999998,-0.0015867999999995,-0.0022241999999991,0.005957,0,sub_21
0.0186117999999997,0.0217792000000012,-0.0042027999999999,-0.0017839999999995,-0.0024211999999991,0.0021102,0,sub_21
0.0189063999999997,0.0232878000000012,-0.0043507999999999,-0.0019793999999995,-0.0034549999999991,-0.0038679999999999,0,sub_21
0.0185459999999997,0.0236450000000012,-0.0051727999999999,-0.0025959999999995,-0.0040577999999991,-0.0107043999999999,0,sub_21
0.0178875999999997,0.0215134000000012,-0.0046031999999998,-0.0023715999999995,-0.0050989999999991,-0.0151841999999999,0,sub_21
0.0170371999999997,0.0182702000000012,-0.0050659999999998,-0.0017395999999995,-0.0067953999999991,-0.0160283999999999,0,sub_21
0.0155265999999997,0.0159848000000012,-0.0064659999999998,-0.0021887999999995,-0.007227599999999,-0.0123951999999999,0,sub_21
0.0151651999999997,0.0160712000000012,-0.0053163999999998,-0.0030567999999995,-0.004690999999999,-0.0066361999999999,0,sub_21
0.0161639999999997,0.0166538000000012,-0.0046147999999998,-0.0035025999999995,-0.002584599999999,-0.0002327999999999,0,sub_21
0.0173293999999997,0.0181406000000012,-0.0060539999999998,-0.0054391999999995,-0.001319199999999,0.0046658,0,sub_21
0.0166619999999997,0.0187036000000012,-0.0047565999999998,-0.0071383999999995,0.0020888000000008,0.0063588,0,sub_21
0.0168877999999997,0.0186472000000012,-0.0027901999999998,-0.0064799999999995,0.0042268000000008,0.0040128,0,sub_21
0.0167617999999997,0.0179190000000012,-0.0032419999999998,-0.0056101999999995,0.0040282000000008,-0.0002515999999999,0,sub_21
0.0159471999999997,0.0187168000000012,-0.0050119999999998,-0.0062311999999995,0.0036254000000008,-0.0053805999999999,0,sub_21
0.0139465999999997,0.0209802000000012,-0.0047825999999998,-0.0068493999999995,0.0044982000000008,-0.0098703999999999,0,sub_21
0.0138001999999997,0.0235250000000012,-0.0051019999999998,-0.0072741999999995,0.0047158000000008,-0.0105123999999999,0,sub_21
0.0144617999999997,0.0243084000000012,-0.0050087999999999,-0.0083601999999995,0.0042782000000008,-0.0066737999999999,0,sub_21
0.0169825999999997,0.0241010000000012,-0.0053329999999999,-0.0092461999999995,0.0025546000000008,-0.0011229999999999,0,sub_21
0.0200923999999997,0.0224952000000012,-0.0036281999999999,-0.0082089999999995,0.0010390000000008,0.0040136,0,sub_21
0.0240181999999997,0.0202724000000012,-0.0037191999999998,-0.0071685999999995,-4.7199999999123465e-05,0.0078664,0,sub_21
0.0256747999999997,0.0192612000000012,-0.0042261999999998,-0.0059197999999995,-0.0024113999999991,0.0115086,0,sub_21
0.0264837999999997,0.0189190000000012,-0.0044967999999998,-0.0040211999999996,-0.0043449999999991,0.0134456,0,sub_21
0.0248371999999997,0.0192534000000012,-0.0044335999999998,-0.0025367999999996,-0.0052049999999991,0.0136692,0,sub_21
0.0226237999999997,0.0197770000000012,-0.0052159999999998,-0.0036147999999996,-0.0073309999999991,0.013022,0,sub_21
0.0184259999999997,0.0192890000000012,-0.0049605999999999,-0.0031975999999996,-0.0092507999999991,0.013241,0,sub_21
0.0161421999999997,0.0179410000000012,-0.0045569999999999,-0.0021171999999996,-0.0086059999999991,0.0108976,0,sub_21
0.0160403999999997,0.0167064000000012,-0.0038505999999999,-0.0038007999999995,-0.0085801999999991,0.0053314,0,sub_21
0.0159881999999997,0.0162290000000012,-0.0040607999999999,-0.0056997999999995,-0.0108893999999991,-0.0021559999999999,0,sub_21
0.0155671999999997,0.0155588000000012,-0.0041951999999999,-0.0046287999999995,-0.0161951999999991,-0.0087643999999999,0,sub_21
0.0155033999999997,0.0181350000000012,-0.0040563999999999,-0.0046139999999995,-0.0170315999999991,-0.0132493999999998,0,sub_21
0.0166043999999997,0.0195538000000012,-0.0038219999999999,-0.0052527999999995,-0.0170289999999991,-0.0138943999999998,0,sub_21
0.0148669999999997,0.0218150000000012,-0.0036011999999999,-0.0031247999999995,-0.0166169999999991,-0.0121709999999999,0,sub_21
0.0122245999999997,0.0215532000000012,-0.0037669999999999,-0.0007861999999995,-0.0149353999999991,-0.0085247999999999,0,sub_21
0.0096499999999997,0.0214182000000012,-0.0032045999999999,0.0007208000000003,-0.0081383999999991,-0.0046773999999999,0,sub_21
0.0103173999999997,0.0188240000000012,-0.0035761999999999,0.0026496000000003,-0.0047401999999991,-0.0025285999999999,0,sub_21
0.0109553999999997,0.0172726000000012,-0.0034275999999999,0.0039346000000003,-0.0043139999999991,-0.0025169999999999,0,sub_21
0.0122499999999997,0.0151198000000012,-0.0036633999999999,0.0039422000000003,-0.0032441999999991,-0.0025149999999999,0,sub_21
0.0126761999999997,0.0153188000000012,-0.0030383999999999,0.0037334000000003,-0.0013271999999991,-0.0010201999999999,0,sub_21
0.0160815999999997,0.0175256000000012,-0.0035201999999999,0.0028684000000004,-0.0009077999999991,0.0026084,0,sub_21
0.0187243999999997,0.0197672000000012,-0.0031389999999998,0.0037000000000004,-0.0019913999999991,0.0064612,0,sub_21
0.0213021999999997,0.0216512000000011,-0.0032283999999998,0.0041190000000004,-0.0011507999999991,0.0090268,0,sub_21
0.0221559999999997,0.0226214000000011,-0.0048705999999998,0.0034760000000004,-0.0005143999999991,0.0103034,0,sub_21
0.0241211999999997,0.0222412000000011,-0.0060789999999998,0.0041274000000004,-0.0009337999999991,0.0098906,0,sub_21
0.0226811999999997,0.0190318000000011,-0.0063579999999998,0.0058524000000004,-0.0011387999999991,0.0082032,0,sub_21
0.0217277999999997,0.0153912000000012,-0.0048517999999999,0.0052350000000004,-0.0017555999999991,0.0050046,0,sub_21
0.0196081999999997,0.0126344000000012,-0.0043037999999998,0.0054684000000004,-0.0032267999999991,0.0015994,0,sub_21
0.0167857999999997,0.0134048000000012,-0.0040865999999998,0.0067598000000004,-0.0053459999999991,-0.0005157999999999,0,sub_21
0.0154053999999997,0.0169662000000012,-0.0018809999999998,0.0071886000000003,-0.0053457999999991,-0.0009399999999999,0,sub_21
0.0166947999999997,0.0211822000000012,0.0005742000000001,0.0084802000000003,-0.0034301999999991,-0.0015741999999999,0,sub_21
0.0175417999999997,0.0236170000000012,-0.0011409999999998,0.0110492000000003,-0.0021583999999991,-0.0021987999999999,0,sub_21
0.0168665999999997,0.0259070000000012,-0.0051795999999999,0.0119132000000003,-0.0002421999999991,-0.0026225999999999,0,sub_21
0.0176307999999997,0.0260944000000012,-0.0073775999999998,0.0117382000000003,0.0033800000000008,-0.0024063999999999,0,sub_21
0.0170271999999997,0.0231662000000012,-0.0054131999999998,0.0136958000000004,0.0048720000000008,-0.0040953999999999,0,sub_21
0.0164037999999997,0.0166726000000012,-0.0054393999999998,0.0139592000000004,0.0053200000000008,-0.0096405999999999,0,sub_21
0.0155163999999997,0.0133928000000012,-0.0051243999999998,0.0101886000000004,0.0074978000000008,-0.0179935999999999,0,sub_21
0.0159075999999997,0.0146028000000012,-0.0062523999999998,0.0063920000000004,0.0037108000000008,-0.0265525999999999,0,sub_21
0.0157191999999997,0.0168500000000012,-0.0032157999999999,0.0038432000000004,0.0020324000000008,-0.0308411999999999,0,sub_21
0.0161415999999997,0.0193520000000012,-0.0047035999999999,0.0027736000000003,0.0033068000000008,-0.0289275999999999,0,sub_21
0.0133613999999997,0.0224534000000012,-0.0061911999999998,0.0027370000000003,0.0036988000000008,-0.0203825999999999,0,sub_21
0.0098375999999997,0.0242246000000011,-0.0078993999999998,0.0044178000000003,0.0053628000000008,-0.0073489999999999,0,sub_21
0.0072681999999997,0.0223948000000011,-0.0047191999999998,0.0052672000000003,0.0121422000000008,0.0058856,0,sub_21
0.0076781999999997,0.0191804000000011,-0.0037539999999998,0.0056936000000004,0.0151070000000008,0.014422,0,sub_21
0.0084775999999997,0.0163842000000011,-0.0052011999999998,0.0025080000000004,0.0166126000000008,0.0180214,0,sub_21
0.0119773999999997,0.0172536000000012,-0.0058771999999998,-0.0029965999999995,0.0198488000000008,0.0171158,0,sub_21
0.0184697999999997,0.0184920000000012,-0.0040921999999998,-0.0066085999999995,0.0213606000000008,0.0151658,0,sub_21
0.0249807999999997,0.0185424000000012,-0.0037183999999998,-0.0074553999999995,0.0215818000000008,0.0138778,0,sub_21
0.0277515999999997,0.0187978000000012,-0.0057491999999998,-0.0085073999999995,0.0201302000000008,0.01324,0,sub_21
0.0298569999999997,0.0201922000000012,-0.0057713999999998,-0.0091325999999995,0.0186772000000008,0.012605,0,sub_21
0.0299047999999997,0.0211868000000012,-0.0045711999999999,-0.0076289999999995,0.0163636000000008,0.0121996,0,sub_21
0.0268167999999997,0.0216750000000012,-0.0047213999999999,-0.0065587999999995,0.0129844000000008,0.0122198,0,sub_21
0.0219243999999997,0.0207410000000012,-0.0046071999999999,-0.0061209999999995,0.0102510000000008,0.0111666,0,sub_21
0.0185225999999997,0.0194962000000012,-0.0038749999999999,-0.0041967999999995,0.0089744000000008,0.0090452,0,sub_21
0.0153995999999997,0.0174342000000012,-0.0039111999999999,-0.0018497999999995,0.0055710000000008,0.0056476,0,sub_21
0.0134967999999997,0.0168116000000012,-0.0047785999999999,-0.0014249999999995,0.0021726000000008,0.002664,0,sub_21
0.0126723999999997,0.0169396000000012,-0.0049479999999999,-0.0009903999999995,0.0002928000000008,-0.0003277999999999,0,sub_21
0.0132889999999997,0.0188482000000012,-0.0046725999999999,-0.0003445999999995,-0.0007407999999991,-0.0020373999999999,0,sub_21
0.0151909999999997,0.0198680000000012,-0.0046357999999999,0.0002898000000004,-0.001996799999999,-0.0013967999999999,0,sub_21
0.0162703999999997,0.0206524000000012,-0.0052361999999999,-0.0009931999999995,-0.000909399999999,0.0009368,0,sub_21
0.0167485999999997,0.0197904000000012,-0.0049877999999999,-0.0007835999999995,0.0008086000000008,0.0041344,0,sub_21
0.0174111999999997,0.0184758000000012,-0.0046941999999999,6.40000000004073e-05,0.0016492000000008,0.0062756,0,sub_21
0.0183211999999997,0.0170654000000012,-0.0045811999999999,0.0007032000000004,0.0014338000000008,0.0062804,0,sub_21
0.0181435999999997,0.0169918000000012,-0.0048281999999999,7.560000000040725e-05,0.0016594000000008,0.003712,0,sub_21
0.0177733999999997,0.0176354000000012,-0.0038277999999998,0.0017784000000004,0.0014722000000008,0.0007304,0,sub_21
0.0177351999999997,0.0184346000000012,-0.0040157999999998,0.0024116000000004,0.0008618000000008,-0.0020443999999999,0,sub_21
0.0169241999999997,0.0199176000000012,-0.0043711999999998,0.0015416000000004,3.5800000000856414e-05,-0.0029065999999999,0,sub_21
0.0165121999999997,0.0200662000000012,-0.0044267999999998,0.0013030000000004,-0.0001633999999991,-0.0012015999999999,0,sub_21
0.0159219999999997,0.0189144000000012,-0.0038111999999998,0.0017054000000003,0.0009090000000008,0.0015746,0,sub_21
0.0161913999999997,0.0176196000000012,-0.0043907999999998,0.0002100000000003,0.0023980000000008,0.003485,0,sub_21
0.0160753999999997,0.0171458000000012,-0.0040657999999998,-0.0010731999999996,0.0030364000000008,0.0047572,0,sub_21
0.0167477999999997,0.0176380000000012,-0.0043441999999998,-0.0014971999999995,0.0038894000000008,0.0049668,0,sub_21
0.0170609999999997,0.0188978000000012,-0.0045397999999998,-0.0021549999999995,0.0049600000000008,0.0043514,0,sub_21
0.0177435999999997,0.0212802000000012,-0.0046403999999998,-0.0021745999999995,0.0045412000000008,0.002674,0,sub_21
0.0185665999999997,0.0223490000000012,-0.0053701999999999,-0.0019857999999995,0.0032684000000008,0.0012128,0,sub_21
0.0194095999999997,0.0226358000000012,-0.0065917999999999,-0.0013767999999995,0.0009274000000008,0.000183,0,sub_21
0.0196083999999997,0.0215250000000012,-0.0058371999999999,-0.0003381999999995,-0.0003517999999991,-0.0004175999999999,0,sub_21
0.0200137999999997,0.0204852000000012,-0.0052451999999999,8.380000000040728e-05,-0.0012063999999991,-0.0001999999999999,0,sub_21
0.0198297999999997,0.0192700000000012,-0.0052119999999999,7.220000000040731e-05,-0.0020653999999991,0.0015102,0,sub_21
0.0179133999999997,0.0193564000000012,-0.0052523999999999,0.0007008000000004,-0.0025021999999991,0.0036516,0,sub_21
0.0155977999999997,0.0197998000000012,-0.0044169999999998,0.0002596000000004,-0.0014815999999991,0.0055662,0,sub_21
0.0139949999999997,0.0200188000000012,-0.0044167999999998,-0.0006063999999995,-0.0008819999999991,0.0066236,0,sub_21
0.0128715999999997,0.0201834000000012,-0.0037419999999998,-0.0004017999999995,-0.0007073999999991,0.0064072,0,sub_21
0.0118665999999997,0.0203170000000012,-0.0039919999999998,-0.0004103999999995,-0.0009563999999991,0.0057626,0,sub_21
0.0115297999999997,0.0199178000000012,-0.0032743999999998,-0.0008543999999995,-0.0020603999999991,0.0061842,0,sub_21
0.0129129999999997,0.0199322000000012,-0.0035887999999999,-3.359999999957285e-05,-0.0063363999999991,0.0091864,0,sub_21
0.0146303999999997,0.0202474000000012,-0.0040497999999999,-0.0013519999999995,-0.0089125999999991,0.0151626,0,sub_21
0.0174123999999997,0.0205174000000012,-0.0054561999999998,-0.0018131999999995,-0.0100027999999991,0.0217838,0,sub_21
0.0218531999999997,0.0206926000000012,-0.0052055999999998,-0.0020565999999995,-0.0121917999999991,0.0264696,0,sub_21
0.0246897999999997,0.0217528000000012,-0.0058547999999998,-0.0029159999999995,-0.0111743999999991,0.0290106,0,sub_21
0.0246683999999997,0.0203466000000011,-0.0061849999999998,-0.0045963999999995,-0.0056687999999991,0.0287626,0,sub_21
0.0230131999999997,0.0187870000000011,-0.0062883999999998,-0.0039153999999995,-0.0007951999999991,0.0246862,0,sub_21
0.0204909999999997,0.0162304000000012,-0.0049629999999998,-0.0045145999999995,0.0013244000000008,0.0178272,0,sub_21
0.0182199999999997,0.0142032000000012,-0.0048809999999998,-0.0059591999999995,0.0034950000000008,0.0090548,0,sub_21
0.0180819999999997,0.0137186000000011,-0.0045749999999999,-0.0067685999999995,0.0043860000000008,7.500000000006807e-05,0,sub_21
0.0195399999999997,0.0157002000000012,-0.0038321999999999,-0.0067291999999995,0.0042086000000008,-0.0088975999999999,0,sub_21
0.0205121999999997,0.0191850000000012,-0.0028831999999999,-0.0052183999999995,0.0016724000000008,-0.0152929999999999,0,sub_21
0.0191155999999997,0.0229924000000012,-0.0036909999999999,-0.0037355999999995,-0.0011297999999991,-0.0155081999999999,0,sub_21
0.0168663999999997,0.0242060000000012,-0.0038535999999999,-0.0011955999999995,-0.0003367999999991,-0.0099519999999999,0,sub_21
0.0157489999999997,0.0230232000000012,-0.0027031999999999,0.0015492000000004,-0.0001887999999991,-0.0031117999999999,0,sub_21
0.0149875999999997,0.0207944000000012,-0.0024915999999999,0.0027908000000004,-0.0008927999999991,0.005001,0,sub_21
0.0138879999999997,0.0169676000000012,-0.0029203999999999,0.0025572000000004,0.0011830000000008,0.0118178,0,sub_21
0.0145475999999997,0.0140472000000012,-0.0025985999999999,0.0036290000000004,0.0043664000000008,0.0139578,0,sub_21
0.0145099999999997,0.0149366000000012,-0.0022191999999999,0.0034254000000004,0.0043756000000008,0.0118198,0,sub_21
0.0140105999999997,0.0171948000000012,-0.0023737999999999,0.0038724000000004,0.0043638000000008,0.0079624,0,sub_21
0.0145727999999997,0.0191716000000012,-0.0026269999999999,0.0056074000000004,0.0041420000000008,0.0021914,0,sub_21
0.0166435999999997,0.0209212000000012,-0.0043103999999999,0.0060438000000004,-0.0005475999999991,-0.0040099999999999,0,sub_21
0.0180945999999997,0.0221090000000012,-0.0047975999999999,0.0054134000000004,-0.0041723999999991,-0.0091521999999999,0,sub_21
0.0193955999999997,0.0211040000000012,-0.0049613999999999,0.0056422000000004,-0.0048241999999991,-0.0125827999999999,0,sub_21
0.0206467999999997,0.0180928000000012,-0.0050517999999999,0.0047954000000004,-0.0056639999999991,-0.0149377999999999,0,sub_21
0.0207067999999997,0.0163446000000012,-0.0051775999999998,0.0028828000000004,-0.0050137999999991,-0.0160201999999999,0,sub_21
0.0186303999999997,0.0197386000000012,-0.0052753999999998,0.0052538000000004,-0.0009687999999991,-0.0172907999999999,0,sub_21
0.0172857999999997,0.0235520000000012,-0.0098183999999998,0.0129196000000004,-0.0016629999999991,-0.0138335999999999,0,sub_21
0.0149155999999997,0.0283972000000012,-0.0118153999999998,0.0265062000000004,-0.0068821999999991,-0.0028517999999999,0,sub_21
0.0084363999999997,0.0326782000000012,-0.0116939999999998,0.0413654000000004,-0.0104149999999991,0.0115552,0,sub_21
0.0006433999999997,0.0362650000000011,-0.0135339999999999,0.0542898000000004,-0.0205319999999991,0.0225388,0,sub_21
0.0023899999999997,0.0305604000000012,-0.0114489999999999,0.0672066000000003,-0.0382951999999991,0.0275502,0,sub_21
0.0083971999999997,0.0256968000000012,-0.0042311999999999,0.0833568000000003,-0.0575087999999991,0.0232012,0,sub_21
0.0158993999999997,0.0148168000000012,0.0006548,0.0915004000000003,-0.0628105999999991,0.010019,0,sub_21
0.0271929999999997,0.0096976000000012,0.0043894,0.0838870000000003,-0.0606011999999991,-0.0030693999999999,0,sub_21
0.0367301999999997,0.0063832000000012,0.0078414,0.0688054000000003,-0.0528491999999991,-0.0096381999999999,0,sub_21
0.0365573999999997,0.0059910000000012,0.006545,0.0460290000000004,-0.0380795999999991,-0.0062283999999999,0,sub_21
0.0323603999999997,0.0056582000000012,0.0038452,0.0162218000000004,-0.0166977999999991,0.0013966,0,sub_21
0.0279141999999997,0.0132512000000012,0.001979,-0.0129797999999995,-0.0032003999999991,0.0088224,0,sub_21
0.0222785999999997,0.0168976000000012,-0.0020755999999999,-0.0311269999999995,0.0010970000000008,0.0163372,0,sub_21
0.0176631999999997,0.0182776000000012,-0.0056557999999999,-0.0390159999999995,0.0077080000000008,0.0216148,0,sub_21
0.0158429999999997,0.0195496000000012,-0.0062213999999999,-0.0404797999999995,0.0155910000000008,0.0228762,0,sub_21
0.0150965999999997,0.0193826000000012,-0.0045319999999999,-0.0425827999999995,0.0213552000000008,0.021786,0,sub_21
0.0141199999999997,0.0169432000000012,-0.0029827999999998,-0.0448903999999995,0.0249976000000008,0.0193762,0,sub_21
0.0130439999999997,0.0158518000000012,-0.0013337999999999,-0.0480371999999995,0.0275946000000008,0.0126892,0,sub_21
0.0129729999999997,0.0199054000000012,-0.0012359999999999,-0.0514039999999995,0.0261546000000008,0.003442,0,sub_21
0.0120267999999997,0.0268618000000012,-0.0029483999999999,-0.0513549999999995,0.0244922000000008,-0.0064217999999999,0,sub_21
0.0108411999999997,0.0329292000000012,-0.0066687999999999,-0.0432053999999995,0.0238556000000008,-0.0134531999999999,0,sub_21
0.0123703999999997,0.0273710000000012,-0.0090607999999999,-0.0267861999999995,0.0203936000000008,-0.0144021999999999,0,sub_21
0.0145525999999997,0.0231786000000012,-0.0088873999999999,-0.0131495999999995,0.0158726000000008,-0.0145147999999999,0,sub_21
0.0162871999999997,0.0166554000000012,-0.0051383999999999,-0.0059255999999995,0.0090294000000008,-0.0144555999999999,0,sub_21
0.0201731999999997,0.0114554000000012,-0.0036469999999999,0.0008420000000004,-0.0039923999999991,-0.0139643999999998,0,sub_21
0.0246397999999997,0.0075896000000012,-0.0028689999999999,0.0050504000000004,-0.0180687999999991,-0.0141625999999998,0,sub_21
0.0291891999999997,0.0162724000000012,-0.0029471999999999,0.0007354000000003,-0.0316807999999991,-0.0165573999999998,0,sub_21
0.0312317999999997,0.0228470000000012,-0.0032723999999999,5.7400000000387175e-05,-0.0412649999999991,-0.0170091999999998,0,sub_21
0.0323137999999997,0.0272568000000012,-0.0045971999999999,0.0062580000000003,-0.0397933999999991,-0.0176405999999998,0,sub_21
0.0312571999999997,0.0286522000000012,-0.0043437999999999,0.0080086000000003,-0.0319127999999991,-0.0187387999999999,0,sub_21
0.0286673999999997,0.0280110000000012,-0.0033223999999999,0.0056538000000003,-0.0310625999999991,-0.0161925999999999,0,sub_21
0.0184745999999997,0.0240770000000012,-0.0033959999999999,0.0054174000000003,-0.0302333999999991,-0.0102131999999999,0,sub_21
0.0099843999999997,0.0186244000000012,-0.0052705999999999,0.0071254000000003,-0.0240847999999991,-0.0042269999999999,0,sub_21
0.0064809999999997,0.0127382000000012,-0.0044447999999999,0.0083754000000003,-0.0196253999999991,0.0008972,0,sub_21
0.0036365999999997,0.0075484000000012,-0.0020961999999999,0.0076800000000003,-0.0215475999999991,0.0051616,0,sub_21
0.0001681999999997,0.0059384000000012,-0.0020061999999999,0.0036254000000003,-0.0161943999999991,0.0044792,0,sub_21
0.0031529999999997,0.0091222000000012,-0.0029101999999999,-0.0010213999999995,-0.0054913999999991,-0.0015551999999999,0,sub_21
0.0087475999999997,0.0141172000000012,-0.0024621999999999,-0.0044013999999995,-0.0003217999999991,-0.0101373999999999,0,sub_21
0.0114499999999997,0.0194720000000012,-0.0039189999999998,-0.0063035999999995,-0.0028453999999991,-0.0167703999999999,0,sub_21
0.0127625999999997,0.0239654000000012,-0.0050887999999998,-0.0067111999999995,-0.0028267999999991,-0.0210461999999999,0,sub_21
0.0146523999999997,0.0266136000000012,-0.0044177999999998,-0.0061925999999995,-0.0003849999999991,-0.0231983999999999,0,sub_21
0.0167207999999997,0.0260158000000012,-0.0037373999999998,-0.0056901999999995,-0.0005041999999991,-0.0242791999999999,0,sub_21
0.0173357999999997,0.0223168000000012,-0.0041147999999998,-0.0041343999999995,-0.0023365999999991,-0.0240685999999999,0,sub_21
0.0175379999999997,0.0208500000000012,-0.0063709999999999,-0.0076945999999995,-0.0028735999999991,-0.0236817999999999,0,sub_21
0.0190645999999997,0.0228068000000012,-0.0065843999999999,-0.0108299999999995,-0.0023527999999991,-0.0217977999999999,0,sub_21
0.0195679999999997,0.0241574000000012,-0.0054415999999999,-0.0106271999999995,-0.0010897999999991,-0.0181659999999999,0,sub_21
0.0186885999999997,0.0229274000000012,-0.0044125999999999,-0.0095737999999995,-0.0002565999999991,-0.0143141999999999,0,sub_21
0.0175703999999997,0.0248536000000012,-0.0059129999999999,-0.0112941999999995,-0.0011113999999991,-0.0121887999999999,0,sub_21
0.0167463999999997,0.0246790000000012,-0.0051729999999999,-0.0100647999999995,-0.0008775999999991,-0.0081579999999999,0,sub_21
0.0156843999999997,0.0232658000000012,-0.0044041999999999,-0.0081779999999995,0.0023400000000008,-0.0049809999999999,0,sub_21
0.0153407999999997,0.0214668000000012,-0.0033415999999998,-0.0088467999999995,0.0055710000000008,-0.0028901999999999,0,sub_21
