userAcceleration.x,userAcceleration.y,userAcceleration.z,rotationRate.x,rotationRate.y,rotationRate.z,label,subject
0.0022897999999998,0.0031028000000012,-0.0077003999999998,-0.0006859999999994,-0.003987999999999,-0.0008469999999998,0,sub_1
0.0023213999999998,0.0026998000000012,-0.0073649999999998,0.0012384000000005,-0.004628799999999,-0.0023293999999998,0,sub_1
0.0027157999999998,0.0032248000000012,-0.0070127999999998,0.0023082000000005,-0.005055199999999,-0.0033907999999998,0,sub_1
0.0029651999999998,0.0035250000000012,-0.0066009999999998,0.0023084000000005,-0.005692599999999,-0.0040319999999998,0,sub_1
0.0030351999999998,0.0028972000000012,-0.0067549999999999,0.0020968000000005,-0.005689799999999,-0.0044607999999998,0,sub_1
0.0032175999999998,0.0022678000000012,-0.0070519999999999,0.0018806000000005,-0.006327799999999,-0.0044613999999998,0,sub_1
0.0038739999999998,0.0018332000000012,-0.0072087999999999,0.0020948000000005,-0.006114999999999,-0.0044599999999998,0,sub_1
0.0032117999999998,0.0015856000000012,-0.0076389999999999,0.0027388000000005,-0.005477599999999,-0.0046709999999998,0,sub_1
0.0032217999999998,0.0017236000000012,-0.0081199999999999,0.0029550000000005,-0.005263999999999,-0.0050981999999998,0,sub_1
0.0036711999999998,0.0023956000000012,-0.0085777999999999,0.0014644000000005,-0.004619999999999,-0.0051103999999998,0,sub_1
0.0034285999999998,0.0020492000000012,-0.0080695999999998,-0.0004509999999994,-0.003972999999999,-0.0055529999999998,0,sub_1
0.0034717999999998,0.0006734000000012,-0.0073719999999998,-0.0006705999999994,-0.005888599999999,-0.0059803999999998,0,sub_1
0.0050859999999998,-0.0002647999999987,-0.0057789999999998,0.0014578000000005,-0.008446999999999,-0.0072437999999998,0,sub_1
0.0058849999999998,0.0004564000000012,-0.0057933999999998,0.0040234000000005,-0.009087599999999,-0.0089337999999998,0,sub_1
0.0043767999999998,0.0024322000000012,-0.0064589999999998,0.0042398000000005,-0.008660799999999,-0.0091461999999998,0,sub_1
0.0029515999999998,0.0046124000000012,-0.0071545999999998,0.0008218000000005,-0.007378999999999,-0.0070365999999998,0,sub_1
0.0016701999999998,0.0068304000000012,-0.0069221999999998,-0.0053691999999994,-0.004601199999999,-0.0036663999999998,0,sub_1
0.0002391999999998,0.0076612000000012,-0.0076073999999998,-0.0122023999999994,-0.001823199999999,0.0001264000000001,0,sub_1
-0.0004766000000001,0.0068134000000012,-0.0078585999999998,-0.0156263999999994,-0.001183599999999,0.0028774000000001,0,sub_1
0.0005625999999998,0.0045816000000012,-0.0071093999999998,-0.0132841999999994,-0.002681799999999,0.0024668000000001,0,sub_1
0.0015391999999998,0.0026456000000012,-0.0066177999999998,-0.0060237999999994,-0.005248199999999,-0.0013247999999998,0,sub_1
0.0015929999999998,0.0015422000000012,-0.0071013999999998,0.0018854000000005,-0.006960599999999,-0.0061811999999998,0,sub_1
0.0018493999999998,0.0011520000000012,-0.0076595999999998,0.0063818000000005,-0.007174799999999,-0.0097813999999998,0,sub_1
0.0022045999999998,0.0013422000000012,-0.0070883999999998,0.0063964000000005,-0.005464199999999,-0.0112787999999998,0,sub_1
0.0030817999999998,0.0026226000000012,-0.0067793999999998,0.0042632000000005,-0.003757799999999,-0.0098013999999998,0,sub_1
0.0041841999999998,0.0031646000000012,-0.0070543999999998,0.0016860000000004,-0.002489599999999,-0.0049083999999998,0,sub_1
0.0050871999999998,0.0037034000000012,-0.0071235999999998,-0.0008989999999994,-0.001864599999999,0.0010536000000001,0,sub_1
0.0050513999999998,0.0034240000000012,-0.0075597999999998,-0.0015665999999994,-0.002734199999999,0.0061764000000001,0,sub_1
0.0041891999999998,0.0023294000000012,-0.0078079999999999,0.0001142000000004,-0.005096599999999,0.0096082000000001,0,sub_1
0.0019099999999998,0.0014172000000012,-0.0078111999999999,0.0018126000000004,-0.006383399999999,0.0102626000000001,0,sub_1
2.9599999999862372e-05,0.0016334000000012,-0.0075721999999998,0.0022530000000005,-0.005736399999999,0.0079148000000001,0,sub_1
-0.0006154000000001,0.0022114000000012,-0.0078075999999998,0.0029178000000005,-0.003805999999999,0.0042842000000001,0,sub_1
-0.0006414000000001,0.0029206000000012,-0.0072797999999998,0.0037958000000005,-0.002088799999999,0.0004416000000001,0,sub_1
0.0003641999999998,0.0037570000000012,-0.0066711999999998,0.0048784000000005,-0.001652999999999,-0.0027569999999998,0,sub_1
0.0018683999999998,0.0036512000000012,-0.0070087999999998,0.0061638000000005,-0.001863599999999,-0.0042441999999998,0,sub_1
0.0030491999999998,0.0033236000000012,-0.0062717999999998,0.0068032000000005,-0.002501399999999,-0.0048805999999998,0,sub_1
0.0031389999999998,0.0028722000000012,-0.0062717999999998,0.0067954000000005,-0.003781199999999,-0.0044517999999998,0,sub_1
0.0035769999999998,0.0022650000000012,-0.0057737999999998,0.0059324000000005,-0.004847199999999,-0.0033881999999998,0,sub_1
0.0037027999999998,0.0018150000000012,-0.0059289999999998,0.0037928000000005,-0.004207999999999,-0.0014809999999998,0,sub_1
0.0045885999999998,0.0011142000000012,-0.0062369999999998,0.0018682000000005,-0.003142199999999,0.0004268000000001,0,sub_1
0.0049367999999998,0.0006572000000012,-0.0074195999999998,0.0007932000000005,-0.002507199999999,0.0027684000000001,0,sub_1
0.0053901999999998,0.0002838000000012,-0.0076311999999998,0.0007890000000005,-0.002721199999999,0.0034094000000001,0,sub_1
0.0049469999999998,0.0003280000000012,-0.0073945999999998,0.0003618000000005,-0.002505999999999,0.0036196000000001,0,sub_1
0.0042961999999998,0.0005588000000012,-0.0073027999999998,-0.0002757999999994,-0.002287399999999,0.0031874000000001,0,sub_1
0.0030375999999998,0.0006200000000012,-0.0070145999999998,-0.0021893999999994,-0.001849999999999,0.0021054000000001,0,sub_1
0.0027577999999998,0.0016118000000012,-0.0065139999999998,-0.0041037999999994,-0.001413399999999,0.0012370000000001,0,sub_1
0.0028009999999998,0.0020966000000012,-0.0064093999999998,-0.0062355999999994,-0.000342999999999,0.0018618000000001,0,sub_1
0.0026321999999998,0.0036644000000012,-0.0070247999999998,-0.0066623999999994,-0.000125399999999,0.0018588000000001,0,sub_1
0.0027885999999998,0.0046710000000012,-0.0067131999999998,-0.0055947999999994,-0.000124399999999,0.0014392000000001,0,sub_1
0.0026085999999998,0.0053204000000012,-0.0067841999999998,-0.0034583999999994,0.0002992000000009,0.0010266000000001,0,sub_1
0.0017011999999998,0.0049494000000012,-0.0067263999999998,-0.0013211999999994,0.0009356000000009,0.0006136000000001,0,sub_1
0.0008045999999998,0.0050304000000012,-0.0064193999999998,0.0001778000000005,0.0017882000000009,-1.779999999986814e-05,0,sub_1
9.599999999988176e-05,0.0033578000000012,-0.0067671999999998,0.0003976000000005,0.0032788000000009,-1.819999999988814e-05,0,sub_1
-0.0005342000000001,0.0018506000000012,-0.0074127999999998,-2.4399999999494725e-05,0.0045578000000009,0.0001908,0,sub_1
-0.0004334000000001,0.0009280000000012,-0.0078469999999998,-0.0004529999999994,0.0045574000000009,0.000615,0,sub_1
2.3999999999881884e-05,0.0004644000000012,-0.0084049999999999,-0.0006705999999994,0.0039222000000009,0.0008292000000001,0,sub_1
0.0009927999999998,-0.0001513999999987,-0.0092039999999999,-0.0004661999999994,0.0022202000000009,0.0010478000000001,0,sub_1
0.0019087999999998,-0.0004679999999987,-0.0089907999999999,-0.0002635999999994,0.0005166000000009,0.0016936000000001,0,sub_1
0.0032391999999998,-0.0002353999999987,-0.0087925999999998,-0.0004877999999994,-0.001185399999999,0.0023366,0,sub_1
0.0038667999999998,0.0006222000000012,-0.0076121999999998,-0.0007091999999994,-0.001823599999999,0.0034056,0,sub_1
0.0043115999999998,0.0012406000000012,-0.0061603999999998,-0.0019901999999994,-0.001395199999999,0.0040372,0,sub_1
0.0041733999999998,0.0022262000000012,-0.0052195999999998,-0.0036913999999994,0.0001018000000009,0.0042372,0,sub_1
0.0044043999999998,0.0035050000000012,-0.0047655999999998,-0.0045353999999994,0.0018116000000009,0.0038020000000001,0,sub_1
0.0034553999999998,0.0045640000000012,-0.0048267999999999,-0.0053791999999994,0.0031028000000009,0.0027278000000001,0,sub_1
0.0033743999999998,0.0051484000000012,-0.0054913999999999,-0.0053715999999994,0.0037524000000009,0.0014468000000001,0,sub_1
0.0034211999999998,0.0059068000000012,-0.0066703999999999,-0.0047297999999994,0.0035460000000009,0.0005986000000001,0,sub_1
0.0034181999999998,0.0059476000000012,-0.0063277999999999,-0.0036601999999994,0.0033388000000009,-0.0004603999999998,0,sub_1
0.0032261999999998,0.0050262000000012,-0.0064865999999998,-0.0034449999999994,0.0029216000000009,-0.0015249999999998,0,sub_1
0.0038791999999998,0.0032206000000012,-0.0065175999999998,-0.0038737999999994,0.0029216000000009,-0.0011005999999998,0,sub_1
0.0044685999999998,0.0020510000000012,-0.0068821999999998,-0.0047271999999994,0.0027128000000009,-0.0013199999999998,0,sub_1
0.0051385999999998,0.0005958000000012,-0.0078069999999998,-0.0040905999999994,0.0014344000000009,-0.0017409999999998,0,sub_1
0.0055649999999998,-0.0005241999999987,-0.0088247999999998,-0.0023947999999994,-0.000490999999999,-0.0010853999999998,0,sub_1
0.0056969999999998,0.0008660000000012,-0.0093249999999998,-5.8999999999474925e-05,-0.001987599999999,-0.0002103999999998,0,sub_1
0.0041361999999998,0.0041588000000012,-0.0088451999999998,0.0029202000000005,-0.003482999999999,-0.0001855999999998,0,sub_1
0.0027277999999998,0.0063980000000012,-0.0080337999999998,0.0054754000000005,-0.003701199999999,0.0004756000000001,0,sub_1
0.0004471999999998,0.0085504000000012,-0.0063097999999998,0.0065406000000005,-0.002213399999999,0.0019784000000001,0,sub_1
-0.0015554000000001,0.0095950000000012,-0.0059289999999998,0.0073980000000005,0.0001286000000009,0.0030512000000001,0,sub_1
-0.0026564000000001,0.0090800000000012,-0.0064587999999998,0.0086784000000005,0.0011856000000009,0.0039130000000001,0,sub_1
-0.0026136000000001,0.0071848000000012,-0.0079767999999998,0.0114460000000005,0.0007460000000009,0.0047872000000001,0,sub_1
-0.0026662000000001,0.0055644000000012,-0.0091297999999998,0.0150646000000005,-0.001178799999999,0.0046024000000001,0,sub_1
-0.0010414000000001,0.0035730000000012,-0.0100389999999999,0.0188986000000005,-0.003526999999999,0.0035652000000001,0,sub_1
0.0006685999999998,0.0019734000000012,-0.0099083999999999,0.0212402000000005,-0.005868799999999,0.0023042000000001,0,sub_1
0.0024235999999998,0.0001286000000012,-0.0088487999999999,0.0218788000000005,-0.007564399999999,0.0008170000000001,0,sub_1
0.0046937999999998,-0.0014295999999987,-0.0073671999999999,0.0203908000000005,-0.006912199999999,0.0001666000000001,0,sub_1
0.0067347999999998,-0.0027353999999987,-0.0066937999999999,0.0169784000000005,-0.005837799999999,0.0009964000000001,0,sub_1
0.0075611999999998,-0.0033441999999987,-0.0055031999999999,0.0120772000000004,-0.004116999999999,0.0013878000000001,0,sub_1
0.0079953999999998,-0.0024869999999987,-0.0052895999999999,0.0054710000000005,-0.002176199999999,0.0015534000000001,0,sub_1
0.0080697999999998,-0.0012091999999987,-0.0054969999999998,-0.0007115999999994,0.0004042000000009,0.0027908000000001,0,sub_1
0.0073841999999998,0.0006372000000012,-0.0059047999999998,-0.0062505999999994,0.0025614000000009,0.0027512000000001,0,sub_1
0.0062597999999998,0.0023846000000012,-0.0056741999999998,-0.0100799999999994,0.0040784000000009,0.0014424000000001,0,sub_1
0.0053151999999998,0.0040650000000012,-0.0072657999999998,-0.0111421999999994,0.0040940000000009,0.0001548000000001,0,sub_1
0.0039415999999998,0.0050906000000012,-0.0085183999999998,-0.0092211999999994,0.0028224000000009,-0.0015377999999998,0,sub_1
0.0018939999999998,0.0056518000000012,-0.0085133999999999,-0.0066599999999994,0.0006924000000009,-0.0038673999999998,0,sub_1
0.0009995999999998,0.0054266000000012,-0.0077457999999999,-0.0051687999999994,-0.001436599999999,-0.0055635999999998,0,sub_1
0.0002931999999998,0.0052608000000012,-0.0064625999999999,-0.0066569999999994,-0.000365399999999,-0.0057891999999998,0,sub_1
0.0001361999999998,0.0048110000000012,-0.0034763999999999,-0.0121915999999994,0.0041270000000009,-0.0045509999999998,0,sub_1
0.0007799999999998,0.0037020000000012,-0.0010845999999999,-0.0202827999999994,0.0109660000000009,-0.0018381999999998,0,sub_1
0.0021895999999998,0.0025356000000012,-0.0007729999999999,-0.0290101999999994,0.0184476000000009,0.0006558000000001,0,sub_1
0.0036407999999998,0.0009860000000012,-0.0036975999999999,-0.0345401999999994,0.0248536000000009,0.0029602000000001,0,sub_1
0.0043425999999998,-0.0010889999999987,-0.0071337999999999,-0.0356055999999994,0.0274098000000009,0.0050872,0,sub_1
0.0048821999999998,-0.0028799999999987,-0.0119855999999999,-0.0317803999999994,0.0250480000000009,0.0063992,0,sub_1
0.0038265999999998,-0.0031713999999987,-0.0142709999999999,-0.0260459999999994,0.0192740000000009,0.0068744,0,sub_1
0.0030419999999998,-0.0029983999999987,-0.0155281999999999,-0.0190399999999994,0.0115778000000009,0.0073608,0,sub_1
0.0006659999999998,-0.0008511999999987,-0.0136743999999999,-0.0152275999999994,0.0051782000000009,0.007397,0,sub_1
-0.0002066000000001,0.0022596000000012,-0.0115457999999999,-0.0148149999999994,0.0013498000000009,0.0067650000000001,0,sub_1
-0.0012924000000001,0.0061228000000012,-0.0082877999999999,-0.0163059999999994,0.0011506000000009,0.0059012000000001,0,sub_1
-0.0002992000000001,0.0084220000000012,-0.0062103999999998,-0.0167219999999994,0.0024408000000009,0.0046156000000001,0,sub_1
-0.0002332000000001,0.0107354000000012,-0.0047013999999998,-0.0156377999999994,0.0043684000000009,0.0024852000000001,0,sub_1
0.0014355999999998,0.0117308000000012,-0.0040943999999998,-0.0111463999999994,0.0045752000000009,0.0001658000000001,0,sub_1
0.0027383999999998,0.0114004000000012,-0.0042661999999998,-0.0034573999999994,0.0037074000000009,-0.0025569999999998,0,sub_1
0.0046125999999998,0.0103072000000012,-0.0049125999999998,0.0048642000000005,0.0009210000000009,-0.0054863999999998,0,sub_1
0.0063067999999998,0.0085834000000012,-0.0060561999999999,0.0123266000000005,-0.002291599999999,-0.0075665999999998,0,sub_1
0.0080419999999998,0.0065278000000012,-0.0066289999999999,0.0174372000000005,-0.004863599999999,-0.0079547999999998,0,sub_1
0.0088417999999998,0.0038224000000012,-0.0066147999999999,0.0193476000000005,-0.005726599999999,-0.0066581999999998,0,sub_1
0.0088839999999998,0.0017292000000012,-0.0066593999999998,0.0186912000000005,-0.006791799999999,-0.0040959999999998,0,sub_1
0.0080515999999998,-0.0007365999999987,-0.0065075999999998,0.0163316000000005,-0.006786599999999,-0.0013333999999998,0,sub_1
0.0057035999999998,-0.0014813999999987,-0.0069849999999998,0.0131256000000005,-0.006136199999999,0.0005680000000001,0,sub_1
0.0038583999999998,-0.0017765999999987,-0.0073585999999998,0.0103522000000005,-0.005270199999999,0.0014038000000001,0,sub_1
0.0012679999999998,-0.0014677999999987,-0.0079567999999998,0.0084342000000005,-0.005254599999999,0.0009646000000001,0,sub_1
-0.0001700000000001,-0.0008645999999987,-0.0077197999999998,0.0073724000000005,-0.005246799999999,-0.0001109999999998,0,sub_1
-0.0012236000000001,-0.0001135999999987,-0.0078099999999998,0.0060944000000005,-0.005240799999999,-0.0005471999999998,0,sub_1
-0.0014722,0.0008168000000012,-0.0077059999999999,0.0043894000000005,-0.004384599999999,-0.0001329999999998,0,sub_1
-0.0017708,0.0014624000000012,-0.0073357999999998,0.0020432000000005,-0.003097799999999,0.0009180000000001,0,sub_1
-0.0011220000000001,0.0016238000000012,-0.0070269999999998,0.0001208000000005,-0.002027199999999,0.0023996000000001,0,sub_1
-1.0800000000117834e-05,0.0008750000000012,-0.0070565999999998,-0.0013755999999994,-0.000746599999999,0.0043112000000001,0,sub_1
0.0015007999999998,0.0002842000000012,-0.0075779999999998,-0.0020145999999994,0.0003222000000009,0.0051608000000001,0,sub_1
0.0031445999999998,-0.0008417999999987,-0.0075397999999998,-0.0018007999999994,0.0005386000000009,0.0053766000000001,0,sub_1
0.0046495999999998,-0.0010593999999987,-0.0078037999999999,-0.0020089999999994,0.0011808000000009,0.0049472000000001,0,sub_1
0.0057859999999998,-0.0008325999999987,-0.0077743999999999,-0.0032743999999994,0.0031084000000009,0.0036542000000001,0,sub_1
0.0057233999999998,0.0011546000000012,-0.0074537999999999,-0.0051773999999994,0.0048288000000009,0.0015026000000001,0,sub_1
0.0049325999999998,0.0033440000000012,-0.0064127999999999,-0.0064491999999994,0.0052694000000009,0.0002124000000001,0,sub_1
0.0046569999999998,0.0054214000000012,-0.0060391999999999,-0.0077233999999994,0.0057082000000009,-0.0006505999999998,0,sub_1
0.0043813999999998,0.0067218000000012,-0.0057025999999999,-0.0075117999999994,0.0050738000000009,-0.0008611999999998,0,sub_1
0.0040261999999998,0.0077644000000012,-0.0054139999999999,-0.0062411999999994,0.0037924000000009,4.800000000111833e-06,0,sub_1
0.0033239999999998,0.0076760000000012,-0.0055675999999999,-0.0047619999999994,0.0018692000000009,0.0013000000000001,0,sub_1
0.0032769999999998,0.0065302000000012,-0.0064991999999999,-0.0037033999999994,0.0005858000000009,0.0017362000000001,0,sub_1
0.0028543999999998,0.0051874000000012,-0.0069089999999999,-0.0024273999999994,0.0001538000000009,0.0021728000000001,0,sub_1
0.0026557999999998,0.0035208000000012,-0.0074859999999999,-0.0009339999999994,-0.000275599999999,0.0017566000000001,0,sub_1
0.0025817999999998,0.0018862000000012,-0.0084461999999999,0.0009870000000005,-0.001341799999999,0.0009170000000001,0,sub_1
0.0027079999999998,9.380000000124696e-05,-0.0092343999999999,0.0029130000000004,-0.001767199999999,-0.0003505999999998,0,sub_1
0.0022431999999998,-0.0004263999999987,-0.0095655999999998,0.0041998000000004,-0.001552799999999,-0.0011961999999998,0,sub_1
0.0015951999999998,-0.0006995999999987,-0.0101717999999998,0.0050580000000004,-0.002187599999999,-0.0024709999999998,0,sub_1
0.0014967999999998,-0.0004289999999987,-0.0098163999999998,0.0042036000000004,-0.002821599999999,-0.0024759999999998,0,sub_1
0.0010425999999998,0.0004016000000012,-0.0085069999999998,0.0022836000000005,-0.002390399999999,-0.0020625999999998,0,sub_1
0.0007153999999998,0.0018216000000012,-0.0075619999999998,0.0001482000000005,-0.001960199999999,-0.0012233999999998,0,sub_1
0.0009507999999998,0.0026694000000012,-0.0069659999999999,-0.0007071999999994,-0.001746799999999,-0.0005887999999998,0,sub_1
0.0015683999999998,0.0031598000000012,-0.0065965999999999,-0.0013529999999994,-0.002173999999999,0.0002618000000001,0,sub_1
0.0016697999999998,0.0036706000000012,-0.0069399999999999,-0.0009253999999994,-0.001962199999999,0.0002646000000001,0,sub_1
0.0024819999999998,0.0033086000000012,-0.0074993999999999,0.0001404000000005,-0.002391199999999,5.880000000013175e-05,0,sub_1
0.0031837999999998,0.0026332000000012,-0.0069285999999999,0.0012052000000005,-0.003245199999999,-0.0003599999999998,0,sub_1
0.0035453999999998,0.0024588000000012,-0.0070227999999999,0.0012024000000005,-0.003671799999999,-0.0001457999999998,0,sub_1
0.0038505999999998,0.0025592000000012,-0.0069229999999999,0.0018434000000005,-0.003460599999999,-0.0001415999999998,0,sub_1
0.0041973999999998,0.0021426000000012,-0.0065227999999999,0.0022692000000005,-0.003462599999999,7.500000000015178e-05,0,sub_1
0.0040747999999998,0.0019932000000012,-0.0069691999999999,0.0018444000000005,-0.002822399999999,0.0002850000000001,0,sub_1
0.0038475999999998,0.0024626000000012,-0.0080751999999999,0.0014196000000005,-0.001969999999999,0.0007084000000001,0,sub_1
0.0035601999999998,0.0025100000000012,-0.0078629999999998,0.0009976000000005,-0.001751799999999,-0.0001493999999998,0,sub_1
0.0032757999999998,0.0025302000000012,-0.0071381999999998,-0.0002759999999994,-0.000892199999999,-0.0008001999999998,0,sub_1
0.0027387999999998,0.0031028000000012,-0.0075627999999998,-0.0013361999999994,-0.000245599999999,-0.0016629999999998,0,sub_1
0.0028311999999998,0.0034882000000012,-0.0075565999999998,-0.0013323999999994,-0.000453999999999,-0.0027307999999998,0,sub_1
0.0028235999999998,0.0035788000000012,-0.0078433999999998,-0.0009007999999994,-0.000663199999999,-0.0040093999999998,0,sub_1
0.0026269999999998,0.0032554000000012,-0.0079573999999999,-0.0002625999999994,-0.000878999999999,-0.0037907999999998,0,sub_1
0.0022847999999998,0.0028318000000012,-0.0081329999999999,0.0005914000000004,-0.001733199999999,-0.0033563999999998,0,sub_1
0.0017859999999998,0.0022868000000012,-0.0075997999999999,0.0016558000000004,-0.003015199999999,-0.0027061999999998,0,sub_1
0.0015481999999998,0.0022634000000012,-0.0072993999999998,0.0018696000000004,-0.003867199999999,-0.0022763999999998,0,sub_1
0.0018513999999998,0.0019056000000012,-0.0076033999999998,0.0014480000000004,-0.003651799999999,-0.0018521999999998,0,sub_1
0.0023227999999998,0.0020002000000012,-0.0075653999999998,0.0014552000000004,-0.003648399999999,-0.0020657999999998,0,sub_1
0.0028339999999998,0.0017682000000012,-0.0077235999999998,0.0014582000000004,-0.003645599999999,-0.0027065999999998,0,sub_1
0.0034809999999998,0.0014402000000012,-0.0072205999999998,0.0001838000000004,-0.002574599999999,-0.0029303999999998,0,sub_1
0.0035611999999998,0.0012696000000012,-0.0065029999999999,-0.0008801999999995,-0.001506999999999,-0.0025117999999998,0,sub_1
0.0030663999999998,0.0017394000000012,-0.0058345999999999,-0.0015177999999994,-0.001292599999999,-0.0018757999999998,0,sub_1
0.0023713999999998,0.0024766000000012,-0.0063499999999999,-0.0017335999999994,-0.001720799999999,-0.0008087999999998,0,sub_1
0.0026641999999998,0.0029946000000012,-0.0070573999999999,-0.0019531999999994,-0.002364599999999,0.0008994,0,sub_1
0.0032423999999998,0.0030246000000012,-0.0077999999999998,-0.0013151999999994,-0.002795799999999,0.0019724,0,sub_1
0.0033899999999998,0.0031654000000012,-0.0083397999999998,-3.5199999999475234e-05,-0.003439599999999,0.0024094,0,sub_1
0.0032343999999998,0.0031560000000012,-0.0081177999999998,0.0012452000000005,-0.003868199999999,0.0019916,0,sub_1
0.0035189999999998,0.0027910000000012,-0.0072823999999998,0.0016778000000005,-0.003439799999999,0.0011396000000001,0,sub_1
0.0026015999999998,0.0031056000000012,-0.0065667999999998,0.0019016000000005,-0.002581999999999,-0.0003553999999998,0,sub_1
0.0014339999999998,0.0038984000000012,-0.0061689999999999,0.0016984000000005,-0.001937799999999,-0.0012125999999998,0,sub_1
0.0003905999999998,0.0039766000000012,-0.0062627999999999,0.0014914000000005,-0.002145999999999,-0.0020689999999998,0,sub_1
0.0006999999999998,0.0035654000000012,-0.0059091999999999,0.0012806000000005,-0.003206399999999,-0.0029241999999998,0,sub_1
0.0008597999999998,0.0030298000000012,-0.0062947999999999,0.0014976000000005,-0.004267199999999,-0.0039899999999998,0,sub_1
0.0017739999999998,0.0021712000000012,-0.0065391999999999,0.0019280000000005,-0.005328799999999,-0.0050541999999998,0,sub_1
0.0031001999999998,0.0009914000000012,-0.0068961999999999,0.0023548000000005,-0.006603199999999,-0.0063313999999998,0,sub_1
0.0047307999999998,0.0003234000000012,-0.0076149999999999,0.0025702000000005,-0.006601799999999,-0.0067569999999998,0,sub_1
0.0048095999999998,0.0005044000000012,-0.0080749999999999,0.0025704000000005,-0.006176799999999,-0.0063299999999998,0,sub_1
0.0052421999999998,0.0004408000000012,-0.0077823999999999,0.0023572000000005,-0.005326799999999,-0.0054777999999998,0,sub_1
0.0049327999999998,0.0006988000000012,-0.0077137999999999,0.0015050000000005,-0.004261399999999,-0.0046303999999998,0,sub_1
0.0042269999999998,0.0014374000000012,-0.0078533999999999,0.0006526000000005,-0.003408199999999,-0.0039963999999998,0,sub_1
0.0030725999999998,0.0022696000000012,-0.0078883999999999,-0.0006195999999994,-0.002762999999999,-0.0040065999999998,0,sub_1
0.0023113999999998,0.0025188000000012,-0.0082053999999999,-0.0016783999999994,-0.001906599999999,-0.0038019999999998,0,sub_1
0.0015467999999998,0.0030570000000012,-0.0084045999999999,-0.0029525999999994,-0.001899999999999,-0.0040249999999998,0,sub_1
0.0010011999999998,0.0034938000000012,-0.0080365999999999,-0.0035895999999994,-0.001898199999999,-0.0036027999999998,0,sub_1
0.0006553999999998,0.0039370000000012,-0.0075543999999999,-0.0035865999999994,-0.001474399999999,-0.0027493999999998,0,sub_1
0.0011177999999998,0.0038402000000012,-0.0066815999999999,-0.0025275999999994,-0.001697199999999,-0.0012461999999998,0,sub_1
0.0017979999999998,0.0034920000000012,-0.0061381999999999,-0.0014657999999994,-0.001704999999999,-0.0001705999999998,0,sub_1
0.0021899999999998,0.0033444000000012,-0.0061863999999999,2.560000000052451e-05,-0.001287399999999,0.0006938000000001,0,sub_1
0.0022783999999998,0.0029096000000012,-0.0067011999999999,0.0013100000000005,-0.000865399999999,0.0009156000000001,0,sub_1
0.0025097999999998,0.0020712000000012,-0.0071843999999999,0.0023812000000005,-0.000866999999999,0.0007092000000001,0,sub_1
0.0024069999999998,0.0018570000000012,-0.0076381999999999,0.0026020000000005,-0.000438599999999,0.0002826000000001,0,sub_1
0.0024741999999998,0.0016880000000012,-0.0077837999999999,0.0026064000000005,-0.000224199999999,0.0002822000000001,0,sub_1
