userAcceleration.x,userAcceleration.y,userAcceleration.z,rotationRate.x,rotationRate.y,rotationRate.z,label,subject
-0.0014580000000002,-0.0135351999999988,-0.0045167999999999,0.0003702000000004,0.0060658000000009,0.0005284,0,sub_11
-0.0019228000000002,-0.0130297999999987,-0.0046771999999999,0.0005984000000004,0.0082054000000009,0.0007524,0,sub_11
-0.0028838000000002,-0.0122605999999987,-0.0052601999999999,0.0003836000000004,0.0067246000000009,0.000978,0,sub_11
-0.0055374000000002,-0.0115801999999987,-0.0053091999999999,0.0007984000000004,0.0026858000000009,0.0009975999999999,0,sub_11
-0.0077724000000001,-0.0116091999999987,-0.0052263999999999,0.0014314000000004,0.0001358000000009,0.0014439999999999,0,sub_11
-0.0084952000000002,-0.0119597999999987,-0.0056625999999999,0.0009922000000004,-0.002844599999999,0.0012309999999999,0,sub_11
-0.0083948000000002,-0.0125283999999988,-0.0054361999999999,0.0005560000000004,-0.006458999999999,-0.0002629999999999,0,sub_11
-0.0086348000000002,-0.0134233999999988,-0.0041309999999999,0.0011982000000004,-0.006883799999999,-0.0011125999999999,0,sub_11
-0.0076686000000002,-0.0141467999999988,-0.0035843999999999,0.0016404000000004,-0.004325199999999,-0.0019673999999999,0,sub_11
-0.0069234000000002,-0.0144031999999988,-0.0036447999999999,0.0012338000000004,-0.001755799999999,-0.0030347999999999,0,sub_11
-0.0063282000000002,-0.0140383999999988,-0.0033325999999999,0.0010348000000004,0.0012322000000009,-0.0023921999999999,0,sub_11
-0.0058460000000002,-0.0131339999999988,-0.0039077999999999,0.0010386000000004,0.0031490000000008,-0.0004647999999999,0,sub_11
-0.0051584000000002,-0.0123957999999988,-0.0049537999999999,0.0003994000000004,0.0033678000000008,0.000392,0,sub_11
-0.0043516000000001,-0.0114983999999988,-0.0051707999999999,-0.0008885999999995,0.0018836000000009,0.0014602,0,sub_11
-0.0036568000000001,-0.0105729999999987,-0.0048437999999999,-0.0011153999999995,-3.73999999990892e-05,0.0025294,0,sub_11
-0.0037342000000001,-0.0111911999999987,-0.0047747999999999,-0.0009095999999995,-0.001742599999999,0.0025332,0,sub_11
-0.0041546000000001,-0.0118933999999987,-0.0042325999999999,-0.0004853999999995,-0.003225799999999,0.0016802,0,sub_11
-0.0045710000000001,-0.0129173999999987,-0.0036143999999999,-0.0002755999999995,-0.004072399999999,0.0016794,0,sub_11
-0.0055644000000001,-0.0139479999999987,-0.0033705999999999,0.0005830000000004,-0.003640199999999,0.0010406,0,sub_11
-0.0068160000000001,-0.0144681999999987,-0.0040491999999999,0.0005890000000004,-0.002779799999999,0.0006088,0,sub_11
-0.0070454000000001,-0.0140753999999987,-0.0036425999999999,0.0005950000000004,-0.001494999999999,0.0006038,0,sub_11
-0.0066838000000001,-0.0135139999999988,-0.0039031999999999,0.0005988000000004,-0.000642799999999,0.0006026,0,sub_11
-0.0054732000000002,-0.0123671999999988,-0.0047409999999999,0.0006066000000004,0.0006372000000009,0.0001738,0,sub_11
-0.0040290000000002,-0.0114803999999988,-0.0054675999999999,0.0001818000000004,0.0006404000000009,-0.0002565999999999,0,sub_11
-0.0027694000000002,-0.0110009999999988,-0.0050535999999999,0.0001790000000004,-0.000210999999999,-0.0004689999999999,0,sub_11
-0.0025462000000002,-0.0112191999999988,-0.0049935999999999,0.0001818000000004,-0.000625399999999,-0.0006849999999999,0,sub_11
-0.0026716000000002,-0.0114707999999988,-0.0045419999999999,-0.0002421999999995,-0.000613799999999,-0.0004771999999999,0,sub_11
-0.0049572000000002,-0.0116899999999988,-0.0046747999999999,0.0001796000000004,-0.001672999999999,0.0003788,0,sub_11
-0.0061156000000002,-0.0121757999999988,-0.0047861999999999,0.0010320000000004,-0.001881599999999,0.0012368,0,sub_11
-0.0064188000000002,-0.0126925999999988,-0.0056611999999999,0.0010318000000004,-0.002722799999999,0.001235,0,sub_11
-0.0064386000000002,-0.0127763999999987,-0.0049649999999999,0.0008156000000004,-0.003785599999999,0.0008076,0,sub_11
-0.0065054000000002,-0.0130943999999987,-0.0042559999999999,0.0016816000000004,-0.001867599999999,-4.339999999996396e-05,0,sub_11
-0.0052364000000002,-0.0137541999999987,-0.0033261999999999,0.0019160000000004,0.0015456000000009,-0.0013279999999999,0,sub_11
-0.0044772000000002,-0.0133391999999987,-0.0038641999999999,0.0010792000000004,0.0034776000000009,-0.0021915999999999,0,sub_11
-0.0044822000000002,-0.0132751999999987,-0.0038269999999999,0.0008796000000004,0.0051926000000009,-0.0026231999999999,0,sub_11
-0.0046474000000002,-0.0124875999999987,-0.0052451999999999,0.0002426000000004,0.0056266000000009,-0.0019877999999999,0,sub_11
-0.0047288000000002,-0.0115869999999987,-0.0062061999999999,-0.0012593999999995,0.0035068000000009,-0.0013551999999999,0,sub_11
-0.0050614000000002,-0.0108393999999987,-0.0064947999999999,-0.0023421999999995,0.0001056000000009,-0.0002907999999999,0,sub_11
-0.0060994000000002,-0.0109233999999987,-0.0056525999999999,-0.0021413999999995,-0.002240399999999,0.000141,0,sub_11
-0.0060540000000002,-0.0112755999999988,-0.0050263999999999,-0.0023633999999995,-0.003520599999999,0.000782,0,sub_11
-0.0061904000000002,-0.0122725999999988,-0.0042751999999999,-0.0025735999999995,-0.003936199999999,-7.439999999994395e-05,0,sub_11
-0.0057984000000002,-0.0128105999999988,-0.0039839999999999,-0.0019311999999995,-0.003931199999999,-0.0002841999999999,0,sub_11
-0.0056100000000002,-0.0135507999999988,-0.0037631999999999,-0.0014945999999995,-0.002645399999999,-0.0009245999999999,0,sub_11
-0.0053160000000002,-0.0131323999999988,-0.0039011999999999,-0.0014875999999995,-0.001360799999999,-0.0009269999999999,0,sub_11
-0.0056904000000002,-0.0124181999999988,-0.0041943999999999,-0.0010557999999995,-0.000715799999999,-0.0011391999999999,0,sub_11
-0.0054918000000002,-0.0116399999999988,-0.0041767999999999,-0.0002069999999995,-0.000935399999999,-0.0002783999999999,0,sub_11
-0.0050322000000002,-0.0117651999999988,-0.0047233999999999,-0.0002117999999995,-0.001576199999999,0.0001496,0,sub_11
-0.0042412000000002,-0.0115495999999988,-0.0052469999999999,-0.0002175999999995,-0.002642399999999,0.0003646,0,sub_11
-0.0037432000000002,-0.0122837999999987,-0.0048295999999999,-0.0004319999999995,-0.003700199999999,-6.499999999996392e-05,0,sub_11
-0.0029644000000002,-0.0126751999999987,-0.0044685999999999,-1.3999999995246982e-06,-0.003907399999999,-0.0007049999999999,0,sub_11
-0.0027410000000002,-0.0136273999999987,-0.0043619999999999,0.0002194000000004,-0.002836999999999,-0.0009207999999999,0,sub_11
-0.0047918000000002,-0.0136677999999987,-0.0037779999999999,0.0008614000000004,-0.002834399999999,-0.0009185999999999,0,sub_11
-0.0057922000000002,-0.0128871999999987,-0.0041667999999999,0.0023520000000004,-0.003263399999999,-0.0002689999999999,0,sub_11
-0.0063628000000002,-0.0121075999999987,-0.0048255999999999,0.0029894000000004,-0.003692599999999,-5.039999999996389e-05,0,sub_11
-0.0063542000000002,-0.0117373999999987,-0.0054183999999999,0.0025530000000004,-0.005397199999999,0.0003762,0,sub_11
-0.0061798000000002,-0.0115819999999987,-0.0046817999999999,0.0025474000000004,-0.007099999999999,-4.87999999999638e-05,0,sub_11
-0.0040330000000002,-0.0115967999999988,-0.0043497999999999,0.0021312000000004,-0.005603799999999,-0.0009081999999999,0,sub_11
-0.0035716000000002,-0.0121685999999988,-0.0041813999999999,0.0008670000000004,-0.003459199999999,-0.0022037999999999,0,sub_11
-0.0032292000000002,-0.0131687999999988,-0.0043643999999999,0.0002370000000004,-0.001534399999999,-0.0024265999999999,0,sub_11
-0.0037874000000002,-0.0138435999999988,-0.0042113999999999,-0.0001785999999995,0.0008150000000009,-0.0024347999999999,0,sub_11
-0.0043882000000002,-0.0134817999999988,-0.0052073999999999,-0.0010257999999995,0.0027372000000009,-0.0018045999999999,0,sub_11
-0.0057356000000002,-0.0133045999999988,-0.0056925999999999,-0.0010281999999995,0.0025268000000009,-0.0013791999999999,0,sub_11
-0.0060066000000002,-0.0130409999999988,-0.0053109999999999,-0.0014655999999995,0.0012456000000009,-0.0003123999999999,0,sub_11
-0.0061588000000002,-0.0123855999999988,-0.0048253999999999,-0.0016847999999995,0.0003924000000009,0.0001144,0,sub_11
-0.0063388000000002,-0.0122037999999988,-0.0047011999999999,-0.0014771999999995,-0.000462199999999,0.0005442,0,sub_11
-0.0062342000000002,-0.0124353999999988,-0.0048453999999999,-0.0008413999999995,-0.001736599999999,-9.259999999994384e-05,0,sub_11
-0.0054724000000002,-0.0128529999999988,-0.0048003999999999,-0.0006323999999995,-0.002797199999999,-0.0005191999999999,0,sub_11
-0.0053166000000002,-0.0133545999999988,-0.0047201999999999,0.0002236000000004,-0.002580999999999,-0.0011565999999999,0,sub_11
-0.0049072000000002,-0.0136963999999987,-0.0046465999999999,0.0010786000000004,-0.002577799999999,-0.0017935999999999,0,sub_11
-0.0043354000000002,-0.0137817999999987,-0.0040087999999999,0.0012972000000004,-0.001508199999999,-0.0022227999999999,0,sub_11
-0.0041676000000002,-0.0143775999999987,-0.0039205999999999,0.0015144000000004,-0.000232399999999,-0.0017955999999999,0,sub_11
-0.0042532000000002,-0.0141653999999987,-0.0040705999999999,0.0015164000000004,0.0010424000000009,-0.0009425999999999,0,sub_11
-0.0046186000000002,-0.0141035999999987,-0.0044347999999999,0.0008762000000004,0.0014690000000009,-0.0005201999999999,0,sub_11
-0.0051088000000002,-0.0140239999999988,-0.0039125999999999,0.0002400000000004,0.0023244000000009,0.0001172,0,sub_11
-0.0053570000000002,-0.0140531999999987,-0.0041713999999999,0.0004564000000004,0.0027516000000009,0.0005473999999999,0,sub_11
-0.0062614000000002,-0.0134355999999987,-0.0040461999999999,0.0008822000000004,0.0025382000000009,0.0011933999999999,0,sub_11
-0.0074438000000002,-0.0127015999999987,-0.0036779999999999,0.0019482000000004,0.0016858000000009,0.0012038,0,sub_11
-0.0076266000000002,-0.0121777999999987,-0.0040869999999999,0.0027988000000004,0.0004080000000009,0.0012132,0,sub_11
-0.0071444000000002,-0.0119817999999987,-0.0051983999999999,0.0030044000000004,-0.001933799999999,0.0005766,0,sub_11
-0.0069980000000002,-0.0121939999999988,-0.0051229999999999,0.0019298000000004,-0.004695399999999,-0.0004955999999999,0,sub_11
-0.0054104000000002,-0.0123875999999988,-0.0046193999999999,0.0010764000000004,-0.005753599999999,-0.0015683999999999,0,sub_11
-0.0035958000000002,-0.0131567999999988,-0.0042131999999999,-0.0001909999999995,-0.004247799999999,-0.0022175999999999,0,sub_11
-0.0025248000000002,-0.0136211999999988,-0.0039385999999999,-0.0010247999999995,-0.001251999999999,-0.0028655999999999,0,sub_11
-0.0031540000000002,-0.0137243999999988,-0.0036299999999999,-0.0012271999999995,0.0010972000000009,-0.0022265999999999,0,sub_11
-0.0029936000000002,-0.0134469999999988,-0.0038283999999999,-0.0010055999999995,0.0036546000000009,-0.0007303999999999,0,sub_11
-0.0038238000000002,-0.0128923999999988,-0.0040663999999999,-0.0007841999999995,0.0055754000000008,0.0001258,0,sub_11
-0.0045862000000002,-0.0126089999999988,-0.0049585999999999,-0.0007889999999995,0.0057834000000008,0.0014074,0,sub_11
-0.0055714000000002,-0.0126729999999988,-0.0047383999999999,-0.0007995999999995,0.0045008000000008,0.0024772,0,sub_11
-0.0050934000000002,-0.0130623999999988,-0.0045323999999999,-0.0003769999999995,0.0040856000000008,0.0026982,0,sub_11
-0.0063292000000002,-0.0127803999999988,-0.0044697999999999,0.0002598000000004,0.0034582000000009,0.0024938,0,sub_11
-0.0069648000000002,-0.0132541999999988,-0.0051673999999999,0.0002538000000004,0.0021938000000009,0.0022856,0,sub_11
-0.0074834000000002,-0.0135233999999988,-0.0048905999999999,3.540000000045521e-05,0.0009310000000009,0.0018622,0,sub_11
-0.0075102000000002,-0.0138201999999988,-0.0046303999999999,0.0004620000000004,0.0009434000000009,0.0016552,0,sub_11
-0.0074870000000002,-0.0139169999999987,-0.0051581999999999,0.0002468000000004,0.0005180000000009,0.0016542,0,sub_11
-0.0063478000000002,-0.0140561999999987,-0.0051339999999999,2.860000000045521e-05,-0.000334399999999,0.0018674,0,sub_11
-0.0048292000000002,-0.0140163999999987,-0.0045041999999999,2.660000000045521e-05,-0.000123799999999,0.002508,0,sub_11
-0.0033288000000002,-0.0146085999999987,-0.0046185999999999,2.760000000045521e-05,0.0005136000000009,0.0029344,0,sub_11
-0.0020782000000002,-0.0138227999999987,-0.0047623999999999,-0.0006161999999995,9.780000000093052e-05,0.003362,0,sub_11
-0.0016730000000002,-0.0131579999999987,-0.0038209999999998,-0.0008273999999995,0.0013830000000009,0.0042178,0,sub_11
-0.0018510000000002,-0.0137753999999987,-0.0034511999999998,-0.0010385999999995,0.0026684000000008,0.0050734,0,sub_11
-0.0042180000000002,-0.0136131999999987,-0.0030241999999999,-0.0004067999999995,0.0026682000000008,0.0070048,0,sub_11
-0.0067362000000002,-0.0127917999999988,-0.0026311999999999,0.0012946000000004,0.0033036000000008,0.008943,0,sub_11
-0.0073110000000002,-0.0122221999999987,-0.0037455999999999,0.0025768000000004,0.0041496000000008,0.0093782,0,sub_11
-0.0069332000000002,-0.0121141999999987,-0.0049593999999999,0.0023586000000004,0.0022364000000009,0.0085246,0,sub_11
-0.0062426000000002,-0.0109927999999987,-0.0061217999999999,0.0017176000000004,0.0001158000000009,0.0066,0,sub_11
-0.0036870000000002,-0.0109577999999987,-0.0059881999999999,0.0017266000000004,-0.000504599999999,0.0034008,0,sub_11
-0.0017606000000002,-0.0112075999999987,-0.0058603999999999,0.0013098000000004,-0.000910599999999,0.0001982,0,sub_11
-0.0018402000000001,-0.0125669999999987,-0.0047989999999999,0.0006758000000004,-0.000470399999999,-0.0012977999999999,0,sub_11
-0.0025386000000001,-0.0127145999999987,-0.0051561999999999,3.700000000045525e-05,0.0006022000000009,-0.0010855999999999,0,sub_11
-0.0034264000000001,-0.0130575999999987,-0.0044971999999999,-0.0003913999999995,0.0014592000000009,-0.0004441999999999,0,sub_11
-0.0046300000000001,-0.0124765999999988,-0.0051135999999998,-0.0014629999999995,0.0012464000000009,0.0004032,0,sub_11
-0.0052438000000001,-0.0121827999999988,-0.0046933999999998,-0.0023221999999995,0.0006076000000009,0.001039,0,sub_11
-0.0044182000000002,-0.0111703999999988,-0.0052979999999998,-0.0021185999999995,-2.699999999908956e-05,0.001259,0,sub_11
-0.0035856000000002,-0.0108999999999988,-0.0044995999999998,-0.0012661999999995,-0.000231799999999,-1.259999999996403e-05,0,sub_11
-0.0030838000000001,-0.0112185999999988,-0.0043189999999998,-0.0006289999999995,-0.000649599999999,-0.0010717999999999,0,sub_11
-0.0029194000000001,-0.0120965999999988,-0.0037219999999999,-0.0002063999999995,-0.001067599999999,-0.0019189999999999,0,sub_11
-0.0031362000000002,-0.0125411999999988,-0.0039517999999998,-0.0004257999999995,-0.001272799999999,-0.0021297999999999,0,sub_11
-0.0044392000000002,-0.0134245999999988,-0.0037025999999998,-0.0010677999999995,-0.001696599999999,-0.0021337999999999,0,sub_11
-0.0053218000000001,-0.0139507999999988,-0.0037865999999999,-0.0010755999999995,-0.002552199999999,-0.0012781999999999,0,sub_11
-0.0057958000000001,-0.0135813999999988,-0.0040079999999999,-0.0006517999999995,-0.002344199999999,-0.0004207999999999,0,sub_11
-0.0052650000000001,-0.0133555999999988,-0.0039345999999999,-0.0010779999999995,-0.001067799999999,3.000000000035909e-06,0,sub_11
-0.0044560000000001,-0.0129125999999988,-0.0046693999999999,-0.0012927999999995,-0.000430399999999,0.0002154,0,sub_11
-0.0033898000000001,-0.0126043999999988,-0.0043117999999999,-0.0010809999999995,-0.000218999999999,4.000000000035919e-06,0,sub_11
-0.0031116000000001,-0.0125579999999988,-0.0041351999999999,-0.0006497999999995,0.0012700000000009,-0.0002073999999999,0,sub_11
-0.0029360000000002,-0.0128663999999988,-0.0040667999999999,-0.0004349999999995,0.0025450000000009,7.200000000015918e-06,0,sub_11
-0.0036952000000002,-0.0121129999999988,-0.0050725999999999,-1.2999999999544582e-05,0.0016904000000009,0.0002248,0,sub_11
-0.0043890000000002,-0.0117161999999988,-0.0052019999999999,0.0014720000000004,-2.019999999908917e-05,0.000451,0,sub_11
-0.0047348000000002,-0.0111481999999988,-0.0065953999999999,0.0018892000000004,-0.002152199999999,0.0004568,0,sub_11
-0.0046112000000002,-0.0109573999999988,-0.0068693999999999,0.0014500000000004,-0.005132599999999,0.000244,0,sub_11
-0.0046450000000002,-0.0114609999999988,-0.0060791999999999,0.0016556000000004,-0.007052399999999,-0.0003981999999999,0,sub_11
-0.0043384000000002,-0.0123135999999988,-0.0042509999999999,0.0027280000000004,-0.004931399999999,2.880000000003574e-05,0,sub_11
-0.0042294000000002,-0.0132817999999987,-0.0035707999999999,0.0023126000000004,-0.000677999999999,0.0012972,0,sub_11
-0.0058984000000002,-0.0148671999999987,-0.0021679999999999,0.0025296000000004,0.0031418000000009,0.0038524,0,sub_11
-0.0066480000000002,-0.0149673999999987,-0.0025781999999999,0.0027456000000004,0.0067486000000009,0.0064078,0,sub_11
-0.0064136000000002,-0.0137771999999987,-0.0041337999999999,0.0025332000000004,0.0080234000000009,0.007473,0,sub_11
-0.0057598000000001,-0.0130515999999987,-0.0054031999999998,0.0018816000000004,0.0056812000000009,0.0076852,0,sub_11
-0.0055984000000001,-0.0119879999999988,-0.0051217999999999,0.0023006000000004,0.0029142000000009,0.0066234,0,sub_11
-0.0044740000000001,-0.0100981999999988,-0.0058657999999999,0.0020864000000004,0.0016378000000009,0.0048971999999999,0,sub_11
-0.0045422000000002,-0.0093239999999988,-0.0060335999999999,0.0018598000000004,-0.001983999999999,0.0036011999999999,0,sub_11
-0.0055042000000002,-0.0090235999999988,-0.0066603999999999,-0.0007263999999995,-0.006457399999999,0.0042123999999999,0,sub_11
-0.0061602000000002,-0.0094085999999988,-0.0080423999999999,-0.0039489999999995,-0.009651999999999,0.005245,0,sub_11
-0.0053596000000002,-0.0104203999999988,-0.0083177999999999,-0.0069579999999995,-0.013059399999999,0.0060657999999999,0,sub_11
-0.0029634000000002,-0.0125391999999988,-0.0065345999999999,-0.0084601999999995,-0.014971599999999,0.0060576,0,sub_11
0.0005519999999997,-0.0142229999999988,-0.0041753999999999,-0.0080103999999995,-0.011981799999999,0.0039204,0,sub_11
0.0035177999999997,-0.0165641999999988,-0.0018319999999999,-0.0034835999999995,-0.004953799999999,0.0007384,0,sub_11
0.0043087999999997,-0.0179035999999988,0.0004862,0.0021178000000004,0.0037708000000009,-0.0026649999999999,0,sub_11
0.0032723999999997,-0.0176427999999988,0.0004232,0.0057960000000004,0.0133484000000009,-0.0045873999999999,0,sub_11
-0.0009472000000002,-0.0161837999999988,-0.0010027999999999,0.0079546000000004,0.0193008000000009,-0.0043791999999999,0,sub_11
-0.0072466000000002,-0.0144449999999988,-0.0027259999999999,0.0079506000000004,0.0220522000000009,-0.0009771999999999,0,sub_11
-0.0127848000000001,-0.0121091999999988,-0.0042377999999999,0.0055786000000004,0.0211854000000009,0.003481,0,sub_11
-0.0154404000000001,-0.0090755999999988,-0.0058619999999999,0.0025444000000004,0.0145760000000009,0.007314,0,sub_11
-0.0146032000000001,-0.0072625999999988,-0.0073015999999998,0.0007874000000004,0.0045642000000009,0.0083828,0,sub_11
-0.0116654000000001,-0.0072915999999988,-0.0079347999999998,0.0001158000000004,-0.004374199999999,0.0064668,0,sub_11
-0.0065148000000001,-0.0084257999999987,-0.0081711999999999,0.0005244000000004,-0.012880999999999,0.002201,0,sub_11
-0.0022520000000002,-0.0099117999999987,-0.0066781999999998,0.0011692000000004,-0.016911799999999,-0.0027097999999999,0,sub_11
0.0007397999999997,-0.0123909999999987,-0.0054641999999998,0.0014160000000004,-0.013488599999999,-0.0065647999999999,0,sub_11
0.0005469999999997,-0.0158403999999987,-0.0039815999999999,0.0012352000000004,-0.008367199999999,-0.0085021999999999,0,sub_11
-0.0010436000000002,-0.0162911999999987,-0.0015725999999999,-2.3199999999544853e-05,-0.002614799999999,-0.0074567999999999,0,sub_11
-0.0032360000000002,-0.0159859999999988,0.0001912,-0.0006393999999995,0.0052602000000009,-0.0049075999999999,0,sub_11
-0.0037956000000002,-0.0142139999999988,-0.0017447999999999,0.0002304000000004,0.0112134000000009,-0.0025591999999999,0,sub_11
-0.0045362000000002,-0.0130867999999987,-0.0036499999999999,0.0012880000000004,0.0109936000000009,-0.0010605999999999,0,sub_11
-0.0044292000000002,-0.0110411999999987,-0.0049109999999999,0.0012702000000004,0.0086480000000009,0.0002198,0,sub_11
-0.0028348000000002,-0.0105993999999987,-0.0060001999999999,0.0012562000000004,0.0060936000000009,0.0004322,0,sub_11
-0.0020486000000002,-0.0103989999999987,-0.0063149999999999,0.0016680000000004,0.0029002000000009,0.000221,0,sub_11
-0.0026552000000002,-0.0108555999999987,-0.0049145999999999,0.0007994000000004,-0.000288799999999,1.0000000000360848e-06,0,sub_11
-0.0043594000000002,-0.0114375999999987,-0.0042045999999999,-0.0002701999999995,-0.001136399999999,-0.0002189999999999,0,sub_11
-0.0066796000000002,-0.0119481999999987,-0.0035403999999999,-0.0002683999999995,-0.001134799999999,-0.0006463999999999,0,sub_11
-0.0090742000000002,-0.0119725999999987,-0.0033239999999999,0.0005880000000004,-0.001559599999999,-0.0017081999999999,0,sub_11
-0.0099378000000002,-0.0123097999999987,-0.0035017999999998,0.0001652000000004,-0.001552999999999,-0.0036461999999999,0,sub_11
-0.0092774000000002,-0.0125865999999987,-0.0036865999999998,0.0008056000000004,-0.002189999999999,-0.0053623999999999,0,sub_11
-0.0073342000000002,-0.0124533999999988,-0.0031463999999998,0.0016516000000004,-0.003683399999999,-0.0062213999999999,0,sub_11
-0.0043530000000002,-0.0113641999999988,-0.0040585999999998,0.0016462000000004,-0.003898799999999,-0.0062333999999999,0,sub_11
-0.0020048000000002,-0.0116729999999988,-0.0052869999999998,0.0010004000000004,-0.002414399999999,-0.0045429999999999,0,sub_11
-0.0010376000000002,-0.0123495999999988,-0.0053891999999999,0.0005584000000004,-0.002426399999999,-0.0011277999999999,0,sub_11
-0.0009202000000002,-0.0124425999999988,-0.0054015999999999,-0.0009419999999995,-0.000941799999999,0.0018508,0,sub_11
-0.0016282000000002,-0.0121917999999988,-0.0054343999999999,-0.0022183999999995,0.0018248000000009,0.003761,0,sub_11
-0.0035380000000001,-0.0123755999999988,-0.0039749999999999,-0.0024375999999995,0.0022448000000009,0.005468,0,sub_11
-0.0067590000000002,-0.0101047999999988,-0.0038077999999999,-0.0028809999999995,-0.001158599999999,0.006311,0,sub_11
-0.0073912000000002,-0.0055925999999988,-0.0058983999999999,-0.0044001999999995,-0.007961199999999,0.0056552,0,sub_11
-0.0060254000000002,-0.0019763999999988,-0.0072437999999999,-0.0027089999999995,-0.013280799999999,0.004379,0,sub_11
-0.0018144000000002,-0.0097287999999988,-0.0053813999999999,-0.0001385999999995,-0.016246399999999,-0.0003121999999999,0,sub_11
0.0018379999999997,-0.0144015999999988,-0.0035645999999999,0.0041724000000004,-0.011760999999999,-0.0050009999999999,0,sub_11
0.0071455999999997,-0.0205955999999988,-0.0008131999999999,0.0057178000000004,-0.003019999999999,-0.0077787999999999,0,sub_11
0.0046613999999997,-0.0253535999999988,0.0005414,0.0055562000000004,0.0070002000000009,-0.0092881999999999,0,sub_11
-0.0005226000000002,-0.0294211999999987,0.0035028,0.0032458000000004,0.0172236000000008,-0.0084751999999999,0,sub_11
-0.0081280000000002,-0.0218307999999987,0.0030102,0.0017706000000004,0.0265790000000008,-0.0044505999999999,0,sub_11
-0.0167508000000002,-0.0189687999999987,-2.499999999992196e-05,-0.0014441999999995,0.0274234000000008,-0.0017089999999999,0,sub_11
-0.0198280000000002,-0.0110159999999987,-0.0051859999999999,-0.0016775999999995,0.0240084000000008,-0.0019321999999999,0,sub_11
-0.0180998000000002,-0.0086833999999987,-0.0065557999999999,0.0006468000000004,0.0182476000000008,-0.0038437999999999,0,sub_11
-0.0160234000000002,-0.0059641999999987,-0.0077521999999999,0.0021096000000004,0.0086660000000009,-0.0065985999999999,0,sub_11
-0.0123652000000002,-0.0041337999999987,-0.0106541999999999,0.0014206000000004,-0.003894999999999,-0.0082965999999999,0,sub_11
-0.0065408000000002,-0.0013127999999987,-0.0115157999999999,-0.0003361999999995,-0.015604399999999,-0.0089347999999999,0,sub_11
-0.0055828000000002,-0.0043565999999987,-0.0087453999999999,-0.0020879999999995,-0.024339199999999,-0.0089375999999999,0,sub_11
-0.0035164000000002,-0.0062243999999987,-0.0065247999999999,-0.0038157999999995,-0.027110999999999,-0.0083067999999999,0,sub_11
-0.0012708000000002,-0.0099391999999987,-0.0062189999999999,-0.0046803999999995,-0.027330799999999,-0.0072459999999999,0,sub_11
7.379999999977787e-05,-0.0126947999999987,-0.0040281999999999,-0.0046761999999995,-0.024144799999999,-0.0061833999999999,0,sub_11
0.0012447999999997,-0.0154711999999987,-0.0012603999999999,-0.0031583999999995,-0.016277599999999,-0.0049025999999999,0,sub_11
0.0018575999999997,-0.0172535999999988,6.280000000009845e-05,-0.0009939999999995,-0.007345399999999,-0.0027623999999999,0,sub_11
0.0021387999999997,-0.0171859999999988,-0.0006407999999999,-0.0001145999999995,0.0009504000000009,-0.0002029999999999,0,sub_11
0.0025319999999997,-0.0160145999999988,-0.0012409999999999,0.0007686000000004,0.0092496000000009,0.0015016,0,sub_11
