userAcceleration.x,userAcceleration.y,userAcceleration.z,rotationRate.x,rotationRate.y,rotationRate.z,label,subject
-0.0098548000000001,0.0028160000000012,-0.0123663999999999,-6.159999999959164e-05,0.0030724000000008,-9.319999999988996e-05,0,sub_17
-0.0095950000000001,0.0028376000000012,-0.0122015999999999,-0.0002779999999995,0.0024340000000008,-9.399999999988998e-05,0,sub_17
-0.0093192000000001,0.0036032000000012,-0.0124939999999999,-6.839999999959164e-05,0.0017934000000008,0.0001220000000001,0,sub_17
-0.0093784000000001,0.0045200000000012,-0.0125563999999999,-0.0002865999999995,0.0011532000000008,0.0005486000000001,0,sub_17
-0.0090498000000001,0.0051932000000012,-0.0130633999999998,-0.0005065999999995,0.0002992000000008,0.0011892,0,sub_17
-0.0094156000000001,0.0048960000000012,-0.0136963999999998,-0.0005101999999995,0.0002986000000008,0.0016108,0,sub_17
-0.0096016000000001,0.0045620000000012,-0.0137703999999998,-8.859999999959161e-05,-0.0001295999999991,0.002036,0,sub_17
-0.0096168000000001,0.0038958000000012,-0.0133251999999998,-9.399999999959164e-05,-0.0007685999999991,0.0022448,0,sub_17
-0.0091402000000001,0.0026482000000012,-0.0138129999999998,0.0001160000000004,-0.0011941999999991,0.0022412,0,sub_17
-0.0092640000000001,0.0014624000000012,-0.0139375999999998,0.0005422000000004,-0.001617999999999,0.0015980000000001,0,sub_17
-0.0094486000000001,0.0017082000000012,-0.0140869999999998,0.0005442000000004,-0.001828399999999,0.0009574000000001,0,sub_17
-0.0096560000000001,0.0018632000000012,-0.0145833999999998,0.0003336000000004,-0.001612799999999,0.0005282000000001,0,sub_17
-0.0101042000000001,0.0021880000000012,-0.0147357999999998,0.0001260000000004,-0.000545799999999,0.0003116000000001,0,sub_17
-0.0099416000000001,0.0024624000000012,-0.0147241999999998,-8.319999999959162e-05,0.0003062000000008,9.080000000011006e-05,0,sub_17
-0.0101154000000001,0.0029852000000012,-0.0141215999999998,-0.0002951999999995,0.0009434000000008,0.0002976,0,sub_17
-0.0095670000000001,0.0026346000000012,-0.0144539999999998,-0.0002957999999995,0.0011538000000008,0.0005064,0,sub_17
-0.0089940000000001,0.0025382000000012,-0.0141203999999998,-0.0005125999999995,0.0007258000000008,0.0007146,0,sub_17
-0.0088634000000001,0.0028706000000012,-0.0140457999999998,-0.0007255999999995,0.0013622000000008,0.001135,0,sub_17
-0.0089906000000001,0.0034310000000012,-0.0141953999999998,-0.0015799999999995,0.0022132000000008,0.0021962,0,sub_17
-0.0082160000000001,0.0048260000000012,-0.0142575999999998,-0.0022181999999995,0.0028538000000008,0.0024046,0,sub_17
-0.0084440000000001,0.0068002000000012,-0.0131557999999998,-0.0022113999999995,0.0041330000000008,0.0021892,0,sub_17
-0.0083270000000001,0.0087440000000012,-0.0127355999999999,-0.0015689999999995,0.0039188000000008,0.0011238,0,sub_17
-0.0071648000000001,0.0093794000000012,-0.0123201999999999,-7.799999999959177e-05,0.0017876000000008,-0.0007877999999999,0,sub_17
-0.0070772000000001,0.0081540000000012,-0.0113201999999999,0.0035468000000004,-0.0007755999999991,-0.0031111999999999,0,sub_17
-0.0085466000000001,0.0034384000000012,-0.0113117999999998,0.0073764000000004,-0.003983799999999,-0.0041505999999999,0,sub_17
-0.0096704000000001,-0.0029697999999987,-0.0121247999999998,0.0099160000000004,-0.008469199999999,-0.0043425999999998,0,sub_17
-0.0121076000000001,-0.0092949999999987,-0.0135309999999998,0.0096882000000003,-0.0103909999999991,-0.0030599999999998,0,sub_17
-0.0154062000000001,-0.0124403999999987,-0.0155307999999998,0.0056314000000003,-0.0080451999999991,-0.0001001999999998,0,sub_17
-0.0168628000000001,-0.0100717999999987,-0.0173509999999998,-0.0024709999999996,-0.0024943999999991,0.0041090000000001,0,sub_17
-0.0165374000000001,-0.0022653999999987,-0.0184455999999999,-0.0116169999999996,0.0071054000000008,0.0072358000000001,0,sub_17
-0.0149974000000001,0.0088050000000012,-0.0182417999999999,-0.0181955999999996,0.0167020000000008,0.008885,0,sub_17
-0.0108238000000001,0.0194042000000012,-0.0168809999999999,-0.0194505999999995,0.0216022000000008,0.0082274000000001,0,sub_17
-0.0067232000000001,0.0242922000000012,-0.0144103999999999,-0.0130423999999995,0.0192446000000008,0.0044278000000001,0,sub_17
-0.0037898000000001,0.0239432000000011,-0.0121857999999999,-0.0008913999999995,0.0102724000000008,-0.0018869999999998,0,sub_17
-0.0032930000000001,0.0139896000000011,-0.0102433999999998,0.0125146000000004,-0.0038121999999991,-0.0077573999999998,0,sub_17
-0.0053194000000001,-0.0002153999999987,-0.0099849999999998,0.0218646000000003,-0.0161865999999991,-0.0115217999999998,0,sub_17
-0.0091348000000001,-0.0124035999999988,-0.0111377999999998,0.0237676000000003,-0.0202499999999991,-0.0115053999999999,0,sub_17
-0.0120454000000001,-0.0178101999999987,-0.0126887999999998,0.0162984000000003,-0.0164147999999991,-0.0072917999999999,0,sub_17
-0.0145022000000001,-0.0169799999999987,-0.0139245999999998,0.0028760000000003,-0.0051129999999991,-0.0003517999999999,0,sub_17
-0.0147460000000001,-0.0070483999999987,-0.0153569999999999,-0.0109673999999996,0.0078930000000008,0.0070104,0,sub_17
-0.0116298000000001,0.0070280000000012,-0.0157641999999999,-0.0201203999999995,0.0174840000000008,0.0118458,0,sub_17
-0.0083060000000001,0.0173342000000012,-0.0151327999999999,-0.0205403999999996,0.0191890000000008,0.0120542,0,sub_17
-0.0069062000000001,0.0212178000000012,-0.0144999999999998,-0.0122255999999996,0.0134246000000008,0.0078468,0,sub_17
-0.0064464000000001,0.0179352000000012,-0.0140823999999998,0.0005538000000003,0.0016884000000009,0.001328,0,sub_17
-0.0073786000000001,0.0093608000000012,-0.0142115999999998,0.0118448000000003,-0.009195199999999,-0.0052051999999998,0,sub_17
-0.0101884000000001,-0.0006435999999987,-0.0141285999999998,0.0175994000000003,-0.0145319999999991,-0.0087929999999998,0,sub_17
-0.0131712000000001,-0.0079689999999987,-0.0141853999999998,0.0163254000000004,-0.0130427999999991,-0.0083793999999998,0,sub_17
-0.0139854000000001,-0.0086219999999987,-0.0140113999999998,0.0090846000000004,-0.006645399999999,-0.0048089999999999,0,sub_17
-0.0131518000000001,-0.0055743999999987,-0.0141415999999998,-0.0005013999999995,0.0014596000000008,2.4600000000090173e-05,0,sub_17
-0.0109536000000001,0.0008446000000012,-0.0137859999999998,-0.0075349999999995,0.0074326000000008,0.0042408,0,sub_17
-0.0086730000000001,0.0067228000000012,-0.0138205999999999,-0.0103115999999995,0.0089250000000008,0.0063558,0,sub_17
-0.0068888000000001,0.0113042000000012,-0.0135321999999998,-0.0088275999999996,0.0063648000000008,0.0059422,0,sub_17
-0.0065134000000001,0.0101832000000012,-0.0136781999999998,-0.0043561999999996,0.0014518000000008,0.00384,0,sub_17
-0.0070070000000001,0.0069078000000012,-0.0134777999999998,0.0009754000000003,-0.002821599999999,0.0008886,0,sub_17
-0.0081270000000001,0.0026502000000012,-0.0135933999999998,0.0043914000000003,-0.005598799999999,-0.0016509999999999,0,sub_17
-0.0094850000000001,-0.0005579999999987,-0.0135257999999998,0.0056784000000003,-0.006242199999999,-0.0031397999999999,0,sub_17
-0.0100422000000001,-0.0020543999999987,-0.0137395999999998,0.0048336000000004,-0.005178799999999,-0.0033637999999999,0,sub_17
-0.0100142000000001,-0.0009617999999987,-0.0138929999999998,0.0022828000000004,-0.002402799999999,-0.0027441999999999,0,sub_17
-0.0100708000000001,0.0017982000000012,-0.0144201999999998,-0.0004843999999995,0.0001592000000008,-0.0016985999999999,0,sub_17
-0.0100278000000001,0.0046348000000012,-0.0142087999999998,-0.0024009999999995,0.0022914000000008,-0.0004327999999999,0,sub_17
-0.0093152000000001,0.0070952000000012,-0.0143927999999998,-0.0030381999999995,0.0029268000000008,-1.3199999999929804e-05,0,sub_17
-0.0091404000000001,0.0074974000000012,-0.0141861999999999,-0.0023959999999995,0.0027080000000008,-0.0002245999999999,0,sub_17
-0.0088658000000001,0.0067704000000012,-0.0139639999999998,-0.0006917999999995,0.0009958000000008,-0.0008537999999999,0,sub_17
-0.0091430000000001,0.0050410000000012,-0.0138125999999998,0.0010104000000004,-0.0007179999999991,-0.0010557999999998,0,sub_17
-0.0089520000000001,0.0033020000000012,-0.0140553999999998,0.0018630000000004,-0.0020011999999991,-0.0016913999999998,0,sub_17
-0.0092724000000001,0.0014186000000012,-0.0139543999999998,0.0018620000000004,-0.0020019999999991,-0.0014777999999999,0,sub_17
-0.0090548000000001,0.0012820000000012,-0.0140173999999998,0.0012198000000004,-0.0015769999999991,-0.0006281999999999,0,sub_17
-0.0094498000000001,0.0011916000000012,-0.0142751999999998,0.0003662000000004,-0.0009373999999991,5.800000000090265e-06,0,sub_17
-0.0090500000000001,0.0021894000000012,-0.0145291999999998,-0.0006967999999995,0.0001306000000008,0.0002106,0,sub_17
-0.0092254000000001,0.0029174000000012,-0.0146993999999998,-0.0011257999999995,0.0009780000000008,0.0006372,0,sub_17
-0.0095056000000001,0.0038028000000012,-0.0148745999999998,-0.0009115999999995,0.0016134000000008,0.0002142,0,sub_17
-0.0101558000000001,0.0031122000000012,-0.0150151999999998,-0.0006907999999995,0.0026792000000008,-0.0012775999999999,0,sub_17
-0.0105350000000001,0.0032062000000012,-0.0151419999999998,-0.0004815999999996,0.0020372000000008,-0.0019125999999999,0,sub_17
-0.0108786000000001,0.0030626000000012,-0.0149959999999998,-0.0002751999999996,0.0009682000000008,-0.0023335999999998,0,sub_17
-0.0106878000000001,0.0035926000000011,-0.0149261999999998,-6.35999999996099e-05,0.0007534000000008,-0.0021181999999998,0,sub_17
-0.0105692000000001,0.0041220000000011,-0.0151115999999998,-0.0004913999999996,0.0009662000000008,-0.0016941999999999,0,sub_17
-0.0098392000000001,0.0069982000000011,-0.0150221999999998,-0.0011345999999996,0.0007464000000008,-0.0012715999999999,0,sub_17
-0.0081592000000001,0.0090352000000011,-0.0141341999999998,-0.0015459999999995,0.0030886000000008,-0.0023461999999998,0,sub_17
-0.0069912000000001,0.0098986000000011,-0.0132041999999999,-4.199999999958993e-05,0.0037222000000008,-0.0040459999999998,0,sub_17
-0.0052290000000001,0.0076666000000012,-0.0114215999999999,0.0031554000000004,0.0013672000000008,-0.0057301999999998,0,sub_17
-0.0050496000000001,-0.0004973999999987,-0.0086439999999999,0.0080504000000004,-0.0029121999999991,-0.0071863999999998,0,sub_17
-0.0056144000000001,-0.0117419999999987,-0.0066763999999999,0.0123102000000004,-0.0056925999999991,-0.0082211999999998,0,sub_17
-0.0077312000000001,-0.0226647999999987,-0.0057411999999999,0.0135826000000004,-0.0076137999999991,-0.0084233999999999,0,sub_17
-0.0110928000000001,-0.0270093999999987,-0.0067209999999999,0.0101782000000004,-0.0044101999999991,-0.0073829999999999,0,sub_17
-0.0152050000000001,-0.0264431999999987,-0.0093299999999999,0.0021080000000004,0.0056202000000008,-0.0057435999999999,0,sub_17
-0.0173604000000001,-0.0174543999999987,-0.0130917999999999,-0.0095751999999995,0.0201322000000008,-0.0028533999999999,0,sub_17
-0.0180004000000001,0.0009232000000012,-0.0170037999999999,-0.0206297999999995,0.0327222000000008,0.0006846,0,sub_17
-0.0172916000000001,0.0202154000000012,-0.0209967999999999,-0.0270149999999995,0.0397562000000008,0.0042624,0,sub_17
-0.0146086000000001,0.0342438000000012,-0.0240667999999999,-0.0266155999999995,0.0369668000000008,0.0076864,0,sub_17
-0.0112368000000001,0.0416440000000011,-0.0243483999999998,-0.0200555999999995,0.0267094000000008,0.0096682,0,sub_17
-0.0083244000000001,0.0440186000000011,-0.0243985999999998,-0.0086083999999995,0.0092022000000008,0.008916,0,sub_17
-0.0064078000000001,0.0366944000000011,-0.0231291999999998,0.0049660000000004,-0.0115015999999991,0.0064736,0,sub_17
-0.0057820000000001,0.0255216000000012,-0.0196917999999998,0.0176998000000004,-0.0298569999999991,0.0033848,0,sub_17
-0.0058840000000001,0.0117292000000012,-0.0147923999999998,0.0266236000000004,-0.0418059999999991,-0.0001659999999999,0,sub_17
-0.0074128000000001,-0.0011341999999987,-0.0111573999999999,0.0319372000000004,-0.0492705999999991,-0.0031069999999999,0,sub_17
-0.0082292000000001,-0.0146591999999987,-0.0072019999999998,0.0329940000000004,-0.0520423999999991,-0.0037335999999999,0,sub_17
-0.0083792000000001,-0.0277031999999987,-0.0045723999999998,0.0302196000000003,-0.0505481999999991,-0.0022559999999999,0,sub_17
-0.0090220000000001,-0.0371403999999987,-0.0044515999999998,0.0227736000000003,-0.0430755999999991,0.000246,0,sub_17
-0.0106320000000001,-0.0417055999999987,-0.0053561999999998,0.0123624000000003,-0.0309043999999991,0.0025078,0,sub_17
-0.0120002000000001,-0.0407361999999987,-0.0074539999999998,4.820000000039098e-05,-0.0140427999999991,0.0056048,0,sub_17
-0.0142534000000001,-0.0295821999999987,-0.0109031999999998,-0.0133055999999996,0.0081522000000008,0.0078382,0,sub_17
-0.0164674000000001,-0.0132089999999987,-0.0147551999999998,-0.0264315999999995,0.0324812000000008,0.0090022,0,sub_17
-0.0165348000000001,0.0051772000000012,-0.0183013999999998,-0.0351017999999995,0.0506188000000008,0.0095644,0,sub_17
-0.0132700000000001,0.0238862000000012,-0.0213813999999998,-0.0371957999999995,0.0595744000000008,0.0095432,0,sub_17
-0.0092814000000001,0.0384974000000012,-0.0231879999999998,-0.0325107999999995,0.0555186000000008,0.0074498,0,sub_17
-0.0051322000000001,0.0451952000000012,-0.0233741999999998,-0.0210413999999995,0.0401530000000008,0.0039176,0,sub_17
-0.0026270000000001,0.0428616000000012,-0.0217199999999999,-0.0051189999999995,0.0173200000000008,-0.0008555999999999,0,sub_17
-0.0008070000000001,0.0353294000000012,-0.0183855999999999,0.0112224000000004,-0.0076433999999991,-0.0060505999999999,0,sub_17
-0.0013208000000001,0.0215692000000012,-0.0141397999999999,0.0245870000000004,-0.0291951999999991,-0.0099815999999998,0,sub_17
-0.0028094000000001,0.0060488000000012,-0.0101641999999999,0.0328536000000004,-0.0432817999999991,-0.0116077999999998,0,sub_17
-0.0045582000000001,-0.0121577999999987,-0.0063157999999999,0.0351670000000003,-0.0499015999999991,-0.0105075999999998,0,sub_17
-0.0062816000000001,-0.0264319999999987,-0.0034423999999998,0.0319498000000003,-0.0496961999999991,-0.0064637999999998,0,sub_17
-0.0092074000000001,-0.0367809999999987,-0.0033085999999998,0.0240672000000003,-0.0418095999999991,-0.0011803999999998,0,sub_17
-0.0125482000000001,-0.0404059999999987,-0.0053261999999998,0.0125796000000003,-0.0287943999999991,0.0040638,0,sub_17
-0.0158238000000001,-0.0348411999999987,-0.0085597999999998,-0.0012281999999996,-0.0110785999999991,0.008004,0,sub_17
-0.0181896000000001,-0.0220029999999987,-0.0132645999999998,-0.0156561999999995,0.0098402000000008,0.0106538,0,sub_17
-0.0186070000000001,-0.0052049999999987,-0.0184755999999998,-0.0270937999999995,0.0296902000000008,0.0116166,0,sub_17
-0.0173962000000001,0.0135724000000012,-0.0224271999999998,-0.0334343999999995,0.0437612000000008,0.0115688,0,sub_17
-0.0148006000000001,0.0299772000000012,-0.0248183999999998,-0.0331911999999995,0.0490818000000008,0.0096554,0,sub_17
-0.0113024000000001,0.0398354000000012,-0.0255395999999998,-0.0263745999999995,0.0439446000000008,0.0065194,0,sub_17
-0.0080532000000001,0.0444888000000012,-0.0243867999999998,-0.0134113999999995,0.0281392000000008,0.0019446,0,sub_17
-0.0050132000000001,0.0393116000000012,-0.0204035999999998,0.0018796000000004,0.0070034000000008,-0.0036753999999999,0,sub_17
-0.0030660000000001,0.0261510000000012,-0.0153705999999998,0.0169562000000004,-0.0141221999999991,-0.0084569999999999,0,sub_17
-0.0024296000000001,0.0078594000000012,-0.0106057999999998,0.0277758000000004,-0.0305551999999991,-0.0109239999999999,0,sub_17
-0.0027300000000001,-0.0117785999999987,-0.0060475999999998,0.0322230000000004,-0.0386641999999991,-0.0115233999999999,0,sub_17
-0.0049198000000001,-0.0289799999999987,-0.0029011999999998,0.0292356000000003,-0.036327199999999,-0.0089827999999999,0,sub_17
-0.0079298000000001,-0.0362423999999987,-0.0028861999999999,0.0198622000000003,-0.028012399999999,-0.0039305999999999,0,sub_17
-0.0099020000000001,-0.0335411999999987,-0.0044483999999999,0.0062386000000003,-0.014998999999999,0.0019404,0,sub_17
-0.0116738000000001,-0.0232859999999987,-0.0072117999999999,-0.0077943999999996,0.0016386000000008,0.0075902,0,sub_17
-0.0131744000000001,-0.0076175999999987,-0.0116197999999999,-0.0188449999999996,0.0161394000000008,0.0121954,0,sub_17
-0.0117968000000001,0.0084986000000012,-0.0160139999999999,-0.0245849999999995,0.0229688000000008,0.014283,0,sub_17
-0.0102382000000001,0.0218720000000012,-0.0195577999999999,-0.0235113999999995,0.0238198000000008,0.0136484,0,sub_17
-0.0102324000000001,0.0286836000000012,-0.0216079999999999,-0.0166989999999995,0.0193614000000008,0.01049,0,sub_17
-0.0096334000000001,0.0312282000000012,-0.0223413999999999,-0.0064907999999995,0.0087210000000008,0.0052268,0,sub_17
-0.0086094000000001,0.0248444000000012,-0.0210253999999998,0.0045582000000004,-0.005116399999999,-0.0004537999999999,0,sub_17
-0.0085450000000001,0.0156608000000012,-0.0185001999999998,0.0143336000000004,-0.017033599999999,-0.0057183999999999,0,sub_17
-0.0098204000000001,0.0019726000000012,-0.0149105999999998,0.0204962000000004,-0.023620399999999,-0.0088785999999998,0,sub_17
-0.0105894000000001,-0.0112357999999987,-0.0116307999999998,0.0209248000000004,-0.024044599999999,-0.0097295999999999,0,sub_17
-0.0119614000000001,-0.0226719999999987,-0.0085175999999998,0.0162468000000004,-0.018920799999999,-0.0082733999999999,0,sub_17
-0.0126900000000001,-0.0234843999999987,-0.0082941999999998,0.0081626000000004,-0.0103831999999991,-0.0051361999999999,0,sub_17
-0.0134358000000001,-0.0196893999999987,-0.0086033999999998,-0.0016231999999995,0.0011394000000008,-0.0007371999999999,0,sub_17
-0.0129770000000001,-0.0103851999999987,-0.0105121999999998,-0.0109793999999995,0.0130874000000008,0.0034506,0,sub_17
-0.0115800000000001,0.0023904000000012,-0.0133693999999998,-0.0175741999999995,0.0211950000000008,0.0065944,0,sub_17
-0.0096176000000001,0.0150026000000012,-0.0167625999999999,-0.0190653999999995,0.0235400000000008,0.0078586,0,sub_17
-0.0085082000000001,0.0221798000000012,-0.0180747999999999,-0.0165149999999995,0.0214036000000008,0.0074476,0,sub_17
-0.0074384000000001,0.0241668000000012,-0.0187221999999999,-0.0101367999999995,0.0141458000000008,0.005365,0,sub_17
-0.0063280000000001,0.0221954000000012,-0.0180087999999999,-0.0022775999999995,0.0030522000000008,0.0022294,0,sub_17
-0.0062592000000001,0.0149982000000012,-0.0156619999999999,0.0057940000000004,-0.0082551999999991,-0.0009043999999999,0,sub_17
-0.0071004000000001,0.0046956000000012,-0.0127197999999999,0.0113152000000003,-0.0161381999999991,-0.0030037999999999,0,sub_17
-0.0079016000000001,-0.0050711999999987,-0.0105481999999999,0.0140780000000003,-0.0197537999999991,-0.0042731999999999,0,sub_17
-0.0087270000000001,-0.0127385999999987,-0.0085621999999999,0.0127982000000003,-0.0188885999999991,-0.0036537999999999,0,sub_17
-0.0102714000000001,-0.0158763999999987,-0.0087115999999999,0.0085474000000003,-0.0135423999999991,-0.0022061999999999,0,sub_17
-0.0113156000000001,-0.0138687999999987,-0.0100931999999999,0.0028108000000003,-0.0060619999999991,-0.0003445999999999,0,sub_17
-0.0110394000000001,-0.0077071999999987,-0.0123037999999999,-0.0033501999999995,0.0016228000000008,0.0013118,0,sub_17
-0.0112832000000001,-2.1799999998781826e-05,-0.0145347999999998,-0.0080135999999995,0.0093056000000008,0.0021238,0,sub_17
-0.0118458000000001,0.0076398000000012,-0.0170217999999998,-0.0099109999999995,0.0144256000000008,0.002104,0,sub_17
-0.0116718000000001,0.0127100000000012,-0.0180899999999998,-0.0090603999999995,0.0150778000000008,0.0010382,0,sub_17
-0.0112678000000001,0.0147152000000012,-0.0186131999999998,-0.0063011999999995,0.0127422000000008,-0.0004375999999999,0,sub_17
-0.0117894000000001,0.0134008000000012,-0.0178625999999998,-0.0020511999999996,0.0093378000000008,-0.0023291999999999,0,sub_17
-0.0111534000000001,0.0109090000000012,-0.0163441999999998,0.0013346000000003,0.0046540000000008,-0.0031567999999999,0,sub_17
-0.0105912000000001,0.0077758000000012,-0.0148285999999998,0.0038700000000003,0.0008244000000009,-0.0037777999999999,0,sub_17
-0.0097878000000001,0.0047390000000012,-0.0132129999999999,0.0047110000000003,-0.001099399999999,-0.0029149999999999,0,sub_17
-0.0092904000000001,0.0026256000000012,-0.0115567999999999,0.0042756000000003,-0.001954399999999,-0.0018487999999999,0,sub_17
-0.0086434000000001,0.0013946000000012,-0.0111159999999999,0.0029850000000004,-0.002171399999999,0.000279,0,sub_17
-0.0091784000000001,0.0003216000000012,-0.0109005999999999,0.0017010000000004,-0.002385799999999,0.0021794,0,sub_17
-0.0093064000000001,0.0001890000000012,-0.0106691999999998,-6.999999999550508e-06,-0.0025961999999991,0.0034358,0,sub_17
-0.0092366000000001,0.0009256000000012,-0.0116591999999998,-0.0014967999999995,-0.002590799999999,0.003839,0,sub_17
-0.0093978000000001,0.0016176000000012,-0.0130707999999998,-0.0023415999999995,-0.001522399999999,0.0042452,0,sub_17
-0.0100674000000001,0.0031220000000012,-0.0133563999999998,-0.0025425999999995,-0.000877399999999,0.0033746,0,sub_17
-0.0099906000000001,0.0041676000000012,-0.0140955999999998,-0.0016833999999995,-0.000875399999999,0.0020986,0,sub_17
-0.0098062000000001,0.0045284000000012,-0.0149229999999999,-0.0006117999999995,-0.001299399999999,0.0006112,0,sub_17
-0.0103222000000001,0.0050350000000012,-0.0147481999999999,0.0004608000000004,-0.0012981999999991,-0.0006631999999999,0,sub_17
-0.0107222000000001,0.0051232000000012,-0.0147657999999999,0.0013166000000003,-0.0006455999999991,-0.0017297999999999,0,sub_17
-0.0104136000000001,0.0047138000000012,-0.0151103999999999,0.0010998000000003,-0.0002063999999991,-0.0017355999999999,0,sub_17
-0.0103642000000001,0.0047768000000012,-0.0147113999999999,0.0002468000000003,0.0012994000000008,-0.0015333999999999,0,sub_17
-0.0101484000000001,0.0050278000000012,-0.0142911999999998,-0.0006081999999996,0.0025912000000008,-0.0011173999999998,0,sub_17
-0.0096420000000001,0.0050362000000012,-0.0135321999999998,-0.0008297999999996,0.0026018000000008,-0.0004817999999998,0,sub_17
-0.0086202000000001,0.0051140000000012,-0.0131451999999998,-0.0010507999999995,0.0011104000000008,-0.0002677999999998,0,sub_17
-0.0087056000000001,0.0047122000000012,-0.0127167999999998,-0.0006297999999995,-0.0003815999999991,-0.0004765999999998,0,sub_17
-0.0084836000000001,0.0039184000000011,-0.0126361999999998,4.600000000409355e-06,-0.0020865999999991,-0.0008971999999998,0,sub_17
-0.0087544000000001,0.0029636000000011,-0.0128697999999998,0.0008514000000004,-0.0035807999999991,-0.0008893999999999,0,sub_17
-0.0097214000000001,0.0023326000000011,-0.0134053999999998,0.0012784000000004,-0.0037901999999991,-0.0011055999999999,0,sub_17
-0.0107136000000001,0.0022872000000011,-0.0138903999999998,0.0012788000000004,-0.0035737999999991,-0.0008981999999999,0,sub_17
-0.0110230000000001,0.0026296000000011,-0.0141047999999998,0.0010658000000004,-0.0031443999999991,-0.0004785999999999,0,sub_17
-0.0113172000000001,0.0033806000000011,-0.0148389999999999,0.0004288000000004,-0.0022863999999991,-0.0002763999999999,0,sub_17
-0.0118692000000001,0.0044236000000012,-0.0146113999999999,-0.0004203999999995,-0.0012147999999991,-7.579999999991051e-05,0,sub_17
-0.0121292000000001,0.0053556000000012,-0.0149135999999999,-0.0010585999999995,-0.0009985999999991,-0.0002939999999999,0,sub_17
-0.0124028000000001,0.0055356000000012,-0.0146369999999999,-0.0010575999999995,-0.0009975999999991,-0.0005075999999999,0,sub_17
-0.0123754000000001,0.0062710000000012,-0.0149257999999999,-0.0008445999999995,-0.0018521999999991,-0.0007217999999999,0,sub_17
-0.0119776000000001,0.0063884000000012,-0.0148749999999999,-0.0006315999999995,-0.0029189999999991,-0.0011491999999999,0,sub_17
-0.0108540000000001,0.0057794000000012,-0.0150515999999999,-0.0001995999999995,-0.0033447999999991,-0.0022169999999999,0,sub_17
-0.0093536000000001,0.0050834000000012,-0.0144399999999999,0.0004488000000004,-0.0027077999999991,-0.0028573999999999,0,sub_17
-0.0083762000000001,0.0040606000000012,-0.0139773999999999,0.0008836000000004,-0.0020701999999991,-0.0034989999999999,0,sub_17
-0.0079624000000001,0.0024176000000012,-0.0129711999999999,0.0011026000000004,-0.0007925999999991,-0.0034989999999999,0,sub_17
-0.0075296000000001,0.0015636000000012,-0.0117411999999999,0.0002500000000004,6.000000000088424e-05,-0.0028651999999999,0,sub_17
-0.0072386000000001,0.0010538000000012,-0.0114217999999999,-0.0008139999999995,0.0015518000000008,-0.0020199999999999,0,sub_17
-0.0077956000000001,1.200000000125788e-05,-0.0107261999999999,-0.0016719999999995,0.0021838000000008,-0.0005323999999999,0,sub_17
-0.0082328000000001,3.860000000125789e-05,-0.0107297999999999,-0.0023175999999995,0.0021778000000008,0.0005302,0,sub_17
-0.0084994000000001,0.0007156000000012,-0.0111089999999999,-0.0029583999999995,0.0021760000000008,0.0005246,0,sub_17
-0.0092474000000001,0.0019838000000012,-0.0124639999999999,-0.0016757999999995,0.0021700000000008,-0.0001083999999999,0,sub_17
