userAcceleration.x,userAcceleration.y,userAcceleration.z,rotationRate.x,rotationRate.y,rotationRate.z,label,subject
0.0152685999999998,-0.0007313999999987,0.020931,0.0038680000000003,-0.007344599999999,-0.0109277999999998,0,sub_13
0.0161061999999998,-0.0033713999999986,0.0243164,0.0086158000000003,0.0020234000000008,-0.0134701999999998,0,sub_13
0.0156409999999998,-0.0041903999999986,0.025727,0.0114514000000003,0.0143790000000008,-0.0155943999999998,0,sub_13
0.0148477999999998,-0.0035651999999987,0.0233292,0.0123462000000003,0.0260868000000008,-0.0138855999999998,0,sub_13
0.0144955999999998,0.0003750000000012,0.0176996,0.0125656000000003,0.0337336000000008,-0.0083307999999998,0,sub_13
0.0129533999999998,0.0039682000000012,0.0107712,0.0089088000000003,0.0335108000000008,-0.0027927999999998,0,sub_13
0.0107933999999998,0.0059590000000012,0.0048578,0.0028722000000003,0.0252036000000008,0.0018842000000001,0,sub_13
0.0090177999999998,0.0068316000000012,0.0015318,-0.0019063999999996,0.0107154000000008,0.0061424000000001,0,sub_13
0.0085687999999998,0.0074754000000012,0.0007156,-0.0036881999999996,-0.0041991999999991,0.0078582000000001,0,sub_13
0.0079895999999998,0.0061944000000012,0.0035266,-0.0048137999999996,-0.0161093999999991,0.0057454000000001,0,sub_13
0.0083145999999998,0.0039902000000012,0.0077976,-0.0048465999999996,-0.0229075999999991,0.0029926000000001,0,sub_13
0.0095771999999998,0.0015722000000013,0.013196,-0.0022959999999996,-0.024813599999999,3.800000000015839e-05,0,sub_13
0.0114677999999998,-0.0012349999999986,0.0183088,0.0007034000000003,-0.021396599999999,-0.0024929999999998,0,sub_13
0.0124905999999998,-0.0017783999999986,0.0224686,0.0030742000000003,-0.014147399999999,-0.0037513999999998,0,sub_13
0.0143253999999998,-0.0001409999999987,0.0237882,0.0043928000000003,-0.005205399999999,-0.0033263999999998,0,sub_13
0.0151085999999998,0.0031202000000013,0.0231514,0.0057026000000003,0.0020314000000009,-0.0026855999999998,0,sub_13
0.0165585999999998,0.0063900000000012,0.0212682,0.0048712000000003,0.0069346000000008,-0.0026975999999998,0,sub_13
0.0170151999999998,0.0090126000000012,0.018264,0.0033880000000003,0.0094956000000008,-0.0024975999999998,0,sub_13
0.0170347999999998,0.0104514000000012,0.0144916,0.0023164000000003,0.0092980000000008,-0.0029247999999998,0,sub_13
0.0166045999999998,0.0098000000000012,0.0125576,-4.619999999964063e-05,0.0061246000000008,-0.0039981999999998,0,sub_13
0.0159947999999998,0.0063940000000012,0.0122618,-0.0030525999999996,0.0023136000000008,-0.0048615999999998,0,sub_13
0.0139333999999998,0.0029820000000012,0.0126348,-0.0041337999999996,0.0006220000000008,-0.0046461999999998,0,sub_13
0.0118449999999998,0.0011858000000012,0.0138016,-0.0032869999999996,0.0008404000000008,-0.0042059999999998,0,sub_13
0.0113359999999998,0.0001778000000012,0.0147378,-0.0017915999999996,0.0016856000000008,-0.0037693999999998,0,sub_13
0.0106569999999998,-0.0003157999999987,0.0146216,0.0011976000000003,0.0023136000000008,-0.0035355999999998,0,sub_13
0.0104757999999998,0.0007494000000012,0.0128854,0.0050336000000003,0.0020836000000008,-0.0026537999999998,0,sub_13
0.0104637999999998,0.0020654000000012,0.0102216,0.0071558000000003,0.0012172000000008,-0.0009285999999998,0,sub_13
0.0101787999999998,0.0025116000000012,0.0083976,0.0069108000000003,-0.0011253999999991,0.0007916000000001,0,sub_13
0.0085219999999998,0.0018616000000012,0.0072362,0.0047408000000003,-0.0034655999999991,0.0035666000000001,0,sub_13
0.0076917999999998,0.0031400000000012,0.0068364,0.0030022000000003,-0.0053787999999991,0.0057030000000001,0,sub_13
0.0082531999999998,0.0034400000000012,0.0083978,0.0006368000000003,-0.0068531999999991,0.0052708000000001,0,sub_13
0.0092079999999998,0.0033322000000012,0.0111702,-0.0019379999999996,-0.008535799999999,0.0037692000000001,0,sub_13
0.0108447999999998,0.0040020000000012,0.0140554,-0.0036477999999996,-0.010017799999999,0.0029046000000001,0,sub_13
0.0145135999999998,0.0055826000000012,0.0168508,-0.0051603999999996,-0.010219199999999,0.0014204000000001,0,sub_13
0.0174035999999998,0.0055782000000012,0.0201122,-0.0068815999999996,-0.009142399999999,0.0001468000000001,0,sub_13
0.0183523999999998,0.0065636000000012,0.0220792,-0.0073243999999996,-0.007647399999999,-0.0002639999999998,0,sub_13
0.0189123999999998,0.0074030000000012,0.0232234,-0.0058459999999996,-0.0065825999999991,-0.0013017999999998,0,sub_13
0.0192633999999998,0.0065610000000012,0.0235542,-0.0030775999999996,-0.0046649999999991,-0.0036133999999998,0,sub_13
0.0176963999999998,0.0036906000000012,0.0234406,0.0010006000000003,-0.0023235999999991,-0.0065789999999998,0,sub_13
0.0157931999999998,0.0008756000000012,0.021515,0.0055074000000003,0.0008668000000008,-0.0091153999999998,0,sub_13
0.0136593999999998,-0.0015125999999987,0.0184606,0.0102276000000003,0.0051174000000008,-0.0105833999999998,0,sub_13
0.0106713999999998,-0.0030469999999987,0.0151724,0.0138800000000003,0.0102198000000008,-0.0109915999999998,0,sub_13
0.0073409999999998,-0.0032055999999987,0.0113256,0.0149368000000003,0.0136114000000008,-0.0099059999999998,0,sub_13
0.0061267999999998,-0.0006857999999987,0.0074264,0.0142684000000003,0.0148708000000008,-0.0069069999999998,0,sub_13
0.0061031999999998,0.0021156000000012,0.00479,0.0127370000000003,0.0140026000000008,-0.0039111999999998,0,sub_13
0.0066151999999998,0.0049380000000012,0.0041296,0.0086326000000003,0.0099494000000008,-0.0013565999999998,0,sub_13
0.0083027999999998,0.0079498000000012,0.0044592,0.0034490000000003,0.0033422000000009,0.0014074000000001,0,sub_13
0.0098661999999997,0.0096098000000012,0.0064842,-0.0002137999999996,-0.002830399999999,0.0030988000000001,0,sub_13
0.0116353999999997,0.0091718000000012,0.0099722,-0.0023685999999996,-0.008146799999999,0.0024498000000001,0,sub_13
0.0120973999999997,0.0078326000000012,0.0137152,-0.0042975999999996,-0.011330599999999,0.0011586000000001,0,sub_13
0.0131365999999997,0.0051804000000012,0.0168972,-0.0051649999999996,-0.011536999999999,9.980000000017849e-05,0,sub_13
0.0142537999999997,0.0019890000000012,0.0191234,-0.0045273999999996,-0.009616199999999,-0.0013785999999998,0,sub_13
0.0157939999999997,0.0001322000000012,0.0197762,-0.0038877999999996,-0.006844999999999,-0.0024307999999998,0,sub_13
0.0152661999999997,-0.0005335999999987,0.0202216,-0.0032539999999996,-0.004078799999999,-0.0022011999999998,0,sub_13
0.0144761999999998,-0.0004983999999987,0.0191504,-0.0024067999999996,-0.0011011999999991,-0.0017567999999998,0,sub_13
0.0141017999999998,0.0010084000000012,0.0166742,-0.0006863999999996,0.0020878000000008,-0.0015351999999998,0,sub_13
0.0136181999999998,0.0022566000000012,0.0142706,0.0008158000000003,0.0042124000000008,-0.0013137999999998,0,sub_13
0.0131879999999998,0.0026984000000012,0.0126406,0.0018818000000003,0.0044200000000008,-0.0008793999999998,0,sub_13
0.0127897999999998,0.0037928000000012,0.0109934,0.0033554000000003,0.0035550000000008,-0.0002111999999998,0,sub_13
0.0136819999999998,0.0047066000000012,0.0102172,0.0041840000000003,0.0014148000000009,0.0002404000000001,0,sub_13
0.0135915999999998,0.0044800000000012,0.0111738,0.0045840000000003,-0.001149999999999,0.0006896000000001,0,sub_13
0.0131969999999998,0.0046226000000012,0.0124716,0.0045630000000003,-0.002859599999999,0.0007074000000001,0,sub_13
0.0128653999999998,0.0051042000000012,0.0129512,0.0045504000000003,-0.003712399999999,-0.0003439999999998,0,sub_13
0.0132755999999997,0.0035428000000012,0.013575,0.0034940000000003,-0.0032747999999991,-0.0022747999999998,0,sub_13
0.0125381999999997,0.0025754000000012,0.0139406,0.0032930000000003,-0.0011409999999991,-0.0029197999999998,0,sub_13
0.0119135999999997,0.0018646000000012,0.013405,0.0024510000000003,0.0014186000000008,-0.0029289999999998,0,sub_13
0.0108779999999998,0.0012974000000012,0.012592,0.0015884000000003,0.0029164000000008,-0.0007953999999998,0,sub_13
0.0107219999999998,0.0014848000000012,0.0120298,0.0002926000000003,0.0039852000000008,0.0024040000000001,0,sub_13
0.0114045999999998,0.0030896000000012,0.0116106,-0.0016471999999996,0.0035676000000008,0.0049598000000001,0,sub_13
0.0124311999999998,0.0049638000000012,0.0113306,-0.0035869999999996,0.0012400000000008,0.0055952000000001,0,sub_13
0.0127925999999998,0.0068202000000012,0.01193,-0.0044533999999996,-0.0019339999999991,0.0038892000000001,0,sub_13
0.0139013999999998,0.0083366000000012,0.0128276,-0.0042303999999996,-0.0042603999999991,-0.0005927999999998,0,sub_13
0.0145019999999998,0.0084496000000012,0.0144344,-0.0027195999999996,-0.0050989999999991,-0.0052813999999998,0,sub_13
0.0141291999999998,0.0074420000000012,0.014659,0.0002848000000003,-0.0044575999999991,-0.0084659999999998,0,sub_13
0.0134105999999998,0.0061954000000012,0.0150598,0.0026386000000003,-0.0044597999999991,-0.0099449999999998,0,sub_13
0.0128729999999998,0.0043454000000012,0.01456,0.0034646000000003,-0.0061693999999991,-0.0088519999999998,0,sub_13
0.0119287999999998,0.0010770000000012,0.0141928,0.0030066000000003,-0.0068169999999991,-0.0058463999999998,0,sub_13
0.0114975999999998,-0.0011461999999987,0.0135676,0.0021218000000003,-0.0074631999999991,-0.0028437999999998,0,sub_13
0.0103745999999998,-0.0019639999999987,0.0138256,-0.0004689999999996,-0.0072535999999991,0.0007868000000001,0,sub_13
0.0099465999999998,-0.0024539999999987,0.0136668,-0.0030529999999996,-0.0049159999999991,0.0050556000000001,0,sub_13
0.0100537999999998,-0.0015437999999987,0.0139422,-0.0056085999999996,-0.0002343999999991,0.0086638000000001,0,sub_13
0.0110345999999998,0.0009784000000012,0.01371,-0.0086099999999996,0.0027500000000008,0.0116430000000001,0,sub_13
0.0116161999999998,0.0025614000000012,0.0126458,-0.0116179999999996,0.0042430000000008,0.0146240000000001,0,sub_13
0.0131521999999998,0.0037176000000012,0.0123802,-0.0131353999999996,0.0042426000000008,0.0167628000000001,0,sub_13
0.0136677999999998,0.0044622000000012,0.0131244,-0.0142213999999996,0.0036084000000008,0.0171962000000001,0,sub_13
0.0139905999999998,0.0051832000000012,0.013847,-0.0129611999999996,0.0016920000000008,0.0165794000000001,0,sub_13
0.0139809999999997,0.0041730000000012,0.0154616,-0.0110331999999996,0.0010554000000008,0.0142436000000001,0,sub_13
0.0133677999999997,0.0039672000000012,0.0166244,-0.0086717999999996,0.0016966000000008,0.0116956000000001,0,sub_13
0.0129353999999997,0.0033314000000012,0.0159932,-0.0052433999999996,0.0016976000000008,0.0085148000000001,0,sub_13
0.0128981999999997,0.0017118000000012,0.0151372,-0.0013919999999996,0.0008448000000008,0.0053382000000001,0,sub_13
0.0121435999999998,0.0006862000000012,0.0142548,0.0011684000000003,0.0012718000000008,0.0038706000000001,0,sub_13
0.0116325999999998,0.0017662000000012,0.0120302,0.0032914000000003,0.0012666000000008,0.0043232000000001,0,sub_13
0.0118705999999998,0.0019568000000012,0.0101284,0.0041246000000003,0.0001962000000008,0.0058366000000001,0,sub_13
0.0113617999999998,0.0024372000000012,0.0097092,0.0032470000000003,-0.0008715999999991,0.0081926000000001,0,sub_13
0.0106067999999998,0.0041200000000012,0.0093966,0.0010910000000003,-0.0015087999999991,0.0105390000000001,0,sub_13
0.0111171999999998,0.0048126000000012,0.0095588,-0.0014771999999996,-0.0021431999999991,0.0115900000000001,0,sub_13
0.0115855999999998,0.0050046000000012,0.0101732,-0.0036109999999996,-0.0025601999999991,0.0111484000000001,0,sub_13
0.0122121999999998,0.0043132000000012,0.0118204,-0.0046749999999996,-0.0040393999999991,0.0090064000000001,0,sub_13
0.0123805999999998,0.0035140000000012,0.0130808,-0.0057469999999996,-0.0057247999999991,0.0058038000000001,0,sub_13
0.0128169999999998,0.0030084000000012,0.0140616,-0.0057539999999996,-0.0067789999999991,0.0036760000000001,0,sub_13
0.0135365999999998,0.0027880000000012,0.0146258,-0.0057637999999996,-0.0069869999999991,0.0030428000000001,0,sub_13
0.0137695999999998,0.0020588000000012,0.0157654,-0.0051343999999996,-0.0069857999999991,0.0028410000000001,0,sub_13
0.0135075999999998,0.0028080000000012,0.0168884,-0.0047107999999996,-0.0052793999999991,0.0026356000000001,0,sub_13
0.0134953999999998,0.0034348000000012,0.0166154,-0.0029921999999996,-0.0027287999999991,0.0026444000000001,0,sub_13
0.0135933999999998,0.0026458000000012,0.015798,-0.0012725999999996,-0.000813999999999,0.0017994000000001,0,sub_13
0.0130717999999998,0.0011634000000012,0.0147932,0.0006584000000003,-0.000174799999999,0.0001030000000001,0,sub_13
0.0131355999999998,0.0005854000000012,0.014106,0.0012928000000003,-0.000805199999999,-0.0005241999999998,0,sub_13
0.0126437999999998,0.0005006000000012,0.0132932,0.0014936000000003,-0.001439999999999,0.0003410000000001,0,sub_13
0.0121453999999998,0.0003470000000012,0.0131632,0.0012696000000003,-0.001647199999999,0.0012026000000001,0,sub_13
0.0123089999999998,0.0007544000000012,0.0133082,0.0010532000000003,-0.0007863999999991,0.0014220000000001,0,sub_13
0.0117965999999998,0.0019198000000012,0.0137438,0.0010522000000003,0.0007118000000008,0.0018556000000001,0,sub_13
0.0116739999999998,0.0034618000000012,0.0131336,0.0017008000000003,0.0022028000000008,0.0014308000000001,0,sub_13
0.0116445999999998,0.0036814000000012,0.0130182,0.0023526000000003,0.0032718000000008,-6.159999999984112e-05,0,sub_13
0.0119265999999998,0.0039048000000012,0.0123048,0.0021468000000003,0.0039160000000009,-0.0011319999999998,0,sub_13
0.0118281999999998,0.0046016000000012,0.0121024,0.0019386000000003,0.0032886000000008,-0.0015645999999998,0,sub_13
0.0124881999999998,0.0040726000000012,0.0125508,0.0008778000000003,0.0018164000000008,-0.0030703999999998,0,sub_13
0.0119659999999998,0.0025452000000012,0.0133546,0.0004640000000003,0.0018332000000008,-0.0045735999999998,0,sub_13
0.0115941999999998,0.0015410000000012,0.0130754,0.0009006000000003,0.0016324000000008,-0.0056433999999998,0,sub_13
0.0116021999999998,0.0008434000000012,0.0140666,0.0021860000000003,0.0014244000000008,-0.0056389999999997,0,sub_13
0.0114771999999998,0.0005592000000012,0.0142936,0.0026088000000003,0.0012074000000008,-0.0049947999999998,0,sub_13
0.0115093999999998,0.0008870000000012,0.0137506,0.0028144000000003,0.0011998000000008,-0.0032841999999998,0,sub_13
0.0120929999999998,0.0013504000000012,0.013238,0.0019614000000003,-0.0002953999999991,-0.0009645999999998,0,sub_13
0.0125179999999998,0.0028952000000012,0.0137052,0.0011112000000003,-0.0015757999999991,0.0009274000000001,0,sub_13
0.0125173999999998,0.0037718000000012,0.0139366,6.020000000035949e-05,-0.0019955999999991,0.0008940000000001,0,sub_13
0.0126313999999998,0.0040580000000012,0.0142792,0.0007220000000003,-0.0015673999999991,0.0004442000000001,0,sub_13
0.0127435999999998,0.0044492000000012,0.0143962,0.0022392000000003,-0.0009281999999991,-0.0002133999999998,0,sub_13
0.0121893999999998,0.0043788000000012,0.0142196,0.0033108000000003,-0.0007153999999991,-0.0010607999999998,0,sub_13
0.0118587999999998,0.0036846000000012,0.0136702,0.0022440000000003,-0.0009237999999991,-0.0012815999999998,0,sub_13
0.0116615999999998,0.0035088000000012,0.0131422,0.0009570000000003,-0.0017741999999991,-0.0006483999999998,0,sub_13
0.0118497999999998,0.0025784000000012,0.0129638,-0.0005275999999996,-0.0026161999999991,-5.179999999986111e-05,0,sub_13
0.0113461999999997,0.0021324000000012,0.0125966,-0.0013653999999996,-0.0030301999999991,-0.0005193999999998,0,sub_13
0.0112439999999997,0.0020244000000012,0.012379,-0.0007047999999996,-0.0023839999999991,-0.0009777999999998,0,sub_13
0.0115455999999997,0.0016752000000012,0.0128602,0.0006008000000003,-0.0013113999999991,-0.0020731999999998,0,sub_13
0.0118669999999997,0.0012774000000012,0.013647,0.0008356000000003,-0.0002383999999991,-0.0023215999999998,0,sub_13
0.0121645999999997,0.0019406000000012,0.0139048,0.0006232000000003,0.0001876000000008,-0.0021099999999998,0,sub_13
0.0129069999999997,0.0024488000000012,0.0146678,0.0006154000000003,-0.0004557999999991,-0.0010409999999998,0,sub_13
0.0132503999999997,0.0026192000000012,0.0154058,0.0003992000000003,-0.0006697999999991,-0.0006149999999998,0,sub_13
0.0138475999999997,0.0030026000000012,0.0157662,0.0012526000000003,-0.0004605999999991,-0.0003955999999998,0,sub_13
0.0143837999999998,0.0033900000000012,0.0152336,0.0031934000000003,0.0001854000000008,-0.0008387999999998,0,sub_13
0.0144963999999998,0.0029884000000012,0.014793,0.0040654000000003,0.0001966000000008,-0.0015021999999998,0,sub_13
0.0135373999999998,0.0019108000000012,0.0141788,0.0030162000000003,-0.0002105999999991,-0.0023921999999998,0,sub_13
0.0128739999999998,0.0013346000000012,0.0138814,0.0013200000000003,-0.0006215999999991,-0.0017911999999998,0,sub_13
0.0119387999999998,0.0008894000000012,0.0139936,0.0009080000000003,0.0006640000000009,-0.0003287999999998,0,sub_13
0.0118417999999998,0.0026370000000012,0.0141058,0.0011272000000003,0.0021536000000009,-0.0001155999999998,0,sub_13
0.0112289999999998,0.0032722000000012,0.0146102,0.0007158000000003,0.0042908000000009,-0.0014029999999998,0,sub_13
0.0118633999999998,0.0032022000000012,0.0139984,0.0017922000000003,0.0066298000000009,-0.0011847999999998,0,sub_13
0.0120825999999998,0.0026464000000012,0.0136284,0.0024404000000003,0.0066332000000008,-0.0014119999999998,0,sub_13
0.0122539999999998,0.0033632000000012,0.0125518,0.0009442000000003,0.0043004000000009,-0.0016513999999998,0,sub_13
0.0114377999999998,0.0014400000000012,0.0115136,-0.0011929999999996,0.0017570000000008,-0.0018947999999998,0,sub_13
0.0113361999999998,0.0006456000000012,0.010591,-0.0020557999999996,-0.000583799999999,-0.0006341999999998,0,sub_13
0.0110991999999998,0.0020924000000012,0.0113868,-0.0026953999999996,-0.002067999999999,-0.0006549999999998,0,sub_13
0.0126711999999998,0.0034230000000012,0.0116906,-0.0024733999999996,-0.001636599999999,-0.0021495999999998,0,sub_13
0.0136273999999998,0.0023740000000012,0.0132846,-0.0009615999999996,-0.000140199999999,-0.0047045999999998,0,sub_13
0.0143785999999998,0.0020082000000012,0.0150252,0.0013968000000003,0.0017724000000009,-0.0051233999999998,0,sub_13
0.0147229999999998,0.0021850000000012,0.0168774,0.0033238000000003,0.0036822000000008,-0.0044767999999998,0,sub_13
0.0151325999999998,0.0015528000000012,0.017923,0.0039684000000003,0.0058070000000008,-0.0031985999999998,0,sub_13
0.0134509999999998,0.0016724000000012,0.0185862,0.0046054000000003,0.0075006000000008,-0.0006379999999998,0,sub_13
0.0132237999999998,0.0030300000000012,0.017134,0.0045958000000003,0.0072806000000008,0.0014932000000001,0,sub_13
0.0122715999999998,0.0028860000000012,0.014897,0.0033080000000003,0.0057928000000008,0.0016998000000001,0,sub_13
0.0102213999999998,0.0028724000000012,0.0119384,0.0020220000000003,0.0036700000000008,0.0008390000000001,0,sub_13
0.0099797999999998,0.0041784000000012,0.0091746,0.0013820000000003,0.0019746000000008,-0.0008723999999998,0,sub_13
0.0110005999999998,0.0054330000000012,0.0070166,-0.0003229999999996,0.0002846000000008,-0.0030185999999998,0,sub_13
0.0107389999999998,0.0068034000000012,0.005004,-0.0033191999999996,-0.0020411999999991,-0.0038925999999998,0,sub_13
0.0107947999999998,0.0079750000000012,0.0062784,-0.0069659999999996,-0.0052229999999991,-0.0032743999999998,0,sub_13
0.0121413999999998,0.0077424000000012,0.0082908,-0.0095373999999996,-0.0069153999999991,-0.0030779999999998,0,sub_13
0.0119215999999998,0.0050550000000012,0.010617,-0.0116819999999996,-0.007548399999999,-0.0018115999999998,0,sub_13
0.0127133999999998,0.0014882000000012,0.0140354,-0.0116947999999996,-0.0075539999999991,0.0005370000000001,0,sub_13
0.0124017999999998,-0.0014411999999987,0.0177728,-0.0097715999999996,-0.0043751999999991,0.0031102000000001,0,sub_13
0.0123609999999998,-0.0022129999999987,0.018628,-0.0069853999999996,8.240000000089929e-05,0.0048332000000001,0,sub_13
0.0124201999999997,-0.0016787999999987,0.0190342,-0.0052735999999996,0.0034758000000008,0.0071908000000001,0,sub_13
0.0134787999999997,-0.0006925999999987,0.0186984,-0.0033561999999996,0.0051714000000008,0.0086998000000001,0,sub_13
0.0131039999999998,0.0016982000000012,0.015728,-0.0033561999999996,0.0058154000000008,0.0084876000000001,0,sub_13
0.0129063999999998,0.0037734000000012,0.0136992,-0.0040001999999996,0.0045484000000009,0.0072052000000001,0,sub_13
0.0134749999999998,0.0046314000000012,0.0120682,-0.0040021999999996,0.0034930000000008,0.0057132000000001,0,sub_13
0.0137849999999998,0.0077788000000012,0.0115356,-0.0022827999999996,0.0037178000000008,0.0023090000000001,0,sub_13
0.0138981999999998,0.0084970000000012,0.0109554,-0.0007633999999996,0.0041600000000008,-0.0030221999999998,0,sub_13
0.0133955999999998,0.0070746000000012,0.0124248,0.0013876000000003,0.0035312000000008,-0.0074927999999998,0,sub_13
0.0134247999999998,0.0049146000000012,0.0144172,0.0041652000000003,0.0028910000000009,-0.0102457999999998,0,sub_13
0.0132039999999998,0.0030244000000012,0.0161622,0.0056656000000003,0.0035310000000008,-0.0123683999999998,0,sub_13
0.0128699999999998,-0.0018665999999987,0.0166012,0.0054560000000003,0.0052354000000008,-0.0127951999999998,0,sub_13
0.0108335999999998,-0.0032961999999987,0.0160378,0.0048044000000003,0.0069278000000008,-0.0098065999999998,0,sub_13
0.0098955999999998,-0.0023503999999987,0.0139236,0.0037202000000003,0.0088288000000008,-0.0053259999999998,0,sub_13
0.0100885999999998,-0.0004517999999987,0.011409,0.0017836000000003,0.0094576000000008,-0.0010675999999998,0,sub_13
0.0104105999999998,0.0021682000000012,0.009493,-0.0003653999999996,0.0090272000000008,0.0019090000000001,0,sub_13
0.0108671999999998,0.0046272000000012,0.0081004,-0.0016695999999996,0.0058274000000008,0.0040404000000001,0,sub_13
0.0118079999999998,0.0065570000000012,0.0088722,-0.0021173999999996,0.0017784000000009,0.0046834000000001,0,sub_13
0.0129017999999998,0.0078764000000012,0.0107418,-0.0012739999999996,-0.000994199999999,0.0032054000000001,0,sub_13
0.0137995999999998,0.0064640000000012,0.0124514,-0.0001999999999996,-0.001205599999999,0.0004440000000001,0,sub_13
0.0132907999999998,0.0044826000000012,0.0143694,0.0015016000000003,-0.002067199999999,-0.0001759999999998,0,sub_13
0.0127273999999998,0.0039352000000012,0.0162424,0.0032080000000003,-0.001651199999999,-0.0005837999999998,0,sub_13
0.0130293999999998,0.0030046000000012,0.0157532,0.0040696000000003,-0.001436799999999,-0.0031337999999998,0,sub_13
0.0127081999999998,0.0010570000000012,0.015182,0.0038658000000003,-0.0018517999999991,-0.0056983999999998,0,sub_13
0.0119183999999998,0.0014438000000012,0.0146658,0.0045050000000003,-0.0029159999999991,-0.0065471999999998,0,sub_13
0.0121811999999998,0.0007338000000012,0.0144258,0.0045088000000003,-0.0031247999999991,-0.0076149999999998,0,sub_13
0.0128791999999997,-0.0007359999999987,0.0148906,0.0040814000000003,-0.0024923999999991,-0.0076103999999998,0,sub_13
0.0124829999999997,-8.479999999874196e-05,0.0155294,0.0047200000000003,0.0008940000000008,-0.0046107999999998,0,sub_13
0.0126271999999997,0.0024392000000012,0.0145534,0.0051366000000003,0.0034248000000008,-0.0005433999999998,0,sub_13
0.0128769999999998,0.0039756000000012,0.012924,0.0025668000000003,0.0049058000000008,0.0022226000000001,0,sub_13
0.0131953999999998,0.0062090000000012,0.010864,0.0004228000000003,0.0055358000000008,0.0043516000000001,0,sub_13
0.0133093999999998,0.0086668000000012,0.008553,-0.0032197999999996,0.0032008000000008,0.0053974000000001,0,sub_13
