userAcceleration.x,userAcceleration.y,userAcceleration.z,rotationRate.x,rotationRate.y,rotationRate.z,label,subject
0.0300489999999998,-0.0907753999999987,0.0841776,0.0336168000000004,0.0694452000000008,0.0246766,0,sub_19
0.0339867999999998,-0.0891615999999987,0.0813754,0.0266066000000004,0.0593134000000008,0.0184562,0,sub_19
0.0358965999999998,-0.0885227999999987,0.0774546,0.0244714000000004,0.0389498000000009,0.009292,0,sub_19
0.0346185999999998,-0.0877303999999987,0.0740124,0.0206302000000004,0.0171078000000009,-0.0015913999999999,0,sub_19
0.0318197999999998,-0.0891851999999987,0.0704282,0.0131066000000004,-0.003074599999999,-0.0095227999999999,0,sub_19
0.0286223999999998,-0.0916099999999987,0.0702276,0.0070890000000004,-0.015611799999999,-0.0125397999999999,0,sub_19
0.0261361999999998,-0.0936547999999987,0.074573,0.0042912000000004,-0.019443199999999,-0.0110589999999999,0,sub_19
0.0246093999999997,-0.0957079999999987,0.0807386,-0.0023357999999995,-0.020067799999999,-0.0089679999999999,0,sub_19
0.0246053999999997,-0.0976743999999987,0.0846812,-0.0108659999999995,-0.016850799999999,-0.0068951999999999,0,sub_19
0.0249405999999997,-0.1001487999999987,0.085122,-0.0148883999999995,-0.008320399999999,-0.0054387999999999,0,sub_19
0.0250523999999997,-0.1021761999999987,0.0844204,-0.0114389999999995,0.0006116000000009,-0.0043579999999999,0,sub_19
0.0242345999999997,-0.1027695999999987,0.0835958,-0.0045861999999995,0.0063394000000009,-0.0041037999999999,0,sub_19
0.0233787999999998,-0.1036309999999987,0.082982,0.0033266000000004,0.0103598000000009,-0.0040535999999999,0,sub_19
0.0233311999999998,-0.1041299999999987,0.082264,0.0091030000000004,0.0126876000000009,-0.0050845999999999,0,sub_19
0.0223219999999997,-0.1046059999999987,0.08181,0.0082352000000004,0.0090704000000008,-0.0055133999999999,0,sub_19
0.0214351999999997,-0.1041007999999987,0.0805236,0.0007202000000004,0.0016276000000009,-0.0025653999999999,0,sub_19
0.0213147999999997,-0.1034541999999987,0.0794418,-0.0083017999999995,-0.004336399999999,0.0048568,0,sub_19
0.0210301999999997,-0.0991701999999987,0.0788774,-0.0141173999999995,-0.006911199999999,0.0144334,0,sub_19
0.0205125999999997,-0.0941375999999987,0.0820724,-0.0130639999999995,-0.002682999999999,0.0216994,0,sub_19
0.0199089999999998,-0.0895095999999987,0.086443,-0.0079113999999995,0.0083616000000009,0.0257806,0,sub_19
0.0197505999999998,-0.0857113999999987,0.090432,0.0013048000000004,0.0170664000000009,0.0254066,0,sub_19
0.0206985999999998,-0.0833357999999987,0.0872046,0.0115936000000004,0.0238628000000009,0.0218378,0,sub_19
0.0224245999999998,-0.0851029999999987,0.0811662,0.0274550000000004,0.0353302000000009,0.0174474,0,sub_19
0.0254233999999998,-0.0894789999999987,0.0722456,0.0441672000000004,0.0484898000000009,0.0154108,0,sub_19
0.0303679999999998,-0.0933157999999987,0.0665638,0.0565686000000004,0.0522892000000009,0.0135698,0,sub_19
0.0352585999999998,-0.0972383999999987,0.0630618,0.0550558000000004,0.0442138000000009,0.009724,0,sub_19
0.0374601999999998,-0.0983171999999987,0.067482,0.0402698000000004,0.0246866000000009,0.0040910000000001,0,sub_19
0.0385835999999998,-0.0987939999999987,0.0731786000000001,0.0137120000000004,-0.003956599999999,-0.0026807999999998,0,sub_19
0.0389941999999998,-0.0986665999999987,0.0795492,-0.0177687999999995,-0.035566999999999,-0.0090559999999998,0,sub_19
0.0381237999999998,-0.0994375999999987,0.0838254,-0.0438797999999995,-0.057615599999999,-0.0136967999999998,0,sub_19
0.0368793999999998,-0.1005305999999987,0.0878544,-0.0577613999999995,-0.063519799999999,-0.0169907999999998,0,sub_19
0.0352253999999998,-0.1031973999999987,0.0910916,-0.0592127999999994,-0.059020999999999,-0.0219205999999999,0,sub_19
0.0332029999999998,-0.1044303999999987,0.0930474,-0.0533931999999994,-0.050500999999999,-0.0263773999999999,0,sub_19
0.0296617999999998,-0.1033825999999987,0.0927518,-0.0435185999999994,-0.040084599999999,-0.0290989999999999,0,sub_19
0.0263631999999998,-0.1008569999999987,0.0902594,-0.0317235999999995,-0.027340799999999,-0.0294601999999999,0,sub_19
0.0235309999999997,-0.0977085999999987,0.0863892,-0.0171633999999995,-0.013553399999999,-0.0268123999999999,0,sub_19
0.0226807999999997,-0.0952269999999987,0.0817652,-0.0017699999999995,-0.001272199999999,-0.0211657999999999,0,sub_19
0.0223801999999997,-0.0925877999999987,0.0784094,0.0091206000000004,0.0054878000000009,-0.0161845999999999,0,sub_19
0.0224957999999997,-0.0914175999999987,0.0749984,0.0118592000000004,0.0057244000000009,-0.0135197999999998,0,sub_19
0.0224867999999997,-0.0907587999999987,0.0724248,0.0058302000000004,-0.000603799999999,-0.0132577999999998,0,sub_19
0.0220581999999997,-0.0905851999999987,0.0699862,-0.0070333999999995,-0.010733599999999,-0.0153887999999998,0,sub_19
0.0211097999999997,-0.0907885999999987,0.0682152,-0.0216017999999995,-0.021279999999999,-0.0183857999999998,0,sub_19
0.0203265999999997,-0.0925499999999987,0.0691664,-0.0325517999999995,-0.032059199999999,-0.0196479999999998,0,sub_19
0.0203291999999997,-0.0951123999999987,0.0725512,-0.0370729999999995,-0.038869799999999,-0.0175343999999999,0,sub_19
0.0201357999999997,-0.0982505999999987,0.0766254,-0.0349699999999995,-0.040177599999999,-0.0119631999999999,0,sub_19
0.0205347999999997,-0.1019089999999987,0.0809582,-0.0266695999999995,-0.035769199999999,-0.0027241999999999,0,sub_19
0.0206343999999997,-0.1048495999999987,0.0853844,-0.0172927999999995,-0.027748599999999,0.0080134,0,sub_19
0.0216031999999998,-0.1064283999999987,0.0876774,-0.0110953999999995,-0.015241799999999,0.0185092,0,sub_19
0.0225709999999997,-0.1063301999999987,0.0890086,-0.0083023999999995,-0.003138999999999,0.026418,0,sub_19
0.0238951999999997,-0.1057777999999987,0.089586,-0.0065771999999995,0.0057836000000009,0.0313324,0,sub_19
0.0265135999999997,-0.1036747999999987,0.0879764000000001,-0.0059321999999995,0.0083320000000009,0.0328292,0,sub_19
0.0285515999999997,-0.1011917999999987,0.0851144,-0.0021067999999995,0.0042730000000009,0.0322202,0,sub_19
0.0293343999999997,-0.0999303999999987,0.0826402,0.0047068000000004,-0.000219799999999,0.0309918,0,sub_19
0.0292847999999997,-0.0984899999999987,0.0796166,0.0138684000000004,-0.001324799999999,0.03298,0,sub_19
0.0290133999999998,-0.0961261999999987,0.0781376,0.0219910000000004,0.0041768000000009,0.0353798,0,sub_19
0.0276677999999998,-0.0934755999999987,0.07889,0.0252424000000004,0.0158820000000009,0.0358148,0,sub_19
0.0271441999999997,-0.0910431999999987,0.080228,0.0225444000000004,0.0312376000000009,0.0342806,0,sub_19
0.0272641999999997,-0.0882175999999987,0.0809884,0.0172888000000004,0.0444826000000009,0.029954,0,sub_19
0.0285925999999997,-0.0870125999999987,0.0814984000000001,0.0116044000000004,0.0517856000000009,0.0200774,0,sub_19
0.0307173999999997,-0.0880951999999987,0.0807604000000001,0.0086506000000004,0.0494890000000009,0.0080866000000001,0,sub_19
0.0323977999999997,-0.0905795999999987,0.079231,0.0124824000000004,0.0397038000000009,-0.0019243999999998,0,sub_19
0.0329837999999997,-0.0935109999999987,0.0775884,0.0222636000000004,0.0279658000000009,-0.0082593999999998,0,sub_19
0.0329053999999997,-0.0957107999999987,0.0776062000000001,0.0331050000000004,0.0183402000000009,-0.0109577999999998,0,sub_19
0.0317663999999997,-0.0975877999999987,0.0787912,0.0394618000000004,0.0121222000000009,-0.0094189999999998,0,sub_19
0.0300993999999997,-0.0989635999999987,0.079482,0.0404912000000004,0.0080534000000009,-0.0051337999999999,0,sub_19
0.0278573999999997,-0.1003009999999987,0.0807122000000001,0.0359796000000004,0.0050710000000009,-0.0013159999999999,0,sub_19
0.0262069999999998,-0.1016521999999987,0.0820352,0.0248642000000004,0.0023334000000009,0.000319,0,sub_19
0.0249253999999998,-0.1036335999999987,0.0820576,0.0107682000000004,-0.000175799999999,0.000651,0,sub_19
0.0245771999999998,-0.1051559999999987,0.0806386,-0.0029289999999995,-0.003113999999999,0.000546,0,sub_19
0.0245365999999997,-0.1051331999999987,0.0793096,-0.0142685999999995,-0.003716599999999,0.0004544,0,sub_19
0.0244015999999997,-0.1042123999999987,0.0774792,-0.0239019999999995,-0.003052799999999,0.0018686,0,sub_19
0.0244221999999997,-0.1022643999999987,0.0765768,-0.0314181999999995,-0.004108799999999,0.0052228,0,sub_19
0.0251035999999997,-0.0994839999999987,0.0762566,-0.0385199999999995,-0.008147999999999,0.00837,0,sub_19
0.0255341999999997,-0.0955081999999987,0.0772572,-0.0466587999999995,-0.014088399999999,0.0091754,0,sub_19
0.0263719999999998,-0.0921453999999987,0.0781674,-0.0554299999999995,-0.021267599999999,0.008934,0,sub_19
0.0275911999999998,-0.0906099999999987,0.0792744,-0.0599347999999995,-0.029735599999999,0.0076558,0,sub_19
0.0288263999999998,-0.0899797999999987,0.079994,-0.0590955999999994,-0.037576999999999,0.0049184,0,sub_19
0.0295823999999998,-0.0901375999999987,0.0800378,-0.0561139999999994,-0.045418399999999,0.0002732,0,sub_19
0.0299241999999998,-0.0915797999999987,0.0798816,-0.0494867999999994,-0.049224399999999,-0.0043517999999999,0,sub_19
0.0296701999999998,-0.0935673999999987,0.0800148,-0.0383683999999994,-0.048605999999999,-0.0087615999999998,0,sub_19
0.0294085999999998,-0.0945395999999987,0.0802352,-0.0265983999999995,-0.044796799999999,-0.0125299999999998,0,sub_19
0.0289075999999998,-0.0962065999999987,0.0804284000000001,-0.0201529999999995,-0.039687199999999,-0.0171915999999998,0,sub_19
0.0276197999999998,-0.0976831999999987,0.080868,-0.0173311999999995,-0.032651599999999,-0.0208127999999999,0,sub_19
0.0262143999999998,-0.0987571999999987,0.082508,-0.0157895999999995,-0.023701799999999,-0.0225225999999999,0,sub_19
0.0261569999999997,-0.0998649999999987,0.084487,-0.0153195999999995,-0.013479399999999,-0.0218913999999999,0,sub_19
0.0278471999999997,-0.0997865999999987,0.0858984,-0.0148525999999995,-0.003471599999999,-0.0208325999999999,0,sub_19
0.0307639999999997,-0.0981781999999987,0.0863254,-0.0088427999999995,0.0063002000000009,-0.0188803999999999,0,sub_19
0.0341419999999997,-0.0963709999999987,0.0861134,0.0037826000000004,0.0149888000000009,-0.0181623999999999,0,sub_19
0.0406175999999997,-0.0929117999999987,0.0835654,0.0165466000000004,0.0098134000000009,-0.0146493999999999,0,sub_19
0.0360385999999998,-0.0957187999999987,0.0784814,0.0311140000000004,-0.020512399999999,-0.0102369999999999,0,sub_19
0.0278891999999998,-0.0979009999999987,0.0793358,0.0406938000000004,-0.029269599999999,-0.0140055999999999,0,sub_19
0.0214125999999998,-0.1005505999999987,0.0783048,0.0272974000000004,-0.020485199999999,-0.0156071999999999,0,sub_19
0.0177785999999997,-0.1063743999999987,0.0778386,0.0053190000000004,-0.010015199999999,-0.0050929999999999,0,sub_19
0.0131713999999997,-0.1103943999999987,0.0812106,-0.0010639999999995,0.0042408000000009,0.005099,0,sub_19
0.0178945999999997,-0.1054905999999987,0.0868772,-0.0056403999999995,0.0330092000000009,0.0075938,0,sub_19
0.0245889999999997,-0.1010193999999987,0.0837748000000001,-0.0129119999999995,0.0355654000000009,0.0120200000000001,0,sub_19
0.0289285999999997,-0.0974723999999987,0.0800194,-0.0050915999999995,0.0210414000000009,0.0123008000000001,0,sub_19
0.0297681999999998,-0.0914447999999987,0.0758428,0.0089530000000004,0.0056794000000009,0.0036528000000001,0,sub_19
0.0278267999999998,-0.0886075999999987,0.0717628,0.0085132000000004,-0.006426799999999,-0.0074503999999998,0,sub_19
0.0268013999999998,-0.0877423999999987,0.0694822,-0.0004815999999995,-0.017247799999999,-0.0128465999999998,0,sub_19
0.0264811999999998,-0.0890617999999987,0.0706974,-0.0073409999999995,-0.021708399999999,-0.0103249999999998,0,sub_19
0.0272911999999998,-0.0904867999999987,0.0756028,-0.0082069999999995,-0.018108999999999,-0.0039263999999999,0,sub_19
0.0296409999999998,-0.0917163999999987,0.0805814,-0.0066941999999995,-0.009184799999999,0.000773,0,sub_19
0.0312469999999998,-0.0930573999999987,0.0832306,-0.0068903999999995,-0.003227199999999,0.0029004,0,sub_19
0.0325169999999998,-0.0951535999999987,0.083549,-0.0070881999999995,0.0027120000000009,0.0032762,0,sub_19
0.0324661999999998,-0.0961115999999987,0.083585,-0.0036443999999995,0.0099246000000009,0.001753,0,sub_19
0.0322511999999998,-0.0961597999999987,0.0829672,0.0025636000000004,0.0156334000000009,0.000892,0,sub_19
0.0311203999999998,-0.0965733999999987,0.0829092,0.0085324000000004,0.0177128000000009,0.0021704,0,sub_19
0.0320151999999998,-0.0981701999999987,0.0828194,0.0119466000000004,0.0219282000000009,0.0042828,0,sub_19
0.0330281999999998,-0.0995019999999987,0.0829362,0.0091794000000004,0.0240660000000009,0.0049016,0,sub_19
0.0332685999999998,-0.1004109999999987,0.083095,0.0012702000000004,0.0202612000000009,0.0042102,0,sub_19
0.0319231999999997,-0.1002971999999987,0.0821296,-0.0071989999999995,0.0150262000000009,0.003706,0,sub_19
0.0303369999999997,-0.0996761999999987,0.0810202000000001,-0.0122581999999995,0.0104124000000009,0.0047204,0,sub_19
0.0283081999999997,-0.0989063999999987,0.0801356,-0.0113401999999995,0.0083268000000009,0.007696,0,sub_19
0.0268001999999997,-0.0982121999999987,0.0787232,-0.0044285999999995,0.0115422000000009,0.011775,0,sub_19
0.0267951999999997,-0.0979577999999987,0.07749,0.0033528000000004,0.0171034000000009,0.0145752,0,sub_19
0.0269013999999997,-0.0985353999999987,0.077621,0.0065572000000004,0.0181568000000009,0.01481,0,sub_19
0.0267947999999997,-0.0996317999999987,0.077502,0.0029280000000004,0.0160458000000009,0.0130782,0,sub_19
0.0269347999999997,-0.0997415999999987,0.0766084,-0.0064699999999995,0.0103406000000009,0.009388,0,sub_19
0.0266005999999997,-0.0992979999999987,0.0758032000000001,-0.0162993999999995,0.0020864000000009,0.0042024,0,sub_19
0.0265177999999997,-0.0984181999999987,0.075021,-0.0228715999999995,-0.006329799999999,0.0011986000000001,0,sub_19
0.0272853999999997,-0.0979631999999987,0.07504,-0.0268795999999995,-0.011568599999999,0.0005586000000001,0,sub_19
0.0284403999999997,-0.0976421999999987,0.0753246,-0.0293881999999995,-0.015534199999999,-7.239999999991646e-05,0,sub_19
0.0290649999999997,-0.0984883999999987,0.0777088,-0.0269823999999995,-0.018025599999999,-0.0006709999999999,0,sub_19
0.0290789999999997,-0.0993843999999987,0.0807752,-0.0211579999999995,-0.018190599999999,3.320000000008351e-05,0,sub_19
0.0284681999999997,-0.1004041999999987,0.083141,-0.0151805999999995,-0.016723399999999,0.0009278,0,sub_19
0.0278413999999997,-0.1013393999999987,0.0851466000000001,-0.0123913999999995,-0.014385199999999,-0.0001237999999999,0,sub_19
0.0273125999999997,-0.1018181999999987,0.0872182,-0.0110833999999995,-0.009696599999999,-0.0016161999999999,0,sub_19
0.0276841999999997,-0.1014495999999987,0.0857764,-0.0101613999999995,-0.001566799999999,-0.0015997999999999,0,sub_19
0.0281941999999997,-0.1005221999999987,0.0825386000000001,-0.0073295999999995,0.0059104000000009,0.00014,0,sub_19
0.0291331999999997,-0.0996435999999987,0.0797932,-0.0034435999999995,0.0112506000000009,0.0025306,0,sub_19
0.0310389999999997,-0.0982455999999987,0.0763244,0.0012836000000004,0.0136058000000009,0.0047174,0,sub_19
0.0326899999999997,-0.0966497999999987,0.074207,0.0038694000000004,0.0121422000000009,0.0047576,0,sub_19
0.0341347999999998,-0.0949699999999987,0.0736496,0.0012906000000004,0.0055568000000009,0.0021844,0,sub_19
0.0345059999999998,-0.0950513999999987,0.0748392,-0.0087655999999995,-0.005679599999999,-0.0029989999999999,0,sub_19
0.0338415999999998,-0.0954167999999987,0.0760126,-0.0230979999999995,-0.020091599999999,-0.0094899999999999,0,sub_19
0.0312819999999998,-0.0959783999999987,0.0778050000000001,-0.0363395999999995,-0.034051799999999,-0.0146747999999999,0,sub_19
0.0289149999999998,-0.0974033999999987,0.078324,-0.0444545999999995,-0.043356399999999,-0.0164113999999999,0,sub_19
0.0264259999999997,-0.0992231999999987,0.0792226,-0.0467949999999995,-0.046303199999999,-0.0146975999999999,0,sub_19
0.0257093999999997,-0.1000017999999987,0.0799986000000001,-0.0437819999999995,-0.042885599999999,-0.0108179999999998,0,sub_19
0.0259615999999997,-0.1005137999999987,0.0808054,-0.0388331999999995,-0.036065999999999,-0.0069291999999998,0,sub_19
0.0266455999999997,-0.1014319999999987,0.0810458,-0.0354047999999995,-0.030972199999999,-0.0049889999999998,0,sub_19
0.0273209999999997,-0.1017691999999987,0.0812344,-0.0343273999999995,-0.029056799999999,-0.0054111999999998,0,sub_19
0.0283701999999998,-0.1018467999999987,0.080341,-0.0347339999999995,-0.030125599999999,-0.0077615999999998,0,sub_19
0.0290809999999998,-0.1022521999999987,0.0794872,-0.0340757999999995,-0.031411799999999,-0.0098905999999999,0,sub_19
0.0299567999999998,-0.1027393999999987,0.0796266,-0.0321381999999995,-0.031854599999999,-0.0109433999999999,0,sub_19
0.0309653999999998,-0.1026439999999987,0.0794808,-0.0295613999999995,-0.031451799999999,-0.0109245999999998,0,sub_19
0.0319245999999998,-0.1023263999999987,0.079475,-0.0282743999999995,-0.032538399999999,-0.0102719999999998,0,sub_19
0.0321827999999998,-0.1015975999999987,0.079584,-0.0289221999999995,-0.033391799999999,-0.0094207999999998,0,sub_19
0.0327797999999997,-0.1002349999999987,0.0800126,-0.0312759999999995,-0.033813999999999,-0.0083683999999998,0,sub_19
0.0329357999999997,-0.0991563999999987,0.0804112,-0.0342659999999995,-0.033805999999999,-0.0077483999999998,0,sub_19
0.0326447999999997,-0.0990875999999987,0.0808872,-0.0363939999999995,-0.031883599999999,-0.0071247999999999,0,sub_19
0.0324071999999997,-0.0991547999999987,0.0799822,-0.0357123999999995,-0.028291999999999,-0.0062871999999999,0,sub_19
0.0324773999999997,-0.0994791999999987,0.0798684,-0.0314015999999995,-0.023437999999999,-0.0045711999999999,0,sub_19
0.0320853999999998,-0.1000285999999987,0.0798906,-0.0260227999999995,-0.018799199999999,-0.0032747999999999,0,sub_19
0.0322763999999998,-0.1009129999999987,0.0783106,-0.0208613999999995,-0.015436399999999,-0.0024055999999999,0,sub_19
0.0327443999999998,-0.1007875999999987,0.0777554,-0.0169887999999995,-0.015047599999999,-0.0026097999999999,0,sub_19
0.0333879999999998,-0.1007527999999987,0.0784852,-0.0157055999999995,-0.015049399999999,-0.0032417999999999,0,sub_19
0.0331833999999997,-0.1006075999999987,0.0787286,-0.0180525999999995,-0.016950999999999,-0.0051785999999999,0,sub_19
0.0325945999999997,-0.1009877999999987,0.0787208,-0.0214695999999995,-0.019487999999999,-0.0071219999999998,0,sub_19
0.0317283999999997,-0.1005871999999987,0.0795052,-0.0246691999999995,-0.021385799999999,-0.0092783999999998,0,sub_19
0.0302583999999997,-0.1005549999999987,0.0799758,-0.0267963999999995,-0.020735599999999,-0.0101487999999998,0,sub_19
0.0288335999999997,-0.1003449999999987,0.0798484,-0.0235813999999995,-0.016489999999999,-0.0090635999999998,0,sub_19
0.0281513999999998,-0.1009341999999987,0.0808624,-0.0124601999999995,-0.006956799999999,-0.0051525999999999,0,sub_19
0.0284025999999998,-0.1010057999999987,0.0814822,0.0025096000000004,0.0046918000000009,-0.0007899999999999,0,sub_19
0.0288971999999998,-0.1019977999999987,0.0807494,0.0142738000000004,0.0138010000000009,0.0020578,0,sub_19
0.0298181999999998,-0.1025479999999987,0.0798306,0.0200484000000004,0.0180368000000009,0.0033746,0,sub_19
0.0308747999999997,-0.1031413999999987,0.0790186,0.0176946000000004,0.0163414000000009,0.0031468,0,sub_19
0.0318449999999997,-0.1022709999999987,0.077279,0.0076412000000004,0.0089272000000009,0.0011634,0,sub_19
0.0318361999999997,-0.1022315999999987,0.0760448,-0.0056195999999995,-0.000391599999999,-0.0012673999999999,0,sub_19
0.0310845999999997,-0.1015435999999987,0.0756772,-0.0126895999999995,-0.006970799999999,-0.0015219999999999,0,sub_19
0.0306945999999997,-0.1011913999999987,0.0771426,-0.0116437999999995,-0.010388599999999,-0.0002283999999999,0,sub_19
0.0304343999999997,-0.1009131999999987,0.0786182,-0.0078107999999995,-0.010620999999999,0.0012942,0,sub_19
0.0300195999999997,-0.1012683999999987,0.0800322,-0.0041833999999995,-0.009996999999999,0.0019596,0,sub_19
0.0299989999999997,-0.1010291999999987,0.0808156,-0.0009741999999995,-0.007878399999999,0.0021928,0,sub_19
0.0306023999999997,-0.1008387999999987,0.0819598,-0.0007445999999995,-0.004681599999999,0.0017632,0,sub_19
0.0316593999999997,-0.1004761999999987,0.080496,-0.0019969999999995,0.0010770000000009,0.0013198,0,sub_19
0.0321163999999997,-0.0997435999999987,0.0796176,-0.0006889999999995,0.0072510000000009,0.001321,0,sub_19
0.0331315999999997,-0.0992613999999987,0.0792216,0.0038148000000004,0.0127730000000009,0.0017728,0,sub_19
0.0334839999999997,-0.0990649999999987,0.0786088,0.0091616000000004,0.0155240000000009,0.0018068,0,sub_19
0.0331687999999998,-0.0996159999999987,0.078385,0.0151380000000004,0.0163536000000009,0.0022746,0,sub_19
0.0325541999999997,-0.0999281999999987,0.078547,0.0198282000000004,0.0156972000000008,0.0025218,0,sub_19
0.0323589999999997,-0.1007861999999987,0.0792552000000001,0.0223790000000004,0.0129212000000008,0.0019022,0,sub_19
0.0322221999999997,-0.1014453999999987,0.0795956,0.0219550000000004,0.0125008000000008,0.0008314,0,sub_19
0.0323993999999997,-0.1014843999999987,0.079701,0.0194032000000004,0.0142150000000008,0.0005976,0,sub_19
0.0327043999999997,-0.1012603999999987,0.0796692,0.0164246000000004,0.0152942000000008,-0.0002789999999999,0,sub_19
0.0320565999999998,-0.1019475999999987,0.0798774,0.0138662000000004,0.0146682000000008,-0.0013641999999999,0,sub_19
0.0318763999999998,-0.1020617999999987,0.0785742,0.0123832000000004,0.0165926000000009,-0.0018041999999998,0,sub_19
0.0316829999999998,-0.1021349999999987,0.0780162,0.0130330000000004,0.0182966000000009,-0.0022289999999998,0,sub_19
0.0323719999999998,-0.1025723999999987,0.0780156000000001,0.0132502000000004,0.0176626000000009,-0.0037221999999998,0,sub_19
0.0327903999999998,-0.1028509999999987,0.0784666,0.0104870000000004,0.0153248000000009,-0.0058825999999998,0,sub_19
0.0333617999999997,-0.1029261999999987,0.0793018,0.0070778000000004,0.0119232000000009,-0.0078325999999998,0,sub_19
0.0323247999999997,-0.1042193999999987,0.0820904,0.0068646000000004,0.0080818000000009,-0.0091187999999998,0,sub_19
0.0302837999999997,-0.1046765999999987,0.0844528,0.0130544000000004,0.0067660000000009,-0.0082269999999998,0,sub_19
0.0263595999999997,-0.1043633999999987,0.0876294,0.0267410000000004,0.0141502000000009,-0.0049437999999998,0,sub_19
0.0233713999999997,-0.1026953999999987,0.0894278,0.0461762000000004,0.0247086000000009,0.0018014,0,sub_19
0.0218105999999997,-0.1017607999999987,0.0892522,0.0662582000000004,0.0399392000000009,0.0117498,0,sub_19
0.0226797999999997,-0.1002895999999987,0.0844258,0.0833816000000004,0.0605106000000009,0.0206026,0,sub_19
0.0264649999999997,-0.0988609999999987,0.0797426,0.0939174000000004,0.0830390000000009,0.0253476,0,sub_19
0.0325479999999997,-0.0978517999999987,0.0760994,0.0943758000000004,0.0913414000000008,0.026622,0,sub_19
