userAcceleration.x,userAcceleration.y,userAcceleration.z,rotationRate.x,rotationRate.y,rotationRate.z,label,subject
0.0074451999999997,0.0067310000000012,-0.0008607999999998,-0.0052771999999994,0.0213330000000009,-0.0245067999999999,0,sub_9
0.0147467999999997,0.0037954000000012,-0.0004949999999998,-0.0067947999999994,0.0198314000000009,-0.0206697999999999,0,sub_9
0.0206077999999997,0.0029250000000012,0.0005496000000001,-0.0089725999999994,0.0176776000000009,-0.0129909999999999,0,sub_9
0.0227555999999997,0.0033192000000012,0.0022268000000001,-0.0090253999999994,0.0144478000000009,-0.0044415999999999,0,sub_9
0.0198025999999997,0.0070666000000011,0.0027992,-0.0058507999999995,0.0096632000000009,0.0026374,0,sub_9
0.0157807999999997,0.0114822000000011,0.003118,0.0003206000000004,0.0040278000000009,0.0067476,0,sub_9
0.0102979999999997,0.0162594000000011,0.0046976,0.0077856000000004,-0.001599999999999,0.0078758,0,sub_9
0.0052021999999997,0.0173526000000011,0.0042406,0.0156946000000004,-0.006577399999999,0.0058014,0,sub_9
0.0018923999999997,0.0178378000000011,0.0037916,0.0223282000000004,-0.012606999999999,0.0015832,0,sub_9
0.0014053999999997,0.0174724000000012,0.0027194,0.0280644000000004,-0.021561799999999,-0.0017833999999999,0,sub_9
0.0022403999999997,0.0136514000000011,0.001245,0.0320782000000004,-0.032646199999999,-0.0038775999999999,0,sub_9
0.0035599999999997,0.0093778000000011,-9.359999999988644e-05,0.0320446000000004,-0.040102999999999,-0.0038683999999999,0,sub_9
0.0052435999999997,0.0060894000000011,-0.0009577999999998,0.0269192000000004,-0.039685999999999,-0.0019743999999999,0,sub_9
0.0052123999999997,0.0025828000000011,-0.0029381999999998,0.0190438000000004,-0.032447599999999,0.0013872,0,sub_9
0.0070039999999997,0.0008698000000011,-0.0015281999999998,0.0086280000000004,-0.021362599999999,0.004085,0,sub_9
0.0072519999999997,0.0011048000000011,-0.0024251999999998,-8.55999999995135e-05,-0.011560999999999,0.0065828,0,sub_9
0.0062985999999997,0.0026374000000011,-0.0041803999999999,-0.0079283999999994,0.0007992000000009,0.0078016,0,sub_9
0.0040771999999997,0.0042534000000011,-0.0040851999999999,-0.0111011999999994,0.0074134000000009,0.0081982,0,sub_9
0.0042349999999997,0.0083410000000011,-0.0037655999999999,-0.0121573999999994,0.0097608000000009,0.0081878,0,sub_9
0.0020863999999997,0.0068982000000011,-0.0058485999999999,-0.0100131999999994,0.0108238000000009,0.0069196,0,sub_9
0.0026871999999997,0.0102510000000011,-0.0016301999999999,-0.0110019999999994,0.0212522000000009,0.0034942,0,sub_9
0.0038213999999997,0.0110966000000011,0.0013406,-0.0075693999999994,0.0197290000000009,0.0013968,0,sub_9
0.0082737999999997,0.0129070000000011,0.0014534,-0.0075469999999994,0.0207674000000009,0.0009816,0,sub_9
0.0124925999999997,0.0116050000000011,0.0024304,-0.0077503999999994,0.0200978000000009,0.001635,0,sub_9
0.0180993999999997,0.0146556000000011,0.0063718,-0.0090329999999994,0.0183598000000009,0.0039916,0,sub_9
0.0193841999999997,0.0122680000000011,0.006134,-0.0078073999999994,0.0106674000000009,0.0084966,0,sub_9
0.0207283999999997,0.0114476000000011,0.0059664,-0.0088885999999994,0.0110826000000009,0.0121206,0,sub_9
0.0190493999999997,0.0102956000000011,0.0060432,-0.0046593999999994,0.0038188000000009,0.0134414,0,sub_9
0.0147745999999997,0.0109494000000011,0.0055746,0.0007018000000004,-0.004811799999999,0.0119972,0,sub_9
0.0077249999999997,0.0105706000000011,0.0023596,0.0058764000000004,-0.009385999999999,0.0086236,0,sub_9
0.0029061999999997,0.0113300000000011,-0.0014463999999999,0.0097910000000004,-0.010118199999999,0.0045952,0,sub_9
-0.0031810000000002,0.0106190000000011,-0.0054037999999999,0.0130616000000004,-0.012336999999999,-7.659999999990973e-05,0,sub_9
-0.0082274000000002,0.0082508000000011,-0.0081667999999999,0.0120696000000004,-0.0115657999999989,-0.0028591999999999,0,sub_9
-0.0071572000000002,0.0062694000000011,-0.0095673999999998,0.0097454000000004,-0.007717599999999,-0.0041621999999999,0,sub_9
-0.0035080000000002,0.0047020000000011,-0.0087309999999998,0.0095426000000004,-0.007070799999999,-0.0058735999999999,0,sub_9
-0.0046316000000002,-0.0005459999999988,-0.0078137999999998,0.0097580000000004,-0.007918599999999,-0.0071527999999999,0,sub_9
-0.0026716000000002,-0.0037357999999987,-0.0058589999999998,0.0059346000000004,-0.002584799999999,-0.0056907999999999,0,sub_9
0.0030893999999997,-0.0036949999999988,-0.0043809999999998,4.50000000004877e-05,0.0071334000000009,-0.0042279999999999,0,sub_9
0.0052977999999997,-0.0020059999999988,-0.0008835999999999,-0.0056519999999994,0.0123758000000009,-0.0025443999999999,0,sub_9
0.0058529999999997,-0.0001389999999988,0.0003984,-0.0132761999999994,0.0184676000000009,0.0014746,0,sub_9
0.0112549999999997,0.0062464000000011,0.0029906,-0.0206909999999994,0.0247676000000009,0.0065632,0,sub_9
0.0156205999999997,0.0131008000000011,0.005655,-0.0225953999999995,0.0208294000000009,0.0097804,0,sub_9
0.0150267999999997,0.0184076000000011,0.0080054,-0.0196617999999995,0.0107978000000009,0.0117366,0,sub_9
0.0129943999999997,0.0200826000000011,0.007662,-0.0145705999999995,0.0054486000000009,0.0130608,0,sub_9
0.0117235999999997,0.0205636000000012,0.0066962,-0.0077695999999995,0.0009378000000009,0.0120578,0,sub_9
0.0093587999999997,0.0195080000000011,0.0044468,-0.0009655999999995,-0.005480399999999,0.0084934,0,sub_9
0.0075143999999997,0.0172936000000011,0.0027404000000001,0.0033018000000004,-0.007624199999999,0.0038378,0,sub_9
0.0060145999999997,0.0139888000000011,0.0019124000000001,0.0075798000000004,-0.008273399999999,-0.0016743999999999,0,sub_9
0.0059941999999997,0.0111868000000011,0.0001946000000001,0.0112098000000004,-0.009775999999999,-0.0063353999999999,0,sub_9
0.0064323999999997,0.0100126000000011,-0.0016841999999998,0.0150496000000004,-0.012548799999999,-0.0088687999999998,0,sub_9
0.0071941999999997,0.0098250000000011,-0.0029847999999998,0.0178148000000004,-0.015748999999999,-0.0101271999999998,0,sub_9
0.0053923999999997,0.0088494000000011,-0.0031067999999999,0.0210068000000004,-0.017253399999999,-0.0096755999999998,0,sub_9
0.0058859999999997,0.0078810000000011,-0.0039097999999999,0.0227136000000004,-0.016223999999999,-0.0077461999999998,0,sub_9
0.0059103999999997,0.0075696000000011,-0.0032001999999999,0.0220762000000004,-0.014334999999999,-0.0056205999999998,0,sub_9
0.0065465999999997,0.0075312000000011,-0.0016643999999999,0.0182448000000004,-0.010943599999999,-0.0035193999999999,0,sub_9
0.0069383999999997,0.0063956000000011,0.0004778,0.0150488000000004,-0.009043999999999,-0.0018391999999999,0,sub_9
0.0087295999999997,0.0065942000000011,0.0010992,0.0118528000000004,-0.007356399999999,-0.0003723999999999,0,sub_9
0.0073225999999997,0.0052366000000011,5.260000000007394e-05,0.0094932000000004,-0.008207999999999,0.001535,0,sub_9
0.0059219999999997,0.0048552000000011,-0.0008199999999999,0.0062860000000004,-0.007990599999999,0.0032214,0,sub_9
0.0034607999999997,0.0034430000000011,-0.0006059999999999,0.0026578000000004,-0.007341999999999,0.0040498,0,sub_9
0.0012305999999997,0.0028338000000011,-0.0016689999999999,-0.0013875999999994,-0.003712799999999,0.0057262,0,sub_9
0.0008029999999997,0.0024422000000011,-0.0025659999999999,-0.0045745999999994,-0.001604599999999,0.0067508,0,sub_9
0.0004485999999997,0.0041624000000011,-0.0014793999999998,-0.0075385999999994,0.0009360000000009,0.0060672,0,sub_9
-0.0006904000000001,0.0045092000000011,-0.0024387999999998,-0.0087945999999994,0.0036836000000009,0.0053954,0,sub_9
0.0002151999999998,0.0055116000000011,-0.0033333999999998,-0.0085589999999994,0.0059998000000009,0.0047346,0,sub_9
0.0025697999999998,0.0069462000000011,-0.0031409999999998,-0.0076937999999994,0.0051214000000009,0.0032276,0,sub_9
0.0038395999999998,0.0072906000000011,-0.0020103999999998,-0.0081051999999994,0.0064098000000009,0.0010866,0,sub_9
0.0061609999999998,0.0078018000000011,-0.0020899999999999,-0.0078811999999994,0.0085404000000009,0.0008718,0,sub_9
0.0101223999999997,0.0101756000000011,-0.0003169999999999,-0.0085241999999994,0.0083280000000009,0.0012948,0,sub_9
0.0121301999999997,0.0128048000000011,0.0018516,-0.0087559999999994,0.0063958000000009,0.0021428000000001,0,sub_9
0.0119437999999997,0.0143390000000011,0.0033182,-0.0083429999999994,0.0065876000000009,0.0040608000000001,0,sub_9
0.0117591999999997,0.0155662000000011,0.0026142,-0.0060257999999994,0.0042118000000009,0.0070636,0,sub_9
0.0129607999999997,0.0171772000000011,0.0035338,-0.0043459999999994,0.0005674000000009,0.0081408,0,sub_9
0.0115411999999997,0.0168766000000011,0.0038412,-0.0009543999999994,-0.003927399999999,0.0073082,0,sub_9
0.0095195999999997,0.0160282000000011,0.003088,0.0022482000000005,-0.006271199999999,0.0045562,0,sub_9
0.0085613999999997,0.0153258000000011,0.002884,0.0043916000000004,-0.008604199999999,8.760000000009038e-05,0,sub_9
0.0080937999999997,0.0135428000000011,0.0031946,0.0071896000000004,-0.012242199999999,-0.0048215999999999,0,sub_9
0.0065527999999997,0.0104754000000011,0.0010652,0.0110458000000004,-0.016952399999999,-0.0088675999999999,0,sub_9
0.0060109999999997,0.0068046000000011,-0.0012233999999999,0.0146858000000004,-0.020179199999999,-0.0107803999999999,0,sub_9
0.0059423999999997,0.0029998000000011,-0.0036517999999998,0.0164016000000004,-0.020856199999999,-0.0092915999999999,0,sub_9
0.0069025999999997,0.0005094000000011,-0.0056813999999998,0.0172572000000004,-0.019838799999999,-0.0046063999999999,0,sub_9
0.0070747999999997,-0.0001681999999988,-0.0072825999999998,0.0157406000000004,-0.018580799999999,0.0017908,0,sub_9
0.0056015999999997,0.0006508000000011,-0.0060141999999998,0.0110456000000004,-0.012623599999999,0.0079462,0,sub_9
0.0031059999999997,0.0032996000000011,-0.0047419999999998,0.0059372000000004,-0.005167599999999,0.012601,0,sub_9
0.0011307999999997,0.0070620000000011,-0.0044971999999998,0.0020870000000005,-0.001529599999999,0.0144888,0,sub_9
-0.0020954000000001,0.0111264000000011,-0.0045145999999998,-0.0019717999999994,-8.599999999011481e-06,0.0131732,0,sub_9
-0.0044226000000001,0.0134526000000011,-0.0023099999999999,-0.0055865999999994,0.0027994000000009,0.0092954,0,sub_9
-0.0040408000000001,0.0149280000000011,-0.0014403999999999,-0.0062295999999994,0.0026124000000009,0.0058694,0,sub_9
0.0008701999999998,0.0148682000000012,-0.0011313999999999,-0.0051827999999994,-0.000354399999999,0.0035272,0,sub_9
0.0073523999999998,0.0122414000000011,0.0015456,-0.0041245999999995,-0.004185399999999,0.0016166,0,sub_9
0.0136405999999997,0.0078904000000011,0.004953,-0.0011479999999995,-0.007600399999999,0.0005736,0,sub_9
0.0177663999999997,0.0059904000000011,0.003631,0.0033222000000004,-0.009959599999999,0.0006078,0,sub_9
0.0196427999999997,0.0047800000000011,0.0032436,0.0060666000000004,-0.010797599999999,0.000621,0,sub_9
0.0180019999999997,0.0043214000000011,0.0034426,0.0047694000000004,-0.008851799999999,0.0006024,0,sub_9
0.0119039999999997,0.0062252000000011,0.0008668,0.0030484000000004,-0.005416599999999,0.0014336,0,sub_9
0.0059139999999997,0.0090226000000011,-0.0031755999999999,4.6200000000486825e-05,-0.001341199999999,0.0031096,0,sub_9
0.0013191999999997,0.0115220000000011,-0.0046275999999999,-0.0046619999999995,0.0035898000000009,0.0054134,0,sub_9
-0.0028328000000002,0.0135878000000012,-0.0052641999999999,-0.0099847999999994,0.0078626000000009,0.00708,0,sub_9
-0.0062474000000001,0.0145742000000011,-0.0054701999999999,-0.0129605999999994,0.0112784000000009,0.0079094,0,sub_9
-0.0063460000000001,0.0126532000000011,-0.0060031999999999,-0.0150779999999994,0.0151198000000009,0.0081034,0,sub_9
-0.0034500000000001,0.0107466000000011,-0.0051929999999999,-0.0165547999999995,0.0174794000000009,0.0065824,0,sub_9
0.0012809999999998,0.0098772000000011,-0.0025293999999999,-0.0173923999999995,0.0175018000000009,0.0029326,0,sub_9
0.0066187999999998,0.0089926000000011,-0.0010215999999999,-0.0141911999999995,0.0138890000000009,-0.0008981999999999,0,sub_9
0.0106781999999997,0.0071130000000011,-0.0007317999999999,-0.0109871999999994,0.0115520000000009,-0.0040895999999999,0,sub_9
0.0144431999999997,0.0067706000000011,0.001425,-0.0086261999999994,0.0115616000000009,-0.0072899999999999,0,sub_9
0.0158509999999997,0.0070156000000011,0.00281,-0.0081745999999994,0.0156142000000009,-0.0087875999999998,0,sub_9
0.0147189999999997,0.0085452000000011,0.0028306,-0.0083649999999994,0.0213648000000009,-0.0081553999999998,0,sub_9
0.0131101999999997,0.0112350000000011,0.0027102,-0.0104699999999994,0.0292492000000009,-0.0066845999999998,0,sub_9
0.0119521999999997,0.0153230000000011,0.0027228,-0.0113195999999994,0.0313776000000009,-0.0054113999999998,0,sub_9
0.0089715999999997,0.0188560000000011,0.0028218,-0.0107025999999994,0.0294690000000009,-0.0037043999999998,0,sub_9
0.0056617999999998,0.0201878000000012,0.0027788,-0.0073345999999994,0.0218008000000009,-0.0026115999999999,0,sub_9
0.0036311999999998,0.0170432000000011,0.001701,-0.0033303999999994,0.0120050000000009,-0.0027935999999999,0,sub_9
0.0025491999999998,0.0122862000000011,-2.1199999999906017e-05,-0.0006017999999994,0.0028546000000009,-0.0034127999999998,0,sub_9
0.0035021999999998,0.0083196000000011,-0.0004289999999999,0.0006524000000004,-0.002453999999999,-0.0044743999999998,0,sub_9
0.0058983999999998,0.0043786000000011,-0.0014123999999999,0.0019162000000004,-0.007141399999999,-0.0055277999999998,0,sub_9
0.0084899999999997,0.0024532000000011,-0.0023291999999999,0.0017028000000004,-0.007777199999999,-0.0061693999999998,0,sub_9
0.0102595999999997,0.0022424000000011,-0.0026467999999999,0.0025290000000004,-0.008175799999999,-0.0053217999999998,0,sub_9
0.0108925999999997,0.0027592000000011,-0.0028773999999999,0.0033612000000004,-0.007083799999999,-0.0042623999999999,0,sub_9
0.0091713999999997,0.0034282000000011,-0.0029503999999999,0.0035638000000004,-0.004070399999999,-0.0036371999999999,0,sub_9
0.0070635999999997,0.0061960000000011,-0.0029403999999999,0.0037644000000004,-0.001695199999999,-0.0032245999999998,0,sub_9
0.0042311999999997,0.0082800000000011,-0.0035619999999999,0.0043840000000004,-0.001238199999999,-0.0030205999999998,0,sub_9
0.0023309999999997,0.0093974000000011,-0.0031415999999999,0.0026886000000004,0.0015366000000009,-0.0028223999999998,0,sub_9
0.0028365999999997,0.0109822000000011,-0.0019995999999999,-7.579999999949295e-05,0.0043134000000009,-0.0022041999999998,0,sub_9
0.0050633999999997,0.0122658000000011,-0.0014717999999999,-0.0024383999999994,0.0030348000000009,-8.259999999988971e-05,0,sub_9
0.0067829999999997,0.0132808000000011,0.0004404,-0.0058823999999994,0.0026404000000009,0.003082,0,sub_9
0.0090473999999997,0.0125338000000011,0.0015944,-0.0072071999999994,-0.000532799999999,0.0066926,0,sub_9
0.0105135999999997,0.0125002000000011,0.0019714,-0.0085233999999994,-0.003061599999999,0.0090204,0,sub_9
0.0094697999999997,0.0110204000000011,0.0024016,-0.0081227999999994,-0.005800199999999,0.0090104,0,sub_9
0.0080413999999997,0.0100466000000011,0.001955,-0.0059969999999994,-0.006194399999999,0.0073004,0,sub_9
0.0078161999999997,0.0082858000000011,0.0001578,-0.0021379999999994,-0.004918399999999,0.0045484,0,sub_9
0.0060503999999997,0.0071508000000011,-0.0014135999999999,0.0010876000000004,-0.002785399999999,0.0011498,0,sub_9
0.0052269999999997,0.0070726000000011,-0.0017163999999999,0.0032510000000004,0.0014776000000009,-0.0011905999999999,0,sub_9
0.0068261999999997,0.0099582000000011,-0.0020673999999999,0.0053924000000004,0.0027502000000009,-0.0016045999999999,0,sub_9
0.0061521999999997,0.0097390000000011,-0.0030959999999999,0.0079434000000004,-0.001940799999999,-0.0018155999999999,0,sub_9
0.0058489999999997,0.0103644000000011,-0.0025467999999999,0.0079502000000004,-0.004062199999999,-0.0031157999999999,0,sub_9
0.0092943999999997,0.0139744000000011,0.0010918,0.0111376000000004,-0.010880999999999,-0.0046013999999999,0,sub_9
0.0104421999999997,0.0153766000000011,0.001944,0.0181436000000004,-0.023674599999999,-0.0071209999999999,0,sub_9
0.0079495999999997,0.0126684000000011,0.0015468,0.0213366000000004,-0.029215199999999,-0.0086083999999998,0,sub_9
0.0082075999999997,0.0114764000000011,0.0030348,0.0187952000000004,-0.024520799999999,-0.0082047999999998,0,sub_9
0.0073111999999997,0.0070464000000011,0.0010276,0.0149592000000004,-0.021319999999999,-0.0060991999999998,0,sub_9
0.0040829999999997,0.0018110000000011,-0.0023521999999999,0.0030696000000004,-0.005734799999999,-0.0038521999999998,0,sub_9
0.0018127999999997,-0.0017655999999988,-0.0047031999999999,-0.0098521999999994,0.0117278000000009,-0.0009779999999998,0,sub_9
0.0021197999999997,-0.0020537999999988,-0.0069945999999999,-0.0187429999999994,0.0236386000000009,0.0015042,0,sub_9
0.0019511999999997,0.0013656000000011,-0.0079567999999999,-0.0208451999999994,0.0257292000000009,0.002978,0,sub_9
0.0026977999999997,0.0071696000000011,-0.0058859999999999,-0.0191191999999994,0.0246124000000009,0.0040554,0,sub_9
0.0035501999999997,0.0122514000000011,-0.0033851999999999,-0.0118655999999994,0.0179412000000009,0.0041104,0,sub_9
0.0061827999999997,0.0166950000000012,0.0005,-0.0037901999999995,0.0087594000000009,0.0022556,0,sub_9
0.0087423999999997,0.0196628000000011,0.0055916,0.0059884000000004,-0.003402599999999,-0.0017197999999999,0,sub_9
0.0090513999999997,0.0165138000000011,0.0065592,0.0151608000000004,-0.012186999999999,-0.0054839999999999,0,sub_9
0.0100321999999997,0.0139432000000012,0.0067708,0.0217948000000004,-0.015213599999999,-0.0084187999999999,0,sub_9
0.0116373999999997,0.0110870000000011,0.0046546,0.0264920000000004,-0.019096799999999,-0.0085885999999998,0,sub_9
0.0098921999999997,0.0066044000000011,0.0010602000000001,0.0292412000000004,-0.025119999999999,-0.0047099999999999,0,sub_9
0.0055579999999997,0.0013264000000011,-0.0035137999999998,0.0270886000000004,-0.026452399999999,0.0025466,0,sub_9
0.0022371999999997,-0.0014953999999988,-0.0064829999999998,0.0187526000000004,-0.021343199999999,0.0108138,0,sub_9
-0.0006280000000002,-0.0038393999999988,-0.0095373999999998,0.0080542000000004,-0.020058999999999,0.0186422,0,sub_9
-0.0045496000000001,-0.0042583999999988,-0.0101195999999998,-0.0060263999999995,-0.014915199999999,0.0232374,0,sub_9
-0.0043660000000001,-0.0018501999999988,-0.0077965999999999,-0.0196083999999995,-0.001256199999999,0.0237688,0,sub_9
-0.0010584000000001,0.0017682000000011,-0.0066541999999999,-0.0287049999999994,0.0106936000000009,0.0215564,0,sub_9
0.0066301999999998,0.0076674000000011,-0.0016501999999999,-0.0329033999999994,0.0179494000000009,0.0168204,0,sub_9
0.0129357999999997,0.0127034000000011,0.0022808,-0.0279555999999994,0.0164474000000009,0.0098094,0,sub_9
0.0172447999999997,0.0156640000000011,0.006932,-0.0157741999999994,0.0102328000000009,0.002855,0,sub_9
0.0181271999999997,0.0164234000000011,0.0074896,0.0002152000000004,0.0016770000000009,-0.0025771999999998,0,sub_9
0.0176117999999997,0.0170152000000011,0.0089612,0.0125852000000004,-0.003463999999999,-0.0063297999999998,0,sub_9
0.0129223999999997,0.0153008000000011,0.0054854,0.0200504000000004,-0.005826799999999,-0.0079835999999998,0,sub_9
0.0076095999999997,0.0132684000000011,0.0033926,0.0185782000000004,-0.001359399999999,-0.0062923999999998,0,sub_9
0.0047749999999997,0.0119438000000011,-0.0006403999999999,0.0132508000000004,0.0018354000000009,-0.0027037999999998,0,sub_9
0.0036341999999997,0.0120420000000011,-0.0031109999999999,0.0070364000000004,-0.002635999999999,0.0006748000000001,0,sub_9
0.0025299999999997,0.0108620000000011,-0.0036991999999999,0.0059122000000004,-0.015428399999999,0.002604,0,sub_9
0.0028165999999997,0.0102550000000011,-0.0026255999999999,0.0107528000000004,-0.032069799999999,0.0028706,0,sub_9
0.0043455999999997,0.0073886000000011,-0.0034559999999999,0.0183978000000004,-0.042102599999999,0.001014,0,sub_9
0.0065645999999997,0.0024858000000011,-0.0033259999999999,0.0224596000000004,-0.042958599999999,-0.0015203999999998,0,sub_9
0.0081619999999997,-0.0015467999999988,-0.0023295999999998,0.0203816000000004,-0.032291599999999,-0.0032575999999998,0,sub_9
0.0103951999999997,-0.0025941999999988,-0.0014485999999998,0.0123464000000004,-0.015646799999999,-0.0029077999999998,0,sub_9
0.0112829999999997,-0.0020413999999988,-0.0010849999999998,0.0025842000000004,0.0001648000000009,-0.0012789999999998,0,sub_9
0.0102731999999997,0.0020642000000011,0.0002738000000001,-0.0052931999999994,0.0089356000000009,0.0012266000000001,0,sub_9
0.0065615999999997,0.0073276000000011,-5.999999998857614e-07,-0.0097709999999994,0.0144984000000009,0.00376,0,sub_9
0.0030115999999997,0.0122600000000011,-0.0010641999999999,-0.0114807999999994,0.0179244000000009,0.0054608,0,sub_9
-0.0010138000000002,0.0147304000000011,-0.0025725999999999,-0.0123265999999995,0.0219936000000009,0.0054578,0,sub_9
-0.0030330000000002,0.0143882000000011,-0.0032587999999999,-0.0140037999999995,0.0279676000000009,0.0047974,0,sub_9
-0.0024706000000002,0.0117974000000011,-0.0034805999999999,-0.0167431999999995,0.0345862000000009,0.0037014,0,sub_9
0.0014379999999997,0.0096320000000011,-0.0023027999999999,-0.0199255999999995,0.0390854000000009,0.0017568,0,sub_9
0.0063955999999997,0.0064628000000011,-0.0013061999999999,-0.0205789999999995,0.0365448000000009,-0.0001611999999999,0,sub_9
0.0093263999999997,0.0036120000000011,-0.0012195999999999,-0.0197407999999995,0.0342094000000009,-0.0014281999999998,0,sub_9
0.0109083999999997,0.0025576000000011,-0.0014341999999999,-0.0197533999999995,0.0335772000000009,-0.0016349999999998,0,sub_9
0.0110413999999997,0.0032876000000011,-0.0008745999999999,-0.0208345999999995,0.0329470000000009,-0.0014219999999999,0,sub_9
0.0102001999999997,0.0050524000000011,-0.0007687999999999,-0.0219129999999995,0.0323038000000009,0.000494,0,sub_9
0.0084939999999997,0.0075144000000011,-0.0007589999999999,-0.0248907999999995,0.0363546000000009,0.0023908,0,sub_9
0.0088809999999997,0.0106538000000011,0.0001012,-0.0263747999999995,0.0389148000000009,0.0028044,0,sub_9
0.0077259999999997,0.0115674000000011,0.0011458,-0.0255305999999995,0.0385172000000009,0.0017226,0,sub_9
0.0067693999999997,0.0114850000000011,0.000176,-0.0233975999999995,0.0391838000000009,-0.0002061999999999,0,sub_9
0.0056467999999997,0.0107650000000011,-0.0004959999999999,-0.0214721999999995,0.0398564000000009,-0.0034183999999999,0,sub_9
0.0059283999999997,0.0097582000000011,-0.0002363999999999,-0.0197649999999995,0.0396766000000009,-0.0064173999999999,0,sub_9
0.0061611999999997,0.0077330000000011,-0.0001107999999999,-0.0197695999999995,0.0401350000000009,-0.0077197999999999,0,sub_9
0.0085743999999997,0.0081950000000011,0.0007578,-0.0210325999999994,0.0441866000000009,-0.0075201999999999,0,sub_9
0.0109645999999997,0.0085644000000011,0.0023692,-0.0210365999999994,0.0446076000000009,-0.0062387999999999,0,sub_9
0.0137959999999997,0.0092000000000011,0.0036544,-0.0210539999999994,0.0433190000000009,-0.0036733999999999,0,sub_9
0.0141865999999997,0.0100404000000011,0.0043212,-0.0195945999999994,0.0396996000000009,-0.0015379999999999,0,sub_9
0.0143167999999997,0.0119310000000011,0.005653,-0.0147519999999994,0.0284018000000009,-0.0002237999999999,0,sub_9
0.0086843999999997,0.0084496000000011,0.0024766,-0.0063125999999995,0.0094248000000009,0.0002708,0,sub_9
0.0076393999999997,0.0103974000000011,0.0059288,-0.0025049999999995,0.0028272000000009,-0.0007783999999998,0,sub_9
