userAcceleration.x,userAcceleration.y,userAcceleration.z,rotationRate.x,rotationRate.y,rotationRate.z,label,subject
-0.0028388000000002,0.0194186000000011,0.0027586,-0.0324493999999995,-0.002012799999999,0.0104132,0,sub_8
-0.0087546000000002,0.0230836000000011,0.0010074,-0.0190587999999995,-0.015474399999999,0.0086012,0,sub_8
-0.0116066000000001,0.0245684000000011,0.00146,-0.0101057999999995,-0.021454999999999,0.0046122,0,sub_8
-0.0082110000000002,0.0237086000000011,0.0031068,-0.0045311999999995,-0.022935799999999,-0.0028245999999998,0,sub_8
-0.0027682000000002,0.0222246000000011,0.0047278000000001,-0.0023505999999995,-0.019718399999999,-0.0100773999999998,0,sub_8
0.0031857999999997,0.0202914000000011,0.0078480000000001,-0.0018721999999995,-0.013944399999999,-0.0158499999999998,0,sub_8
0.0074901999999997,0.0194074000000011,0.0100666000000001,-0.0020629999999995,-0.009031999999999,-0.0203265999999998,0,sub_8
0.0104487999999997,0.0183380000000011,0.0105378000000001,-0.0003593999999995,-0.007544599999999,-0.0224353999999998,0,sub_8
0.0122113999999997,0.0166462000000011,0.0111292000000001,0.0023870000000004,-0.008204199999999,-0.0213295999999998,0,sub_8
0.0124191999999997,0.0162712000000011,0.0103116000000001,0.0059756000000004,-0.009513599999999,-0.0182943999999999,0,sub_8
0.0110093999999997,0.0174526000000011,0.0091340000000001,0.0087010000000004,-0.011677399999999,-0.0139819999999999,0,sub_8
0.0090491999999997,0.0180186000000012,0.0081460000000001,0.0103802000000004,-0.013193399999999,-0.0092679999999999,0,sub_8
0.0076685999999997,0.0184096000000012,0.0077280000000001,0.0101456000000003,-0.014060199999999,-0.0054229999999999,0,sub_8
0.0053385999999997,0.0192498000000012,0.0067422000000001,0.0092392000000004,-0.014107999999999,-0.0018129999999999,0,sub_8
0.0031525999999997,0.0197370000000012,0.0070112000000001,0.0083358000000004,-0.013728799999999,0.001583,0,sub_8
0.0015633999999997,0.0195178000000011,0.007486,0.0050968000000004,-0.011845799999999,0.0038922,0,sub_8
0.0009387999999997,0.0190764000000011,0.0072444,0.0014368000000004,-0.009107399999999,0.0057702,0,sub_8
0.0014957999999997,0.0187328000000011,0.0063666,-9.319999999957588e-05,-0.007652999999999,0.0072376,0,sub_8
0.0023507999999997,0.0183018000000011,0.0063904,-0.0009455999999995,-0.0072247999999989,0.0074448,0,sub_8
0.0025619999999997,0.0172164000000011,0.0064338,-0.0011551999999995,-0.0072207999999989,0.0065886,0,sub_8
0.0038683999999997,0.0157142000000012,0.0056512,0.0005546000000004,-0.0074363999999989,0.0057464,0,sub_8
0.0047985999999997,0.0158330000000012,0.0057934,0.0020398000000004,-0.007765999999999,0.004715,0,sub_8
0.0045345999999997,0.0160344000000012,0.0062884000000001,0.0031050000000004,-0.005965999999999,0.0043188,0,sub_8
0.0039717999999997,0.0161982000000012,0.0066212000000001,0.0037426000000004,-0.003316599999999,0.0049868,0,sub_8
0.0040927999999997,0.0165158000000012,0.0075900000000001,0.0039506000000004,-0.001516999999999,0.0054394,0,sub_8
0.0028725999999997,0.0179046000000012,0.0084590000000001,0.0054370000000004,-0.000572599999999,0.0054746,0,sub_8
0.0027387999999997,0.0192000000000012,0.0085734000000001,0.0069288000000004,-0.001003999999999,0.0054856,0,sub_8
0.0029049999999997,0.0197810000000012,0.0092344000000001,0.0075574000000004,-0.003775199999999,0.0052798,0,sub_8
0.0039923999999997,0.0191260000000011,0.0095762000000001,0.0081850000000004,-0.006971599999999,0.004861,0,sub_8
0.0046665999999997,0.0185422000000011,0.0085308000000001,0.0081876000000004,-0.009412999999999,0.0048434,0,sub_8
0.0059061999999997,0.0177328000000011,0.0074332000000001,0.0060642000000004,-0.009717999999999,0.0052354,0,sub_8
0.0054325999999997,0.0163728000000011,0.0068396000000001,0.0030940000000004,-0.008104399999999,0.0060464,0,sub_8
0.0048313999999997,0.0159196000000011,0.0059720000000001,0.0009870000000004,-0.004999799999999,0.0062208,0,sub_8
0.0038149999999997,0.0166242000000011,0.0056204000000001,-0.0013333999999995,-0.001894399999999,0.0063936,0,sub_8
0.0029099999999997,0.0168052000000011,0.0055778000000001,-0.0034555999999995,0.0013062000000009,0.0070156,0,sub_8
0.0011007999999997,0.0180636000000011,0.0054702000000001,-0.0043043999999995,0.0025866000000009,0.0072218,0,sub_8
0.0013407999999997,0.0190132000000011,0.0063252,-0.0049445999999995,0.0017400000000009,0.0063638,0,sub_8
0.0013953999999997,0.0191778000000012,0.006178,-0.0057643999999995,0.0003576000000009,0.0054298,0,sub_8
0.0019397999999997,0.0186950000000012,0.0056668,-0.0059381999999995,3.900000000096587e-05,0.0042854,0,sub_8
0.0033671999999997,0.0185954000000012,0.0054866,-0.0065319999999995,0.0005768000000009,0.002496,0,sub_8
0.0048459999999997,0.0174254000000012,0.006526,-0.0086165999999995,0.0026078000000009,0.0015488,0,sub_8
0.0051125999999997,0.0160980000000012,0.0062134,-0.0094209999999995,0.0054832000000009,0.0014642,0,sub_8
0.0057797999999997,0.0160170000000012,0.0062724,-0.0106895999999995,0.0076200000000009,0.0010254,0,sub_8
0.0054195999999997,0.0165900000000012,0.0073282,-0.0123889999999995,0.0093304000000009,0.0010114,0,sub_8
0.0038401999999997,0.0172116000000012,0.0082876,-0.0132463999999995,0.0095422000000009,0.0020734,0,sub_8
0.0037523999999997,0.0177634000000012,0.0081328000000001,-0.0115351999999995,0.0087730000000009,0.0028358,0,sub_8
0.0028303999999997,0.0202206000000012,0.0081468000000001,-0.0104593999999995,0.0077980000000009,0.0023122,0,sub_8
0.0017707999999997,0.0215472000000012,0.0084832000000001,-0.0089617999999995,0.0063928000000009,0.002433,0,sub_8
0.0020735999999997,0.0216516000000012,0.0084100000000001,-0.0078937999999995,0.0051990000000009,0.003405,0,sub_8
0.0029031999999997,0.0222402000000012,0.0083890000000001,-0.0066075999999995,0.0048574000000009,0.0041638,0,sub_8
0.0025159999999997,0.0221964000000012,0.0082284000000001,-0.0055455999999995,0.0042128000000009,0.0045994,0,sub_8
0.0025207999999997,0.0203790000000012,0.0086482000000001,-0.0042777999999995,0.0029242000000009,0.0061054,0,sub_8
0.0029693999999997,0.0192396000000012,0.0088702,-0.0023659999999995,0.0022732000000009,0.0074014,0,sub_8
0.0029691999999997,0.0195374000000012,0.0083,0.0014642000000004,0.0001284000000009,0.0076446,0,sub_8
0.0025977999999997,0.0192062000000012,0.0081632,0.0050846000000004,-0.002153199999999,0.0075156,0,sub_8
0.0017881999999997,0.0191120000000012,0.0082112,0.0078504000000004,-0.004220399999999,0.0078076,0,sub_8
0.0019223999999997,0.0195888000000012,0.0083172,0.0093438000000004,-0.004790999999999,0.0078752,0,sub_8
0.0021787999999997,0.0199038000000012,0.00838,0.0097712000000004,-0.004720199999999,0.0083618,0,sub_8
0.0018777999999997,0.0194788000000012,0.007971,0.0091376000000004,-0.004004199999999,0.0081992,0,sub_8
0.0018129999999997,0.0190294000000012,0.0077652,0.0082860000000004,-0.003362799999999,0.0084062,0,sub_8
0.0023357999999997,0.0191032000000012,0.0077034,0.0067972000000004,-0.002292399999999,0.0083944,0,sub_8
0.0022595999999997,0.0188934000000012,0.0068984,0.0065738000000004,-0.002019799999999,0.0082014,0,sub_8
0.0022823999999997,0.0183722000000012,0.006513,0.0072038000000004,-0.002174599999999,0.0075878,0,sub_8
0.0022735999999997,0.0184464000000011,0.0070272,0.0074080000000004,-0.001690399999999,0.0073976,0,sub_8
0.0022023999999997,0.0184758000000011,0.0066798,0.0076132000000004,-0.001417799999999,0.0067804,0,sub_8
0.0021201999999997,0.0185966000000011,0.0068534,0.0078148000000004,-0.0017849999999989,0.0063776,0,sub_8
0.0022645999999997,0.0189770000000011,0.0071842,0.0073908000000004,-0.0017809999999989,0.0057338,0,sub_8
0.0018203999999997,0.0193596000000011,0.007017,0.0059020000000004,-0.001134999999999,0.0052952,0,sub_8
0.0012283999999997,0.0194728000000011,0.00735,0.0048400000000004,-0.000490599999999,0.0048596,0,sub_8
0.0008791999999997,0.0193328000000011,0.0075416,0.0037744000000004,-1.919999999905414e-05,0.0044244,0,sub_8
0.0007635999999997,0.0192412000000011,0.0072992,0.0031336000000004,-0.000399999999999,0.003566,0,sub_8
0.0010403999999997,0.0195160000000011,0.0070662000000001,0.0037712000000004,-0.001211399999999,0.002717,0,sub_8
0.0007355999999997,0.0191820000000011,0.0075076000000001,0.0041974000000004,-0.001595799999999,0.001866,0,sub_8
0.0008645999999997,0.0187324000000011,0.0074694000000001,0.0039834000000004,-0.001341399999999,0.0016508,0,sub_8
0.0007107999999997,0.0188306000000011,0.0065190000000001,0.0046254000000004,-0.001978599999999,0.0005878000000001,0,sub_8
0.0022953999999997,0.0195172000000011,0.0060674000000001,0.0046292000000004,-0.001975199999999,-0.0002665999999998,0,sub_8
0.0018375999999997,0.0197588000000011,0.0065748000000001,0.0033566000000004,-0.000902799999999,-0.0009177999999998,0,sub_8
0.0027487999999997,0.0199152000000011,0.0068672000000001,0.0018858000000004,-3.4199999999034306e-05,-0.0007221999999998,0,sub_8
0.0033625999999997,0.0205048000000011,0.0071918000000001,0.0014820000000004,-0.000654599999999,-0.0020127999999998,0,sub_8
0.0031991999999997,0.0204122000000011,0.0077064000000001,0.0010774000000004,-0.000427199999999,-0.0022361999999998,0,sub_8
0.0014141999999997,0.0194900000000011,0.0075702000000001,0.0004640000000004,0.0010786000000009,-0.0022491999999998,0,sub_8
0.0007693999999997,0.0191340000000011,0.0067342000000001,-0.0001511999999995,0.0021582000000009,-0.0022615999999998,0,sub_8
3.879999999976871e-05,0.0198414000000011,0.0057052,-0.0007855999999995,0.0025900000000009,-0.0031211999999998,0,sub_8
-0.0003348000000002,0.0201352000000011,0.0053746,-0.0014237999999995,0.0025940000000009,-0.0035529999999998,0,sub_8
-2.3200000000231302e-05,0.0205230000000011,0.0059296,-0.0022725999999995,0.0030258000000009,-0.0042003999999999,0,sub_8
0.0003459999999997,0.0210544000000011,0.0063208,-0.0028889999999995,0.0036700000000009,-0.0046515999999999,0,sub_8
0.0007269999999997,0.0216378000000011,0.0071088,-0.0035083999999995,0.0036750000000009,-0.0051019999999999,0,sub_8
0.0011307999999997,0.0210300000000012,0.007152,-0.0039123999999995,0.0036810000000009,-0.0059781999999999,0,sub_8
0.0018417999999997,0.0208426000000012,0.006094,-0.0055899999999995,0.0053950000000009,-0.0066517999999999,0,sub_8
0.0021569999999997,0.0204820000000012,0.0057356000000001,-0.0083363999999995,0.0075354000000009,-0.0064789999999999,0,sub_8
0.0022417999999997,0.0199916000000012,0.0054252000000001,-0.0102491999999995,0.0092464000000009,-0.0064945999999999,0,sub_8
0.0024485999999997,0.0191838000000012,0.0053366000000001,-0.0123693999999995,0.0122366000000009,-0.0065131999999999,0,sub_8
0.0020253999999997,0.0193998000000012,0.0057266000000001,-0.0144915999999995,0.0150128000000009,-0.0063179999999999,0,sub_8
0.0009825999999997,0.0192912000000012,0.0059400000000001,-0.0159747999999995,0.0179982000000009,-0.0056913999999999,0,sub_8
-0.0002262000000001,0.0199224000000012,0.0063422000000001,-0.0170371999999995,0.0205630000000009,-0.0050925999999999,0,sub_8
-0.0014602000000001,0.0209712000000012,0.0068260000000001,-0.0172517999999995,0.0212100000000009,-0.0051263999999999,0,sub_8
-0.0022872000000001,0.0214676000000012,0.0068068000000001,-0.0159825999999995,0.0195090000000009,-0.0053605999999999,0,sub_8
-0.0031560000000001,0.0218068000000012,0.0074572000000001,-0.0144979999999995,0.0186578000000009,-0.0051667999999998,0,sub_8
-0.0036854000000001,0.0226388000000012,0.0087726000000001,-0.0123787999999995,0.0171626000000009,-0.0043267999999998,0,sub_8
-0.0028506000000002,0.0230236000000012,0.0094320000000001,-0.0085513999999995,0.0141664000000009,-0.0042961999999998,0,sub_8
-0.0022612000000002,0.0229570000000012,0.0098968000000001,-0.0053661999999995,0.0113830000000009,-0.0036293999999998,0,sub_8
-0.0011568000000002,0.0229502000000012,0.0093092000000001,-0.0032389999999995,0.0103086000000009,-0.0031857999999998,0,sub_8
-0.0010804000000002,0.0228614000000012,0.0091418000000001,-0.0030479999999995,0.0100966000000009,-0.0019349999999998,0,sub_8
-0.0012024000000002,0.0217792000000012,0.0081416,-0.0034963999999995,0.0103122000000009,-0.0004755999999998,0,sub_8
-0.0008234000000002,0.0208880000000012,0.0069886,-0.0037323999999995,0.0092530000000009,-8.119999999988553e-05,0,sub_8
-0.0004666000000002,0.0208798000000012,0.0059848,-0.0037489999999995,0.0088348000000009,-0.0003269999999999,0,sub_8
-0.0012824000000002,0.0207778000000012,0.0067166,-0.0037697999999995,0.0086254000000009,0.0004952,0,sub_8
-0.0001412000000002,0.0200306000000012,0.0070072,-0.0020723999999995,0.0069134000000009,0.0009366,0,sub_8
0.0003489999999997,0.0205880000000012,0.0076844,0.0006908000000004,0.0037114000000009,0.0001054,0,sub_8
-0.0010354000000002,0.0213420000000012,0.0073488,0.0023726000000004,0.0026440000000009,0.0007366,0,sub_8
-0.0024818000000002,0.0215200000000011,0.0080364000000001,0.0038362000000004,0.0015728000000009,0.0024344,0,sub_8
-0.0029472000000002,0.0219796000000011,0.0085432000000001,0.0065744000000004,-0.001417799999999,0.0035026,0,sub_8
-0.0043894000000002,0.0228924000000011,0.0081660000000001,0.0108060000000004,-0.005474399999999,0.0035144,0,sub_8
-0.0047002000000001,0.0238908000000011,0.0077282000000001,0.0131202000000004,-0.008460799999999,0.003939,0,sub_8
-0.0043550000000001,0.0240356000000011,0.0089072000000001,0.0148128000000004,-0.011025999999999,0.004595,0,sub_8
-0.0031444000000001,0.0230510000000012,0.0084960000000001,0.0160824000000004,-0.013373999999999,0.004607,0,sub_8
-0.0023270000000001,0.0226104000000012,0.0074202,0.0162920000000004,-0.014438999999999,0.0043962,0,sub_8
-0.0013742000000001,0.0220684000000012,0.0068164,0.0156444000000004,-0.0146509999999989,0.0041718,0,sub_8
-0.0009366000000001,0.0205076000000012,0.0063566,0.0156370000000004,-0.014440799999999,0.0043784,0,sub_8
-0.0003164000000001,0.0193610000000012,0.0051308,0.0156352000000004,-0.013800999999999,0.00373,0,sub_8
-0.0006488000000002,0.0187278000000012,0.004579,0.0145704000000004,-0.012517399999999,0.0028596,0,sub_8
-0.0010680000000001,0.0186200000000012,0.0048018,0.0135064000000004,-0.010596599999999,0.0024158,0,sub_8
-0.0015272000000001,0.0188332000000011,0.0051592,0.0120252000000004,-0.008033799999999,0.0021884,0,sub_8
-0.0017998000000001,0.0199004000000011,0.0056698,0.0103336000000004,-0.005467799999999,0.0013188,0,sub_8
-0.0024024000000001,0.0214434000000011,0.0065876,0.0092774000000004,-0.003332799999999,0.001095,0,sub_8
-0.0023198000000001,0.0227648000000011,0.0076874,0.0086618000000004,-0.002293999999999,0.0010982,0,sub_8
-0.0026258000000001,0.0231404000000011,0.0086382,0.0084672000000004,-0.002959199999999,0.0006792,0,sub_8
-0.0025892000000002,0.0237478000000012,0.0088382,0.0080592000000004,-0.002987199999999,0.000899,0,sub_8
-0.0025660000000002,0.0238934000000012,0.008258,0.0078616000000004,-0.003442799999999,0.0013342,0,sub_8
-0.0023126000000002,0.0231984000000012,0.0078246,0.0074496000000004,-0.004322999999999,0.001555,0,sub_8
-0.0021708000000002,0.0222708000000012,0.0071294,0.0076590000000004,-0.004539399999999,0.0021978,0,sub_8
-0.0012420000000002,0.0221666000000012,0.0057054,0.0063826000000004,-0.002833999999999,0.0030414,0,sub_8
-0.0011436000000002,0.0218200000000011,0.0056090000000001,0.0051072000000004,-0.001127799999999,0.0036712,0,sub_8
-0.0019590000000002,0.0215098000000011,0.0062858000000001,0.0042924000000004,0.0009490000000009,0.0049584,0,sub_8
-0.0021740000000002,0.0215246000000011,0.0062388000000001,0.0036880000000004,0.0019616000000009,0.0058212,0,sub_8
-0.0021812000000002,0.0226210000000011,0.0062616000000001,0.0024464000000004,0.0027668000000009,0.0058252,0,sub_8
-0.0030832000000001,0.0227088000000011,0.0067948000000001,0.0024802000000004,0.0027146000000009,0.0060528,0,sub_8
-0.0028924000000001,0.0224248000000012,0.0069390000000001,0.0025092000000004,0.0015972000000009,0.0062818,0,sub_8
-0.0016174000000002,0.0226294000000012,0.0063486000000001,0.0027196000000004,0.0001086000000009,0.0054306,0,sub_8
-0.0018378000000002,0.0228096000000012,0.0066822,0.0029360000000004,0.0007470000000009,0.0054312,0,sub_8
-0.0022062000000002,0.0222228000000012,0.0071644,0.0037904000000004,0.0015938000000009,0.006077,0,sub_8
-0.0023332000000002,0.0222026000000012,0.0071928,0.0046400000000004,0.0011630000000009,0.0065108,0,sub_8
-0.0027996000000002,0.0230580000000012,0.0066228,0.0061540000000004,0.0004740000000009,0.0065292,0,sub_8
-0.0038258000000001,0.0234182000000011,0.0074094,0.0076652000000004,-0.000217399999999,0.0071886,0,sub_8
-0.0040180000000001,0.0236154000000011,0.0076104,0.0085372000000004,-0.001329999999999,0.0072032,0,sub_8
-0.0036698000000001,0.0241514000000011,0.0073124,0.0085548000000004,-0.002864999999999,0.0069984,0,sub_8
-0.0033184000000002,0.0240354000000011,0.0078958,0.0079372000000004,-0.003332599999999,0.006788,0,sub_8
-0.0035290000000002,0.0235028000000011,0.0084406,0.0075134000000004,-0.003116199999999,0.0063574,0,sub_8
-0.0034000000000001,0.0223808000000011,0.007921,0.0064474000000004,-0.003111599999999,0.0061362,0,sub_8
-0.0032914000000001,0.0215932000000011,0.0078226,0.0051690000000004,-0.0026809999999989,0.0061266,0,sub_8
-0.0038976000000001,0.0215168000000011,0.0076646,0.0045208000000004,-0.0016211999999989,0.0061186,0,sub_8
-0.0038942000000001,0.0213304000000011,0.0065118,0.0038724000000004,-0.0007735999999989,0.005897,0,sub_8
-0.0039278000000001,0.0214498000000011,0.0061222,0.0030068000000004,-0.000353199999999,0.0061018,0,sub_8
-0.0042186000000002,0.0219116000000011,0.0063180000000001,0.0027862000000004,0.0007058000000009,0.005883,0,sub_8
-0.0040318000000002,0.0224952000000011,0.0065458000000001,0.0019236000000004,0.0013410000000009,0.0056604,0,sub_8
-0.0037958000000002,0.0225374000000012,0.0075504000000001,0.0010730000000004,0.0013464000000009,0.0050136,0,sub_8
-0.0040496000000002,0.0230972000000012,0.0083440000000001,0.0004368000000005,0.0017764000000009,0.0045814,0,sub_8
-0.0042202000000002,0.0230830000000012,0.0085350000000001,-0.0001965999999994,0.0026334000000009,0.003935,0,sub_8
-0.0039554000000002,0.0232480000000011,0.0086384000000001,-0.0012921999999994,0.0030764000000009,0.0032792,0,sub_8
-0.0038048000000001,0.0235166000000011,0.0082976000000001,-0.0015335999999995,0.0035174000000009,0.0024156,0,sub_8
-0.0041208000000001,0.0233140000000011,0.0074424000000001,-0.0019893999999995,0.0041704000000009,0.0019776,0,sub_8
-0.0038724000000001,0.0232070000000011,0.0072100000000001,-0.0022327999999995,0.0050340000000009,0.001968,0,sub_8
-0.0030326000000001,0.0229606000000011,0.0067668000000001,-0.0024789999999995,0.0052584000000009,0.0019592,0,sub_8
-0.0030172000000001,0.0227818000000012,0.0064608000000001,-0.0026885999999995,0.0061114000000009,0.0019566,0,sub_8
-0.0038546000000001,0.0230316000000012,0.0069748000000001,-0.0031123999999995,0.0071764000000009,0.0023796,0,sub_8
-0.0040044000000001,0.0240850000000012,0.0071212,-0.0020453999999995,0.0073850000000009,0.0026004,0,sub_8
-0.0044308000000002,0.0247592000000012,0.0070712,-0.0008035999999995,0.0067544000000009,0.0023846,0,sub_8
-0.0053714000000002,0.0264300000000012,0.0077444,0.0006468000000004,0.0056944000000009,0.0028118,0,sub_8
-0.0049710000000002,0.0265190000000012,0.008169,0.0025142000000004,0.0029268000000009,0.0036714,0,sub_8
-0.0040818000000002,0.0265230000000012,0.0077976,0.0052408000000004,0.0005856000000009,0.0036818,0,sub_8
-0.0035558000000002,0.0257688000000011,0.0076326,0.0069054000000004,-0.000474399999999,0.0038968,0,sub_8
-0.0037792000000002,0.0245374000000011,0.0082104,0.0079712000000004,-5.459999999903407e-05,0.0045446,0,sub_8
-0.0038558000000002,0.0232174000000011,0.00862,0.0084008000000004,0.0012196000000009,0.005187,0,sub_8
-0.0044212000000002,0.0235238000000011,0.008486,0.0087984000000004,0.0022916000000009,0.0051668,0,sub_8
-0.0051910000000002,0.0233768000000011,0.0083658000000001,0.0089770000000004,0.0025104000000009,0.0055734,0,sub_8
-0.0055196000000002,0.0237342000000011,0.0091458000000001,0.0080856000000004,0.0027304000000009,0.0066134,0,sub_8
-0.0051964000000002,0.0252422000000011,0.0089938,0.0084708000000004,0.0020938000000009,0.0076636,0,sub_8
-0.0042832000000002,0.0256408000000011,0.0092768,0.0107696000000004,-0.000252999999999,0.0085156,0,sub_8
-0.0047160000000002,0.0253388000000011,0.0097726,0.0139586000000004,-0.002184199999999,0.0091812,0,sub_8
-0.0051972000000002,0.0245392000000011,0.0104528,0.0173630000000004,-0.003265599999999,0.0102746,0,sub_8
-0.0060402000000002,0.0238936000000011,0.0107022,0.0209856000000004,-0.004767999999999,0.0098746,0,sub_8
-0.0061376000000002,0.0242090000000011,0.0102098000000001,0.0232916000000004,-0.008165999999999,0.0075166,0,sub_8
-0.0068526000000002,0.0224014000000011,0.0092462000000001,0.0217702000000004,-0.0087801999999989,0.0049146,0,sub_8
-0.0064498000000002,0.0221840000000012,0.0068018000000001,0.0189716000000004,-0.0091751999999989,0.0018762,0,sub_8
-0.0054800000000002,0.0226174000000012,0.0047860000000001,0.0144668000000004,-0.0091387999999989,-0.0009609999999999,0,sub_8
-0.0032340000000002,0.0223472000000012,0.0030718000000001,0.0106032000000004,-0.0082549999999989,-0.0031539999999999,0,sub_8
-0.0025330000000002,0.0199700000000012,0.0031724000000001,0.0061472000000004,-0.0031243999999989,-0.0036189999999999,0,sub_8
-0.0022730000000002,0.0205106000000012,0.0034494,0.0036098000000004,0.0017856000000009,-0.0038565999999999,0,sub_8
-0.0028298000000001,0.0209926000000012,0.004751,-0.0006317999999995,0.0079774000000009,-0.0034667999999999,0,sub_8
-0.0035730000000001,0.0213304000000012,0.005342,-0.0040517999999995,0.0124670000000009,-0.0037385999999999,0,sub_8
-0.0057126000000001,0.0226462000000012,0.0059148,-0.0072611999999995,0.0165288000000009,-0.0037947999999999,0,sub_8
-0.0070100000000001,0.0244348000000012,0.0064426,-0.0100543999999995,0.0182456000000009,-0.0038449999999998,0,sub_8
-0.0077594000000001,0.0256888000000011,0.0061406000000001,-0.0132753999999995,0.0195386000000009,-0.0041113999999998,0,sub_8
-0.0083310000000001,0.0263442000000011,0.0074124000000001,-0.0139397999999995,0.0195460000000009,-0.0047855999999998,0,sub_8
-0.0082762000000001,0.0267878000000011,0.0086432000000001,-0.0141463999999995,0.0206136000000009,-0.0052157999999998,0,sub_8
-0.0075866000000001,0.0269070000000011,0.0090176000000001,-0.0164857999999995,0.0227508000000009,-0.0048075999999998,0,sub_8
-0.0075962000000001,0.0262642000000011,0.0088860000000001,-0.0190423999999995,0.0246728000000009,-0.0037597999999999,0,sub_8
-0.0072316000000001,0.0257806000000012,0.0098540000000001,-0.0190491999999995,0.0246668000000009,-0.0022643999999999,0,sub_8
-0.0050370000000002,0.0243316000000012,0.0081788000000001,-0.0173673999999995,0.0233680000000009,-0.0012059999999999,0,sub_8
-0.0042702000000002,0.0238230000000012,0.0074822000000001,-0.0171755999999995,0.0222900000000009,-0.0007991999999999,0,sub_8
