userAcceleration.x,userAcceleration.y,userAcceleration.z,rotationRate.x,rotationRate.y,rotationRate.z,label,subject
0.0121569999999997,-0.0035101999999987,-0.0059339999999998,0.0372016000000004,0.0001928000000009,-0.0046181999999999,0,sub_1
0.0145987999999997,-0.0022023999999987,-0.0052427999999998,0.0252430000000004,4.200000000966104e-06,-0.0012823999999999,0,sub_1
0.0155839999999997,-0.0011847999999988,-0.0055579999999998,0.0145580000000004,-0.001467999999999,0.0022776,0,sub_1
0.0147487999999997,-0.0013675999999988,-0.0044199999999998,0.0038862000000004,-0.000381999999999,0.005407,0,sub_1
0.0127887999999997,-0.0012397999999987,-0.0025683999999998,-0.0048603999999995,0.0004894000000009,0.0072682,0,sub_1
0.0101989999999997,-0.0005271999999987,-0.0017201999999999,-0.0129553999999995,0.0028540000000009,0.0080638,0,sub_1
0.0074567999999997,0.0002882000000012,-0.0006009999999999,-0.0223167999999995,0.0086412000000009,0.0077778,0,sub_1
0.0049847999999997,0.0016452000000012,-0.0018097999999999,-0.0295379999999995,0.0156998000000009,0.0072912,0,sub_1
0.0034985999999997,0.0035228000000012,-0.0041821999999998,-0.0303677999999995,0.0197566000000009,0.0059986,0,sub_1
0.0016321999999997,0.0053394000000012,-0.0075085999999998,-0.0260799999999995,0.0195370000000009,0.0028246,0,sub_1
0.0002305999999998,0.0072218000000012,-0.0100651999999998,-0.0183909999999995,0.0161110000000009,-0.0007489999999999,0,sub_1
-0.0013320000000001,0.0098268000000012,-0.0126535999999998,-0.0094257999999995,0.0118280000000009,-0.0043129999999999,0,sub_1
-0.0037318000000001,0.0103348000000011,-0.0109701999999998,-0.0034565999999994,0.0054254000000009,-0.0081087999999999,0,sub_1
-0.0061348000000001,0.0100484000000011,-0.0095617999999998,0.0018696000000004,-0.000765599999999,-0.0110551999999999,0,sub_1
-0.0065148000000002,0.0087472000000011,-0.0106399999999998,0.0061076000000004,-0.007173399999999,-0.0110181999999999,0,sub_1
-0.0057446000000001,0.0074910000000011,-0.0119187999999998,0.0097000000000004,-0.012735399999999,-0.0088503999999999,0,sub_1
-0.0043812000000001,0.0055812000000011,-0.0117535999999999,0.0120162000000004,-0.016803799999999,-0.0060521999999999,0,sub_1
-0.0006346000000001,0.0044574000000012,-0.0103221999999999,0.0156220000000004,-0.019815599999999,-0.0026031999999999,0,sub_1
0.0048711999999998,0.0021810000000012,-0.0078927999999999,0.0168788000000004,-0.022607999999999,0.0014706,0,sub_1
0.0097047999999997,0.0009804000000012,-0.0026629999999999,0.0164602000000004,-0.019848399999999,0.00403,0,sub_1
0.0128035999999997,-0.0011769999999987,1.1400000000083391e-05,0.0164818000000004,-0.015379999999999,0.005309,0,sub_1
0.0145789999999997,-0.0023095999999987,0.0001538,0.0171456000000004,-0.010911799999999,0.0061654,0,sub_1
0.0141817999999997,-0.0012801999999987,-0.0034021999999999,0.0171688000000004,-0.006008999999999,0.0059462,0,sub_1
0.0112359999999997,0.0024026000000012,-0.0077135999999998,0.0176188000000004,-0.002169199999999,0.004663,0,sub_1
0.0069769999999997,0.0055168000000012,-0.0115729999999998,0.0174004000000004,-0.003657399999999,0.0042364,0,sub_1
0.0028329999999997,0.0085770000000012,-0.0123067999999998,0.0156752000000004,-0.008766799999999,0.004661,0,sub_1
-0.0005146000000002,0.0087416000000012,-0.0115201999999998,0.0139346000000004,-0.017709999999999,0.0046628,0,sub_1
-0.0028414000000002,0.0067804000000012,-0.0099829999999998,0.0145374000000004,-0.027301599999999,0.0048956,0,sub_1
-0.0023678000000002,0.0041374000000012,-0.0069933999999999,0.0125988000000004,-0.033896199999999,0.0038248,0,sub_1
0.0001719999999997,0.0004336000000012,-0.0040745999999999,0.0098302000000004,-0.037283999999999,0.0008216,0,sub_1
0.0033301999999997,-0.0029061999999987,-0.0015139999999999,0.0051708000000004,-0.034265599999999,-0.0039147999999999,0,sub_1
0.0073669999999997,-0.0040229999999987,-0.0001183999999999,0.0013890000000004,-0.025710999999999,-0.0084381999999999,0,sub_1
0.0108059999999997,-0.0041463999999987,-7.779999999991682e-05,-0.0025887999999995,-0.013324599999999,-0.0118969999999999,0,sub_1
0.0112987999999997,-0.0038859999999987,-0.0024563999999999,-0.0048679999999995,-0.000527399999999,-0.0129943999999999,0,sub_1
0.0104039999999997,-0.0019099999999988,-0.0045799999999999,-0.0069443999999995,0.0128962000000009,-0.0111001999999999,0,sub_1
0.0077163999999997,0.0001176000000011,-0.0065073999999999,-0.0096743999999995,0.0239754000000009,-0.0085667999999999,0,sub_1
0.0029421999999997,0.0012168000000011,-0.0076191999999999,-0.0143489999999995,0.0297344000000009,-0.0060405999999999,0,sub_1
-0.0014064000000002,0.0026242000000011,-0.0087359999999999,-0.0205471999999995,0.0305952000000009,-0.0028805999999999,0,sub_1
-0.0042610000000002,0.0050094000000011,-0.0102267999999999,-0.0256939999999995,0.0284674000000009,0.0007178,0,sub_1
-0.0066344000000001,0.0064272000000012,-0.0129513999999999,-0.0272211999999995,0.0233450000000009,0.004134,0,sub_1
-0.0071958000000001,0.0056396000000012,-0.0138219999999999,-0.0244933999999995,0.0150134000000009,0.0071566,0,sub_1
-0.0047810000000001,0.0062670000000011,-0.0134711999999998,-0.0181285999999995,0.0071020000000009,0.0084952,0,sub_1
-0.0010278000000001,0.0049758000000011,-0.0115953999999998,-0.0098251999999995,0.0004738000000009,0.0070684,0,sub_1
0.0026343999999997,0.0026418000000011,-0.0080363999999998,-0.0004375999999995,-0.003171399999999,0.004791,0,sub_1
0.0063347999999997,0.0015338000000011,-0.0041305999999998,0.0049178000000004,-0.002109999999999,0.0011952,0,sub_1
0.0092957999999997,0.0032238000000011,-0.0023249999999998,0.0087890000000004,0.0025732000000009,-0.0009199999999999,0,sub_1
0.0099189999999997,0.0050168000000012,-0.0007821999999999,0.0098986000000004,0.0121580000000009,-0.0009243999999999,0,sub_1
0.0086417999999997,0.0074704000000012,0.0012942,0.0082486000000004,0.0251578000000009,0.0001186,0,sub_1
0.0064425999999997,0.0089230000000012,0.002484,0.0046752000000004,0.0379492000000009,0.0015756,0,sub_1
0.0023729999999997,0.0087056000000012,0.0016386,0.0053588000000004,0.0479574000000009,0.0026384,0,sub_1
-0.0008228000000002,0.0053770000000012,-0.0025209999999999,0.0073030000000004,0.0520008000000009,0.002222,0,sub_1
-0.0013556000000002,0.0002756000000012,-0.0093627999999999,0.0089874000000004,0.0449686000000009,0.0011772,0,sub_1
0.0026837999999997,-0.0038949999999987,-0.0209027999999999,0.0108236000000004,0.0247266000000009,-6.579999999995426e-05,0,sub_1
0.0084563999999997,-0.0068167999999987,-0.0298863999999999,0.0113438000000004,-0.003818999999999,-0.0015205999999999,0,sub_1
0.0146453999999997,-0.0078075999999987,-0.0341575999999999,0.0101292000000004,-0.035353999999999,0.000221,0,sub_1
0.0179811999999997,-0.0022805999999987,-0.0264817999999999,0.0093534000000004,-0.061997399999999,0.0045262,0,sub_1
0.0180397999999997,0.0058324000000012,-0.0128285999999999,0.0095006000000004,-0.075000599999999,0.0068974,0,sub_1
0.0138669999999997,0.0137368000000012,0.0061214,0.0086800000000004,-0.070511199999999,0.004539,0,sub_1
0.0094981999999997,0.0177080000000012,0.0215132,0.0085780000000004,-0.053008999999999,-0.0025315999999999,0,sub_1
0.0069481999999997,0.0198298000000012,0.02892,0.0089612000000004,-0.027816999999999,-0.0149497999999999,0,sub_1
0.0073189999999997,0.0173416000000012,0.0249106,0.0055334000000004,0.0012336000000009,-0.0306069999999999,0,sub_1
0.0079263999999997,0.0108352000000012,0.0109518,-0.0002709999999995,0.0251732000000009,-0.0447787999999999,0,sub_1
0.0054857999999997,0.0037752000000012,-0.0045727999999999,-0.0048811999999995,0.0360872000000009,-0.0527297999999999,0,sub_1
0.0014201999999997,-0.0003323999999987,-0.0183451999999999,-0.0070213999999995,0.0350278000000009,-0.0523161999999999,0,sub_1
-0.0050066000000002,-0.0047767999999987,-0.0251659999999999,-0.0083777999999995,0.0266878000000009,-0.0435553999999999,0,sub_1
-0.0108040000000001,-0.0093819999999987,-0.0273857999999999,-0.0078653999999995,0.0119290000000009,-0.0296461999999999,0,sub_1
-0.0121820000000002,-0.0105487999999987,-0.0241941999999999,-0.0063117999999995,-0.005615399999999,-0.0127349999999999,0,sub_1
-0.0098512000000002,-0.0105303999999987,-0.0187029999999998,-0.0055851999999995,-0.017403199999999,0.0039494,0,sub_1
-0.0070054000000002,-0.0096625999999987,-0.0132419999999998,-0.0067317999999995,-0.022776599999999,0.0165534,0,sub_1
-0.0015140000000002,-0.0054689999999987,-0.0092199999999998,-0.0091177999999994,-0.025561799999999,0.0225224,0,sub_1
0.0043437999999997,0.0017882000000012,-0.0059657999999999,-0.0084933999999994,-0.027699199999999,0.0238114,0,sub_1
0.0069251999999997,0.0100108000000012,-0.0001165999999999,-0.0020843999999995,-0.026862999999999,0.0225732,0,sub_1
0.0065489999999997,0.0167256000000012,0.0040888,0.0077762000000004,-0.019001799999999,0.0198544,0,sub_1
0.0048233999999997,0.0197162000000012,0.0017596,0.0223362000000004,-0.009029999999999,0.01802,0,sub_1
-0.0001724000000001,0.0195610000000011,0.0009666,0.0311630000000004,0.0052298000000009,0.0142168,0,sub_1
-0.0062822000000001,0.0146082000000011,0.0003062,0.0299782000000004,0.0212356000000009,0.0084186,0,sub_1
-0.0083564000000002,0.0097240000000011,-0.0049379999999998,0.0230124000000004,0.0334224000000009,0.0034394,0,sub_1
-0.0050670000000001,0.0044936000000011,-0.0109053999999998,0.0125778000000004,0.0343250000000009,-0.0004811999999999,0,sub_1
0.0017543999999998,0.0009606000000011,-0.0100287999999998,-0.0008635999999995,0.0299158000000009,-0.0052699999999999,0,sub_1
0.0113727999999997,-0.0018479999999987,-0.0083265999999999,-0.0068691999999995,0.0207846000000009,-0.0074361999999999,0,sub_1
0.0217609999999997,-0.0026977999999987,-0.0076893999999999,-0.0047905999999995,0.0092704000000009,-0.0065517999999999,0,sub_1
0.0276011999999997,-0.0060821999999987,-0.0050859999999999,-0.0005657999999995,9.480000000097014e-05,-0.0060821999999999,0,sub_1
0.0286383999999997,-0.0087577999999987,-0.0027957999999999,0.0051796000000004,-0.004181799999999,-0.0066765999999999,0,sub_1
0.0253497999999997,-0.0080983999999987,-0.0005579999999999,0.0054036000000004,-0.002259199999999,-0.0064583999999999,0,sub_1
0.0209335999999997,-0.0062967999999987,-0.0018557999999999,-0.0007697999999995,0.0032964000000009,-0.0035121999999999,0,sub_1
0.0139167999999997,-0.0030455999999988,-0.0054395999999999,-0.0080081999999995,0.0107670000000009,0.0009196,0,sub_1
0.0065991999999997,0.0014374000000011,-0.0081125999999999,-0.0142057999999995,0.0139662000000009,0.0068592,0,sub_1
-0.0013280000000001,0.0070680000000011,-0.0067445999999999,-0.0244687999999995,0.0146234000000009,0.0125598,0,sub_1
-0.0071312000000001,0.0095824000000011,-0.0079553999999998,-0.0328485999999995,0.0059008000000009,0.0165714,0,sub_1
-0.0108960000000001,0.0102860000000011,-0.0117705999999998,-0.0288595999999995,-0.005418199999999,0.019604,0,sub_1
-0.0133666000000001,0.0108326000000012,-0.0153607999999998,-0.0190565999999995,-0.008223199999999,0.0194614,0,sub_1
-0.0150934000000001,0.0095432000000012,-0.0142017999999998,-0.0130491999999995,-0.006094199999999,0.0141586,0,sub_1
-0.0139686000000001,0.0071980000000012,-0.0149293999999998,-0.0038347999999995,-0.003118799999999,0.008453,0,sub_1
-0.0103896000000001,0.0027364000000012,-0.0158951999999998,0.0120012000000004,0.0015374000000009,0.0030054,0,sub_1
-0.0053608000000001,0.0002662000000012,-0.0152283999999998,0.0197236000000004,0.0023972000000009,-0.0050575999999999,0,sub_1
0.0005635999999997,-0.0025831999999987,-0.0116109999999999,0.0199472000000004,-0.004169999999999,-0.0138037999999999,0,sub_1
0.0058577999999997,-0.0037097999999987,-0.0126589999999999,0.0237916000000004,-0.007784399999999,-0.0180417999999999,0,sub_1
0.0095609999999997,-0.0042059999999987,-0.0145753999999999,0.0329436000000004,-0.015051999999999,-0.0198907999999999,0,sub_1
0.0111351999999997,-0.0008329999999987,-0.0117819999999999,0.0331546000000004,-0.017176399999999,-0.0213815999999999,0,sub_1
0.0097969999999997,0.0028230000000012,-0.0047611999999999,0.0305994000000004,-0.013553599999999,-0.0190535999999999,0,sub_1
0.0065121999999997,0.0053980000000012,0.001013,0.0254880000000004,-0.004608199999999,-0.0124719999999999,0,sub_1
0.0037995999999998,0.0059164000000012,0.0040838,0.0154600000000004,-0.000322199999999,-0.0086963999999999,0,sub_1
0.0043761999999998,0.0065976000000012,0.0056022,0.0018170000000004,0.0088684000000009,-0.0028159999999999,0,sub_1
0.0046455999999998,0.0027562000000012,0.0017368,-0.0086257999999995,0.0203812000000009,0.0056478,0,sub_1
0.0065047999999998,-0.0013237999999987,-0.0053555999999999,-0.0165337999999995,0.0240096000000009,0.0122168,0,sub_1
0.0106293999999998,-0.0035889999999987,-0.0125695999999999,-0.0199995999999995,0.0171850000000009,0.0171156,0,sub_1
0.0139829999999997,-0.0022277999999987,-0.0146501999999999,-0.0202895999999995,0.0077812000000009,0.0250312,0,sub_1
0.0118575999999997,-0.0030457999999987,-0.0164717999999999,-0.0188563999999995,-0.001189799999999,0.0297536,0,sub_1
0.0095859999999998,0.0003590000000011,-0.0138481999999999,-0.0137751999999995,-0.012489199999999,0.027454,0,sub_1
0.0066323999999997,0.0028596000000011,-0.0085089999999999,-0.0080205999999995,-0.018662399999999,0.0223802,0,sub_1
0.0021047999999998,0.0052072000000011,-0.0043005999999999,-0.0005171999999995,-0.017801599999999,0.0149592,0,sub_1
-0.0016952000000001,0.0049740000000011,-0.0048655999999998,0.0082962000000004,-0.012463199999999,0.005405,0,sub_1
-0.0016402000000001,0.0062860000000011,-0.0042831999999998,0.0132660000000004,-0.008387399999999,-0.0048153999999999,0,sub_1
-0.0013102000000002,0.0058364000000012,-0.0061803999999998,0.0160772000000004,-0.006024199999999,-0.0112031999999999,0,sub_1
-0.0013848000000001,0.0048722000000012,-0.0087899999999998,0.0165268000000004,-0.004308199999999,-0.0146209999999999,0,sub_1
-0.0002134000000002,0.0044524000000012,-0.0096691999999998,0.0120458000000004,-0.004505199999999,-0.0148657999999999,0,sub_1
0.0022729999999997,0.0036390000000012,-0.0080439999999998,0.0039338000000004,-0.004900399999999,-0.0149175999999999,0,sub_1
0.0052089999999997,0.0021334000000012,-0.0068347999999998,-0.0018367999999995,-0.005520799999999,-0.0138843999999999,0,sub_1
0.0081373999999997,0.0034266000000012,-0.0048769999999998,-0.0084501999999995,-0.002945399999999,-0.0120063999999999,0,sub_1
0.0096655999999997,0.0026686000000012,-0.0022625999999999,-0.0197157999999995,0.0081726000000009,-0.0110261999999999,0,sub_1
0.0100789999999997,0.0021604000000012,-0.0036555999999999,-0.0214129999999995,0.0096780000000009,-0.0121031999999999,0,sub_1
0.0108833999999997,0.0022788000000012,-0.0046191999999999,-0.0222663999999995,0.0113798000000009,-0.0104017999999999,0,sub_1
0.0096403999999997,0.0013378000000012,-0.0052907999999999,-0.0252313999999995,0.0177770000000009,-0.0089345999999999,0,sub_1
0.0087283999999997,-0.0029971999999987,-0.0065775999999999,-0.0275577999999995,0.0216240000000009,-0.0095961999999999,0,sub_1
0.0078449999999997,-0.0039689999999987,-0.0131727999999998,-0.0194757999999995,0.0118146000000009,-0.0135807999999999,0,sub_1
0.0066211999999997,-0.0057267999999987,-0.0153205999999998,-0.0154453999999995,0.0049918000000009,-0.0150339999999999,0,sub_1
0.0029565999999997,-0.0054139999999987,-0.0181019999999998,-0.0086631999999995,-0.004195199999999,-0.0139011999999999,0,sub_1
-0.0018410000000002,-0.0020329999999987,-0.0202349999999998,-0.0012793999999995,-0.017663199999999,-0.0084861999999999,0,sub_1
-0.0067504000000002,0.0053956000000012,-0.0200903999999998,0.0062872000000004,-0.031371399999999,0.0033392,0,sub_1
-0.0115674000000002,0.0114686000000012,-0.0152695999999998,0.0100296000000004,-0.035929999999999,0.0206754,0,sub_1
-0.0149730000000002,0.0169342000000012,-0.0093119999999999,0.0172212000000004,-0.037709799999999,0.0326906,0,sub_1
-0.0149010000000001,0.0197738000000012,-0.0020611999999999,0.0221014000000004,-0.038387799999999,0.0376378,0,sub_1
-0.0081540000000002,0.0208508000000012,0.0056726,0.0263882000000004,-0.030532999999999,0.0406472,0,sub_1
-0.0033796000000002,0.0177818000000012,0.00531,0.0349704000000004,-0.023936599999999,0.0357888,0,sub_1
0.0058665999999997,0.0146732000000012,0.0052278,0.0446132000000004,-0.024987999999999,0.0247524,0,sub_1
0.0156627999999997,0.0113048000000012,0.0019412,0.0516970000000004,-0.020723799999999,0.0188194,0,sub_1
0.0217655999999997,0.0046014000000012,-0.0067807999999999,0.0668850000000004,-0.017977199999999,0.012518,0,sub_1
0.0218067999999997,-0.0035899999999987,-0.0120947999999999,0.0835530000000004,-0.025009799999999,-0.0003831999999999,0,sub_1
0.0233181999999997,-0.0097359999999987,-0.0084675999999999,0.0899918000000004,-0.027543599999999,-0.0112301999999999,0,sub_1
0.0229599999999997,-0.0126165999999987,-0.0075423999999999,0.0889532000000004,-0.026028599999999,-0.0159389999999999,0,sub_1
0.0210019999999997,-0.0142047999999987,-0.0049929999999999,0.0789242000000004,-0.027266799999999,-0.0170753999999999,0,sub_1
0.0183123999999997,-0.0106333999999987,0.0002256,0.0560908000000004,-0.024005999999999,-0.0133931999999999,0,sub_1
0.0154823999999997,-0.0046145999999987,-0.0012765999999999,0.0342996000000004,-0.019916999999999,-0.0041461999999999,0,sub_1
0.0125733999999997,0.0014380000000012,-0.0056519999999999,0.0222946000000004,-0.018858799999999,0.0085914,0,sub_1
0.0068487999999997,0.0065606000000012,-0.0068333999999999,0.0173344000000004,-0.015912199999999,0.0224438,0,sub_1
-0.0009268000000002,0.0077882000000012,-0.0077735999999998,0.0123830000000004,-0.014019199999999,0.0333066,0,sub_1
-0.0070552000000002,0.0069594000000012,-0.0093779999999998,0.0102104000000004,-0.014254199999999,0.0409866,0,sub_1
-0.0106990000000002,0.0050464000000012,-0.0100495999999998,0.0067914000000004,-0.012762399999999,0.043524,0,sub_1
-0.0126896000000002,0.0024292000000012,-0.0102869999999998,-0.0019285999999995,-0.009521399999999,0.039829,0,sub_1
-0.0136130000000002,-0.0030059999999987,-0.0107701999999998,-0.0114717999999995,-0.007099999999999,0.028652,0,sub_1
-0.0109048000000001,-0.0054019999999987,-0.0097469999999999,-0.0156527999999995,-0.001489199999999,0.0145174,0,sub_1
-0.0050528000000002,-0.0088621999999987,-0.0069577999999999,-0.0260087999999995,0.0075502000000009,0.0009766,0,sub_1
0.0016295999999997,-0.0123301999999987,-0.0051175999999998,-0.0423251999999994,0.0227772000000009,-0.0094085999999999,0,sub_1
0.0070313999999997,-0.0132973999999987,-0.0037179999999998,-0.0554613999999995,0.0377592000000009,-0.0148597999999999,0,sub_1
0.0119393999999997,-0.0088731999999987,-0.0037983999999998,-0.0622325999999995,0.0501416000000009,-0.0149221999999999,0,sub_1
0.0155731999999997,-0.0045589999999987,-0.0041783999999998,-0.0622097999999995,0.0544070000000009,-0.0155675999999999,0,sub_1
0.0168589999999997,0.0027072000000012,-0.0027039999999998,-0.0494095999999995,0.0528804000000009,-0.0169679999999999,0,sub_1
0.0159147999999997,0.0074428000000011,-0.0039399999999999,-0.0304423999999995,0.0474946000000009,-0.0176795999999999,0,sub_1
0.0147979999999997,0.0100658000000011,-0.0058181999999998,-0.0144617999999995,0.0412712000000009,-0.0194793999999999,0,sub_1
0.0133969999999997,0.0089586000000011,-0.0073027999999998,-0.0055201999999995,0.0357104000000009,-0.0211153999999999,0,sub_1
0.0092251999999997,0.0076534000000011,-0.0090995999999998,-0.0055477999999995,0.0325078000000009,-0.0187579999999999,0,sub_1
0.0043021999999998,0.0044568000000011,-0.0132951999999998,-0.0100919999999995,0.0258894000000009,-0.0113035999999999,0,sub_1
-6.540000000019932e-05,0.0041836000000012,-0.0130321999999998,-0.0155337999999995,0.0130802000000009,-0.0002157999999999,0,sub_1
-0.0041508000000001,0.0054830000000012,-0.0116849999999998,-0.0190677999999995,0.0002526000000009,0.0136624,0,sub_1
-0.0073728000000002,0.0071264000000012,-0.0110181999999998,-0.0208689999999995,-0.008310599999999,0.0258404,0,sub_1
-0.0066788000000002,0.0088874000000012,-0.0106583999999998,-0.0164499999999995,-0.013258799999999,0.0344252,0,sub_1
-0.0046298000000002,0.0089714000000012,-0.0095635999999998,-0.0070651999999994,-0.013503599999999,0.0347066,0,sub_1
-0.0019646000000002,0.0081360000000012,-0.0064763999999998,0.0102740000000005,-0.009903199999999,0.0256384,0,sub_1
0.0033027999999997,0.0082672000000012,-0.0023659999999998,0.0291296000000004,-0.004588999999999,0.0131606,0,sub_1
0.0086375999999997,0.0073620000000012,-0.0020475999999998,0.0454140000000004,-0.001400199999999,0.0010926,0,sub_1
0.0113875999999997,0.0063882000000012,-0.0016525999999998,0.0520988000000004,0.0007630000000009,-0.0125365999999999,0,sub_1
0.0128589999999997,0.0060494000000011,0.0023036000000001,0.0451258000000004,0.0072166000000009,-0.0215661999999999,0,sub_1
0.0146813999999997,0.0052118000000011,0.0039928000000001,0.0291796000000004,0.0198584000000009,-0.0236141999999999,0,sub_1
0.0114577999999997,-0.0003101999999988,-0.0009581999999998,0.0147078000000004,0.0295058000000009,-0.0241523999999999,0,sub_1
0.0094003999999997,-0.0065559999999988,-0.0029845999999998,0.0023310000000004,0.0335932000000009,-0.0214643999999998,0,sub_1
0.0090977999999997,-0.0124779999999988,-0.0046577999999998,-0.0081495999999995,0.0385004000000009,-0.0123543999999999,0,sub_1
0.0078089999999997,-0.0152557999999987,-0.0109703999999998,-0.0137541999999995,0.0408148000000009,0.0014932,0,sub_1
0.0060531999999997,-0.0162889999999987,-0.0164375999999998,-0.0208953999999995,0.0335338000000009,0.0170496,0,sub_1
0.0066491999999997,-0.0122647999999987,-0.0147729999999998,-0.0314433999999995,0.0288180000000009,0.0334334,0,sub_1
0.0066093999999997,-0.0020457999999987,-0.0100025999999998,-0.0500503999999995,0.0279946000000009,0.042492,0,sub_1
0.0056879999999997,0.0088016000000012,-0.0042505999999999,-0.0628525999999995,0.0303876000000009,0.0436808,0,sub_1
0.0063563999999997,0.0192732000000012,0.0016586,-0.0615337999999995,0.0317054000000009,0.0351418,0,sub_1
0.0052419999999997,0.0270352000000012,0.0033464,-0.0518481999999995,0.0366424000000009,0.0200334,0,sub_1
0.0031819999999997,0.0326152000000012,0.001685,-0.0359747999999995,0.0379502000000009,0.0013408,0,sub_1
-0.0017044000000002,0.0236250000000012,-0.0059297999999999,-0.0092401999999995,0.0379276000000009,-0.0138559999999999,0,sub_1
-0.0057854000000001,0.0121938000000012,-0.0157123999999999,0.0176672000000004,0.0323368000000009,-0.0243433999999999,0,sub_1
-0.0106474000000001,-0.0010433999999987,-0.0249707999999999,0.0357670000000004,0.0209942000000009,-0.0274073999999999,0,sub_1
-0.0117456000000002,-0.0149171999999987,-0.0299041999999999,0.0463436000000004,0.0028368000000009,-0.0247463999999999,0,sub_1
-0.0105834000000002,-0.0289793999999987,-0.0331109999999999,0.0468412000000004,-0.019770599999999,-0.0180925999999999,0,sub_1
-0.0057748000000002,-0.0295053999999988,-0.0313635999999999,0.0422006000000004,-0.043435999999999,-0.0086957999999999,0,sub_1
-0.0015686000000002,-0.0221615999999987,-0.0265867999999999,0.0330974000000004,-0.061552399999999,0.0021584,0,sub_1
0.0023609999999997,-0.0130099999999987,-0.0193115999999999,0.0242524000000004,-0.070716999999999,0.0119346,0,sub_1
0.0036551999999997,0.0010742000000012,-0.0084895999999999,0.0197412000000004,-0.068165799999999,0.0185212,0,sub_1
0.0044899999999997,0.0151568000000011,0.0034134,0.0195930000000004,-0.052828399999999,0.0193552,0,sub_1
0.0045871999999997,0.0242610000000011,0.012714,0.0224850000000004,-0.032148599999999,0.0135804,0,sub_1
0.0064347999999997,0.0252008000000011,0.0177156,0.0285978000000004,-0.012310799999999,0.002488,0,sub_1
0.0079495999999997,0.0232446000000011,0.019241,0.0304410000000004,0.0062828000000009,-0.0118395999999999,0,sub_1
0.0094509999999997,0.0194024000000011,0.0146852,0.0260704000000004,0.0204190000000009,-0.0249231999999999,0,sub_1
0.0096617999999997,0.0128068000000012,0.0078172,0.0188762000000004,0.0287910000000009,-0.0326777999999999,0,sub_1
0.0084179999999997,0.0047616000000012,0.00122,0.0099418000000004,0.0354404000000009,-0.0344599999999999,0,sub_1
