userAcceleration.x,userAcceleration.y,userAcceleration.z,rotationRate.x,rotationRate.y,rotationRate.z,label,subject
-0.0155632000000001,-0.0485977999999987,0.0154878,0.0017296000000004,0.0014756000000008,0.000476,0,sub_5
-0.0150340000000001,-0.0489619999999987,0.0157396,0.0012878000000004,0.0004124000000008,-0.0003741999999999,0,sub_5
-0.0150284000000001,-0.0493629999999987,0.0160108,0.0004228000000004,0.0004150000000008,-0.0010151999999999,0,sub_5
-0.0147666000000001,-0.0491789999999987,0.0155646,-1.1399999999546655e-05,0.0010562000000008,-0.0018675999999999,0,sub_5
-0.0147454000000001,-0.0489123999999987,0.0164358,-0.0004533999999995,0.0008416000000008,-0.0018645999999999,0,sub_5
-0.0147632000000001,-0.0486463999999987,0.016944,-0.0004675999999995,0.0006264000000008,-0.0020721999999999,0,sub_5
-0.0153082000000001,-0.0483863999999987,0.0171544,-0.0004657999999995,0.0010524000000008,-0.0020727999999999,0,sub_5
-0.0156452000000001,-0.0489863999999987,0.0167066,-0.0008923999999995,0.0008418000000009,-0.0022891999999999,0,sub_5
-0.0157354000000001,-0.0495481999999987,0.0166748,-0.0011095999999995,0.0004148000000009,-0.0018627999999999,0,sub_5
-0.0159034000000001,-0.0499485999999987,0.0163532,-0.0004783999999995,0.0010460000000009,-0.0012087999999999,0,sub_5
-0.0162902000000001,-0.0509667999999987,0.0162116,-0.0007045999999995,0.0010402000000008,-0.0003463999999999,0,sub_5
-0.0165142000000001,-0.0516653999999987,0.0162094,-0.0002905999999995,0.0006078000000008,9.38000000000749e-05,0,sub_5
-0.0161920000000001,-0.0516443999999987,0.0167298,0.0009778000000004,0.0005974000000008,0.000753,0,sub_5
-0.0163968000000001,-0.0516099999999987,0.0165624,0.0024586000000004,0.0003732000000009,0.0014138,0,sub_5
-0.0163194000000001,-0.0518291999999987,0.017031,0.0035236000000004,-0.000268799999999,0.0012084,0,sub_5
-0.0159898000000001,-0.0512729999999987,0.0169018,0.0050144000000004,-0.000488799999999,0.0016464,0,sub_5
-0.0153260000000001,-0.0508057999999987,0.0165392,0.0062928000000004,-0.000282799999999,0.002296,0,sub_5
-0.0153550000000001,-0.0504529999999987,0.0169942,0.0075692000000004,-0.000290599999999,0.0031594,0,sub_5
-0.0153340000000001,-0.0500547999999987,0.0172632,0.0069190000000004,-0.0002915999999991,0.0033776,0,sub_5
-0.0153776000000002,-0.0497903999999987,0.017697,0.0054142000000004,-0.0005027999999991,0.00359,0,sub_5
-0.0159726000000001,-0.0491221999999987,0.0180748,0.0024246000000004,-0.0002765999999991,0.002296,0,sub_5
-0.0163676000000001,-0.0482591999999987,0.0178832,-0.0024777999999995,0.0005996000000009,-8.059999999992483e-05,0,sub_5
-0.0168442000000001,-0.0468603999999987,0.0162292,-0.0082287999999995,0.0012710000000009,-0.0037445999999999,0,sub_5
-0.0164918000000001,-0.0454237999999987,0.015601,-0.0135401999999995,0.0021590000000009,-0.0080557999999999,0,sub_5
-0.0161682000000001,-0.0435901999999987,0.0136996,-0.0186321999999995,0.0034756000000008,-0.0132205999999999,0,sub_5
-0.0148566000000002,-0.0436947999999987,0.0118902,-0.0237323999999995,0.0052170000000008,-0.0185917999999999,0,sub_5
-0.0141288000000002,-0.0452215999999987,0.0111196,-0.0277801999999995,0.0048200000000008,-0.0228843999999999,0,sub_5
-0.0130362000000002,-0.0468171999999987,0.0112736,-0.0288483999999995,0.0050422000000008,-0.0248069999999999,0,sub_5
-0.0131852000000002,-0.0487107999999987,0.0114076,-0.0263007999999995,0.0050294000000008,-0.0243539999999999,0,sub_5
-0.0128050000000002,-0.0526873999999987,0.013501,-0.0220683999999995,0.0035056000000009,-0.0204689999999999,0,sub_5
-0.0136436000000002,-0.0564305999999987,0.016616,-0.0133671999999995,-0.000173999999999,-0.0135667999999999,0,sub_5
-0.0150306000000002,-0.0588667999999987,0.020406,-0.0010375999999995,-0.002167999999999,-0.0051459999999999,0,sub_5
-0.0169506000000002,-0.0615529999999987,0.023869,0.0106586000000004,-0.003092799999999,0.0028418,0,sub_5
-0.0184012000000002,-0.0634091999999987,0.025828,0.0208698000000004,-0.002731599999999,0.0101766,0,sub_5
-0.0207746000000002,-0.0625353999999987,0.0265174,0.0306558000000004,-0.000875399999999,0.0160162,0,sub_5
-0.0216112000000001,-0.0595059999999987,0.0249814,0.0372546000000004,0.0024892000000009,0.020336,0,sub_5
-0.0213256000000001,-0.0559223999999987,0.0212366,0.0393736000000004,0.0048094000000009,0.023344,0,sub_5
-0.0198934000000001,-0.0513471999999987,0.0166092,0.0391434000000004,0.0050142000000009,0.0246292,0,sub_5
-0.0180320000000001,-0.0469223999999987,0.0129206,0.0361442000000004,0.0041720000000009,0.02376,0,sub_5
-0.0153554000000001,-0.0430155999999987,0.009453,0.0303946000000004,0.0031414000000009,0.0200892,0,sub_5
-0.0131764000000001,-0.0396475999999987,0.0081946,0.0227342000000004,0.0021260000000009,0.0142686,0,sub_5
-0.0117798000000002,-0.0375727999999987,0.008782,0.0142198000000004,0.0013284000000009,0.0071666,0,sub_5
-0.0111898000000001,-0.0375173999999987,0.0104684,0.0042186000000004,0.0016030000000009,-0.0003745999999999,0,sub_5
-0.0110938000000001,-0.0390225999999987,0.0123218,-0.0059967999999995,0.0023018000000008,-0.0072767999999999,0,sub_5
-0.0119098000000001,-0.0412259999999987,0.0139748,-0.0157883999999995,0.0038454000000008,-0.0126815999999999,0,sub_5
-0.0135244000000001,-0.0445641999999987,0.014919,-0.0245177999999995,0.0051688000000008,-0.0172239999999999,0,sub_5
-0.0147898000000001,-0.0482329999999987,0.0154582,-0.0313207999999995,0.0071246000000008,-0.0209059999999999,0,sub_5
-0.0157850000000002,-0.0513229999999987,0.0158638,-0.0360015999999995,0.0080016000000008,-0.0230761999999999,0,sub_5
-0.0166240000000002,-0.0531517999999987,0.0165848,-0.0387753999999995,0.0075868000000009,-0.0235223999999999,0,sub_5
-0.0169176000000002,-0.0544443999999987,0.0167168,-0.0383685999999995,0.0060900000000008,-0.0233023999999999,0,sub_5
-0.0168132000000002,-0.0549201999999987,0.016488,-0.0356233999999995,0.0045772000000008,-0.0211433999999999,0,sub_5
-0.0163856000000002,-0.0548327999999987,0.016347,-0.0298975999999995,0.0024114000000008,-0.0181081999999999,0,sub_5
-0.0163370000000002,-0.0549889999999987,0.016941,-0.0222571999999995,0.0002338000000009,-0.0137777999999999,0,sub_5
-0.0161260000000002,-0.0555605999999987,0.0175612,-0.0133365999999995,-0.001948199999999,-0.0094383999999999,0,sub_5
-0.0160678000000002,-0.0563447999999987,0.0185382,-0.0050457999999995,-0.003702199999999,-0.0042507999999999,0,sub_5
-0.0153150000000002,-0.0567625999999987,0.0199496,0.0028212000000004,-0.005239799999999,0.0005062,0,sub_5
-0.0150808000000002,-0.0564969999999987,0.0204708,0.0087718000000004,-0.005706199999999,0.0054622,0,sub_5
-0.0146826000000002,-0.0551821999999987,0.0196184,0.0132562000000004,-0.005745399999999,0.009146,0,sub_5
-0.0142854000000001,-0.0528451999999987,0.017509,0.0164688000000004,-0.004499399999999,0.0121784,0,sub_5
-0.0138458000000001,-0.0506043999999987,0.0157562,0.0188328000000004,-0.003882799999999,0.0134964,0,sub_5
-0.0143358000000001,-0.0483599999999987,0.0141038,0.0199214000000004,-0.003681799999999,0.0133106,0,sub_5
-0.0141000000000001,-0.0468729999999987,0.013347,0.0197326000000004,-0.004322599999999,0.0116214,0,sub_5
-0.0137586000000001,-0.0457551999999987,0.0135328,0.0182476000000004,-0.004521999999999,0.0094748,0,sub_5
-0.0144052000000002,-0.0457983999999987,0.0144502,0.0152710000000004,-0.004926599999999,0.006677,0,sub_5
-0.0144678000000002,-0.0460697999999987,0.0148064,0.0112294000000004,-0.004476999999999,0.004298,0,sub_5
-0.0142496000000002,-0.0467425999999987,0.0149772,0.0059084000000004,-0.003597599999999,0.0021232,0,sub_5
-0.0146496000000002,-0.0471627999999987,0.0151662,-0.0002553999999995,-0.002512399999999,0.0001772,0,sub_5
-0.0154714000000002,-0.0481215999999987,0.0151022,-0.0070603999999995,-0.002062399999999,-0.0021995999999999,0,sub_5
-0.0157554000000001,-0.0492897999999987,0.0152558,-0.0121591999999995,-0.001406999999999,-0.0041373999999999,0,sub_5
-0.0162748000000001,-0.0497973999999987,0.0154332,-0.0159825999999995,-0.000972399999999,-0.0052113999999999,0,sub_5
-0.0162800000000001,-0.0500839999999987,0.0159296,-0.0172521999999995,-0.001401799999999,-0.0056255999999999,0,sub_5
-0.0159868000000001,-0.0509437999999987,0.0162216,-0.0166169999999995,-0.002257199999999,-0.0054063999999999,0,sub_5
-0.0154194000000001,-0.0516885999999987,0.0167432,-0.0138487999999995,-0.002271999999999,-0.0041051999999999,0,sub_5
-0.0147910000000002,-0.0524035999999987,0.0172254,-0.0104879999999995,-0.002731599999999,-0.0017439999999999,0,sub_5
-0.0146278000000002,-0.0538733999999987,0.0182946,-0.0067013999999995,-0.003617999999999,0.000407,0,sub_5
-0.0148000000000002,-0.0553875999999987,0.018824,-0.0035519999999995,-0.003438399999999,0.0029794,0,sub_5
-0.0155966000000002,-0.0557521999999987,0.0194106,-0.0008265999999995,-0.002405999999999,0.0057616,0,sub_5
-0.0160090000000002,-0.0553713999999987,0.0192912,0.0016826000000004,-0.001375399999999,0.0091832,0,sub_5
-0.0164240000000002,-0.0545165999999987,0.0189336,0.0040230000000004,-0.000540599999999,0.0115484,0,sub_5
-0.0162762000000001,-0.0521567999999987,0.0178098,0.0061520000000004,0.0002966000000009,0.013485,0,sub_5
-0.0158768000000001,-0.0501945999999987,0.0172972,0.0076408000000004,0.0002872000000009,0.0145638,0,sub_5
-0.0153624000000001,-0.0485231999999987,0.0164756,0.0084944000000004,0.0002842000000009,0.0145696,0,sub_5
-0.0151024000000001,-0.0475567999999987,0.0158596,0.0083108000000004,-0.000158199999999,0.0141694,0,sub_5
-0.0147824000000001,-0.0460871999999987,0.0152176,0.0062106000000004,-0.000590599999999,0.0129014,0,sub_5
-0.0152198000000002,-0.0462407999999987,0.0152882,0.0026196000000004,-0.000802999999999,0.0111952,0,sub_5
-0.0158182000000002,-0.0459379999999987,0.0150112,-0.0018199999999995,-0.000583799999999,0.0088416,0,sub_5
-0.0160168000000001,-0.0460911999999987,0.0146486,-0.0066871999999995,-0.000575999999999,0.0064854,0,sub_5
-0.0163560000000001,-0.0460697999999987,0.013964,-0.0113669999999995,-0.000971199999999,0.0028212,0,sub_5
-0.0165522000000001,-0.0469193999999987,0.01416,-0.0156199999999995,-0.000943399999999,-0.0004131999999999,0,sub_5
-0.0154466000000001,-0.0476135999999987,0.0145916,-0.0189985999999995,-0.001352399999999,-0.0034061999999999,0,sub_5
-0.0145792000000001,-0.0485063999999987,0.0144392,-0.0206779999999995,-0.001986399999999,-0.0048915999999999,0,sub_5
-0.0136688000000001,-0.0492047999999987,0.0150066,-0.0210819999999995,-0.002628999999999,-0.0052997999999999,0,sub_5
-0.0130650000000001,-0.0507735999999987,0.0165836,-0.0197807999999995,-0.002642799999999,-0.0046285999999999,0,sub_5
-0.0127146000000001,-0.0519845999999987,0.0175988,-0.0163497999999995,-0.002667599999999,-0.0030879999999999,0,sub_5
-0.0131750000000001,-0.0532185999999987,0.0179272,-0.0116641999999995,-0.002054999999999,-0.0004923999999999,0,sub_5
-0.0144616000000001,-0.0549967999999987,0.0188834,-0.0069765999999995,-0.000803999999999,0.0023162,0,sub_5
-0.0160342000000001,-0.0557969999999987,0.0190724,-0.0027185999999995,2.140000000091652e-05,0.005336,0,sub_5
-0.0167154000000002,-0.0552885999999987,0.0184326,0.0008930000000004,0.0008538000000009,0.0083528,0,sub_5
-0.0169604000000002,-0.0541289999999987,0.0174804,0.0036502000000004,0.0014762000000009,0.0113638,0,sub_5
-0.0173940000000002,-0.0518355999999987,0.0163882,0.0046994000000004,0.0012548000000009,0.0137232,0,sub_5
-0.0164384000000001,-0.0487709999999987,0.015027,0.0055390000000004,0.0006132000000009,0.0147996,0,sub_5
-0.0151540000000001,-0.0465683999999987,0.0144014,0.0061720000000004,0.0001904000000009,0.0145924,0,sub_5
-0.0143550000000001,-0.0448449999999987,0.0141136,0.0057490000000004,-0.000865599999999,0.012668,0,sub_5
-0.0145152000000001,-0.0443345999999987,0.0141808,0.0053318000000004,-0.001492199999999,0.0098886,0,sub_5
-0.0146886000000001,-0.0449953999999987,0.0145658,0.0049224000000004,-0.0008385999999991,0.0066802,0,sub_5
-0.0152000000000002,-0.0457055999999987,0.0152246,0.0034600000000004,-0.0003883999999991,0.0041116,0,sub_5
-0.0160384000000002,-0.0468391999999987,0.0157924,0.0024194000000004,-0.0003681999999991,0.0021874,0,sub_5
-0.0166746000000002,-0.0480135999999987,0.0165166,0.0011684000000004,0.0005040000000008,0.0004742,0,sub_5
-0.0165058000000002,-0.0491045999999987,0.0160224,-0.0009389999999995,0.0007402000000008,-0.0012441999999999,0,sub_5
-0.0160630000000002,-0.0493463999999987,0.0157916,-0.0013433999999995,0.0001180000000009,-0.0029495999999999,0,sub_5
-0.0156962000000002,-0.0499895999999987,0.0157032,-0.0004869999999995,-0.000731199999999,-0.0044379999999999,0,sub_5
-0.0154090000000002,-0.0502979999999987,0.0152128,0.0010094000000004,-0.001370399999999,-0.0057085999999999,0,sub_5
-0.0152686000000002,-0.0509899999999987,0.015021,0.0037774000000004,-0.002446199999999,-0.0054741999999999,0,sub_5
-0.0150432000000002,-0.0509599999999987,0.0161534,0.0071846000000004,-0.003312999999999,-0.0048083999999999,0,sub_5
-0.0148646000000002,-0.0514429999999987,0.0173172,0.0093182000000004,-0.002892799999999,-0.0033169999999999,0,sub_5
-0.0152414000000002,-0.0515687999999987,0.0177904,0.0103886000000004,-0.002040999999999,-0.0022609999999999,0,sub_5
-0.0153132000000002,-0.0518115999999987,0.0178248,0.0101838000000004,-0.000543999999999,-0.0016417999999999,0,sub_5
-0.0156330000000002,-0.0509847999999987,0.0171026,0.0093408000000004,0.0009570000000008,-0.0014543999999999,0,sub_5
-0.0157060000000002,-0.0498677999999987,0.0160438,0.0080700000000004,0.0022464000000008,-0.0012697999999999,0,sub_5
-0.0158592000000002,-0.0491609999999987,0.0145652,0.0070060000000004,0.0024648000000008,-0.0017047999999999,0,sub_5
-0.0156906000000002,-0.0489133999999987,0.014103,0.0063698000000004,0.0022582000000008,-0.0027771999999999,0,sub_5
-0.0159138000000002,-0.0481377999999987,0.0142744,0.0061764000000004,0.0009906000000008,-0.0034375999999999,0,sub_5
-0.0156442000000002,-0.0480699999999987,0.0149344,0.0055542000000004,-0.0004893999999991,-0.0038869999999999,0,sub_5
-0.0155304000000002,-0.0487325999999987,0.0155266,0.0045074000000004,-0.0015417999999991,-0.0043397999999999,0,sub_5
-0.0156788000000002,-0.0487175999999987,0.0167666,0.0034606000000004,-0.002594199999999,-0.0047925999999999,0,sub_5
-0.0160810000000002,-0.0490461999999987,0.0173968,0.0019868000000004,-0.002796399999999,-0.0043947999999999,0,sub_5
-0.0162114000000002,-0.0499861999999987,0.0177542,0.0004960000000004,-0.001939799999999,-0.0041925999999999,0,sub_5
-0.0163314000000002,-0.0507899999999987,0.0175674,0.0002836000000004,-0.001301599999999,-0.0037675999999999,0,sub_5
-0.0166366000000002,-0.0514941999999987,0.0177154,0.0013484000000004,-0.001094799999999,-0.0031193999999999,0,sub_5
-0.0168022000000001,-0.0526327999999987,0.0172868,0.0026286000000004,-0.000462599999999,-0.0024701999999999,0,sub_5
-0.0168006000000001,-0.0523523999999987,0.0169368,0.0043642000000004,-0.000251799999999,-0.0016257999999999,0,sub_5
-0.0163804000000001,-0.0518409999999987,0.0167766,0.0058854000000004,-0.000253399999999,-0.0007825999999999,0,sub_5
-0.0164514000000001,-0.0513001999999987,0.0168936,0.0067684000000004,-3.879999999908349e-05,-0.0001577999999999,0,sub_5
-0.0166804000000001,-0.0501821999999987,0.0167804,0.0065874000000004,0.0003942000000009,3.200000000007286e-05,0,sub_5
-0.0163616000000001,-0.0490151999999987,0.0164398,0.0059796000000004,0.0010410000000009,0.000432,0,sub_5
-0.0160118000000001,-0.0486051999999987,0.0163198,0.0049128000000004,0.0012570000000009,0.0006378,0,sub_5
-0.0158040000000001,-0.0482253999999987,0.0154738,0.0038478000000004,0.0014746000000009,0.0004164,0,sub_5
-0.0157094000000001,-0.0483717999999987,0.0158592,0.0030096000000004,0.0014846000000008,-0.0002625999999999,0,sub_5
-0.0157408000000001,-0.0486999999999987,0.0159686,0.0028096000000004,0.0014908000000008,-0.0005099999999999,0,sub_5
-0.0163710000000001,-0.0493285999999987,0.0165036,0.0030374000000004,0.0017084000000008,-0.0007543999999999,0,sub_5
-0.0165084000000001,-0.0499781999999987,0.0163614,0.0034794000000004,0.0019262000000008,-0.0012109999999999,0,sub_5
-0.0166452000000001,-0.0506319999999987,0.0172558,0.0045568000000004,0.0012888000000009,-0.0014485999999999,0,sub_5
-0.0164382000000001,-0.0503931999999987,0.0168558,0.0043416000000004,0.0012878000000009,-0.0010229999999999,0,sub_5
-0.0155138000000001,-0.0502959999999987,0.0165648,0.0041274000000004,0.0012876000000009,-0.0008107999999999,0,sub_5
-0.0147842000000002,-0.0505227999999987,0.0161602,0.0036958000000004,0.0002238000000009,-0.0008125999999999,0,sub_5
-0.0144448000000002,-0.0506771999999987,0.0163844,0.0030560000000004,1.9000000000936454e-05,-0.0010449999999999,0,sub_5
-0.0141236000000002,-0.0501569999999987,0.0162614,0.0022048000000004,0.0004532000000009,-0.0010659999999999,0,sub_5
-0.0136690000000002,-0.0500725999999987,0.0163724,0.0022060000000004,0.0002472000000009,-0.0015073999999999,0,sub_5
-0.0143000000000002,-0.0502095999999987,0.016237,0.0017814000000004,0.0002558000000009,-0.0019521999999999,0,sub_5
-0.0142790000000002,-0.0496909999999987,0.0165428,0.0017864000000004,0.0006898000000009,-0.0026079999999999,0,sub_5
-0.0143730000000001,-0.0497121999999987,0.0167834,0.0017854000000004,0.0006890000000009,-0.0023943999999999,0,sub_5
-0.0150006000000001,-0.0503251999999987,0.0163276,0.0013576000000004,0.0004774000000009,-0.0023969999999999,0,sub_5
-0.0160400000000001,-0.0508729999999987,0.0163674,0.0013548000000004,0.0006870000000009,-0.0015427999999999,0,sub_5
-0.0158590000000001,-0.0509645999999987,0.016707,0.0011238000000004,0.0009002000000009,-0.0009067999999999,0,sub_5
-0.0167874000000001,-0.0509545999999987,0.0161562,0.0006756000000004,0.0006864000000009,0.0001554,0,sub_5
-0.0170238000000001,-0.0502371999999987,0.0156592,0.0004436000000004,0.0006866000000009,0.0007916,0,sub_5
-0.0170320000000001,-0.0495053999999987,0.0156654,0.0010660000000004,0.0008970000000009,0.0014336,0,sub_5
-0.0166526000000001,-0.0494949999999987,0.0151386,0.0012646000000004,0.0006870000000009,0.001005,0,sub_5
-0.0168914000000002,-0.0498437999999987,0.0144634,0.0021180000000004,0.0004718000000009,0.0007976,0,sub_5
-0.0159400000000002,-0.0500411999999987,0.0147678,0.0025448000000004,4.5800000000916464e-05,0.0003738,0,sub_5
-0.0154772000000002,-0.0503203999999987,0.0150244,0.0029706000000004,-0.000380999999999,0.0001638,0,sub_5
-0.0150904000000002,-0.0510917999999987,0.0152496,0.0025420000000004,-0.000593399999999,0.0003746,0,sub_5
-0.0149938000000002,-0.0509943999999987,0.015863,0.0021018000000004,5.12000000009164e-05,0.000162,0,sub_5
-0.0149092000000002,-0.0510611999999987,0.016609,0.0014466000000004,0.0006950000000009,0.0003752,0,sub_5
-0.0150236000000002,-0.0509147999999987,0.0173,0.0016534000000004,0.0028288000000009,0.0001654,0,sub_5
-0.0155376000000002,-0.0512193999999987,0.0177392,0.0022936000000004,0.0062402000000008,-0.0002567999999999,0,sub_5
-0.0161606000000002,-0.0511969999999987,0.018515,0.0029396000000004,0.0107178000000008,-0.0008939999999999,0,sub_5
-0.0165088000000002,-0.0503757999999987,0.0179322,0.0036010000000004,0.0151906000000008,-0.0011085999999998,0,sub_5
-0.0167598000000002,-0.0495319999999987,0.01745,0.0046794000000004,0.0175312000000009,-0.0013175999999998,0,sub_5
-0.0172040000000001,-0.0498231999999987,0.0159702,0.0053078000000004,0.0188106000000008,-0.0021643999999998,0,sub_5
-0.0167746000000001,-0.0500731999999987,0.014482,0.0057114000000004,0.0177462000000009,-0.0027959999999998,0,sub_5
-0.0164030000000001,-0.0497765999999987,0.0130082,0.0060996000000004,0.0139094000000008,-0.0027831999999999,0,sub_5
-0.0158794000000001,-0.0503203999999987,0.0127028,0.0060534000000004,0.0087942000000008,-0.0023445999999999,0,sub_5
-0.0154640000000001,-0.0510995999999987,0.0133766,0.0058034000000004,0.0051738000000008,-0.0025501999999999,0,sub_5
-0.0152360000000001,-0.0509639999999987,0.0149088,0.0055738000000004,0.0024014000000009,-0.0016935999999999,0,sub_5
-0.0157302000000001,-0.0499737999999987,0.016642,0.0055662000000004,0.0015458000000009,-0.0008379999999999,0,sub_5
-0.0161118000000001,-0.0499173999999987,0.017368,0.0053578000000004,0.0023998000000008,-0.0010541999999999,0,sub_5
-0.0162996000000001,-0.0500825999999987,0.0180462,0.0062208000000004,0.0036784000000008,-0.0019043999999999,0,sub_5
-0.0166520000000001,-0.0496613999999987,0.0181034,0.0057852000000004,0.0062354000000008,-0.0021187999999999,0,sub_5
-0.0168870000000001,-0.0497583999999987,0.0174614,0.0051342000000004,0.0090038000000008,-0.0016939999999999,0,sub_5
-0.0167258000000001,-0.0505555999999987,0.0171656,0.0049138000000004,0.0126230000000008,-0.0012673999999999,0,sub_5
-0.0167146000000001,-0.0508521999999987,0.018099,0.0053516000000004,0.0207122000000008,-0.0004143999999999,0,sub_5
-0.0183004000000001,-0.0503825999999987,0.0197236,0.0058154000000004,0.0356150000000008,0.0014982,0,sub_5
-0.0190096000000001,-0.0507181999999987,0.0211634,0.0099298000000004,0.0498720000000008,0.0023632,0,sub_5
-0.0184900000000001,-0.0522771999999987,0.0211834,0.0153006000000004,0.0566762000000009,0.00111,0,sub_5
-0.0171834000000002,-0.0506353999999987,0.019049,0.0187156000000004,0.0600752000000009,6.740000000007295e-05,0,sub_5
-0.0154018000000002,-0.0484035999999987,0.0167408,0.0218914000000004,0.0572982000000009,-0.0013963999999999,0,sub_5
-0.0127734000000002,-0.0479735999999987,0.0136364,0.0250230000000004,0.0445086000000009,-0.0030611999999999,0,sub_5
-0.0113446000000002,-0.0476255999999987,0.0104592,0.0236604000000004,0.0298130000000009,-0.0036865999999999,0,sub_5
-0.0111094000000002,-0.0461295999999987,0.0095654,0.0201794000000004,0.0210800000000009,-0.0017707999999999,0,sub_5
-0.0122396000000002,-0.0476757999999987,0.01075,0.0184282000000004,0.0129832000000009,-6.339999999992723e-05,0,sub_5
-0.0142396000000002,-0.0489665999999987,0.0122606,0.0171086000000004,0.0053134000000009,0.0010054,0,sub_5
-0.0153850000000002,-0.0487599999999987,0.013055,0.0134640000000004,0.0014910000000009,0.0009848,0,sub_5
-0.0158580000000001,-0.0485511999999987,0.0133206,0.0108920000000004,-0.001268999999999,0.0007566,0,sub_5
-0.0168638000000001,-0.0485251999999987,0.01481,0.0091622000000004,-0.002756199999999,0.0005366,0,sub_5
-0.0173554000000001,-0.0482955999999987,0.016459,0.0068038000000004,-0.002320999999999,-0.0003311999999999,0,sub_5
-0.0170684000000001,-0.0489517999999987,0.017627,0.0046568000000004,-0.002100399999999,-0.0009833999999999,0,sub_5
-0.0161018000000001,-0.0492311999999987,0.016867,0.0027224000000004,-0.001244799999999,-0.0007805999999999,0,sub_5
-0.0154774000000001,-0.0494555999999987,0.0169088,0.0012108000000004,-0.001242999999999,-0.0005735999999999,0,sub_5
-0.0145636000000001,-0.0496193999999987,0.0160674,-0.0002867999999995,-0.002726599999999,-0.0012229999999999,0,sub_5
