userAcceleration.x,userAcceleration.y,userAcceleration.z,rotationRate.x,rotationRate.y,rotationRate.z,label,subject
-0.0043196000000001,-0.0112275999999987,-0.0007363999999998,-0.0069731999999995,-0.003168399999999,-0.0033399999999999,0,sub_5
-0.0066540000000001,-0.0157781999999987,0.0025398000000001,-0.0071907999999995,-0.004033599999999,-0.0007945999999999,0,sub_5
-0.0081834000000001,-0.0196351999999987,0.0050958000000001,-0.0056977999999995,-0.004264599999999,0.001548,0,sub_5
-0.0090480000000001,-0.0209579999999987,0.0072674,-0.0018629999999995,-0.003858799999999,0.0032836,0,sub_5
-0.0085440000000001,-0.0205631999999987,0.0073644,0.0015586000000004,-0.0019541999999991,0.0035188,0,sub_5
-0.0080812000000001,-0.0185643999999987,0.0058764,0.0049878000000004,0.0005940000000008,0.002685,0,sub_5
-0.0068608000000001,-0.0152803999999987,0.0034382,0.0069254000000004,0.0031492000000008,0.0014134,0,sub_5
-0.0054876000000001,-0.0109183999999987,-0.0004461999999999,0.0071702000000004,0.0048502000000008,-9.579999999991296e-05,0,sub_5
-0.0039888000000001,-0.0065377999999987,-0.0040821999999998,0.0059214000000004,0.0057076000000008,-0.0024689999999999,0,sub_5
-0.0037140000000001,-0.0037399999999987,-0.0059393999999998,0.0046670000000004,0.0050746000000008,-0.0050539999999999,0,sub_5
-0.0039090000000001,-0.0037149999999987,-0.0059991999999998,0.0025514000000004,0.0035888000000008,-0.0067891999999999,0,sub_5
-0.0040952000000001,-0.0052067999999987,-0.0057613999999998,2.2000000004239117e-06,0.0014618000000008,-0.0076721999999999,0,sub_5
-0.0046134000000002,-0.0083549999999987,-0.0037673999999998,-0.0019265999999995,-0.0006611999999991,-0.0078965999999999,0,sub_5
-0.0053990000000002,-0.0129615999999987,-0.0011801999999998,-0.0025877999999995,-0.003648399999999,-0.0061881999999999,0,sub_5
-0.0066270000000001,-0.0177595999999987,0.0025914,-0.0017393999999995,-0.005162199999999,-0.0027749999999999,0,sub_5
-0.0071480000000001,-0.0207377999999987,0.0052902,-0.0006747999999995,-0.005825399999999,0.0008522,0,sub_5
-0.0079722000000001,-0.0212039999999987,0.00741,0.0014672000000004,-0.004997399999999,0.0036306,0,sub_5
-0.0079078000000001,-0.0203803999999987,0.0076652,0.0038322000000004,-0.003312799999999,0.0051276,0,sub_5
-0.0071830000000001,-0.0173063999999987,0.0064936,0.0053610000000004,0.0002998000000009,0.0046934,0,sub_5
-0.0059620000000001,-0.0132137999999987,0.0037802,0.0053858000000004,0.0035050000000009,0.0023394,0,sub_5
-0.0050302000000001,-0.0082309999999987,-0.0001621999999999,0.0047736000000004,0.0065028000000009,-0.0008733999999998,0,sub_5
-0.0035770000000001,-0.0039343999999987,-0.0040213999999999,0.0028734000000004,0.0078006000000008,-0.0040929999999998,0,sub_5
-0.0035004000000001,-0.0013965999999987,-0.0059653999999999,0.0011778000000004,0.0073924000000008,-0.0070953999999998,0,sub_5
-0.0044602000000001,-0.0010877999999987,-0.0066315999999999,-0.0011577999999995,0.0057108000000008,-0.0090355999999998,0,sub_5
-0.0059894000000002,-0.0019523999999987,-0.0064547999999998,-0.0041449999999995,0.0033846000000009,-0.0090565999999998,0,sub_5
-0.0072300000000002,-0.0066083999999987,-0.0044891999999998,-0.0056539999999995,-0.000657999999999,-0.0073559999999998,0,sub_5
-0.0092122000000002,-0.0123197999999987,-0.0008999999999998,-0.0046129999999995,-0.005143399999999,-0.0037141999999999,0,sub_5
-0.0104336000000002,-0.0181629999999987,0.0029822,-0.0035747999999995,-0.009206999999999,0.0009952,0,sub_5
-0.0105750000000002,-0.0218167999999987,0.007062,-0.0023233999999995,-0.011358999999999,0.0052796,0,sub_5
-0.0102744000000002,-0.0247449999999987,0.0096828,-0.0006307999999995,-0.011589999999999,0.0082828,0,sub_5
-0.0087052000000002,-0.0235041999999987,0.0100576,0.0013012000000004,-0.008609999999999,0.0089374,0,sub_5
-0.0058752000000002,-0.0189921999999987,0.007896,0.0026132000000004,-0.003912199999999,0.006808,0,sub_5
-0.0034670000000002,-0.0132865999999987,0.0037212,0.0035146000000004,0.0022870000000009,0.0025374,0,sub_5
-0.0019264000000002,-0.0077975999999987,-0.0011507999999999,0.0041972000000004,0.0065718000000009,-0.0023731999999999,0,sub_5
-0.0006772000000002,-0.0026489999999987,-0.0045151999999999,0.0044414000000004,0.0083016000000009,-0.0072835999999998,0,sub_5
-0.0014332000000002,0.0003136000000012,-0.0060387999999999,0.0023248000000004,0.0083244000000009,-0.0111439999999998,0,sub_5
-0.0035862000000002,-0.0008657999999987,-0.0068691999999999,-0.0015167999999995,0.0072760000000008,-0.0120239999999998,0,sub_5
-0.0059034000000002,-0.0044525999999987,-0.0057415999999999,-0.0045317999999995,0.0036542000000008,-0.0094765999999998,0,sub_5
-0.0083374000000002,-0.0102733999999987,-0.0024463999999999,-0.0054255999999995,-0.0006225999999991,-0.0047771999999998,0,sub_5
-0.0113208000000002,-0.0166259999999987,0.0010244,-0.0048311999999995,-0.0040557999999991,0.0018576000000001,0,sub_5
-0.0128488000000002,-0.0218199999999987,0.0049282,-0.0029565999999995,-0.0068567999999991,0.0091414,0,sub_5
-0.0124764000000002,-0.0247341999999987,0.008381,0.0006440000000004,-0.008373599999999,0.0134446,0,sub_5
-0.0118814000000002,-0.0253231999999987,0.0111074,0.0051242000000004,-0.007323799999999,0.014546,0,sub_5
-0.0093016000000002,-0.0221341999999987,0.0096286,0.0087718000000004,-0.004342599999999,0.0128618,0,sub_5
-0.0054996000000002,-0.0174885999999986,0.0066138,0.0120078000000004,-0.000502599999999,0.0088202,0,sub_5
-0.0023330000000002,-0.0125921999999987,0.0020916,0.0146134000000003,0.0037726000000009,0.0030646,0,sub_5
-0.0009404000000002,-0.0071663999999987,-0.0023337999999999,0.0152870000000003,0.0061344000000008,-0.0020611999999998,0,sub_5
0.0005295999999997,-0.0020723999999987,-0.0064147999999998,0.0133832000000004,0.0067994000000008,-0.0059103999999998,0,sub_5
-0.0002444000000002,0.0001738000000012,-0.0075319999999998,0.0099726000000003,0.0061846000000008,-0.0080593999999998,0,sub_5
-0.0018878000000001,-0.0001307999999987,-0.0067911999999998,0.0048454000000003,0.0047184000000008,-0.0089373999999998,0,sub_5
-0.0042994000000001,-0.0036051999999987,-0.0045687999999999,-0.0009363999999995,0.0026048000000008,-0.0072553999999998,0,sub_5
-0.0062216000000001,-0.0082025999999987,-0.0016321999999999,-0.0058693999999995,0.0009086000000008,-0.0040723999999998,0,sub_5
-0.0086950000000001,-0.0140881999999987,0.0017386,-0.0097291999999995,-0.0001559999999991,-0.0008931999999998,0,sub_5
-0.0102394000000001,-0.0189077999999987,0.0040332,-0.0127289999999995,5.560000000091248e-05,0.0020766,0,sub_5
-0.0112554000000001,-0.0221253999999987,0.0052714,-0.0131653999999995,0.0004730000000009,0.0046368,0,sub_5
-0.0109526000000001,-0.0205053999999987,0.0041216,-0.0103971999999995,0.0006730000000009,0.004667,0,sub_5
-0.0100864000000001,-0.0182261999999987,0.0031596,-0.0057009999999995,0.0008730000000009,0.0030016,0,sub_5
-0.0084836000000002,-0.0151007999999987,0.0012648000000001,-0.0007883999999995,0.0006504000000009,0.00027,0,sub_5
-0.0063114000000002,-0.0110185999999987,-0.0006221999999998,0.0036956000000004,-0.000421199999999,-0.0028907999999999,0,sub_5
-0.0041240000000002,-0.0072095999999987,-0.0023713999999998,0.0062562000000004,-0.001488599999999,-0.0054241999999999,0,sub_5
-0.0029920000000002,-0.0063387999999987,-0.0020569999999998,0.0060438000000004,-0.002123599999999,-0.0062793999999999,0,sub_5
-0.0027290000000002,-0.0067355999999987,-0.0014449999999998,0.0034806000000004,-0.002329399999999,-0.0058697999999999,0,sub_5
-0.0029050000000002,-0.0077123999999987,0.0002734000000001,0.0002676000000004,-0.002317999999999,-0.0039655999999999,0,sub_5
-0.0038030000000001,-0.0103323999999987,0.0022896,-0.0029463999999995,-0.001882999999999,-0.0014207999999999,0,sub_5
-0.0055638000000001,-0.0133803999999987,0.003673,-0.0050885999999995,-0.000810999999999,0.0007034,0,sub_5
-0.0067834000000001,-0.0155521999999987,0.0041134,-0.0053095999999995,-0.0001691999999991,0.0022004,0,sub_5
-0.0077482000000001,-0.0170531999999987,0.0044024,-0.0044637999999995,4.460000000089226e-05,0.0032782,0,sub_5
-0.0082902000000001,-0.0170053999999987,0.0037018,-0.0027557999999995,0.0006762000000008,0.0037166,0,sub_5
-0.0085712000000001,-0.0164905999999987,0.002387,-0.0004037999999995,0.0013088000000008,0.0033048,0,sub_5
-0.0083938000000001,-0.0143863999999987,0.00143,0.0023758000000004,0.0015164000000008,0.0022556000000001,0,sub_5
-0.0080086000000001,-0.0121695999999987,0.000596,0.0036590000000003,0.0013024000000009,0.0014104000000001,0,sub_5
-0.0067280000000001,-0.0104313999999987,-0.0009745999999999,0.0038742000000003,0.0008820000000009,0.0001388000000001,0,sub_5
-0.0057562000000001,-0.0095607999999987,-0.0016083999999998,0.0038720000000004,3.460000000093241e-05,-0.0007063999999998,0,sub_5
-0.0058684000000001,-0.0095507999999987,-0.0012267999999998,0.0032258000000004,-0.000389599999999,-0.0002745999999998,0,sub_5
-0.0049140000000001,-0.0106523999999987,-0.0010215999999999,0.0021510000000004,-0.000813999999999,0.0005814,0,sub_5
-0.0040704000000001,-0.0121375999999987,-0.0001251999999999,0.0023556000000004,-0.001455999999999,0.0014466,0,sub_5
-0.0046998000000001,-0.0135943999999987,0.001783,0.0029908000000004,-0.001886999999999,0.0020926,0,sub_5
-0.0050510000000001,-0.0142701999999987,0.0033248,0.0032004000000004,-0.001678999999999,0.0031622,0,sub_5
-0.0041908000000002,-0.0142221999999987,0.0034138,0.0032024000000004,-0.0012527999999991,0.0031616,0,sub_5
-0.0039920000000002,-0.0133599999999987,0.0036656,0.0023342000000004,-0.0008217999999991,0.002938,0,sub_5
-0.0043020000000002,-0.0123167999999987,0.0026922,0.0012602000000004,0.0006776000000008,0.0020706,0,sub_5
-0.0038572000000002,-0.0106017999999987,0.0012442,0.0003998000000004,0.0019642000000008,0.0009914,0,sub_5
-0.0039016000000002,-0.0092145999999987,-0.0010383999999999,-0.0004597999999995,0.0026148000000008,-0.0009415999999999,0,sub_5
-0.0050610000000002,-0.0080115999999987,-0.0025335999999999,-0.0011107999999995,0.0021994000000009,-0.0028715999999999,0,sub_5
-0.0063536000000002,-0.0084723999999987,-0.0033457999999999,-0.0008943999999995,0.0013524000000009,-0.0043643999999999,0,sub_5
-0.0074220000000001,-0.0096841999999987,-0.0027185999999999,-0.0013259999999995,-0.000560199999999,-0.0052193999999999,0,sub_5
-0.0082290000000001,-0.0115999999999987,-0.0010551999999999,-0.0028281999999995,-0.002048199999999,-0.0048005999999999,0,sub_5
-0.0086748000000001,-0.0139867999999987,0.0013492,-0.0041185999999995,-0.002479799999999,-0.0033119999999999,0,sub_5
-0.0080442000000001,-0.0159101999999987,0.0034148,-0.0049821999999995,-0.002488599999999,-0.0013937999999999,0,sub_5
-0.0074934000000001,-0.0161917999999987,0.0044872,-0.0056277999999995,-0.001432999999999,0.0005246,0,sub_5
-0.0063338000000001,-0.0146247999999987,0.0049956,-0.0052015999999995,0.0002600000000009,0.0020224,0,sub_5
-0.0061582000000001,-0.0128917999999987,0.0032648,-0.0034923999999995,0.0017388000000009,0.0026748,0,sub_5
-0.0063278000000001,-0.0112473999999987,0.0011276,-0.0013605999999995,0.0015174000000009,0.0029036,0,sub_5
-0.0062372000000001,-0.0095827999999987,-0.0002837999999999,0.0003424000000004,0.0004472000000009,0.0027032,0,sub_5
-0.0067352000000002,-0.0092609999999987,-0.0012713999999999,0.0011892000000004,-0.001046999999999,0.0027112,0,sub_5
-0.0072022000000002,-0.0105853999999987,-0.0020019999999999,0.0011766000000004,-0.003180399999999,0.0033606,0,sub_5
-0.0070988000000002,-0.0113533999999987,-0.0010371999999999,0.0003084000000004,-0.005312599999999,0.0044314,0,sub_5
-0.0062490000000002,-0.0120707999999987,0.0007746,-0.0011873999999995,-0.005733799999999,0.0044274,0,sub_5
-0.0061024000000002,-0.0136131999999987,0.0015906,-0.0026783999999995,-0.005089799999999,0.0044222,0,sub_5
-0.0051192000000002,-0.0136985999999987,0.003089,-0.0031015999999995,-0.004448799999999,0.0042106,0,sub_5
-0.0050380000000001,-0.0134473999999987,0.0033748,-0.0037311999999995,-0.002739599999999,0.0035632,0,sub_5
-0.0043656000000001,-0.0133359999999987,0.0025298,-0.0026517999999995,-0.000822399999999,0.0027138,0,sub_5
-0.0043028000000001,-0.0130805999999987,0.0016666,-0.0013667999999995,0.0004506000000009,0.0029348,0,sub_5
-0.0045944000000001,-0.0116469999999987,0.0013696,-0.0002993999999995,0.0008702000000009,0.0033698,0,sub_5
-0.0051354000000001,-0.0114343999999987,0.0002538,0.0001260000000004,0.0010784000000009,0.0040144,0,sub_5
-0.0050096000000002,-0.0115471999999987,-0.0004247999999999,0.0001208000000004,0.0008600000000009,0.0050838,0,sub_5
-0.0058400000000002,-0.0113429999999987,-8.67999999999051e-05,-0.0020201999999995,0.0004354000000009,0.0063522,0,sub_5
-0.0062958000000001,-0.0112341999999987,-0.0002121999999999,-0.0041561999999995,1.5000000000932452e-05,0.0065524,0,sub_5
-0.0063298000000001,-0.0116869999999987,-0.0006525999999999,-0.0056497999999995,-0.000404199999999,0.0061152,0,sub_5
-0.0068500000000001,-0.0119999999999987,0.0004014,-0.0058641999999995,-0.000828799999999,0.0059006,0,sub_5
-0.0077620000000001,-0.0122835999999987,0.000817,-0.0050161999999995,-0.001255399999999,0.0054772,0,sub_5
-0.0077956000000001,-0.0131417999999987,0.0012388,-0.0024561999999995,-0.001047199999999,0.0046378,0,sub_5
-0.0080558000000002,-0.0136993999999987,0.00181,9.600000000042403e-05,-0.001694599999999,0.004654,0,sub_5
-0.0075172000000002,-0.0137397999999987,0.0025664,0.0013670000000004,-0.001913799999999,0.0053016,0,sub_5
-0.0060242000000002,-0.0134407999999987,0.0013034,0.0009358000000004,-0.001698599999999,0.0052958,0,sub_5
-0.0052046000000002,-0.0126625999999987,0.0010706000000001,0.0003004000000004,-0.000843199999999,0.0050766,0,sub_5
-0.0047460000000002,-0.0120213999999987,0.0007888000000001,-0.0011931999999995,-0.000837999999999,0.005066,0,sub_5
-0.0044164000000001,-0.0109063999999987,0.0005844,-0.0024677999999995,2.04000000008725e-05,0.0046286,0,sub_5
-0.0049714000000001,-0.0108845999999987,0.0003818,-0.0026757999999995,0.0004480000000008,0.0039884,0,sub_5
-0.0061328000000001,-0.0108775999999987,0.0006868,-0.0022437999999995,0.0006614000000008,0.0031392,0,sub_5
-0.0059412000000001,-0.0110589999999987,0.0012728,-0.0018127999999995,0.0006614000000008,0.0022902,0,sub_5
-0.0063016000000001,-0.0117741999999987,0.0013824,-0.0018075999999995,0.0010884000000008,0.0016514,0,sub_5
-0.0066814000000001,-0.0131913999999987,0.0017002,-0.0020195999999995,0.0010882000000009,0.001439,0,sub_5
-0.0072070000000001,-0.0136599999999987,0.0018088,-0.0024425999999995,0.0023662000000009,0.0018616,0,sub_5
-0.0071754000000001,-0.0134417999999987,0.0011934,-0.0026569999999995,0.0030026000000009,0.0027138,0,sub_5
-0.0080140000000001,-0.0136021999999987,0.0008466,-0.0024453999999995,0.0025758000000009,0.002716,0,sub_5
-0.0081318000000001,-0.0124273999999987,0.0003620000000001,-0.0009517999999995,0.0019338000000009,0.0020864,0,sub_5
-0.0080302000000001,-0.0115837999999987,-0.0002269999999998,0.0005446000000004,0.0010802000000009,0.001454,0,sub_5
-0.0073086000000001,-0.0116435999999987,-0.0006639999999998,0.0022486000000004,-0.001264599999999,0.0006114,0,sub_5
-0.0064252000000001,-0.0118173999999987,9.480000000011484e-05,0.0031012000000004,-0.003180199999999,-0.0002377999999999,0,sub_5
-0.0056172000000001,-0.0115681999999987,0.0004190000000001,0.0031030000000004,-0.004241599999999,-0.0008803999999999,0,sub_5
-0.0054958000000001,-0.0123437999999987,0.0007666,0.0024646000000004,-0.004663999999999,-0.0008873999999999,0,sub_5
-0.0048290000000002,-0.0127937999999987,0.0010124,0.0020388000000004,-0.004661599999999,-0.0011039999999998,0,sub_5
-0.0049344000000002,-0.0124725999999987,0.0015138,0.0016206000000004,-0.004015799999999,-0.0023895999999998,0,sub_5
-0.0053274000000002,-0.0130609999999987,0.0010884,0.0018514000000004,-0.002939399999999,-0.0038937999999998,0,sub_5
-0.0056834000000001,-0.0136167999999987,0.0008442,0.0022908000000004,-0.002079999999999,-0.0045417999999998,0,sub_5
-0.0051414000000001,-0.0134885999999987,0.000889,0.0027236000000004,-0.002287599999999,-0.0047609999999998,0,sub_5
-0.0055642000000001,-0.0133837999999987,0.000487,0.0027286000000004,-0.002282399999999,-0.0045563999999999,0,sub_5
-0.0058824000000001,-0.0135731999999987,0.000165,0.0031584000000004,-0.002068199999999,-0.0037079999999999,0,sub_5
-0.0062542000000001,-0.0133789999999987,0.0006694,0.0027248000000004,-0.002284799999999,-0.0024287999999999,0,sub_5
-0.0065104000000002,-0.0129041999999987,0.0002054,0.0027210000000004,-0.002288199999999,-0.0015741999999999,0,sub_5
-0.0065320000000002,-0.0128163999999987,0.0001178,0.0025066000000004,-0.002076199999999,-0.0011487999999999,0,sub_5
-0.0065690000000002,-0.0125859999999987,0.000981,0.0029450000000004,-0.001857999999999,-0.0013775999999998,0,sub_5
-0.0065268000000002,-0.0118861999999987,0.001639,0.0025272000000004,-0.001639399999999,-0.0009713999999998,0,sub_5
-0.0066176000000001,-0.0115431999999987,0.0015328,0.0031800000000004,-0.001208999999999,-0.0011989999999998,0,sub_5
-0.0060546000000001,-0.0111041999999987,0.00213,0.0031916000000004,-0.000777199999999,-0.0012173999999998,0,sub_5
-0.0063938000000001,-0.0104147999999987,0.0022702,0.0032052000000004,-0.000131399999999,-0.0014495999999998,0,sub_5
-0.0062408000000001,-0.0107189999999987,0.001508,0.0019298000000004,0.0005138000000009,-0.0018865999999998,0,sub_5
-0.0056534000000001,-0.0114865999999987,0.0003198,0.0008648000000004,0.0005192000000009,-0.0023213999999998,0,sub_5
-0.0050044000000001,-0.0116475999999987,0.000367,1.1400000000423932e-05,0.0005222000000009,-0.0023273999999999,0,sub_5
-0.0053638000000001,-0.0122787999999987,0.0006938,-0.0006315999999995,9.740000000091247e-05,-0.0021175999999998,0,sub_5
-0.0055240000000001,-0.0132607999999987,0.0007004,-0.0012629999999995,-0.000108199999999,-0.0021435999999998,0,sub_5
-0.0061208000000001,-0.0132463999999987,0.0009918,-0.0010437999999995,-0.000319199999999,-0.0015225999999998,0,sub_5
-0.0063614000000001,-0.0132375999999987,0.0017672,-0.0006053999999995,-0.000101599999999,-0.0017551999999998,0,sub_5
-0.0064742000000002,-0.0130817999999987,0.0017088,-0.0010243999999995,-0.000308799999999,-0.0015659999999998,0,sub_5
-0.0065792000000002,-0.0131191999999987,0.00141,-0.0014405999999995,-0.000301199999999,-0.0018043999999998,0,sub_5
-0.0061640000000002,-0.0130031999999987,0.0014498,-0.0014395999999995,-0.000300399999999,-0.0020179999999998,0,sub_5
-0.0058042000000002,-0.0129173999999987,0.00152,-0.0010127999999995,-8.979999999908752e-05,-0.0018015999999998,0,sub_5
-0.0061340000000002,-0.0124001999999987,0.0014286,-0.0005791999999995,-9.299999999908752e-05,-0.0011767999999998,0,sub_5
-0.0067204000000001,-0.0123455999999987,0.0012436,-0.0001387999999995,0.0003342000000009,-0.0016207999999998,0,sub_5
-0.0067258000000001,-0.0122761999999987,0.0013722,0.0002998000000004,0.0005476000000008,-0.0018507999999998,0,sub_5
-0.0070018000000001,-0.0120891999999987,0.0009568,0.0007364000000004,0.0007592000000008,-0.0016535999999998,0,sub_5
-0.0068880000000001,-0.0120673999999987,0.0008366,0.0005290000000004,-0.0003035999999991,-0.0018865999999998,0,sub_5
-0.0069050000000001,-0.0123697999999987,0.0010322,0.0007394000000004,-0.0007311999999991,-0.0016709999999998,0,sub_5
-0.0067642000000001,-0.0130519999999987,0.0011226,0.0011612000000004,-0.0011613999999991,-0.0010263999999998,0,sub_5
-0.0064924000000001,-0.0136149999999987,0.0006386,0.0013698000000004,-0.001590799999999,-0.0003835999999998,0,sub_5
-0.0065268000000001,-0.0138387999999987,0.0013602,0.0015822000000004,-0.001592399999999,-0.0001683999999999,0,sub_5
-0.0063854000000001,-0.0137405999999987,0.0015706,0.0020146000000004,-0.000734199999999,-0.0001753999999999,0,sub_5
-0.0061386000000001,-0.0134109999999987,0.0011028,0.0024482000000004,-0.000299599999999,-0.0008229999999999,0,sub_5
-0.0060494000000001,-0.0129407999999987,0.0012838,0.0028798000000004,-7.899999999908742e-05,-0.0012565999999999,0,sub_5
-0.0062264000000001,-0.0124671999999987,0.0016418,0.0030978000000004,0.0003546000000009,-0.0014781999999999,0,sub_5
-0.0059772000000001,-0.0119277999999987,0.001374,0.0028862000000004,0.0003626000000009,-0.0014887999999999,0,sub_5
-0.0065170000000001,-0.0120245999999987,0.0007688,0.0026720000000004,0.0003624000000009,-0.0012767999999999,0,sub_5
-0.0065328000000001,-0.0121431999999987,0.0004958,0.0018156000000004,0.0001506000000009,-0.0008551999999999,0,sub_5
-0.0064962000000001,-0.0122321999999987,0.0007998,0.0009556000000004,-5.219999999908745e-05,-0.0006475999999999,0,sub_5
-0.0062446000000001,-0.0117345999999987,0.0012772,0.0005234000000004,-4.359999999908744e-05,-0.0004373999999999,0,sub_5
-0.0065326000000001,-0.0119211999999987,0.0006344,-0.0001211999999995,-3.3199999999087434e-05,-0.0004421999999999,0,sub_5
-0.0061228000000001,-0.0122901999999987,0.0012474,-0.0005533999999995,-0.000448799999999,-0.0006585999999999,0,sub_5
-0.0069842000000001,-0.0127179999999987,0.0019666,-0.0001291999999995,-1.619999999908743e-05,-0.0006563999999999,0,sub_5
-0.0072012000000001,-0.0125285999999987,0.0018724,0.0003014000000004,0.0010468000000009,-0.0004411999999999,0,sub_5
-0.0072750000000001,-0.0129265999999987,0.001084,0.0009416000000004,0.0010446000000009,-0.0004365999999999,0,sub_5
-0.0074746000000001,-0.0132521999999987,0.001872,0.0022210000000004,0.0008270000000009,-0.0004273999999998,0,sub_5
-0.0074358000000001,-0.0128147999999987,0.0015804,0.0022144000000004,0.0010442000000009,-0.0002085999999998,0,sub_5
-0.0066248000000001,-0.0124127999999987,0.0011598,0.0017802000000004,0.0006254000000009,-0.0004193999999998,0,sub_5
-0.0061876000000002,-0.0129849999999987,0.0002938,0.0015622000000004,0.0004206000000009,-0.0010561999999998,0,sub_5
-0.0061478000000002,-0.0131033999999987,0.0006332,0.0007060000000004,0.0006442000000009,-0.0016979999999998,0,sub_5
-0.0057114000000002,-0.0127709999999987,0.0001658,-0.0003665999999995,0.0010782000000008,-0.0014869999999999,0,sub_5
-0.0058428000000001,-0.0123105999999987,0.0002122,-0.0003647999999995,0.0015042000000008,-0.0014875999999999,0,sub_5
-0.0056224000000001,-0.0122467999999987,0.0006646,6.48000000004239e-05,0.0017174000000008,-0.0019121999999998,0,sub_5
-0.0056276000000001,-0.0114937999999987,0.0012852,-0.0001493999999995,0.0012928000000008,-0.0021267999999998,0,sub_5
-0.0058386000000001,-0.0114223999999987,0.0013396,-0.0001557999999995,0.0008684000000008,-0.0019035999999998,0,sub_5
-0.0062682000000001,-0.0120775999999987,0.001196,-0.0003745999999995,0.0002336000000008,-0.0021087999999998,0,sub_5
-0.0064188000000001,-0.0129777999999987,0.0008246,-0.0003789999999995,0.0002354000000009,-0.0018859999999998,0,sub_5
-0.0065610000000001,-0.0133075999999987,0.0003722,-0.0010237999999995,0.0008762000000009,-0.0010273999999999,0,sub_5
-0.0068934000000001,-0.0137909999999987,0.0008736,-0.0010293999999995,0.0008772000000009,-0.0005909999999999,0,sub_5
-0.0069050000000001,-0.0134837999999987,0.001182,-0.0003893999999995,0.0010872000000009,-0.0003729999999999,0,sub_5
-0.0069986000000001,-0.0128799999999987,0.001078,0.0008928000000004,0.0015088000000009,-0.0003645999999999,0,sub_5
-0.0064716000000002,-0.0124251999999987,0.0014422,0.0013194000000004,0.0010830000000009,-0.0007883999999999,0,sub_5
-0.0065860000000002,-0.0123659999999987,0.001431,0.0017404000000004,1.5400000000912385e-05,-0.0005705999999999,0,sub_5
-0.0064256000000002,-0.0121027999999987,0.0006062,0.0019442000000004,-0.000622399999999,-0.0003453999999998,0,sub_5
