userAcceleration.x,userAcceleration.y,userAcceleration.z,rotationRate.x,rotationRate.y,rotationRate.z,label,subject
-0.0019624000000001,0.0458800000000012,-0.0040009999999998,-0.0071955999999996,0.0024552000000009,-0.0060887999999998,0,sub_15
-0.0017190000000001,0.0455886000000012,-0.0043305999999998,-0.0065337999999996,0.0017342000000009,-0.0041473999999998,0,sub_15
-0.0022816000000001,0.0463950000000012,-0.0043511999999998,-0.0058729999999996,0.0005878000000009,-0.0024189999999998,0,sub_15
-0.0032160000000001,0.0472916000000012,-0.0036939999999999,-0.0046079999999996,-0.001552199999999,-0.0011255999999998,0,sub_15
-0.0034700000000001,0.0487196000000012,-0.0031191999999998,-0.0033429999999996,-0.003904399999999,-4.559999999984316e-05,0,sub_15
-0.0046194000000001,0.0488918000000012,-0.0026511999999998,-0.0012207999999996,-0.005407399999999,0.0010392000000001,0,sub_15
-0.0055518000000001,0.0494442000000012,-0.0021811999999998,0.0013330000000003,-0.006058999999999,0.0019124000000001,0,sub_15
-0.0068006000000001,0.0490052000000012,-0.0018597999999998,0.0041064000000003,-0.005949999999999,0.0021480000000001,0,sub_15
-0.0078384000000001,0.0479712000000012,-0.0022241999999998,0.0066654000000003,-0.005841199999999,0.0025958000000001,0,sub_15
-0.0095388000000001,0.0474106000000012,-0.0020901999999998,0.0094424000000003,-0.005092199999999,0.0026170000000001,0,sub_15
-0.0099070000000001,0.0480202000000012,-0.0011235999999998,0.0107384000000003,-0.001780599999999,0.0024110000000001,0,sub_15
-0.0103136000000001,0.0465584000000012,0.0011148000000001,0.0099216000000003,0.0066502000000009,0.0026110000000001,0,sub_15
-0.0118266000000001,0.0444704000000012,0.0032420000000001,0.0088968000000003,0.0170894000000009,0.0036588000000001,0,sub_15
-0.0112548000000001,0.0428500000000012,0.0031910000000001,0.0091360000000003,0.0219924000000009,0.0027996000000001,0,sub_15
-0.0087278000000001,0.0386158000000012,-0.0005609999999999,0.0102026000000003,0.0223274000000009,0.0011496000000001,0,sub_15
-0.0067052000000001,0.0345904000000012,-0.0039793999999999,0.0099698000000003,0.0194668000000009,0.0005628000000001,0,sub_15
-0.0045918000000001,0.0341258000000012,-0.0056363999999999,0.0069420000000003,0.0121408000000009,0.0001756000000001,0,sub_15
-0.0018328000000001,0.0375848000000012,-0.0030679999999999,-0.0014057999999996,0.0086660000000009,0.0003874000000001,0,sub_15
-0.0030264000000001,0.0419556000000012,-5.919999999993361e-05,-0.0088569999999996,0.0164732000000009,0.0023002000000001,0,sub_15
-0.0084046000000001,0.0468960000000012,0.002605,-0.0090665999999996,0.0205092000000009,0.0054982000000001,0,sub_15
-0.0104516000000001,0.0502542000000012,0.0072536,-0.0064657999999996,0.0300852000000009,0.0061450000000001,0,sub_15
-0.0122972000000001,0.0502984000000012,0.007835,-0.0074511999999996,0.0477742000000009,0.0056882000000001,0,sub_15
-0.0129622000000001,0.0464124000000012,0.0027864,-0.0097615999999996,0.0570910000000008,0.0033194000000001,0,sub_15
-0.0113244000000001,0.0430362000000012,-0.0018719999999999,-0.0163825999999996,0.0568354000000008,0.0009328000000001,0,sub_15
-0.0078994000000001,0.0424218000000012,-0.0033157999999999,-0.0321641999999996,0.0595954000000008,-0.0017351999999998,0,sub_15
-0.0054730000000001,0.0453402000000012,-0.0040601999999999,-0.0518067999999996,0.0598046000000009,-0.0025041999999998,0,sub_15
-0.0031470000000001,0.0505918000000012,-0.0045857999999999,-0.0667895999999996,0.0521152000000009,-0.0034439999999998,0,sub_15
0.0005697999999998,0.0563448000000012,-0.0053203999999998,-0.0734645999999996,0.0410502000000009,-0.0011263999999998,0,sub_15
0.0053099999999997,0.0588804000000012,-0.0095861999999998,-0.0682117999999996,0.0295002000000009,0.0055480000000001,0,sub_15
0.0102911999999997,0.0592880000000012,-0.0116265999999998,-0.0512091999999996,0.0215296000000009,0.0127272000000001,0,sub_15
0.0094607999999998,0.0590494000000012,-0.0123261999999998,-0.0261001999999996,0.0109280000000009,0.0182796000000001,0,sub_15
0.0044603999999997,0.0577412000000012,-0.0098425999999998,0.0030466000000003,-0.002885199999999,0.0242914000000001,0,sub_15
-0.0047054000000002,0.0556116000000012,-0.0066315999999999,0.0315714000000003,-0.014770199999999,0.0281602000000001,0,sub_15
-0.0162968000000001,0.0529502000000012,-0.0002055999999999,0.0528934000000003,-0.021490999999999,0.0255626000000001,0,sub_15
-0.0256924000000001,0.0498570000000012,0.002556,0.0627288000000003,-0.024320599999999,0.0188206000000001,0,sub_15
-0.0298296000000001,0.0437794000000012,0.0008136,0.0629794000000003,-0.025349199999999,0.0094232000000001,0,sub_15
-0.0284622000000001,0.0388716000000012,-0.0032197999999999,0.0557706000000003,-0.025495199999999,-0.0010953999999998,0,sub_15
-0.0247438000000001,0.0375290000000012,-0.0054825999999999,0.0430134000000003,-0.024985999999999,-0.0107991999999998,0,sub_15
-0.0217352000000001,0.0409594000000012,-0.0045055999999999,0.0263894000000003,-0.025971799999999,-0.0162551999999998,0,sub_15
-0.0184388000000001,0.0449548000000012,-0.0012819999999999,0.0099534000000003,-0.028497399999999,-0.0165629999999998,0,sub_15
-0.0134624000000001,0.0480216000000012,0.0004018,-0.0022273999999996,-0.029139199999999,-0.0121431999999998,0,sub_15
-0.0066610000000002,0.0500898000000012,0.0003794,-0.0062923999999996,-0.026407199999999,-0.0059619999999998,0,sub_15
0.0016627999999998,0.0506904000000012,-0.0014977999999999,-0.0034987999999996,-0.019215599999999,-0.0020885999999998,0,sub_15
0.0122349999999997,0.0486624000000012,-0.0044577999999999,0.0022964000000003,-0.012658399999999,-0.0020389999999998,0,sub_15
0.0192731999999998,0.0471086000000012,-0.0081999999999999,0.0097770000000003,-0.012036799999999,-0.0041239999999998,0,sub_15
0.0219897999999998,0.0471110000000012,-0.0102075999999998,0.0191520000000003,-0.018022999999999,-0.0070417999999998,0,sub_15
0.0142353999999998,0.0471276000000012,-0.0084163999999998,0.0280704000000003,-0.027451399999999,-0.0099505999999998,0,sub_15
0.0030507999999998,0.0462722000000012,-0.0039811999999998,0.0331106000000003,-0.041780199999999,-0.0094619999999998,0,sub_15
-0.0092774000000001,0.0452170000000012,0.0004000000000001,0.0349512000000003,-0.052913799999999,-0.0060087999999998,0,sub_15
-0.0203250000000001,0.0451564000000012,0.0058226000000001,0.0312968000000003,-0.051885599999999,-0.0021821999999998,0,sub_15
-0.0259780000000001,0.0464122000000012,0.0068500000000001,0.0251174000000003,-0.043390199999999,0.0011898000000001,0,sub_15
-0.0245290000000001,0.0480514000000012,0.0057168000000001,0.0185632000000003,-0.028671399999999,0.0024070000000001,0,sub_15
-0.0175608000000001,0.0484274000000012,0.0018370000000001,0.0099318000000003,-0.004982599999999,-3.379999999986311e-05,0,sub_15
-0.0096108000000001,0.0469318000000012,-0.0047631999999998,0.0008660000000003,0.0157302000000009,-0.0037555999999998,0,sub_15
-0.0007056000000001,0.0458604000000012,-0.0115207999999998,-0.0014347999999996,0.0190632000000009,-0.0074091999999998,0,sub_15
0.0037553999999998,0.0445184000000012,-0.0132167999999999,-0.0012009999999996,0.0157862000000009,-0.0118911999999998,0,sub_15
0.0052615999999998,0.0457708000000012,-0.0095185999999999,-0.0020609999999996,0.0088816000000009,-0.0140259999999998,0,sub_15
0.0028205999999998,0.0480296000000012,-0.0058595999999999,-0.0003919999999996,-0.002303999999999,-0.0133601999999998,0,sub_15
0.0003795999999998,0.0529706000000012,-0.0004493999999999,0.0021420000000003,-0.009450599999999,-0.0111979999999998,0,sub_15
-0.0024886000000001,0.0553422000000012,0.0022474,0.0038604000000003,-0.003504599999999,-0.0077751999999998,0,sub_15
-0.0062064000000001,0.0556592000000012,0.003343,0.0036566000000003,0.0043562000000009,-0.0020181999999998,0,sub_15
-0.0066376000000001,0.0530452000000012,-0.0019425999999999,0.0032204000000003,0.0073198000000009,0.0031024000000001,0,sub_15
-0.0065926000000001,0.0519710000000012,-0.0041621999999999,0.0058400000000003,0.0050416000000009,0.0063070000000001,0,sub_15
-0.0065190000000001,0.0504624000000012,-0.0053071999999999,0.0099464000000003,-0.000855199999999,0.0073902000000001,0,sub_15
-0.0069920000000001,0.0491066000000012,-0.0041111999999999,0.0097770000000003,-0.010139999999999,0.0069522000000001,0,sub_15
-0.0075046000000001,0.0477554000000012,-0.0030625999999999,0.0074890000000003,-0.018342599999999,0.0041480000000001,0,sub_15
-0.0090338000000001,0.0489180000000012,-0.0007675999999999,0.0060804000000003,-0.021432199999999,0.0007024000000001,0,sub_15
-0.0096512000000001,0.0491360000000012,0.0002084,0.0048270000000003,-0.018008599999999,-0.0018745999999998,0,sub_15
-0.0095210000000001,0.0484654000000012,0.0003636,0.0039986000000003,-0.013951599999999,-0.0033811999999998,0,sub_15
-0.0091880000000001,0.0490476000000012,0.000182,0.0044502000000003,-0.009262399999999,-0.0042385999999998,0,sub_15
-0.0089366000000001,0.0509422000000012,0.0005744,0.0072170000000003,-0.006328199999999,-0.0036023999999998,0,sub_15
-0.0069708000000001,0.0496426000000012,0.0006126,0.0097702000000003,-0.002544399999999,-0.0021141999999998,0,sub_15
-0.0050536000000001,0.0476186000000012,0.0002468,0.0101764000000003,-0.002160199999999,-0.0010639999999998,0,sub_15
-0.0045560000000001,0.0469542000000012,-0.0015667999999999,0.0084440000000003,-0.003258199999999,-0.0004539999999998,0,sub_15
-0.0047498000000001,0.0459918000000012,-0.0019171999999999,0.0075574000000003,-0.006275799999999,-4.93999999998432e-05,0,sub_15
-0.0045692000000001,0.0465074000000012,-0.0022333999999999,0.0062694000000003,-0.007763399999999,0.0001572000000001,0,sub_15
-0.0052156000000001,0.0485470000000012,-0.0016733999999999,0.0054150000000003,-0.008397799999999,-0.0002751999999998,0,sub_15
-0.0061602000000001,0.0499752000000012,-0.0013981999999999,0.0054236000000003,-0.007116999999999,-0.0009175999999998,0,sub_15
-0.0066506000000001,0.0510742000000012,-0.0006299999999999,0.0071024000000003,-0.003891199999999,-0.0013365999999998,0,sub_15
-0.0068118000000001,0.0521464000000012,-0.0019987999999999,0.0083584000000003,-2.379999999904741e-05,-0.0019727999999998,0,sub_15
-0.0059528000000001,0.0513820000000012,-0.0026773999999998,0.0093934000000003,0.0027764000000009,-0.0019683999999998,0,sub_15
-0.0051292000000001,0.0496894000000012,-0.0036459999999998,0.0076440000000003,0.0036672000000009,-0.0015535999999998,0,sub_15
-0.0041588000000001,0.0502450000000012,-0.0039015999999998,0.0052506000000003,0.0037082000000009,-0.0011421999999998,0,sub_15
-0.0033808000000001,0.0505476000000012,-0.0029623999999998,0.0029056000000003,0.0041426000000009,-0.0011589999999998,0,sub_15
-0.0029426000000001,0.0507814000000012,-0.0011553999999998,0.0018484000000003,0.0067012000000009,-0.0007423999999998,0,sub_15
-0.0027640000000001,0.0513270000000012,0.0001844,0.0023000000000003,0.0120270000000009,-0.0009595999999998,0,sub_15
-0.0031264000000001,0.0518476000000012,-0.0003877999999999,0.0050988000000003,0.0167080000000009,-0.0018005999999998,0,sub_15
-0.0040460000000001,0.0506274000000012,-0.0022183999999999,0.0071860000000003,0.0195238000000009,-0.0015641999999998,0,sub_15
-0.0048540000000001,0.0493152000000012,-0.0041619999999999,0.0077670000000003,0.0197874000000009,-0.0011213999999998,0,sub_15
-0.0051062000000001,0.0487470000000012,-0.0050149999999999,0.0068546000000003,0.0198440000000009,-0.0009023999999998,0,sub_15
-0.0057828000000001,0.0478412000000012,-0.0055787999999999,0.0050792000000003,0.0175608000000009,-0.0009001999999998,0,sub_15
-0.0057668000000001,0.0487034000000012,-0.0047825999999998,0.0032950000000003,0.0142090000000009,-4.19999999998632e-05,0,sub_15
-0.0056532000000001,0.0507374000000012,-0.0036541999999998,0.0022234000000003,0.0131476000000009,-4.819999999986319e-05,0,sub_15
-0.0058684000000001,0.0535088000000012,-0.0020307999999998,0.0045792000000003,0.0152690000000009,0.0001790000000001,0,sub_15
-0.0058030000000001,0.0537916000000012,-0.0008091999999998,0.0078008000000003,0.0203694000000009,0.0006222000000001,0,sub_15
-0.0058306000000001,0.0540282000000012,-0.0002885999999998,0.0101408000000003,0.0297724000000009,0.0010680000000001,0,sub_15
-0.0076420000000001,0.0528456000000012,-0.0004175999999999,0.0114254000000003,0.0417356000000009,0.0015030000000001,0,sub_15
-0.0098252000000001,0.0518286000000012,9.480000000008708e-05,0.0127032000000003,0.0519952000000009,0.0017266000000001,0,sub_15
-0.0110610000000001,0.0500448000000012,0.0003292,0.0109872000000003,0.0599252000000009,0.0010776000000001,0,sub_15
-0.0110458000000001,0.0496246000000012,-0.0013581999999999,0.0092492000000003,0.0618940000000008,-0.0006319999999998,0,sub_15
-0.0098530000000001,0.0494822000000012,-0.0030655999999999,0.0092434000000003,0.0589180000000008,-0.0023373999999998,0,sub_15
-0.0068826000000001,0.0498456000000012,-0.0049519999999999,0.0111340000000003,0.0501846000000008,-0.0044493999999998,0,sub_15
-0.0037364000000001,0.0495520000000012,-0.0073837999999998,0.0127426000000003,0.0372354000000009,-0.0056933999999998,0,sub_15
-0.0005292000000001,0.0491426000000012,-0.0097851999999998,0.0151922000000003,0.0225746000000009,-0.0058607999999998,0,sub_15
0.0014629999999998,0.0497038000000012,-0.0096519999999998,0.0174284000000003,0.0091876000000009,-0.0047495999999998,0,sub_15
0.0025277999999998,0.0508962000000012,-0.0094497999999998,0.0181700000000003,-0.003982799999999,-0.0032219999999998,0,sub_15
0.0032449999999998,0.0515384000000012,-0.0080191999999998,0.0176440000000003,-0.013317999999999,-0.0006397999999998,0,sub_15
0.0034311999999998,0.0518522000000012,-0.0062497999999999,0.0163342000000003,-0.017159599999999,0.0021334000000001,0,sub_15
0.0030091999999998,0.0525370000000012,-0.0040079999999999,0.0143966000000003,-0.018229199999999,0.0048986000000001,0,sub_15
0.0010805999999998,0.0527394000000012,-0.0023327999999999,0.0126868000000003,-0.016528199999999,0.0072344000000001,0,sub_15
-0.0017988000000001,0.0519848000000012,-0.0004411999999999,0.0113718000000003,-0.012228399999999,0.0089384000000001,0,sub_15
-0.0055890000000001,0.0510442000000012,-0.0002175999999999,0.0098548000000003,-0.007068799999999,0.0089306000000001,0,sub_15
-0.0092756000000001,0.0498478000000012,-0.0008665999999998,0.0085570000000003,-0.0021169999999991,0.0074292000000001,0,sub_15
-0.0129996000000001,0.0491970000000012,-0.0019145999999998,0.0072582000000003,0.0017728000000008,0.0050744000000001,0,sub_15
-0.0148352000000001,0.0486092000000012,-0.0031685999999998,0.0059498000000003,0.0033200000000008,0.0025092000000001,0,sub_15
-0.0146766000000001,0.0488122000000012,-0.0048607999999998,0.0046724000000003,0.0016296000000008,0.0001524000000001,0,sub_15
-0.0135978000000001,0.0492292000000012,-0.0044397999999998,0.0042458000000003,-0.000490799999999,-0.0019843999999998,0,sub_15
-0.0105954000000001,0.0505668000000012,-0.0030343999999998,0.0042514000000003,-0.000909999999999,-0.0036929999999998,0,sub_15
-0.0078040000000001,0.0509446000000012,-0.0023869999999998,0.0044268000000003,-0.001112999999999,-0.0045361999999998,0,sub_15
-0.0051230000000001,0.0515328000000012,-0.0023531999999998,0.0050300000000003,-0.000680199999999,-0.0049499999999998,0,sub_15
-0.0037076000000001,0.0517802000000012,-0.0018197999999999,0.0050008000000003,0.0018836000000008,-0.0049435999999998,0,sub_15
-0.0014432000000001,0.0525428000000012,-0.0027259999999999,0.0045456000000003,0.0048742000000008,-0.0047269999999998,0,sub_15
-0.0009276000000001,0.0523192000000012,-0.0037147999999999,0.0038618000000003,0.0055176000000008,-0.0034407999999998,0,sub_15
5.819999999984024e-05,0.0526482000000012,-0.0042039999999999,0.0034322000000003,0.0059408000000008,-0.0023759999999998,0,sub_15
0.0001021999999998,0.0525010000000012,-0.0042843999999999,0.0034236000000003,0.0052966000000009,-0.0010933999999998,0,sub_15
0.0001613999999998,0.0531096000000012,-0.0048335999999999,0.0040550000000003,0.0044380000000009,-1.9799999999802702e-05,0,sub_15
-0.0007546000000001,0.0529564000000012,-0.0047055999999999,0.0048960000000003,0.0031508000000009,0.0014832000000001,0,sub_15
-0.0014680000000001,0.0532634000000012,-0.0045127999999998,0.0061226000000003,0.0011804000000009,0.0025690000000001,0,sub_15
-0.0025362000000001,0.0526450000000012,-0.0047911999999998,0.0067168000000003,0.0002802000000009,0.0030082000000001,0,sub_15
-0.0031550000000001,0.0527440000000012,-0.0048521999999998,0.0060336000000003,-0.000612999999999,0.0027974000000001,0,sub_15
-0.0040362000000001,0.0522570000000012,-0.0042427999999998,0.0057734000000003,-0.002359999999999,0.0025908000000001,0,sub_15
-0.0045192000000001,0.0514526000000012,-0.0038037999999998,0.0050884000000003,-0.004103799999999,0.0019540000000001,0,sub_15
-0.0050688000000001,0.0510588000000012,-0.0042353999999998,0.0042330000000003,-0.005375599999999,0.0010952000000001,0,sub_15
-0.0057748000000001,0.0509522000000012,-0.0034047999999998,0.0038014000000003,-0.006863799999999,0.0006668000000001,0,sub_15
-0.0059530000000001,0.0505710000000012,-0.0030051999999998,0.0041728000000003,-0.007837599999999,0.0006802000000001,0,sub_15
-0.0056294000000001,0.0503896000000012,-0.0027749999999998,0.0036956000000003,-0.007743199999999,0.0006862000000001,0,sub_15
-0.0052540000000001,0.0510956000000012,-0.0023401999999998,0.0038594000000003,-0.007650199999999,0.0004830000000001,0,sub_15
-0.0040174000000001,0.0515034000000012,-0.0016073999999998,0.0040348000000003,-0.005000399999999,0.0002766000000001,0,sub_15
-0.0031396000000001,0.0521740000000012,-0.0016889999999998,0.0048466000000003,-0.002992999999999,0.0002892000000001,0,sub_15
-0.0027144000000001,0.0524294000000012,-0.0019045999999998,0.0050716000000003,-0.000861599999999,-0.0001391999999998,0,sub_15
-0.0022536000000001,0.0518902000000012,-0.0017053999999998,0.0059328000000003,0.0006276000000009,-0.0003485999999998,0,sub_15
-0.0019440000000001,0.0510366000000012,-0.0016937999999998,0.0061520000000003,0.0021174000000009,-0.0001353999999998,0,sub_15
-0.0024214000000001,0.0500750000000012,-0.0022269999999998,0.0052976000000003,0.0019072000000009,-0.0001411999999998,0,sub_15
-0.0018618000000001,0.0495986000000012,-0.0025395999999998,0.0028940000000003,0.0029146000000009,-0.0003733999999998,0,sub_15
-0.0014720000000001,0.0490686000000012,-0.0027811999999998,6.180000000032427e-05,0.0034974000000009,-0.0006079999999998,0,sub_15
-0.0013382000000001,0.0492744000000012,-0.0034417999999998,-0.0027751999999996,0.0032272000000009,-0.0006279999999998,0,sub_15
-0.0021400000000001,0.0504590000000012,-0.0042141999999999,-0.0049711999999996,0.0031678000000009,-0.0006435999999998,0,sub_15
-0.0025446000000001,0.0518412000000012,-0.0034173999999999,-0.0052477999999996,0.0033130000000009,-0.0002187999999998,0,sub_15
-0.0041150000000001,0.0530158000000012,-0.0035373999999999,-0.0039703999999996,0.0028816000000009,4.200000000117196e-06,0,sub_15
-0.0050222000000001,0.0543284000000012,-0.0032355999999999,-0.0012023999999996,0.0024424000000009,0.0008786000000001,0,sub_15
-0.0060452000000001,0.0550962000000012,-0.0035231999999998,0.0013040000000003,0.0021766000000009,0.0008964,0,sub_15
-0.0059526000000001,0.0552094000000012,-0.0038035999999998,0.0038048000000003,0.0006324000000009,0.0009158000000001,0,sub_15
-0.0059624000000001,0.0548294000000012,-0.0049217999999998,0.0058760000000003,-0.001761599999999,0.0007196000000001,0,sub_15
-0.0053164000000001,0.0542114000000012,-0.0050611999999998,0.0075194000000003,-0.004367199999999,0.0005208000000001,0,sub_15
-0.0050180000000001,0.0534814000000012,-0.0056983999999998,0.0087390000000003,-0.006544199999999,0.0001048000000001,0,sub_15
-0.0042664000000001,0.0532320000000012,-0.0051989999999999,0.0104356000000003,-0.008893799999999,0.0001196000000001,0,sub_15
-0.0036058000000001,0.0526958000000012,-0.0046571999999999,0.0114948000000003,-0.010389799999999,0.0003424000000001,0,sub_15
-0.0029218000000001,0.0521242000000012,-0.0038645999999999,0.0119236000000003,-0.009965199999999,0.0003450000000001,0,sub_15
-0.0026206000000001,0.0515194000000012,-0.0040841999999999,0.0118832000000003,-0.008934199999999,0.0005598000000001,0,sub_15
-0.0023806000000001,0.0514020000000012,-0.0042507999999999,0.0109808000000003,-0.009605599999999,0.0009844000000001,0,sub_15
-0.0025942000000001,0.0502492000000012,-0.0048287999999999,0.0088038000000003,-0.009206199999999,0.0011852000000001,0,sub_15
-0.0029242000000001,0.0493300000000012,-0.0043699999999999,0.0062078000000003,-0.007525399999999,0.0009540000000001,0,sub_15
-0.0031100000000001,0.0491594000000012,-0.0040225999999999,0.0038242000000003,-0.006058399999999,0.0007244000000001,0,sub_15
-0.0025330000000001,0.0492532000000012,-0.0028185999999999,0.0019116000000003,-0.004347199999999,0.0007088000000001,0,sub_15
-0.0019382000000001,0.0486058000000012,-0.0014145999999999,0.0002238000000003,-0.000716799999999,5.140000000017713e-05,0,sub_15
-0.0010824000000001,0.0482646000000012,-0.0007201999999999,-0.0010381999999996,0.0031234000000009,-0.0001759999999998,0,sub_15
0.0003411999999998,0.0475672000000012,-0.0018931999999999,-0.0025537999999996,0.0065284000000008,-0.0006183999999998,0,sub_15
0.0013119999999998,0.0472568000000012,-0.0024791999999999,-0.0053543999999996,0.0090848000000009,-0.0008549999999998,0,sub_15
0.0011401999999998,0.0475838000000012,-0.0026703999999999,-0.0087959999999996,0.0112182000000009,-0.0013093999999998,0,sub_15
0.0008687999999998,0.0482686000000012,-0.0040049999999999,-0.0116041999999996,0.0124946000000008,-0.0011171999999998,0,sub_15
-0.0002616000000001,0.0503222000000012,-0.0046551999999999,-0.0146295999999996,0.0127074000000008,-0.0011387999999998,0,sub_15
-0.0024428000000001,0.0524346000000012,-0.0036103999999999,-0.0157039999999996,0.0118556000000009,-0.0002905999999998,0,sub_15
-0.0040288000000001,0.0539116000000012,-0.0035459999999999,-0.0150705999999996,0.0114230000000009,0.0007826000000001,0,sub_15
-0.0050754000000001,0.0544526000000012,-0.0040339999999999,-0.0131549999999996,0.0109876000000008,0.0014376000000001,0,sub_15
-0.0060272000000001,0.0555946000000012,-0.0037803999999999,-0.0110241999999996,0.0105532000000009,0.0016666000000001,0,sub_15
-0.0064074000000001,0.0560904000000012,-0.0036097999999999,-0.0070041999999996,0.0105324000000009,0.0019084000000001,0,sub_15
-0.0060130000000001,0.0565340000000012,-0.0035815999999999,-0.0027697999999996,0.0098752000000009,0.0012980000000001,0,sub_15
-0.0064674000000001,0.0561468000000012,-0.0043393999999999,0.0012406000000003,0.0068752000000009,0.0006890000000001,0,sub_15
-0.0065240000000001,0.0567478000000012,-0.0055211999999999,0.0046118000000003,0.0040904000000009,7.520000000015722e-05,0,sub_15
-0.0066166000000001,0.0566680000000012,-0.0059765999999999,0.0084080000000003,0.0008780000000009,-0.0005349999999998,0,sub_15
-0.0061196000000001,0.0558612000000012,-0.0060503999999999,0.0111626000000003,-0.003817199999999,-0.0009371999999998,0,sub_15
-0.0051610000000001,0.0542042000000012,-0.0058575999999999,0.0117892000000003,-0.007014399999999,-0.0011423999999998,0,sub_15
-0.0036474000000001,0.0534048000000012,-0.0055223999999999,0.0117656000000003,-0.007871999999999,-0.0013555999999998,0,sub_15
-0.0021020000000001,0.0520864000000012,-0.0040687999999998,0.0117352000000003,-0.009796599999999,-0.0011399999999998,0,sub_15
-0.0002848000000001,0.0506018000000012,-0.0031247999999998,0.0100026000000003,-0.010649799999999,-0.0009377999999998,0,sub_15
0.0006447999999998,0.0495834000000012,-0.0026227999999998,0.0076404000000003,-0.009369399999999,-0.0009561999999998,0,sub_15
0.0005251999999998,0.0496460000000012,-0.0030199999999998,0.0063480000000003,-0.007241399999999,-0.0007547999999998,0,sub_15
0.0002283999999998,0.0495738000000012,-0.0030451999999998,0.0050724000000003,-0.005959399999999,-0.0005515999999998,0,sub_15
-0.0003816000000001,0.0493858000000012,-0.0031989999999999,0.0031568000000003,-0.004675199999999,-0.0003529999999998,0,sub_15
-0.0011552000000001,0.0496212000000012,-0.0035095999999999,0.0018804000000003,-0.003606399999999,-0.0001495999999998,0,sub_15
-0.0013048000000001,0.0503082000000012,-0.0034761999999999,0.0012452000000003,-0.002114599999999,0.0002714000000001,0,sub_15
-0.0013222000000001,0.0506094000000012,-0.0033725999999999,0.0003578000000003,-0.001675399999999,0.0006920000000001,0,sub_15
-0.0013672000000001,0.0508836000000012,-0.0032137999999999,-0.0001027999999996,-0.001661999999999,0.0006888000000001,0,sub_15
-0.0012200000000001,0.0514064000000012,-0.0030617999999999,-0.0005585999999996,-0.000583199999999,0.0006842000000001,0,sub_15
-0.0015738000000001,0.0513898000000012,-0.0028877999999999,-0.0007991999999996,0.0007088000000009,0.0004672000000001,0,sub_15
-0.0016962000000001,0.0514872000000012,-0.0037099999999999,-0.0016847999999996,0.0007256000000009,3.360000000015716e-05,0,sub_15
-0.0016928000000001,0.0516978000000012,-0.0032259999999999,-0.0016867999999996,0.0002996000000009,3.420000000015715e-05,0,sub_15
-0.0015246000000001,0.0523450000000012,-0.0027379999999998,-0.0014705999999996,0.0009380000000009,3.4800000000157154e-05,0,sub_15
-0.0020420000000001,0.0526796000000012,-0.0032891999999998,-0.0010419999999996,0.0013626000000009,3.720000000015715e-05,0,sub_15
-0.0021486000000001,0.0535826000000012,-0.0036657999999998,1.8000000003426732e-06,0.0013668000000009,4.500000000015713e-05,0,sub_15
