userAcceleration.x,userAcceleration.y,userAcceleration.z,rotationRate.x,rotationRate.y,rotationRate.z,label,subject
0.0063999999999997,0.0215476000000012,0.0013516,0.0013574000000004,-0.001232399999999,0.0013868,0,sub_22
0.0062603999999997,0.0215060000000012,0.002654,0.0015692000000004,-0.001444599999999,0.0013872,0,sub_22
0.0070503999999997,0.0222148000000012,0.0031096,0.0017810000000004,-0.001656799999999,0.0013876,0,sub_22
0.0069715999999997,0.0225298000000012,0.0030954,0.0015686000000003,-0.001442999999999,0.0013858,0,sub_22
0.0071641999999997,0.0230856000000012,0.0030704,0.0009276000000003,-0.001653799999999,0.0013816,0,sub_22
0.0068879999999997,0.0230034000000012,0.002836,0.0011372000000003,-0.002082399999999,0.0018108,0,sub_22
0.0068313999999997,0.0225308000000012,0.0023526,0.0013462000000003,-0.002507999999999,0.0020244,0,sub_22
0.0064797999999997,0.0220598000000012,0.0018984,0.0011294000000003,-0.003143399999999,0.001808,0,sub_22
0.0066451999999997,0.0217376000000012,0.0019368,0.0011270000000004,-0.003778799999999,0.0013794,0,sub_22
0.0061677999999997,0.0208398000000012,0.0017136,0.0015522000000004,-0.003778199999999,0.0013802,0,sub_22
0.0066119999999997,0.0206698000000012,0.0015844,0.0011258000000004,-0.003348399999999,0.0013746,0,sub_22
0.0068941999999997,0.0209692000000012,0.0012698,6.380000000040165e-05,-0.002491599999999,0.0011524,0,sub_22
0.0068907999999997,0.0212726000000012,0.0008288,-0.0003599999999995,-0.001426599999999,0.0015754,0,sub_22
0.0063059999999997,0.0217520000000012,0.000778,-0.0005703999999995,-0.000362199999999,0.0019998,0,sub_22
0.0067699999999997,0.0221430000000012,0.0008604,-0.0007779999999995,0.0004926000000009,0.0015700000000001,0,sub_22
0.0061713999999997,0.0220452000000012,0.0005708,-0.0005597999999995,0.0009206000000009,0.0009300000000001,0,sub_22
0.0061515999999997,0.0217674000000012,0.0002532,0.0002956000000004,0.0007072000000009,0.0002954000000001,0,sub_22
0.0062909999999997,0.0217430000000012,0.0008006,0.0005090000000004,6.980000000092129e-05,-0.0003431999999998,0,sub_22
0.0070237999999997,0.0215794000000011,0.0010398,0.0009348000000004,-0.000569199999999,-0.0007665999999998,0,sub_22
0.0074243999999997,0.0216508000000011,0.001425,0.0013568000000004,-0.001211599999999,-0.0003355999999999,0,sub_22
0.0081647999999997,0.0220508000000012,0.001904,0.0011396000000004,-0.001638799999999,9.080000000006256e-05,0,sub_22
0.0084015999999997,0.0219762000000012,0.0020558,0.0004938000000004,-0.002278199999999,0.000728,0,sub_22
0.0085659999999997,0.0216384000000012,0.0022444,0.0004860000000004,-0.003133799999999,0.0015836,0,sub_22
0.0084717999999997,0.0216606000000012,0.001861,5.340000000042173e-05,-0.003773999999999,0.0022222,0,sub_22
0.0081035999999997,0.0217456000000012,0.0012876,-0.0007991999999995,-0.003557999999999,0.002216,0,sub_22
0.0072159999999997,0.0217674000000012,0.0006772,-0.0007953999999995,-0.002917799999999,0.0020016,0,sub_22
0.0063887999999997,0.0221512000000012,0.0006202,-0.0003619999999995,-0.001852399999999,0.001576,0,sub_22
0.0056647999999997,0.0225432000000012,9.080000000009644e-05,-0.0003533999999995,-0.000783599999999,0.00072,0,sub_22
0.0052935999999997,0.0222010000000012,0.0001748,8.10000000004417e-05,7.060000000094135e-05,-0.0001325999999998,0,sub_22
0.0048043999999997,0.0216964000000012,0.0004764,0.0009374000000004,0.0002824000000009,-0.0005541999999998,0,sub_22
0.0056115999999997,0.0216290000000012,0.0007614,0.0017984000000004,6.960000000094134e-05,-0.0009765999999998,0,sub_22
0.0063949999999997,0.0212818000000012,0.0008748,0.0018040000000004,-0.000353999999999,-0.0011909999999998,0,sub_22
0.0070887999999997,0.0210716000000012,0.0010856,0.0022364000000004,-0.000566999999999,-0.0011889999999998,0,sub_22
0.0073165999999997,0.0211348000000012,0.00128,0.0020286000000004,-0.000353199999999,-0.0007647999999998,0,sub_22
0.0075193999999997,0.0215850000000012,0.001362,0.0016056000000004,-0.000352599999999,-0.0001281999999999,0,sub_22
0.0074225999999997,0.0217146000000012,0.0014948,0.0007492000000004,-0.000351999999999,0.0005068,0,sub_22
0.0074087999999997,0.0223548000000011,0.0017828,0.0003176000000004,-0.000566999999999,0.0013586,0,sub_22
0.0071421999999997,0.0221904000000011,0.0019656,-0.0005377999999995,-0.000353399999999,0.0019934,0,sub_22
0.0070733999999997,0.0221990000000012,0.0013392,-0.0007555999999995,-0.000557199999999,0.0019862,0,sub_22
0.0071713999999997,0.0221206000000012,0.0014224,-0.0003323999999995,-0.000762199999999,0.0017698,0,sub_22
0.0070875999999997,0.0219086000000012,0.001774,-0.0003397999999995,-0.001817999999999,0.0015514,0,sub_22
0.0068885999999997,0.0213768000000012,0.001634,8.34000000004215e-05,-0.002447399999999,0.0009082,0,sub_22
0.0070167999999997,0.0216688000000012,0.0015334,0.0007200000000004,-0.002653199999999,0.0006932,0,sub_22
0.0068757999999997,0.0220338000000012,0.0014970000000001,0.0009352000000004,-0.002652199999999,0.0002674000000001,0,sub_22
0.0064385999999997,0.0220338000000012,0.0015612000000001,0.0007246000000004,-0.002224599999999,5.18000000001026e-05,0,sub_22
0.0063047999999997,0.0223048000000012,0.0006290000000001,0.0007314000000004,-0.001157599999999,-0.0003767999999998,0,sub_22
0.0060147999999997,0.0227566000000012,0.0007412000000001,0.0005216000000004,-8.119999999907871e-05,-0.0006001999999998,0,sub_22
0.0059957999999997,0.0228624000000012,0.0007086000000001,-0.0001159999999995,0.0003592000000009,-0.0012529999999998,0,sub_22
0.0061109999999997,0.0229606000000012,0.0007728,-0.0001161999999995,0.0005826000000009,-0.0014737999999998,0,sub_22
0.0063261999999997,0.0230304000000012,0.000252,-0.0001183999999995,0.0003800000000009,-0.0016941999999998,0,sub_22
0.0067381999999997,0.0225112000000012,0.0014672,9.080000000042152e-05,0.0001748000000009,-0.0014857999999998,0,sub_22
0.0067149999999997,0.0226344000000012,0.0013664,-0.0001273999999995,-0.000252999999999,-0.0008457999999998,0,sub_22
0.0071395999999997,0.0221768000000012,0.001759,8.320000000042149e-05,-0.000468599999999,-0.0004167999999998,0,sub_22
0.0071401999999997,0.0217286000000012,0.0025382,-0.0003445999999995,-0.000467999999999,-0.0002061999999999,0,sub_22
0.0073173999999997,0.0215562000000012,0.002674,-0.0012009999999995,-0.000456399999999,-3.39999999991738e-06,0,sub_22
0.0069383999999997,0.0217454000000012,0.0017944,-0.0018439999999995,-0.000445599999999,0.0002008,0,sub_22
0.0075949999999997,0.0214564000000012,0.0013568000000001,-0.0026965999999995,-6.399999999058678e-06,-2.4399999999917387e-05,0,sub_22
0.0072331999999997,0.0215786000000012,0.0009060000000001,-0.0033329999999995,0.0008592000000009,-0.0004621999999999,0,sub_22
0.0066203999999997,0.0218018000000012,0.0005516000000001,-0.0037567999999995,0.0019354000000009,-0.0004713999999999,0,sub_22
0.0062673999999997,0.0223076000000012,0.0004012000000001,-0.0033243999999995,0.0027878000000009,-0.0008967999999999,0,sub_22
0.0061455999999997,0.0228332000000012,2.800000000116425e-06,-0.0028937999999995,0.0034262000000009,-0.0011081999999998,0,sub_22
0.0056469999999997,0.0230646000000012,0.0006912,-0.0018221999999995,0.0040634000000009,-0.0015287999999998,0,sub_22
0.0055319999999997,0.0229890000000012,0.0009686,-0.0013963999999995,0.0038488000000009,-0.0015255999999998,0,sub_22
0.0061219999999997,0.0229648000000012,0.0004512,-0.0011901999999995,0.0030042000000009,-0.0015265999999998,0,sub_22
0.0068401999999997,0.0225768000000012,0.0004102000000001,-0.0011961999999995,0.0021612000000009,-0.0017427999999998,0,sub_22
0.0067323999999997,0.0219942000000012,0.0010822000000001,-0.0016299999999995,0.0013190000000009,-0.0017483999999999,0,sub_22
0.0071491999999997,0.0215452000000012,0.0010772000000001,-0.0020647999999995,0.0004758000000009,-0.0015401999999999,0,sub_22
0.0074747999999997,0.0218002000000012,0.0011440000000001,-0.0020689999999995,0.0002712000000009,-0.0015433999999999,0,sub_22
0.0075887999999997,0.0221620000000012,0.0020642,-0.0020689999999995,-0.000153199999999,-0.0019701999999998,0,sub_22
0.0075325999999997,0.0223240000000012,0.0027474,-0.0016421999999995,-0.000154799999999,-0.0019671999999998,0,sub_22
0.0080251999999997,0.0227080000000012,0.0027866,-0.0012165999999995,-0.000147999999999,-0.0023947999999998,0,sub_22
0.0078039999999997,0.0223164000000012,0.0025538,-0.0003659999999996,-0.000780999999999,-0.0030321999999998,0,sub_22
0.0073835999999997,0.0219064000000012,0.0019768,5.480000000038165e-05,-0.001839399999999,-0.0034585999999998,0,sub_22
0.0073807999999997,0.0211210000000012,0.001977,0.0004756000000003,-0.002261199999999,-0.0032447999999999,0,sub_22
0.0069471999999997,0.0213308000000012,0.0015704,4.280000000040163e-05,-0.002467799999999,-0.0028235999999999,0,sub_22
0.0065275999999997,0.0212270000000012,0.0010450000000001,-0.0001733999999995,-0.002257399999999,-0.0019707999999999,0,sub_22
0.0063311999999997,0.0216258000000012,0.0008988000000001,-0.0012421999999995,-0.001830999999999,-0.0011241999999999,0,sub_22
0.0062657999999997,0.0216588000000012,0.0012418000000001,-0.0018823999999995,-0.001404399999999,-0.0007017999999999,0,sub_22
0.0056723999999997,0.0221010000000012,0.0008466000000001,-0.0014527999999995,-0.000545799999999,-0.0009149999999999,0,sub_22
0.0056879999999997,0.0217564000000012,0.0009696000000001,-0.0010233999999995,0.0003128000000009,-0.0011281999999999,0,sub_22
0.0057675999999997,0.0215574000000012,0.0012442,-0.0008063999999995,0.0007484000000009,-0.0019833999999999,0,sub_22
0.0055609999999997,0.0214242000000012,0.003099,5.060000000038159e-05,0.0016064000000009,-0.0024073999999998,0,sub_22
0.0062495999999997,0.0219166000000012,0.0032398,0.0047514000000003,0.0030900000000009,-0.0028053999999999,0,sub_22
0.0071847999999997,0.0224954000000012,0.00224,0.0077404000000003,0.0039300000000009,-0.0023583999999999,0,sub_22
0.0070475999999997,0.0230712000000012,0.0020436,0.0079530000000004,0.0045650000000009,-0.0015031999999999,0,sub_22
0.0068813999999997,0.0229932000000012,0.0031464,0.0094426000000004,0.0047686000000009,-0.0004247999999999,0,sub_22
0.0073767999999997,0.0223826000000012,0.001976,0.0113612000000004,0.0051846000000009,0.0004426,0,sub_22
0.0074771999999997,0.0218168000000012,0.0017036,0.0092194000000004,0.0045532000000009,0.0014982,0,sub_22
0.0074673999999997,0.0213582000000012,0.0024832,0.0068690000000004,0.0039268000000009,0.0014842,0,sub_22
0.0075901999999997,0.0207896000000012,0.0023378,0.0075116000000004,0.0037194000000009,0.000636,0,sub_22
0.0075647999999997,0.0212828000000012,0.0015516,0.0068722000000004,0.0035148000000009,0.0002062,0,sub_22
0.0070057999999997,0.0219448000000012,0.0008466,0.0058020000000004,0.0030960000000009,0.0004144,0,sub_22
0.0066997999999997,0.0222592000000012,0.001449,0.0049476000000004,0.0033102000000009,0.0008356,0,sub_22
0.0058101999999997,0.0217552000000012,0.0018028,0.0053734000000004,0.0041566000000009,0.0019058,0,sub_22
0.0054487999999997,0.0216516000000012,0.0017464,0.0055850000000004,0.0039362000000009,0.003194,0,sub_22
0.0049525999999997,0.0213272000000012,0.0018192,0.0060118000000004,0.0037168000000009,0.0040564,0,sub_22
0.0054293999999997,0.0221820000000012,0.0014224,0.0066550000000004,0.0039236000000009,0.0047062,0,sub_22
0.0048149999999997,0.0221260000000012,0.0008544,0.0068714000000004,0.0043442000000009,0.0055662,0,sub_22
0.0052701999999997,0.0217378000000012,0.0009964,0.0077270000000004,0.0041250000000009,0.0060042,0,sub_22
0.0054771999999997,0.0214602000000012,0.0018266,0.0090062000000004,0.0041198000000009,0.0062268,0,sub_22
0.0063443999999997,0.0210056000000012,0.001533,0.0102874000000004,0.0043284000000009,0.0062354,0,sub_22
0.0060255999999997,0.0200066000000012,0.0017502,0.0096444000000004,0.0034794000000009,0.0060184,0,sub_22
0.0060993999999997,0.0202288000000012,0.0017618,0.0087926000000004,0.0019910000000009,0.0055942,0,sub_22
0.0062879999999997,0.0202756000000012,0.001638,0.0070874000000004,0.0011422000000009,0.0058042,0,sub_22
0.0066299999999997,0.0202766000000012,0.0010944,0.0051698000000004,0.0007192000000009,0.0062258,0,sub_22
0.0070287999999997,0.0203432000000012,0.00077,0.0028264000000004,0.0005110000000009,0.0066442,0,sub_22
0.0071411999999997,0.0201242000000012,0.0013594,0.0017652000000004,0.0002998000000009,0.0066442,0,sub_22
0.0077929999999997,0.0196264000000012,0.0016826,0.0004840000000004,9.12000000009015e-05,0.0066356,0,sub_22
0.0075493999999997,0.0202744000000012,0.0014974,-0.0010105999999995,-0.000328799999999,0.006412,0,sub_22
0.0076701999999997,0.0210856000000012,0.001205,-0.0027185999999995,-0.000747999999999,0.006187,0,sub_22
0.0071309999999997,0.0213504000000012,0.0013838,-0.0039921999999995,-0.000528599999999,0.006187,0,sub_22
0.0070191999999997,0.0218366000000012,0.000989,-0.0044103999999995,-9.819999999909837e-05,0.0059792,0,sub_22
0.0065013999999997,0.0222942000000012,0.0009132,-0.0041903999999995,0.0001160000000009,0.0059896,0,sub_22
0.0063759999999997,0.0224314000000011,0.0010296,-0.0039731999999995,-0.000308999999999,0.006001,0,sub_22
0.0059535999999997,0.0224472000000011,0.0009026,-0.0031139999999995,-0.000522199999999,0.0058028,0,sub_22
0.0058867999999997,0.0228038000000011,0.0005152,-0.0022595999999995,-0.000524399999999,0.0055952,0,sub_22
0.0061395999999997,0.0234216000000012,0.000339,-0.0014089999999995,-0.000954399999999,0.0058152,0,sub_22
0.0062465999999997,0.0239754000000012,-7.979999999992399e-05,-0.0003421999999995,-0.000745799999999,0.0060362,0,sub_22
0.0060329999999997,0.0248024000000012,0.0012332,0.0030640000000004,0.0002980000000009,0.0069224,0,sub_22
0.0071917999999997,0.0242368000000012,0.0010602,0.0079590000000004,0.0006956000000009,0.0082472,0,sub_22
0.0080329999999997,0.0238130000000012,0.0010478,0.0115710000000004,0.0002464000000009,0.0093504,0,sub_22
0.0076603999999997,0.0217244000000012,0.0015018,0.0128416000000004,0.0008714000000009,0.0102222,0,sub_22
0.0077207999999997,0.0193548000000012,0.001517,0.0132578000000004,0.0008618000000009,0.0106616,0,sub_22
0.0081889999999997,0.0178070000000012,-0.0005113999999999,0.0106974000000004,0.0006584000000009,0.0104304,0,sub_22
0.0075925999999997,0.0173038000000012,-0.0002947999999999,0.0055718000000004,3.540000000092167e-05,0.0108226,0,sub_22
0.0067663999999997,0.0168284000000012,-8.33999999999041e-05,0.0023684000000004,0.0002562000000009,0.0116546,0,sub_22
0.0069069999999997,0.0181592000000012,-0.0001323999999999,0.0010632000000004,0.0002428000000009,0.0127164,0,sub_22
0.0070739999999997,0.0195708000000011,0.0003908,0.0006116000000004,0.0004386000000009,0.0139974,0,sub_22
0.0066595999999997,0.0193450000000011,0.0013686,0.0007990000000004,0.0002068000000009,0.0150698,0,sub_22
0.0056159999999997,0.0199002000000011,0.0013666,0.0016352000000004,0.0010414000000009,0.0152908,0,sub_22
0.0051939999999997,0.0203864000000011,0.001507,0.0014064000000004,0.0016692000000009,0.0148636,0,sub_22
0.0050453999999997,0.0205892000000012,0.0018092,0.0011968000000004,0.0018856000000009,0.014221,0,sub_22
0.0049943999999997,0.0209396000000012,0.0015654,0.0012006000000004,0.0018890000000009,0.0133664,0,sub_22
0.0052743999999997,0.0213300000000012,0.001278,0.0016332000000004,0.0018928000000009,0.0120876,0,sub_22
0.0062887999999997,0.0209352000000012,0.0018542,0.0020666000000004,0.0016850000000009,0.0103818,0,sub_22
0.0071077999999997,0.0205174000000012,0.0018142,0.0029230000000004,0.0010480000000009,0.0091068,0,sub_22
0.0076367999999997,0.0202592000000012,0.001498,0.0035660000000004,0.0010482000000009,0.0084704,0,sub_22
0.0079671999999997,0.0200442000000012,0.0010882,0.0037814000000004,0.0016858000000009,0.0086848,0,sub_22
0.0086479999999997,0.0200356000000012,9.1000000000076e-05,0.0029250000000004,0.0027472000000009,0.0103866,0,sub_22
0.0095157999999997,0.0203134000000012,0.0002002,0.0005702000000004,0.0042340000000009,0.0135728,0,sub_22
0.0100449999999997,0.0198788000000012,0.0015068,-0.0020055999999995,0.0050782000000009,0.0178266,0,sub_22
0.0103489999999997,0.0186366000000011,0.0024036,-0.0041575999999995,0.0050696000000009,0.0218708,0,sub_22
0.0103207999999997,0.0179394000000011,0.0025774,-0.0058723999999995,0.0063420000000009,0.0248482,0,sub_22
0.0095201999999997,0.0175032000000011,0.0028086,-0.0082233999999995,0.0074078000000009,0.0267532,0,sub_22
0.0073509999999997,0.0162372000000012,0.0024246,-0.0097227999999995,0.0061348000000009,0.0267444,0,sub_22
0.0052275999999997,0.0165730000000012,0.0012802,-0.0103599999999995,0.0050786000000009,0.0250322,0,sub_22
0.0038387999999997,0.0180222000000012,-0.0007145999999999,-0.0109843999999995,0.0050908000000009,0.0226734,0,sub_22
0.0032963999999997,0.0193406000000012,-0.0012993999999999,-0.0118277999999995,0.0036132000000009,0.0201014,0,sub_22
0.0023291999999997,0.0204998000000012,-0.0007347999999999,-0.0109623999999995,0.0023436000000009,0.0173274,0,sub_22
0.0029599999999997,0.0216236000000012,-0.0010149999999999,-0.0088099999999995,0.0023486000000009,0.0143472,0,sub_22
0.0037787999999997,0.0223194000000012,-0.0009461999999999,-0.0066577999999995,0.0025658000000009,0.0115802,0,sub_22
0.0043511999999997,0.0223412000000012,0.0003556,-0.0051515999999995,0.0021472000000009,0.0083866,0,sub_22
0.0045849999999997,0.0212760000000012,0.0013232,-0.0036445999999995,0.0023662000000009,0.0056196,0,sub_22
0.0064351999999997,0.0204094000000012,0.001152,-0.0027795999999995,0.0023734000000009,0.003062,0,sub_22
0.0072789999999997,0.0198830000000012,0.0017128,-0.0027913999999995,0.0028028000000009,0.000889,0,sub_22
0.0082763999999997,0.0189364000000012,0.0020822,-0.0032317999999995,0.0032320000000009,-0.0008597999999998,0,sub_22
0.0089499999999997,0.0178488000000012,0.0021538,-0.0038903999999995,0.0034454000000009,-0.0017551999999998,0,sub_22
0.0091193999999997,0.0179954000000012,0.0020242,-0.0051949999999995,0.0025948000000009,-0.0024401999999998,0,sub_22
0.0088695999999997,0.0189182000000012,0.002295,-0.0060735999999995,0.0019542000000009,-0.0026951999999998,0,sub_22
0.0088875999999997,0.0199368000000012,0.0016932,-0.0069337999999995,0.0008902000000009,-0.0022725999999998,0,sub_22
0.0086105999999997,0.0213064000000012,0.0012808,-0.0075785999999995,0.0004638000000009,-0.0016355999999999,0,sub_22
0.0079991999999997,0.0223282000000012,0.0008718,-0.0069461999999995,-0.000181799999999,-0.0005621999999999,0,sub_22
0.0078083999999997,0.0225742000000012,0.000467,-0.0056715999999995,-0.000615799999999,0.0003018,0,sub_22
0.0069251999999997,0.0223362000000012,0.0002972,-0.0046319999999995,-0.001691999999999,0.0004714,0,sub_22
0.0063629999999997,0.0212880000000012,0.0002514,-0.0031607999999995,-0.001916599999999,0.0004294,0,sub_22
0.0061389999999997,0.0203660000000012,0.0004468,-0.0021173999999995,-0.002777199999999,-4.199999999991736e-05,0,sub_22
0.0065283999999997,0.0190794000000012,0.0001656,-0.0021377999999995,-0.004055799999999,-0.0015885999999999,0,sub_22
0.0067757999999997,0.0181056000000012,4.000000000009599e-05,-0.0023687999999995,-0.005118999999999,-0.0035643999999999,0,sub_22
0.0070995999999997,0.0167680000000012,-0.0002837999999999,-0.0023619999999995,-0.005749599999999,-0.0056999999999999,0,sub_22
0.0074157999999997,0.0175388000000012,1.2400000000095972e-05,-0.0029981999999995,-0.007017199999999,-0.0078393999999998,0,sub_22
0.0075393999999997,0.0180506000000012,-3.239999999990404e-05,-0.0036343999999995,-0.008072599999999,-0.0097653999999998,0,sub_22
0.0077575999999997,0.0198444000000012,0.0003976,-0.0038607999999995,-0.008288599999999,-0.0111101999999998,0,sub_22
0.0076207999999997,0.0210996000000012,0.0009332,-0.0036603999999995,-0.007869399999999,-0.0118117999999998,0,sub_22
0.0079789999999997,0.0223072000000012,0.0015602,-0.0034609999999995,-0.007238799999999,-0.0120863999999998,0,sub_22
0.0076861999999997,0.0222528000000012,0.0017158,-0.0026223999999995,-0.006611199999999,-0.0121427999999998,0,sub_22
0.0075825999999997,0.0221104000000012,0.0020578,-0.0019953999999995,-0.005981199999999,-0.0126279999999999,0,sub_22
0.0071559999999997,0.0211144000000012,0.001822,-0.0017791999999995,-0.005979399999999,-0.0132673999999999,0,sub_22
0.0070829999999997,0.0209680000000012,0.0010656,-0.0019935999999995,-0.006403799999999,-0.0134819999999998,0,sub_22
0.0064983999999997,0.0207430000000012,-9.839999999990404e-05,-0.0024241999999995,-0.007254599999999,-0.0134839999999998,0,sub_22
0.0065313999999997,0.0202992000000012,-0.0003231999999999,-0.0026405999999995,-0.007680999999999,-0.0132713999999998,0,sub_22
0.0063065999999997,0.0203356000000012,-0.0007895999999999,-0.0024329999999995,-0.008111399999999,-0.0124147999999998,0,sub_22
0.0063541999999997,0.0201590000000012,-0.0004373999999999,-0.0020119999999995,-0.008117999999999,-0.0111299999999998,0,sub_22
0.0064099999999997,0.0198314000000012,3.600000000076101e-06,-0.0013765999999995,-0.008336799999999,-0.0102705999999999,0,sub_22
0.0064931999999997,0.0198682000000012,0.000961,-0.0009507999999995,-0.007914799999999,-0.0096271999999999,0,sub_22
0.0070069999999997,0.0201286000000012,0.0009942,-0.0011659999999995,-0.007703399999999,-0.0089879999999998,0,sub_22
0.0069881999999997,0.0194542000000012,0.0007832,-0.0013791999999995,-0.007278199999999,-0.0085627999999998,0,sub_22
0.0073445999999997,0.0199548000000012,7.2400000000096e-05,-0.0018039999999995,-0.0068505999999989,-0.0085661999999998,0,sub_22
0.0072581999999997,0.0195242000000012,9.3000000000076e-05,-0.0020163999999995,-0.0062123999999989,-0.0081411999999998,0,sub_22
0.0076859999999997,0.0189360000000012,-0.0001363999999999,-0.0020173999999995,-0.005788799999999,-0.0075007999999998,0,sub_22
0.0074631999999997,0.0189792000000012,0.0001036,-0.0020163999999995,-0.005363599999999,-0.0072877999999999,0,sub_22
0.0074369999999997,0.0189748000000012,7.660000000009604e-05,-0.0024413999999995,-0.004511599999999,-0.0068645999999999,0,sub_22
0.0068245999999997,0.0187784000000012,0.0002966,-0.0022241999999995,-0.003023599999999,-0.0062241999999999,0,sub_22
0.0067703999999997,0.0192308000000012,0.0003748000000001,-0.0022233999999995,-0.002386199999999,-0.0057977999999999,0,sub_22
0.0065459999999997,0.0195384000000011,0.0004370000000001,-0.0020009999999995,-0.002185399999999,-0.0056397999999999,0,sub_22
0.0063983999999997,0.0194020000000012,0.0005062000000001,-0.0013509999999995,-0.001560999999999,-0.0052657999999999,0,sub_22
0.0065465999999997,0.0194338000000012,0.000931,-0.0007007999999995,-0.001148599999999,-0.0051051999999998,0,sub_22
0.0070701999999997,0.0189172000000011,0.0008452,-0.0002659999999995,-0.001161599999999,-0.0049453999999998,0,sub_22
0.0072323999999997,0.0190000000000011,0.000591,-0.0004721999999995,-0.001385399999999,-0.0047899999999998,0,sub_22
0.0075117999999997,0.0190858000000012,0.0002844,-0.0004731999999995,-0.001174199999999,-0.0043629999999998,0,sub_22
0.0079753999999997,0.0190224000000012,0.0001528,-0.0009027999999995,-0.000962999999999,-0.0035115999999998,0,sub_22
