userAcceleration.x,userAcceleration.y,userAcceleration.z,rotationRate.x,rotationRate.y,rotationRate.z,label,subject
0.0018285999999997,0.0041348000000012,-0.0020339999999998,0.0013078000000004,-0.000137399999999,-0.0004199999999999,0,sub_20
0.0014247999999997,0.0049530000000012,-0.0025247999999998,0.0004572000000004,0.0005046000000009,-0.0004267999999999,0,sub_20
0.0014717999999997,0.0049822000000012,-0.0027599999999998,-0.0001799999999995,0.0009326000000009,-0.0006461999999999,0,sub_20
0.0015619999999998,0.0051112000000012,-0.0023895999999998,-0.0008219999999995,0.0011442000000009,-1.0799999999934756e-05,0,sub_20
0.0016271999999998,0.0053422000000012,-0.0021413999999998,-0.0010351999999995,0.0011438000000009,-1.319999999991475e-05,0,sub_20
0.0015773999999998,0.0051190000000012,-0.0025149999999999,-0.0008245999999995,0.0002906000000009,-0.0002251999999999,0,sub_20
0.0015961999999998,0.0045790000000012,-0.0019531999999999,-0.0006159999999995,-0.000776599999999,-0.0002231999999999,0,sub_20
0.0015879999999997,0.0038662000000012,-0.0015601999999999,-0.0010445999999995,-0.000776799999999,0.000201,0,sub_20
0.0019035999999997,0.0032978000000012,-0.0020119999999999,-0.0016799999999995,7.840000000090978e-05,-1.819999999991478e-05,0,sub_20
0.0017947999999997,0.0028372000000012,-0.0017803999999999,-0.0016791999999994,0.0002914000000009,-1.8399999999934785e-05,0,sub_20
0.0023723999999997,0.0032730000000012,-0.0015605999999999,-0.0016725999999995,0.0015706000000009,-0.0002335999999999,0,sub_20
0.0028357999999997,0.0035674000000012,-0.0016659999999999,-0.0012387999999995,0.0024228000000009,-0.0006597999999999,0,sub_20
0.0033773999999997,0.0038134000000012,-0.0013875999999998,-0.0001677999999995,0.0024214000000009,-0.0012939999999999,0,sub_20
0.0031207999999997,0.0045750000000012,-0.0011199999999998,0.0017538000000004,0.0019900000000008,-0.0017081999999999,0,sub_20
0.0026971999999997,0.0054518000000012,-0.0009549999999999,0.0026124000000004,0.0024146000000008,-0.0021309999999999,0,sub_20
0.0024459999999997,0.0047658000000012,-0.0009317999999999,0.0030394000000004,0.0017754000000008,-0.0025553999999999,0,sub_20
0.0029047999999997,0.0043764000000012,-0.0008513999999998,0.0034642000000004,0.0009234000000009,-0.0029785999999999,0,sub_20
0.0028441999999998,0.0046368000000012,-0.0014873999999998,0.0034642000000004,0.0004990000000009,-0.0034053999999998,0,sub_20
0.0031537999999998,0.0048822000000012,-0.0017649999999998,0.0021862000000004,0.0005068000000009,-0.0038449999999998,0,sub_20
0.0033661999999998,0.0042522000000012,-0.0019325999999998,0.0013302000000004,-0.000552199999999,-0.0042801999999998,0,sub_20
0.0033443999999998,0.0041494000000012,-0.0019137999999998,0.0008952000000004,-0.002042399999999,-0.0038573999999998,0,sub_20
0.0022837999999998,0.0045018000000012,-0.0018585999999998,0.0004582000000004,-0.003109799999999,-0.0025805999999998,0,sub_20
0.0019565999999998,0.0041716000000012,-0.0011927999999998,-0.0001893999999995,-0.003749399999999,-0.0015193999999999,0,sub_20
0.0020437999999998,0.0033674000000012,-0.0007509999999998,-0.0001979999999995,-0.004605999999999,-0.0004501999999999,0,sub_20
0.0025747999999997,0.0031048000000012,-0.0007945999999998,-0.0001979999999995,-0.003757199999999,0.0004032,0,sub_20
0.0022583999999997,0.0039560000000012,-0.0011665999999998,-0.0001921999999995,-0.002478799999999,0.0004016,0,sub_20
0.0018153999999997,0.0046136000000012,-0.0019957999999998,3.200000000044478e-05,-0.0005625999999991,-2.899999999993476e-05,0,sub_20
0.0018135999999997,0.0053170000000012,-0.0031381999999998,4.000000000044475e-05,0.0002906000000008,-0.0008869999999999,0,sub_20
0.0012915999999997,0.0057398000000012,-0.0039493999999998,0.0006870000000004,0.0009286000000008,-0.0017401999999999,0,sub_20
0.0010803999999998,0.0057694000000012,-0.0045311999999998,0.0013302000000004,0.0009266000000008,-0.0023789999999999,0,sub_20
0.0013203999999997,0.0051420000000012,-0.0043231999999998,0.0013304000000004,0.0007120000000009,-0.0025947999999999,0,sub_20
0.0019445999999997,0.0043970000000012,-0.0037557999999998,0.0011160000000004,7.520000000090966e-05,-0.0030227999999999,0,sub_20
0.0015263999999997,0.0039276000000012,-0.0025495999999998,0.0011198000000004,0.0007152000000009,-0.0032373999999998,0,sub_20
0.0015601999999997,0.0038898000000012,-0.0018621999999998,0.0004836000000004,0.0015698000000009,-0.0032429999999998,0,sub_20
0.0016413999999997,0.0046048000000012,-0.0015937999999998,0.0009102000000004,0.0015658000000009,-0.0032409999999999,0,sub_20
0.0016119999999997,0.0043222000000012,-0.0010439999999998,0.0015522000000004,0.0019872000000009,-0.0032379999999999,0,sub_20
0.0017263999999997,0.0042894000000012,-0.0009749999999998,0.0015560000000004,0.0028370000000009,-0.0032399999999999,0,sub_20
0.0020637999999997,0.0034092000000012,-0.0013053999999998,0.0015540000000004,0.0028328000000009,-0.0028135999999999,0,sub_20
0.0023481999999997,0.0032274000000012,-0.0009727999999998,0.0017644000000004,0.0024024000000009,-0.0025989999999999,0,sub_20
0.0021749999999997,0.0027880000000012,-0.0007335999999998,0.0011234000000004,0.0024038000000009,-0.0023897999999999,0,sub_20
0.0022791999999998,0.0032866000000012,-0.0009415999999999,0.0004832000000004,0.0024060000000009,-0.0023941999999999,0,sub_20
0.0024655999999998,0.0039636000000012,-0.0007085999999999,0.0004802000000004,0.0019790000000009,-0.0021799999999999,0,sub_20
0.0023905999999998,0.0047784000000012,-0.0009629999999999,0.0006932000000004,0.0019742000000008,-0.0017517999999999,0,sub_20
0.0022065999999998,0.0049812000000012,-0.0014071999999999,0.0004766000000004,0.0015440000000008,-0.0011123999999999,0,sub_20
0.0022935999999998,0.0052840000000012,-0.0023041999999999,-0.0001697999999995,0.0002638000000008,-0.0006885999999999,0,sub_20
0.0025239999999998,0.0053998000000012,-0.0022101999999998,-0.0003845999999995,4.7400000000889656e-05,-0.0002631999999999,0,sub_20
0.0021365999999998,0.0047468000000012,-0.0023097999999998,-0.0008115999999995,4.480000000088966e-05,0.0001604,0,sub_20
0.0021467999999998,0.0050438000000012,-0.0019823999999998,-0.0012421999999995,-0.000593799999999,0.0003718,0,sub_20
0.0025127999999998,0.0046588000000012,-0.0018289999999998,-0.0008163999999995,-0.001020599999999,0.0001616,0,sub_20
0.0028635999999998,0.0041042000000012,-0.0011641999999998,0.0002544000000004,-0.000384399999999,-4.53999999999346e-05,0,sub_20
0.0028503999999998,0.0037232000000012,-0.0017563999999998,0.0011070000000004,-0.000390999999999,-0.0002477999999999,0,sub_20
0.0029387999999998,0.0038306000000012,-0.0020383999999998,0.0013204000000004,-0.000606599999999,-0.0008815999999999,0,sub_20
0.0026161999999998,0.0034588000000012,-0.0021543999999998,0.0015376000000004,-0.0001821999999991,-0.0017297999999999,0,sub_20
0.0019765999999998,0.0036404000000012,-0.0023209999999998,0.0015442000000004,0.0010942000000008,-0.0023669999999999,0,sub_20
0.0018255999999998,0.0039324000000012,-0.0025077999999998,0.0011184000000004,0.0013060000000008,-0.0027921999999999,0,sub_20
0.0020189999999998,0.0046928000000012,-0.0020179999999998,0.0009080000000004,0.0013094000000008,-0.0034345999999999,0,sub_20
0.0025547999999998,0.0051170000000012,-0.0012163999999999,0.0013386000000004,0.0019478000000008,-0.0036459999999998,0,sub_20
0.0024799999999998,0.0054596000000012,-0.0012405999999999,0.0019750000000004,0.0013056000000009,-0.0034271999999998,0,sub_20
0.0018875999999998,0.0053974000000012,-0.0011077999999999,0.0019664000000004,2.480000000092972e-05,-0.0027845999999998,0,sub_20
0.0014585999999998,0.0050952000000012,-0.0010973999999999,0.0017438000000004,-0.000829199999999,-0.0019247999999998,0,sub_20
0.0013197999999998,0.0045204000000012,-0.0011215999999999,0.0006696000000004,-0.000617599999999,-0.0004313999999998,0,sub_20
0.0011967999999998,0.0039462000000012,-0.0011615999999999,-0.0006179999999995,-0.000192999999999,0.0012738,0,sub_20
0.0016373999999998,0.0033016000000012,-0.0010483999999998,-0.0014721999999995,0.0010848000000008,0.00234,0,sub_20
0.0021757999999997,0.0035048000000012,-0.0013443999999998,-0.0016851999999995,0.0017248000000008,0.002557,0,sub_20
0.0021795999999997,0.0038534000000012,-0.0018561999999998,-0.0012565999999995,0.0021494000000008,0.0025594,0,sub_20
0.0017037999999998,0.0042126000000012,-0.0021031999999998,0.0004464000000004,0.0008668000000008,0.0021456,0,sub_20
0.0009705999999998,0.0045574000000012,-0.0023455999999998,0.0015132000000004,1.4400000000909648e-05,0.0012996,0,sub_20
0.0006729999999998,0.0047398000000012,-0.0023321999999998,0.0015130000000004,1.460000000088977e-05,0.0006672,0,sub_20
0.0013167999999998,0.0042370000000012,-0.0024031999999998,0.0010832000000004,0.0002256000000008,0.000886,0,sub_20
0.0017429999999998,0.0041780000000012,-0.0018341999999998,0.0004440000000004,0.0008654000000008,0.0006756,0,sub_20
0.0021359999999997,0.0039766000000012,-0.0017267999999998,-0.0006171999999995,0.0023598000000008,0.0002476,0,sub_20
0.0027525999999997,0.0037086000000012,-0.0024255999999998,-0.0006145999999995,0.0032112000000008,-0.0001721999999999,0,sub_20
0.0029835999999997,0.0032182000000012,-0.0027801999999999,-0.0006183999999995,0.0025710000000009,4.240000000008534e-05,0,sub_20
0.0024405999999997,0.0033474000000012,-0.0031389999999999,-0.0008345999999995,0.0015082000000009,-0.0003849999999999,0,sub_20
0.0020415999999997,0.0033062000000012,-0.0031523999999999,-0.0008397999999995,0.0012890000000009,-0.0003743999999999,0,sub_20
0.0021305999999998,0.0033700000000012,-0.0026313999999999,-0.0010563999999995,0.0012844000000009,-0.0005791999999999,0,sub_20
0.0020163999999998,0.0037672000000012,-0.0019881999999999,-0.0012747999999995,0.0010658000000009,-0.0005701999999999,0,sub_20
0.0014271999999998,0.0044702000000012,-0.0017413999999999,-0.0004225999999995,0.0012716000000009,-0.0009815999999999,0,sub_20
0.0014341999999998,0.0050020000000012,-0.0016581999999999,0.0006450000000004,0.0021148000000009,-0.0011785999999999,0,sub_20
0.0019147999999998,0.0051680000000012,-0.0018675999999999,0.0015024000000004,0.0025396000000009,-0.0016005999999999,0,sub_20
0.0014327999999998,0.0049970000000012,-0.0023165999999999,0.0023570000000004,0.0027496000000009,-0.0015949999999998,0,sub_20
0.0008685999999998,0.0047058000000011,-0.0030681999999999,0.0029982000000004,0.0027482000000009,-0.0018041999999998,0,sub_20
0.0010377999999998,0.0045978000000012,-0.0033993999999999,0.0023594000000004,0.0033870000000009,-0.0020153999999998,0,sub_20
0.0009695999999998,0.0037802000000012,-0.0037389999999999,0.0012956000000004,0.0046658000000009,-0.0020167999999998,0,sub_20
0.0007377999999998,0.0032948000000012,-0.0039769999999999,0.0004424000000004,0.0055168000000009,-0.0018023999999998,0,sub_20
0.0007573999999998,0.0030766000000012,-0.0047915999999999,-0.0004127999999995,0.0059418000000009,-0.0015875999999999,0,sub_20
0.0017415999999998,0.0033030000000012,-0.0041903999999999,-0.0016937999999995,0.0063690000000009,-0.0015893999999999,0,sub_20
0.0022467999999997,0.0036714000000012,-0.0035453999999999,-0.0021205999999995,0.0065826000000009,-0.0013789999999999,0,sub_20
0.0024927999999997,0.0045486000000012,-0.0023871999999999,-0.0019119999999995,0.0057288000000009,-0.0011627999999999,0,sub_20
0.0021817999999997,0.0054898000000012,-0.0011125999999999,-0.0014929999999995,0.0042350000000009,-0.0009443999999999,0,sub_20
0.0030207999999997,0.0061580000000012,0.000289,-0.0004417999999995,0.0020954000000009,-0.0004971999999999,0,sub_20
0.0031661999999997,0.0069920000000012,0.000513,0.0010322000000004,-0.000685399999999,0.0001674,0,sub_20
0.0033427999999997,0.0076278000000012,0.0013336,0.0020766000000004,-0.004103999999999,0.0008298,0,sub_20
0.0035485999999997,0.0080394000000012,0.001404,0.0026990000000004,-0.006880399999999,0.0010612,0,sub_20
0.0037959999999997,0.0075384000000012,0.0008566,0.0026794000000004,-0.009868199999999,0.001502,0,sub_20
0.0031005999999998,0.0069842000000012,0.0001052,0.0024526000000004,-0.012213599999999,0.0021444,0,sub_20
0.0027977999999998,0.0054590000000012,-0.0005393999999999,0.0009484000000004,-0.013915399999999,0.002777,0,sub_20
0.0028491999999998,0.0036674000000012,-0.0024017999999999,-0.0009767999999995,-0.014337399999999,0.003405,0,sub_20
0.0029573999999998,0.0020626000000012,-0.0024645999999999,-0.0026841999999995,-0.013483799999999,0.0038228,0,sub_20
0.0023835999999998,0.0013638000000012,-0.0034643999999999,-0.0039599999999995,-0.011990799999999,0.0038154,0,sub_20
0.0020057999999998,0.0014394000000012,-0.0043161999999999,-0.0054493999999995,-0.010709199999999,0.0035932,0,sub_20
0.0010895999999998,0.0023150000000012,-0.0051819999999999,-0.0052247999999995,-0.008154399999999,0.0031676,0,sub_20
0.0005089999999998,0.0039762000000012,-0.0042217999999999,-0.0045677999999995,-0.004747199999999,0.0023166,0,sub_20
-0.0009252000000001,0.0054448000000012,-0.0043341999999999,-0.0030559999999995,-0.001553199999999,0.0014684,0,sub_20
-0.0014458000000001,0.0060242000000012,-0.0033991999999999,-0.0013279999999995,0.0020670000000009,0.0004076,0,sub_20
-0.0008874000000001,0.0057054000000012,-0.0031645999999999,0.0010442000000004,0.0061128000000009,-0.0010765999999999,0,sub_20
0.0006011999999997,0.0051254000000012,-0.0027923999999999,0.0027732000000004,0.0095216000000009,-0.0025643999999999,0,sub_20
0.0009183999999997,0.0041104000000012,-0.0034721999999999,0.0045030000000004,0.0129274000000009,-0.0044767999999999,0,sub_20
0.0016005999999997,0.0034140000000012,-0.0036055999999999,0.0049402000000004,0.0137802000000008,-0.0061813999999998,0,sub_20
0.0024297999999997,0.0036182000000012,-0.0039755999999999,0.0053658000000004,0.0125006000000008,-0.0074559999999999,0,sub_20
0.0025807999999997,0.0049690000000012,-0.0031019999999999,0.0066332000000004,0.0095102000000008,-0.0078679999999999,0,sub_20
0.0018581999999998,0.0064606000000012,-0.0016757999999999,0.0076778000000004,0.0054510000000009,-0.0072119999999999,0,sub_20
0.0021705999999997,0.0074300000000012,-0.0003661999999999,0.0082872000000004,0.0005408000000009,-0.0052787999999999,0,sub_20
0.0026637999999997,0.0083072000000012,0.000503,0.0086870000000004,-0.002667599999999,-0.0024945999999999,0,sub_20
0.0031631999999997,0.0083458000000012,0.0012952,0.0078114000000004,-0.004806199999999,0.0002794,0,sub_20
0.0026351999999997,0.0074834000000012,0.0014244,0.0045940000000004,-0.005665599999999,0.0026126,0,sub_20
0.0025611999999997,0.0063210000000012,0.0005554,0.0003162000000004,-0.005666599999999,0.0042966,0,sub_20
0.0022969999999997,0.0050036000000012,-0.0007519999999999,-0.0037479999999995,-0.006092799999999,0.0055554,0,sub_20
0.0022295999999997,0.0035634000000012,-0.0026475999999999,-0.0073835999999995,-0.006943199999999,0.005963,0,sub_20
0.0022777999999998,0.0025696000000012,-0.0044889999999999,-0.0099475999999995,-0.006944199999999,0.0061634,0,sub_20
0.0024117999999998,0.0010890000000012,-0.0047375999999999,-0.0112259999999995,-0.006513599999999,0.006154,0,sub_20
0.0018815999999998,-0.0002097999999987,-0.0048485999999999,-0.0110067999999995,-0.005872599999999,0.0055138,0,sub_20
0.0013253999999998,-0.0003221999999987,-0.0049913999999998,-0.0105685999999995,-0.004179399999999,0.0044522,0,sub_20
0.0005579999999998,0.0005472000000012,-0.0040681999999998,-0.0090605999999995,-0.002062999999999,0.003184,0,sub_20
-5.600000000019117e-05,0.0021236000000012,-0.0029179999999998,-0.0069075999999995,0.0009042000000009,0.0017054,0,sub_20
-0.0001850000000001,0.0042986000000012,-0.0028939999999998,-0.0047545999999995,0.0040834000000009,0.0004402,0,sub_20
0.0002505999999998,0.0063806000000012,-0.0020677999999998,-0.0021787999999995,0.0061968000000009,-0.0010343999999999,0,sub_20
0.0012855999999998,0.0080106000000012,-0.0013921999999998,0.0008190000000004,0.0072568000000009,-0.0022965999999999,0,sub_20
0.0018143999999998,0.0087266000000012,-0.0014663999999998,0.0029518000000004,0.0072484000000009,-0.0020679999999999,0,sub_20
0.0016225999999998,0.0087404000000012,-0.0012527999999998,0.0044368000000004,0.0059622000000009,-0.0014149999999999,0,sub_20
0.0008459999999998,0.0085652000000012,-0.0017015999999999,0.0052742000000004,0.0031978000000009,-0.0005517999999999,0,sub_20
0.0008291999999998,0.0079382000000012,-0.0021749999999999,0.0058896000000004,-0.000422199999999,0.0013792,0,sub_20
0.0008985999999997,0.0065188000000012,-0.0024515999999999,0.0058648000000004,-0.003827999999999,0.0035188,0,sub_20
0.0014903999999997,0.0051548000000012,-0.0025713999999998,0.0054142000000004,-0.007655599999999,0.0050152,0,sub_20
0.0025847999999997,0.0038208000000012,-0.0024073999999998,0.0032616000000004,-0.010411999999999,0.0064984,0,sub_20
0.0037733999999997,0.0025296000000012,-0.0022039999999998,-0.0001533999999995,-0.009764199999999,0.0073284,0,sub_20
0.0038705999999997,0.0014704000000012,-0.0023983999999998,-0.0044149999999995,-0.007622199999999,0.0081504,0,sub_20
0.0032883999999997,0.0010948000000012,-0.0021187999999998,-0.0082489999999995,-0.005692999999999,0.0085486,0,sub_20
0.0032621999999997,0.0007714000000012,-0.0023391999999999,-0.0107899999999995,-0.001841999999999,0.0085258,0,sub_20
0.0030347999999997,0.0005728000000012,-0.0031477999999999,-0.0114117999999995,0.0013648000000008,0.00809,0,sub_20
0.0026713999999998,0.0016806000000012,-0.0028577999999999,-0.0101179999999995,0.0030752000000008,0.0072422,0,sub_20
0.0023219999999998,0.0035174000000012,-0.0042283999999999,-0.0071105999999995,0.0052100000000008,0.0053376,0,sub_20
0.0020327999999998,0.0053544000000012,-0.0059139999999998,-0.0034657999999995,0.0064914000000008,0.0032248,0,sub_20
0.0009819999999998,0.0065032000000012,-0.0055417999999998,-0.0004633999999995,0.0077678000000008,0.0011078,0,sub_20
0.0005673999999998,0.0077272000000012,-0.0046035999999998,0.0021114000000004,0.0088326000000009,-0.0010119999999999,0,sub_20
0.0006621999999998,0.0078096000000012,-0.0041863999999999,0.0042520000000004,0.0088312000000009,-0.0024925999999999,0,sub_20
0.0011895999999998,0.0069304000000012,-0.0023809999999999,0.0050942000000004,0.0081896000000009,-0.0031185999999999,0,sub_20
0.0017131999999998,0.0063354000000012,-0.0008759999999999,0.0044388000000004,0.0073376000000009,-0.0031137999999999,0,sub_20
0.0027297999999998,0.0059674000000012,-0.0007521999999999,0.0031356000000004,0.0052078000000009,-0.0026845999999999,0,sub_20
0.0030341999999998,0.0057052000000011,-0.0009517999999999,0.0016162000000004,0.0028640000000009,-0.0018293999999999,0,sub_20
0.0027239999999998,0.0045592000000012,-0.0020425999999998,-0.0003233999999995,0.0024374000000009,-0.0005523999999999,0,sub_20
0.0025255999999998,0.0041124000000012,-0.0023805999999998,-0.0018265999999995,0.0009488000000009,8.0000000000066e-05,0,sub_20
0.0023577999999998,0.0036250000000011,-0.0020349999999998,-0.0020399999999995,0.0009496000000009,7.860000000006603e-05,0,sub_20
0.0020577999999998,0.0027910000000012,-0.0024953999999998,-0.0016093999999995,0.0015882000000009,-0.0001329999999999,0,sub_20
0.0016793999999998,0.0024576000000012,-0.0033405999999998,-0.0013863999999995,0.0018110000000008,-0.0005633999999999,0,sub_20
0.0023095999999998,0.0030188000000012,-0.0026127999999998,-0.0013795999999995,0.0011832000000008,-0.0012075999999999,0,sub_20
0.0024857999999998,0.0033402000000011,-0.0020351999999998,-0.0022187999999995,0.0024750000000008,-0.0016465999999999,0,sub_20
0.0023423999999998,0.0040400000000012,-0.0023879999999999,-0.0028491999999995,0.0031252000000009,-0.0016561999999999,0,sub_20
0.0023159999999998,0.0053830000000011,-0.0018373999999999,-0.0034805999999995,0.0029256000000009,-0.0023053999999999,0,sub_20
0.0027677999999998,0.0057206000000011,-0.0009691999999999,-0.0028375999999995,0.0031382000000009,-0.0027283999999999,0,sub_20
0.0029485999999998,0.0063536000000011,-0.0013575999999999,-0.0013459999999995,0.0022826000000009,-0.0031441999999999,0,sub_20
0.0028709999999998,0.0064970000000012,-0.0016517999999999,0.0007858000000004,0.0014246000000009,-0.0035555999999999,0,sub_20
0.0026053999999997,0.0055596000000012,-0.0019405999999999,0.0018488000000004,0.0007808000000009,-0.0033335999999999,0,sub_20
0.0025469999999997,0.0047594000000012,-0.0023343999999999,0.0027030000000004,0.0005632000000009,-0.0029033999999999,0,sub_20
0.0016169999999997,0.0047738000000012,-0.0030525999999999,0.0029170000000004,0.0003478000000009,-0.0024775999999999,0,sub_20
0.0011359999999997,0.0043816000000012,-0.0032643999999998,0.0022824000000004,0.0009882000000009,-0.0022723999999999,0,sub_20
0.0007017999999997,0.0043654000000012,-0.0034015999999998,0.0016450000000004,0.0012018000000009,-0.0018529999999999,0,sub_20
0.0009689999999997,0.0049514000000012,-0.0030141999999998,0.0007970000000004,0.0016308000000009,-0.0018627999999999,0,sub_20
0.0008407999999997,0.0053388000000012,-0.0028527999999998,-0.0002689999999995,0.0022720000000009,-0.0014437999999999,0,sub_20
0.0014791999999997,0.0053286000000012,-0.0023357999999998,-0.0006955999999995,0.0026978000000009,-0.0010199999999999,0,sub_20
0.0014001999999997,0.0054534000000012,-0.0025187999999999,-0.0006879999999995,0.0029196000000009,-0.0008223999999999,0,sub_20
0.0014839999999997,0.0056512000000012,-0.0025507999999999,-0.0011071999999995,0.0031428000000009,-0.0006277999999999,0,sub_20
0.0012281999999998,0.0055262000000012,-0.0034145999999999,-0.0008881999999995,0.0029376000000009,-0.0004281999999999,0,sub_20
0.0012083999999997,0.0057026000000012,-0.0034847999999999,-0.0004547999999995,0.0025202000000009,-0.0006539999999999,0,sub_20
0.0011993999999997,0.0052550000000012,-0.0041499999999999,-0.0006587999999995,0.0029566000000009,-0.0006717999999999,0,sub_20
0.0028455999999997,0.0044634000000012,-0.0043693999999999,-0.0006617999999995,0.0025296000000009,-0.0004577999999999,0,sub_20
0.0035023999999997,0.0045852000000012,-0.0038557999999999,-0.0002369999999995,0.0018898000000008,-0.0006675999999999,0,sub_20
0.0029155999999997,0.0040268000000012,-0.0033677999999998,-0.0008723999999995,0.0025330000000008,-0.0011001999999999,0,sub_20
0.0027459999999998,0.0039576000000012,-0.0043891999999998,-0.0017181999999995,0.0031794000000008,-0.0021751999999999,0,sub_20
0.0028261999999998,0.0046362000000012,-0.0040737999999998,-0.0010653999999995,0.0031748000000008,-0.0034659999999998,0,sub_20
0.0017311999999998,0.0049576000000012,-0.0033441999999998,-0.0004103999999995,0.0042330000000008,-0.0041169999999998,0,sub_20
0.0019825999999998,0.0043994000000012,-0.0041893999999998,0.0002320000000004,0.0033704000000009,-0.0039111999999998,0,sub_20
0.0035605999999998,0.0046382000000012,-0.0031145999999999,0.0021488000000004,0.0005884000000009,-0.0043347999999998,0,sub_20
0.0030567999999998,0.0037630000000012,-0.0022833999999999,0.0036398000000004,-0.000493599999999,-0.0032681999999998,0,sub_20
0.0019203999999998,0.0031492000000012,-0.0026681999999998,0.0036304000000004,-0.001562999999999,-0.0021985999999999,0,sub_20
0.0013627999999998,0.0036032000000012,-0.0028427999999998,0.0036188000000004,-0.003695199999999,-0.0017687999999999,0,sub_20
0.0009483999999998,0.0036088000000012,-0.0023859999999998,0.0032024000000004,-0.002641199999999,-0.0015661999999999,0,sub_20
-0.0002132000000001,0.0039852000000012,-0.0030581999999998,0.0019336000000004,-0.000309999999999,-0.0003029999999999,0,sub_20
3.019999999980816e-05,0.0052540000000012,-0.0031781999999998,0.0004476000000004,0.0005330000000009,0.0003198,0,sub_20
0.0010131999999997,0.0061364000000012,-0.0032593999999999,-0.0014643999999995,0.0015906000000009,0.0009394,0,sub_20
0.0013353999999997,0.0065058000000012,-0.0037967999999999,-0.0027351999999995,0.0028590000000009,0.0015632,0,sub_20
0.0009777999999997,0.0067588000000012,-0.0040521999999999,-0.0031637999999995,0.0026466000000009,0.0017742,0,sub_20
0.0020477999999997,0.0063022000000012,-0.0037513999999999,-0.0023121999999995,0.0015808000000009,0.0011406,0,sub_20
0.0023397999999997,0.0047166000000012,-0.0036141999999998,-0.0010329999999995,0.0005146000000009,0.0002962,0,sub_20
0.0027793999999998,0.0035666000000012,-0.0034775999999998,0.0006796000000004,-0.000141199999999,-0.0001183999999999,0,sub_20
0.0025023999999998,0.0025670000000012,-0.0031645999999998,0.0011128000000004,-0.000154999999999,-0.0001153999999999,0,sub_20
0.0020311999999998,0.0024898000000012,-0.0039357999999998,0.0006924000000004,0.0002586000000009,0.0003082,0,sub_20
0.0008105999999998,0.0027376000000012,-0.0049513999999998,-0.0003669999999995,0.0013120000000009,0.001154,0,sub_20
0.0013343999999998,0.0043382000000012,-0.0043557999999999,-0.0009939999999995,0.0034298000000009,0.0017878,0,sub_20
0.0012193999999998,0.0055112000000012,-0.0033363999999999,-0.0020503999999995,0.0055650000000009,0.001564,0,sub_20
