userAcceleration.x,userAcceleration.y,userAcceleration.z,rotationRate.x,rotationRate.y,rotationRate.z,label,subject
0.0036211999999998,0.0303052000000012,0.0079548,0.0019906000000003,0.0002938000000009,-0.0013329999999998,0,sub_12
0.0036197999999998,0.0299892000000012,0.0071792,0.0013496000000003,0.0005074000000009,-0.0009105999999998,0,sub_12
0.0033945999999998,0.0293094000000012,0.006527,0.0006974000000003,0.0003064000000009,-0.0002613999999998,0,sub_12
0.0034201999999998,0.0285332000000012,0.0059156,4.5200000000397497e-05,0.0001054000000009,0.0003878000000001,0,sub_12
0.0038621999999998,0.0280676000000012,0.0055718,4.260000000039749e-05,0.0011838000000009,0.0001854000000001,0,sub_12
0.0034261999999998,0.0288250000000012,0.0062294,-0.0003867999999996,0.0020516000000009,-0.0002333999999998,0,sub_12
0.0029859999999998,0.0296046000000012,0.0070952,0.0008908000000003,0.0031256000000009,-0.0004267999999998,0,sub_12
0.0023673999999998,0.0305134000000012,0.0072912,0.0019586000000003,0.0033350000000009,-0.0004195999999998,0,sub_12
0.0022369999999998,0.0311808000000012,0.0073442,0.0025948000000003,0.0024806000000009,-0.0004139999999998,0,sub_12
0.0021921999999998,0.0311872000000012,0.0080144,0.0025882000000003,0.0012086000000009,2.680000000016064e-05,0,sub_12
0.0025901999999998,0.0308614000000012,0.0082138,0.0019434000000003,-5.9599999999086944e-05,3.580000000016066e-05,0,sub_12
0.0031583999999998,0.0301198000000012,0.0079556,0.0008726000000003,-0.000900999999999,0.0002550000000001,0,sub_12
0.0038757999999998,0.0299458000000012,0.0073244,-0.0001913999999996,-0.000887599999999,-0.0001677999999998,0,sub_12
0.0039679999999998,0.0301996000000012,0.0073136,-0.0001845999999996,-2.579999999908688e-05,-0.0005841999999998,0,sub_12
0.0035317999999997,0.0302388000000012,0.0069932,0.0002460000000003,0.0001882000000009,-0.0012223999999998,0,sub_12
0.0028291999999997,0.0300624000000012,0.0067872,0.0008900000000003,0.0006138000000009,-0.0016455999999998,0,sub_12
0.0024839999999997,0.0304688000000012,0.0069166,0.0013198000000003,0.0008270000000009,-0.0020701999999998,0,sub_12
0.0024029999999998,0.0307518000000012,0.0075512,0.0013188000000003,0.0008262000000008,-0.0018565999999998,0,sub_12
0.0017287999999997,0.0307228000000012,0.0074178,0.0004558000000003,0.0006128000000008,-0.0012165999999998,0,sub_12
0.0016983999999998,0.0311472000000012,0.0076886,1.940000000035748e-05,0.0003980000000008,-0.0005735999999998,0,sub_12
0.0021755999999997,0.0314958000000012,0.0074182,0.0002232000000003,0.0001808000000008,7.400000000018065e-05,0,sub_12
0.0021465999999997,0.0310996000000012,0.0072942,0.0006404000000003,-0.0004613999999991,0.0002964000000001,0,sub_12
0.0018353999999997,0.0304956000000012,0.0070242,0.0012730000000003,-0.000890599999999,0.0003064000000001,0,sub_12
0.0019881999999997,0.0303278000000012,0.0070884,0.0012740000000003,-0.000889799999999,9.280000000016066e-05,0,sub_12
0.0020427999999997,0.0297578000000012,0.007174,0.0010646000000003,-0.000248999999999,-0.0001229999999998,0,sub_12
0.0019217999999998,0.0294746000000012,0.0074346,0.0006408000000003,0.0001796000000009,-0.0003401999999998,0,sub_12
0.0018545999999998,0.0301402000000012,0.0074964,-4.599999999622489e-06,0.0003920000000009,-0.0003413999999998,0,sub_12
0.0022387999999998,0.0307098000000012,0.0075954,-7.999999999622545e-06,0.0008160000000009,-0.0005519999999998,0,sub_12
0.0025029999999998,0.0311990000000012,0.0076702,0.0004134000000003,0.0006004000000009,-0.0009723999999998,0,sub_12
0.0024209999999998,0.0316280000000012,0.0077678,0.0008328000000003,-4.1599999999046825e-05,-0.0013923999999998,0,sub_12
0.0026253999999998,0.0315298000000012,0.007534,0.0012522000000003,-0.000471399999999,-0.0015989999999998,0,sub_12
0.0028331999999998,0.0309778000000012,0.0069882,0.0012550000000003,-0.000256599999999,-0.0020265999999998,0,sub_12
0.0029825999999998,0.0307504000000012,0.0065242,0.0010416000000003,-0.000255799999999,-0.0020281999999998,0,sub_12
0.0026363999999998,0.0305890000000012,0.0064698,0.0006130000000003,-0.000255999999999,-0.0016039999999998,0,sub_12
0.0026845999999998,0.0306850000000012,0.0062724,0.0003878000000003,-0.000473599999999,-0.0007465999999998,0,sub_12
0.0028663999999998,0.0308028000000012,0.0058102,-0.0006879999999996,-0.000261199999999,-0.0001093999999998,0,sub_12
0.0023897999999998,0.0305300000000012,0.0063496,-0.0011257999999996,-5.279999999908683e-05,0.0009596000000001,0,sub_12
0.0021001999999998,0.0300924000000012,0.0068158,-0.0013471999999996,-5.479999999908683e-05,0.0011758000000001,0,sub_12
0.0027963999999998,0.0292798000000012,0.0070336,-0.0013505999999996,0.0005832000000009,0.0009654000000001,0,sub_12
0.0026793999999998,0.0297452000000012,0.0076078,-0.0013401999999996,0.0020780000000008,0.0001090000000001,0,sub_12
0.0020583999999998,0.0304020000000012,0.0086728,-0.0002695999999996,0.0027144000000008,-9.799999999983936e-05,0,sub_12
0.0021787999999997,0.0311818000000012,0.0084498,0.0003684000000003,0.0031358000000008,-0.0007315999999998,0,sub_12
0.0018961999999997,0.0313170000000012,0.009044,0.0005728000000003,0.0029162000000008,-0.0005127999999998,0,sub_12
0.0012647999999997,0.0316248000000012,0.0094188,0.0007744000000003,0.0020576000000008,-0.0002931999999998,0,sub_12
0.0017855999999997,0.0305268000000012,0.0086096,0.0003322000000003,0.0005612000000009,0.0001362000000001,0,sub_12
0.0022847999999998,0.0300656000000012,0.0083166,0.0001080000000003,-0.000295199999999,0.0001392000000001,0,sub_12
0.0026281999999998,0.0299380000000012,0.0085916,0.0001060000000003,-0.000721199999999,0.0001396000000001,0,sub_12
0.0028533999999998,0.0298422000000012,0.0075748,0.0005346000000003,-0.000508799999999,-7.139999999983934e-05,0,sub_12
0.0028023999999998,0.0292442000000012,0.0069922,0.0009632000000003,-8.419999999908683e-05,-6.899999999983933e-05,0,sub_12
0.0024377999999998,0.0289056000000012,0.007404,0.0016080000000003,0.0007666000000009,-0.0002791999999998,0,sub_12
0.0020497999999998,0.0288090000000012,0.0071176,0.0013904000000003,0.0014016000000009,-6.379999999981934e-05,0,sub_12
0.0016619999999998,0.0289686000000012,0.0067066,0.0001022000000003,0.0016126000000009,0.0005722000000001,0,sub_12
0.0009239999999998,0.0294268000000012,0.006933,-0.0014003999999996,0.0020358000000009,0.0016336000000001,0,sub_12
0.0010465999999998,0.0304936000000011,0.0070692,-0.0022617999999996,0.0020332000000009,0.0020590000000001,0,sub_12
0.0010137999999998,0.0317570000000012,0.006939,-0.0020583999999996,0.0018130000000009,0.0027058000000001,0,sub_12
0.0016757999999998,0.0319448000000012,0.0070402,-0.0009943999999996,0.0011702000000009,0.0027142000000001,0,sub_12
0.0022045999999998,0.0317456000000012,0.0073134,0.0007144000000003,0.0009538000000009,0.0020854000000001,0,sub_12
0.0029593999999998,0.0311692000000012,0.0078598,0.0015642000000003,0.0005258000000009,0.0012408000000001,0,sub_12
0.0023735999999998,0.0304990000000012,0.0076122,0.0019854000000003,0.0003096000000009,0.0010338000000001,0,sub_12
0.0027275999999998,0.0301004000000012,0.007362,0.0015540000000003,9.740000000095316e-05,0.0006072000000001,0,sub_12
0.0030471999999998,0.0295258000000012,0.0075934,0.0011246000000003,0.0003112000000009,0.0001800000000001,0,sub_12
0.0027553999999998,0.0293222000000012,0.0074594,0.0006914000000003,0.0003094000000009,0.0003940000000001,0,sub_12
0.0026519999999998,0.0298140000000012,0.0068274,0.0006904000000003,-0.000115799999999,0.0001808000000001,0,sub_12
0.0031927999999998,0.0301902000000012,0.006692,0.0009046000000003,-0.000115599999999,-3.119999999983941e-05,0,sub_12
0.0026921999999998,0.0298518000000012,0.0067486,0.0006922000000003,-0.000113999999999,-0.0002461999999998,0,sub_12
0.0017747999999997,0.0303420000000012,0.0062148,0.0004752000000003,9.860000000089312e-05,-0.0002435999999998,0,sub_12
0.0017249999999997,0.0300700000000011,0.0062098,0.0006820000000003,-0.0003293999999991,-0.0002369999999998,0,sub_12
0.0013729999999997,0.0296746000000011,0.0062986,0.0013166000000003,-0.0005459999999991,-0.0002277999999998,0,sub_12
0.0016585999999997,0.0293538000000012,0.0063834,0.0008872000000003,-0.0003317999999991,-0.0004401999999998,0,sub_12
0.0019757999999997,0.0296470000000012,0.0066046,0.0006702000000003,9.280000000089316e-05,-0.0002241999999998,0,sub_12
0.0024647999999998,0.0298864000000012,0.0069538,2.720000000037736e-05,-0.000119799999999,0.0001990000000001,0,sub_12
0.0026013999999998,0.0307398000000012,0.0060674,-0.0008251999999996,9.620000000091318e-05,0.0001928000000001,0,sub_12
0.0032593999999998,0.0308852000000012,0.0061138,-0.0018919999999996,0.0003120000000009,0.0003988000000001,0,sub_12
0.0030997999999998,0.0310908000000012,0.0063974,-0.0012517999999996,0.0003096000000009,0.0004032000000001,0,sub_12
0.0031625999999998,0.0309554000000012,0.0059728,-0.0003993999999996,9.160000000091316e-05,-1.4999999999839405e-05,0,sub_12
0.0029263999999998,0.0303562000000012,0.0056256,-0.0001813999999996,0.0007298000000009,-0.0008659999999998,0,sub_12
0.0024185999999998,0.0303128000000012,0.0066046,0.0002498000000003,0.0015794000000009,-0.0015021999999998,0,sub_12
0.0017833999999998,0.0306934000000012,0.0067594,0.0006792000000003,0.0024274000000009,-0.0017111999999998,0,sub_12
0.0012969999999998,0.0314406000000012,0.0069372,0.0004608000000003,0.0019976000000009,-0.0014957999999998,0,sub_12
0.0010631999999998,0.0318524000000012,0.0073392,0.0002436000000003,0.0015706000000009,-0.0010695999999998,0,sub_12
0.0010331999999998,0.0317324000000012,0.007925,0.0006616000000003,0.0005006000000009,-0.0002107999999998,0,sub_12
0.0013441999999998,0.0303648000000012,0.0080752,0.0008654000000003,-0.000993999999999,0.0004334000000001,0,sub_12
0.0017619999999998,0.0297436000000012,0.008036,0.0006444000000003,-0.001851599999999,0.0008622000000001,0,sub_12
0.0022865999999998,0.0290500000000012,0.0075488,0.0004310000000003,-0.001429199999999,0.0008622000000001,0,sub_12
0.0020093999999998,0.0287250000000012,0.0071366,0.0002148000000003,-0.001645999999999,0.0008630000000001,0,sub_12
0.0014211999999998,0.0295696000000012,0.0069948,0.0006416000000003,-0.001650399999999,0.0004406000000001,0,sub_12
0.0010221999999998,0.0309768000000012,0.0064964,0.0008502000000003,-0.002082599999999,0.0006582000000001,0,sub_12
0.0014107999999998,0.0313612000000012,0.0071976,0.0019094000000003,-0.003366399999999,0.0010946000000001,0,sub_12
0.0022515999999998,0.0305994000000012,0.0079342,0.0027630000000003,-0.003793799999999,0.0006738000000001,0,sub_12
0.0036005999999998,0.0299916000000012,0.0084056,0.0031912000000003,-0.004009799999999,-0.0001799999999998,0,sub_12
0.0053585999999998,0.0287000000000012,0.008113,0.0029794000000003,-0.003799199999999,-0.0006113999999998,0,sub_12
0.0060879999999998,0.0277164000000012,0.007755,0.0027772000000003,-0.001882599999999,-0.0014721999999998,0,sub_12
0.0051559999999998,0.0276690000000012,0.0066474,0.0023682000000003,0.0011018000000009,-0.0027631999999998,0,sub_12
0.0036603999999998,0.0279248000000012,0.0056094,0.0021620000000003,0.0025908000000009,-0.0031961999999998,0,sub_12
0.0020691999999998,0.0280680000000012,0.0051122,0.0025944000000003,0.0038676000000009,-0.0031947999999998,0,sub_12
4.279999999982653e-05,0.0292678000000012,0.0051082,0.0025962000000003,0.0045060000000009,-0.0029819999999998,0,sub_12
-0.0009892000000001,0.0306164000000012,0.0060204,0.0023770000000003,0.0038650000000008,-0.0023417999999998,0,sub_12
-0.0012172000000001,0.0314794000000012,0.0066678,0.0017234000000003,0.0019456000000008,-0.0012755999999998,0,sub_12
4.859999999982639e-05,0.0316234000000012,0.007087,0.0008506000000003,2.100000000089313e-05,0.0004280000000001,0,sub_12
0.0019587999999998,0.0319616000000012,0.0073242,0.0001932000000003,-0.0014779999999991,0.0021328000000001,0,sub_12
0.0039543999999998,0.0313626000000012,0.0072494,0.0001826000000003,-0.0021245999999991,0.0032000000000001,0,sub_12
0.0047585999999998,0.0300588000000012,0.0066796,0.0003968000000003,-0.001063999999999,0.0034120000000001,0,sub_12
0.0042617999999998,0.0281112000000012,0.0060082,0.0006198000000003,0.0010652000000009,0.0027680000000001,0,sub_12
0.0022229999999998,0.0280034000000012,0.0054944,0.0008428000000003,0.0023462000000009,0.0019134000000001,0,sub_12
0.0003309999999998,0.0281210000000012,0.0053658,-0.0002173999999996,0.0034168000000008,0.0014772000000001,0,sub_12
-0.0018728000000001,0.0284122000000012,0.005789,-0.0014947999999996,0.0040604000000008,0.0014674000000001,0,sub_12
-0.0024828000000001,0.0288370000000012,0.0061574,-0.0023567999999996,0.0034190000000008,0.0027440000000001,0,sub_12
-0.0011296000000001,0.0296826000000012,0.0063248,-0.0032289999999996,0.0017064000000008,0.0048756000000001,0,sub_12
0.0017817999999998,0.0300534000000012,0.0067224,-0.0038849999999996,0.0006322000000009,0.0070080000000001,0,sub_12
0.0035417999999998,0.0296016000000012,0.00672,-0.0043187999999996,0.0006260000000009,0.0082860000000001,0,sub_12
0.0049719999999998,0.0293220000000012,0.0062894,-0.0049641999999996,0.0001978000000009,0.0087084000000001,0,sub_12
0.0056105999999998,0.0289250000000012,0.0064686,-0.0049599999999996,0.0002004000000009,0.0074256000000001,0,sub_12
0.0061961999999998,0.0288112000000012,0.0062926,-0.0045159999999996,0.0010630000000009,0.0044366000000001,0,sub_12
0.0051377999999998,0.0290814000000012,0.0064036,-0.0034231999999996,0.0025678000000008,0.0001694000000001,0,sub_12
0.0042207999999998,0.0304470000000012,0.0066038,-0.0010585999999996,0.0034228000000008,-0.0032333999999998,0,sub_12
0.0040063999999998,0.0313290000000012,0.0067518,0.0019396000000003,0.0040574000000008,-0.0053493999999998,0,sub_12
0.0033621999999998,0.0324048000000012,0.0067986,0.0040718000000003,0.0031986000000009,-0.0061877999999998,0,sub_12
0.0021363999999998,0.0329556000000012,0.007377,0.0055532000000003,0.0014838000000009,-0.0055339999999998,0,sub_12
0.0013935999999998,0.0333114000000012,0.0078722,0.0057420000000003,-0.001298599999999,-0.0031787999999998,0,sub_12
0.0007013999999998,0.0323830000000012,0.007654,0.0050770000000003,-0.004289199999999,-0.0006157999999998,0,sub_12
0.0004621999999998,0.0314370000000012,0.0069812,0.0044186000000003,-0.006637199999999,0.0010916000000001,0,sub_12
0.0010227999999998,0.0302138000000012,0.006175,0.0033478000000003,-0.007061399999999,0.0015120000000001,0,sub_12
0.0018701999999998,0.0291826000000012,0.0057402,0.0031352000000003,-0.006203199999999,0.0010822000000001,0,sub_12
0.0025349999999998,0.0275672000000012,0.0046572,0.0027236000000003,-0.003846199999999,-0.0010601999999998,0,sub_12
0.0033951999999998,0.0265658000000012,0.004516,0.0018928000000003,-0.000844399999999,-0.0042743999999997,0,sub_12
0.0029547999999998,0.0262884000000012,0.004929,0.0010582000000003,0.0013052000000009,-0.0074873999999998,0,sub_12
0.0024779999999998,0.0263002000000012,0.0046432,0.0006400000000003,0.0021710000000008,-0.0096277999999998,0,sub_12
0.0018749999999998,0.0271494000000012,0.0046312,-0.0014907999999996,0.0017566000000008,-0.0107103999999997,0,sub_12
0.0014869999999998,0.0290072000000012,0.0053218,-0.0029901999999996,0.0006956000000008,-0.0105057999999998,0,sub_12
0.0014119999999997,0.0306096000000012,0.0058818,-0.0032207999999996,-0.0022897999999991,-0.0096489999999998,0,sub_12
0.0023683999999997,0.0312444000000012,0.0060496,-0.0030321999999996,-0.0048527999999991,-0.0083595999999998,0,sub_12
0.0028621999999997,0.0318272000000012,0.00719,-0.0026255999999996,-0.007200199999999,-0.0079235999999998,0,sub_12
0.0032403999999997,0.0318740000000012,0.008037,-0.0009357999999996,-0.008700599999999,-0.0072659999999998,0,sub_12
0.0032557999999997,0.0309766000000012,0.0076272,0.0005416000000003,-0.010199399999999,-0.0068235999999998,0,sub_12
0.0026075999999998,0.0294852000000012,0.007113,0.0009598000000003,-0.009989999999999,-0.0063907999999998,0,sub_12
0.0017049999999998,0.0284928000000012,0.0065146,0.0003206000000003,-0.009138199999999,-0.0057555999999998,0,sub_12
0.0013165999999998,0.0278296000000012,0.0056126,-0.0007499999999996,-0.007864599999999,-0.0036281999999998,0,sub_12
0.0004581999999998,0.0273370000000012,0.0046704,-0.0020361999999996,-0.006379799999999,-0.0017205999999998,0,sub_12
-0.0001562000000001,0.0273372000000012,0.0044084,-0.0037451999999996,-0.004465599999999,-0.0002435999999998,0,sub_12
-0.0005112000000001,0.0279574000000012,0.0048332,-0.0050255999999995,-0.002338999999999,0.0010224000000001,0,sub_12
-0.0002206000000001,0.0289570000000012,0.0057276,-0.0052379999999995,-0.000639599999999,0.0016556000000001,0,sub_12
0.0008617999999998,0.0301816000000012,0.0062192,-0.0050227999999996,0.0002102000000009,0.0012246000000001,0,sub_12
0.0023305999999998,0.0312048000000012,0.0065188,-0.0041587999999996,0.0017020000000009,0.0003742000000001,0,sub_12
0.0038403999999997,0.0314236000000012,0.0075936,-0.0026603999999996,0.0025498000000009,0.0001698000000001,0,sub_12
0.0055645999999997,0.0315900000000012,0.0082724,-0.0003103999999996,0.0036052000000009,0.0006122000000001,0,sub_12
0.0066093999999997,0.0312724000000012,0.0087626,0.0003374000000003,0.0057318000000009,0.0010412000000001,0,sub_12
0.0056995999999997,0.0309434000000012,0.0088972,0.0003502000000003,0.0087050000000009,0.0018826000000001,0,sub_12
0.0040703999999997,0.0303050000000012,0.008875,0.0009918000000003,0.0091194000000009,0.0027316000000001,0,sub_12
0.0022665999999998,0.0302046000000012,0.0082774,0.0020552000000003,0.0082548000000009,0.0033718000000001,0,sub_12
0.0010867999999998,0.0293064000000012,0.0071304,0.0020558000000003,0.0069728000000009,0.0027230000000001,0,sub_12
-0.0001274000000001,0.0290378000000012,0.0061936,0.0020486000000003,0.0041988000000009,0.0022898000000001,0,sub_12
0.0001489999999998,0.0285914000000012,0.0057514,0.0028896000000003,0.0012140000000009,0.0020858000000001,0,sub_12
0.0009427999999998,0.0291366000000012,0.0056174,0.0024580000000003,0.0001502000000009,0.0020842000000001,0,sub_12
0.0012497999999998,0.0289058000000012,0.0055418,0.0016050000000003,0.0010078000000009,0.0016478000000001,0,sub_12
0.0011615999999998,0.0294792000000012,0.0058852,0.0016044000000003,0.0012250000000009,0.0007910000000001,0,sub_12
0.0006759999999998,0.0295520000000012,0.0066124,0.0030964000000003,0.0012238000000009,-5.519999999981963e-05,0,sub_12
0.0008169999999998,0.0294738000000012,0.0069912,0.0041610000000003,0.0007988000000009,-0.0011173999999998,0,sub_12
0.0009465999999998,0.0289442000000012,0.0068328,0.0045816000000003,0.0001604000000009,-0.0015429999999998,0,sub_12
0.0019045999999998,0.0290808000000012,0.007281,0.0045748000000003,-0.000694399999999,-0.0009009999999998,0,sub_12
0.0024801999999998,0.0292244000000012,0.0074636,0.0037088000000003,-0.001551399999999,0.0010168000000001,0,sub_12
0.0033803999999998,0.0289430000000012,0.006824,0.0024200000000003,-0.001978999999999,0.0025038000000001,0,sub_12
0.0027239999999997,0.0287242000000012,0.0062664,0.0013482000000003,-0.002191799999999,0.0033510000000001,0,sub_12
0.0023491999999997,0.0281664000000012,0.0060668,0.0009214000000003,-0.002402399999999,0.0031346000000001,0,sub_12
0.0019475999999997,0.0279294000000012,0.0050488,0.0011396000000003,-0.002610999999999,0.0018544000000001,0,sub_12
0.0016763999999998,0.0283350000000012,0.0046252,0.0015770000000003,-0.001966599999999,0.0001474000000001,0,sub_12
0.0017623999999997,0.0279320000000012,0.0044296,0.0015904000000003,-0.000681599999999,-0.0015631999999998,0,sub_12
0.0023759999999998,0.0278968000000012,0.0051084,0.0011772000000003,0.0010294000000009,-0.0028499999999998,0,sub_12
0.0032765999999998,0.0285950000000012,0.0060134,0.0001340000000003,0.0035986000000008,-0.0045607999999998,0,sub_12
0.0041373999999998,0.0290204000000012,0.0070766,-0.0019769999999996,0.0068072000000008,-0.0054253999999998,0,sub_12
0.0048847999999998,0.0292374000000012,0.0082128,-0.0043015999999996,0.0102290000000008,-0.0060779999999998,0,sub_12
0.0046617999999998,0.0305834000000012,0.0085412,-0.0049285999999996,0.0123630000000008,-0.0058625999999998,0,sub_12
0.0038067999999998,0.0313824000000012,0.0080324,-0.0049241999999996,0.0127896000000008,-0.0054269999999998,0,sub_12
0.0023987999999998,0.0309736000000012,0.0069842,-0.0042937999999996,0.0115056000000009,-0.0045663999999998,0,sub_12
3.659999999982601e-05,0.0302752000000012,0.0053516,-0.0030269999999996,0.0087306000000009,-0.0043401999999998,0,sub_12
-0.0020614000000001,0.0290712000000012,0.0034202,-0.0009071999999996,0.0042624000000009,-0.0043045999999998,0,sub_12
-0.0030234000000001,0.0276336000000012,0.0030544,0.0009952000000003,-0.000632799999999,-0.0038427999999998,0,sub_12
-0.0014618000000001,0.0266634000000012,0.0031564,0.0022604000000003,-0.004462199999999,-0.0029593999999998,0,sub_12
8.839999999980617e-05,0.0269558000000012,0.0032714,0.0026760000000003,-0.006587599999999,-0.0012295999999998,0,sub_12
0.0026565999999998,0.0278780000000012,0.0044078,0.0020276000000003,-0.007221199999999,0.0013454000000001,0,sub_12
0.0041447999999997,0.0290826000000012,0.0053964,0.0009502000000003,-0.006802399999999,0.0041146000000001,0,sub_12
0.0047049999999997,0.0296720000000012,0.006039,-0.0005375999999996,-0.004882199999999,0.0047428000000001,0,sub_12
0.0034027999999998,0.0297684000000012,0.0065204,-0.0009461999999996,-0.001681599999999,0.0038812000000001,0,sub_12
0.0018319999999998,0.0304728000000012,0.0070976,0.0003502000000003,0.0002342000000009,0.0026118000000001,0,sub_12
-7.320000000019394e-05,0.0308582000000012,0.0071218,0.0033440000000003,0.0008624000000009,0.0022104000000001,0,sub_12
-0.0011788000000001,0.0313168000000012,0.0071598,0.0056918000000003,0.0008512000000009,0.0024462000000001,0,sub_12
-0.0009240000000001,0.0310240000000012,0.006904,0.0061154000000003,0.0010554000000009,0.0037364000000001,0,sub_12
-0.0008986000000001,0.0304754000000012,0.0069196,0.0048254000000003,0.0001986000000009,0.0054434000000001,0,sub_12
9.179999999982612e-05,0.0286012000000012,0.0072206,0.0035308000000003,-0.001294999999999,0.0071454000000001,0,sub_12
0.0012097999999998,0.0273406000000012,0.0066852,0.0013942000000004,-0.001926799999999,0.0071312000000001,0,sub_12
0.0024989999999998,0.0260726000000012,0.0067748,-0.0007299999999995,-0.000425599999999,0.0064736000000001,0,sub_12
0.0027301999999998,0.0266114000000012,0.0067332,-0.0013643999999995,0.0006428000000009,0.0062542000000001,0,sub_12
0.0028491999999998,0.0270948000000012,0.006049,-0.0009401999999996,0.0012786000000008,0.0062592000000001,0,sub_12
0.0030333999999998,0.0276870000000012,0.00544,-0.0011485999999996,0.0027720000000008,0.0054040000000001,0,sub_12
0.0028999999999998,0.0276596000000012,0.0060362,-0.0005063999999996,0.0036234000000008,0.0045556000000001,0,sub_12
0.0029865999999998,0.0274436000000012,0.0057236,-8.039999999962288e-05,0.0029876000000008,0.0028530000000001,0,sub_12
0.0032007999999998,0.0277248000000012,0.005955,-0.0002943999999996,0.0023540000000008,0.0011460000000001,0,sub_12
0.0040915999999998,0.0282934000000012,0.0064728,-0.0004981999999996,0.0025754000000009,-0.0007785999999998,0,sub_12
0.0040447999999998,0.0290032000000012,0.0069748,-0.0007009999999996,0.0034344000000009,-0.0022765999999998,0,sub_12
0.0033919999999998,0.0294698000000012,0.006686,-0.0019751999999996,0.0047196000000008,-0.0035655999999998,0,sub_12
0.0024835999999998,0.0298096000000012,0.006634,-0.0023985999999996,0.0059994000000008,-0.0042077999999998,0,sub_12
