userAcceleration.x,userAcceleration.y,userAcceleration.z,rotationRate.x,rotationRate.y,rotationRate.z,label,subject
0.0182001999999997,-0.0093073999999987,0.0124662,-0.0005905999999995,0.0026020000000009,0.0104252,0,sub_13
0.0178873999999997,-0.0092967999999987,0.0109572,-0.0044569999999995,-0.004621199999999,0.0078666,0,sub_13
0.0153277999999997,-0.0095287999999988,0.0105198,-0.0074689999999995,-0.010573399999999,0.0063804,0,sub_13
0.0124405999999997,-0.0085097999999988,0.0119358,-0.0070449999999995,-0.010788599999999,0.0057656,0,sub_13
0.0101157999999997,-0.0079241999999988,0.013264,-0.0029687999999995,-0.005264799999999,0.0053826,0,sub_13
0.0106527999999997,-0.0078041999999987,0.013694,0.0024008000000004,0.0017506000000009,0.0045566,0,sub_13
0.0126333999999997,-0.0073447999999987,0.0138492,0.0073438000000004,0.0083432000000009,0.0033008,0,sub_13
0.0144721999999997,-0.0070079999999987,0.0143248,0.0097176000000004,0.0117542000000009,0.0007494,0,sub_13
0.0167785999999997,-0.0070685999999987,0.013558,0.0090918000000003,0.0115570000000009,-0.0026729999999999,0,sub_13
0.0176787999999997,-0.0061143999999987,0.0126546,0.0058936000000003,0.0077592000000009,-0.0067227999999999,0,sub_13
0.0166407999999997,-0.0059597999999987,0.0118552,0.0016248000000004,0.0035374000000009,-0.0103523999999999,0,sub_13
0.0149683999999997,-0.0062039999999987,0.0117818,-0.0019981999999995,0.0008036000000009,-0.0137655999999999,0,sub_13
0.0137295999999997,-0.0068351999999988,0.0112644,-0.0041255999999995,0.0001884000000009,-0.0154619999999999,0,sub_13
0.0134341999999997,-0.0088641999999987,0.0101498,-0.0054043999999995,-0.000433999999999,-0.0160841999999999,0,sub_13
0.0140879999999997,-0.0111847999999987,0.0091684,-0.0064817999999995,-0.002561599999999,-0.0158753999999999,0,sub_13
0.0146661999999997,-0.0128233999999987,0.009228,-0.0062905999999995,-0.006189399999999,-0.0145873999999999,0,sub_13
0.0145391999999997,-0.0139977999999987,0.0102732,-0.0052493999999995,-0.008759999999999,-0.0115925999999999,0,sub_13
0.0143439999999997,-0.0144361999999987,0.0116102,-0.0033469999999995,-0.009204799999999,-0.0081671999999999,0,sub_13
0.0151687999999997,-0.0148963999999987,0.0125372,-0.0016587999999995,-0.0094373999999989,-0.0043161999999999,0,sub_13
0.0158341999999997,-0.0153265999999987,0.013507,0.0004562000000004,-0.0086107999999989,0.0006046,0,sub_13
0.0154933999999997,-0.0136693999999987,0.0147704,0.0013024000000004,-0.0052229999999989,0.0055132,0,sub_13
0.0163619999999997,-0.0123171999999987,0.0149166,0.0012976000000004,-0.002044199999999,0.0097819999999999,0,sub_13
0.0172027999999997,-0.0112675999999987,0.0137416,-0.0006283999999995,-0.000344999999999,0.0127573999999999,0,sub_13
0.0168073999999997,-0.0093053999999987,0.0140324,-0.0023363999999995,0.0007210000000009,0.0140259999999999,0,sub_13
0.0157965999999997,-0.0073649999999987,0.014206,-0.0044629999999995,0.0007386000000009,0.0136016,0,sub_13
0.0154597999999997,-0.0074471999999987,0.0132712,-0.0057339999999995,-0.000518399999999,0.0114756,0,sub_13
0.0148875999999997,-0.0073251999999987,0.0125032,-0.0065819999999995,-0.003265799999999,0.0087136,0,sub_13
0.0135107999999997,-0.0075769999999987,0.0122394,-0.0057203999999995,-0.005592199999999,0.0057494,0,sub_13
0.0113671999999997,-0.0067833999999987,0.012685,-0.0029383999999995,-0.006864199999999,0.0038654,0,sub_13
0.0110977999999997,-0.0062507999999987,0.013157,-0.0007845999999995,-0.004519599999999,0.001741,0,sub_13
0.0113955999999997,-0.0055189999999987,0.0129896,0.0011492000000004,-0.003241199999999,4.380000000005889e-05,0,sub_13
0.0117367999999997,-0.0055543999999987,0.012245,0.0015854000000004,-0.003021999999999,-0.0018761999999999,0,sub_13
0.0126549999999997,-0.0055379999999987,0.0122986,0.0011558000000004,-0.005144999999999,-0.0033719999999999,0,sub_13
0.0130869999999997,-0.0068887999999987,0.0119092,-0.0009753999999995,-0.005558799999999,-0.0042433999999999,0,sub_13
0.0127749999999997,-0.0080147999999987,0.0127302,-0.0016185999999995,-0.005770799999999,-0.0036089999999999,0,sub_13
0.0129337999999997,-0.0091909999999987,0.0136306,-0.0026847999999995,-0.004280199999999,-0.0021251999999999,0,sub_13
0.0136757999999997,-0.0102897999999988,0.0140854,-0.0018325999999995,-0.003010399999999,-0.0004141999999999,0,sub_13
0.0134911999999997,-0.0104453999999987,0.0147718,0.0005208000000004,-4.1399999999027217e-05,0.0013052,0,sub_13
0.0144801999999997,-0.0103341999999987,0.01492,0.0026642000000004,0.0029304000000009,0.002171,0,sub_13
0.0160611999999997,-0.0104631999999987,0.0135346,0.0035196000000004,0.0033534000000009,0.0021764,0,sub_13
0.0172575999999997,-0.0108809999999987,0.012336,0.0039376000000004,0.0016450000000009,0.0013246,0,sub_13
0.0176111999999997,-0.0107793999999987,0.011962,0.0028630000000004,-5.699999999904705e-05,0.0002488,0,sub_13
0.0177407999999997,-0.0109333999999987,0.0122738,0.0013646000000004,-0.000906399999999,-0.0006173999999999,0,sub_13
0.0180085999999997,-0.0105007999999987,0.0121744,-0.0007749999999995,-0.002178799999999,-0.0017011999999999,0,sub_13
0.0176579999999997,-0.0105903999999988,0.0124626,-0.0027039999999995,-0.004090999999999,-0.0027825999999999,0,sub_13
0.0161257999999997,-0.0103829999999988,0.012729,-0.0029183999999995,-0.004303199999999,-0.0027837999999999,0,sub_13
0.0145029999999997,-0.0102497999999988,0.0140664,-0.0018409999999995,-0.000902399999999,-0.0017123999999999,0,sub_13
0.0143697999999997,-0.0099847999999988,0.0135242,-0.0020513999999995,0.0007986000000009,-0.0006477999999999,0,sub_13
0.0141991999999997,-0.0101857999999988,0.01247,-0.0018475999999995,-5.93999999990472e-05,0.0006366,0,sub_13
0.0134933999999997,-0.0106301999999987,0.0114752,-0.0003603999999995,-0.000706999999999,0.0021656,0,sub_13
0.0117463999999997,-0.0101741999999987,0.0127788,0.0013488000000004,0.0011986000000009,0.004334,0,sub_13
0.0108637999999997,-0.0087957999999988,0.0126356,0.0024198000000004,0.0031082000000009,0.0060706,0,sub_13
0.0114543999999997,-0.0080295999999988,0.012143,0.0045634000000004,0.0054436000000009,0.0069596,0,sub_13
0.0121955999999997,-0.0080899999999987,0.0123334,0.0075634000000003,0.0075664000000009,0.0070002,0,sub_13
0.0141265999999997,-0.0076735999999988,0.011919,0.0069252000000003,0.0065094000000009,0.0055016,0,sub_13
0.0162623999999997,-0.0087523999999987,0.011182,0.0020004000000003,0.0005696000000009,0.0033382,0,sub_13
0.0164209999999997,-0.0104211999999987,0.0112626,-0.0010059999999995,-0.004317599999999,0.0026826,0,sub_13
0.0141031999999997,-0.0111815999999987,0.0128942,-0.0005671999999995,-0.001759799999999,0.0041766,0,sub_13
0.0171575999999997,-0.0129241999999987,0.0102874,-0.0031145999999995,0.0022946000000009,0.0069298,0,sub_13
0.0171369999999997,-0.0138323999999987,0.0077944,0.0011178000000004,-0.003903199999999,0.0101706,0,sub_13
0.0142969999999997,-0.0115769999999988,0.008754,0.0105192000000004,-0.001587999999999,0.0113003999999999,0,sub_13
0.0173833999999997,-0.0119545999999987,0.0109904,0.0122776000000004,0.0099126000000009,0.0130057999999999,0,sub_13
0.0224647999999997,-0.0143173999999987,0.0089896,0.0099304000000004,0.0135282000000009,0.0166168,0,sub_13
0.0215507999999997,-0.0130315999999987,0.0150652,0.0112116000000003,0.0184052000000009,0.0213196,0,sub_13
0.0221017999999997,-0.0109333999999987,0.0214092,0.0053102000000003,0.0390744000000009,0.0257385999999999,0,sub_13
0.0266947999999997,-0.0120977999999987,0.0198104,-0.0021259999999996,0.0497470000000009,0.0310108,0,sub_13
0.0247445999999997,-0.0100071999999987,0.0167842,-0.0010741999999996,0.0457062000000009,0.0320882,0,sub_13
0.0212367999999997,-0.0060745999999987,0.0179128,-0.0023417999999996,0.0429716000000009,0.0282339999999999,0,sub_13
0.0167107999999997,-0.0050773999999987,0.0129304,-0.0070291999999995,0.0372730000000009,0.0226505999999999,0,sub_13
0.0113359999999997,-0.0056167999999987,0.0069996,-0.0098201999999995,0.0270900000000009,0.0179405999999999,0,sub_13
0.0063767999999997,-0.0072483999999987,0.004322,-0.0117595999999995,0.0173184000000009,0.0123847999999999,0,sub_13
0.0038615999999997,-0.0088193999999988,0.0030092,-0.0137059999999995,0.0092386000000009,0.0100315999999999,0,sub_13
0.0026915999999997,-0.0103267999999988,0.0022602,-0.0103271999999995,7.980000000095307e-05,0.0094236,0,sub_13
0.0040985999999997,-0.0117025999999987,0.0031964,-0.0043781999999995,-0.007806199999999,0.0079774,0,sub_13
0.0068839999999997,-0.0121467999999987,0.0053512,0.0045588000000004,-0.015489599999999,0.0065517999999999,0,sub_13
0.0087565999999997,-0.0086459999999987,0.0080438,0.0145798000000004,-0.019341799999999,0.0051287999999999,0,sub_13
0.0128531999999997,-0.0059953999999987,0.0108946,0.0216408000000004,-0.019976799999999,0.0009036,0,sub_13
0.0171371999999997,-0.0048263999999987,0.0135764,0.0216648000000004,-0.019106799999999,-0.0035839999999999,0,sub_13
0.0196261999999997,-0.0041819999999987,0.0163212,0.0178366000000004,-0.019506799999999,-0.0068149999999999,0,sub_13
0.0204635999999997,-0.0042871999999988,0.0189642,0.0112460000000004,-0.017340399999999,-0.0100683999999999,0,sub_13
0.0215077999999997,-0.0068167999999988,0.0207114,0.0025142000000004,-0.013687799999999,-0.0101339999999999,0,sub_13
0.0205895999999997,-0.0083355999999987,0.0204078,-0.0066505999999995,-0.011093799999999,-0.0091349999999999,0,sub_13
0.0168615999999997,-0.0100139999999987,0.018708,-0.0100579999999995,-0.009796399999999,-0.0085213999999999,0,sub_13
0.0141131999999997,-0.0100163999999987,0.018196,-0.0078937999999995,-0.002343399999999,-0.0070221999999999,0,sub_13
0.0158651999999997,-0.0115855999999987,0.0168418,-0.0063657999999995,0.0066008000000009,-0.0048885999999999,0,sub_13
0.0156485999999997,-0.0132827999999987,0.0145662,-0.0054913999999995,0.0134130000000009,-0.0019021999999999,0,sub_13
0.0145071999999997,-0.0147225999999987,0.0124048,-0.0020725999999995,0.0178616000000009,0.0015342,0,sub_13
0.0136851999999997,-0.0133627999999987,0.0097856,0.0019806000000004,0.0180586000000009,0.0019896,0,sub_13
0.0116949999999997,-0.0122127999999987,0.0083244,0.0040886000000004,0.0125152000000009,0.0013572,0,sub_13
0.0083227999999997,-0.0094719999999988,0.0075386,0.0055624000000004,0.0080400000000009,0.0005054,0,sub_13
0.0096555999999997,-0.0073441999999988,0.0083654,0.0061892000000004,0.0018764000000009,-0.0035547999999999,0,sub_13
0.0101869999999997,-0.0074311999999988,0.0093668,0.0040356000000004,-0.005344599999999,-0.0072057999999999,0,sub_13
0.0119455999999997,-0.0092957999999987,0.0115234,-3.739999999957753e-05,-0.008313999999999,-0.0068163999999999,0,sub_13
0.0137265999999997,-0.0101509999999987,0.0117872,-0.0017481999999995,-0.008947999999999,-0.0066137999999999,0,sub_13
0.0159303999999997,-0.0120245999999987,0.0134322,-0.0008975999999995,-0.008953399999999,-0.0059669999999999,0,sub_13
0.0160647999999997,-0.0128719999999987,0.014417,-4.11999999995772e-05,-0.006195199999999,-0.0038281999999999,0,sub_13
0.0162473999999997,-0.0123979999999987,0.0143154,0.0003776000000004,-0.002200199999999,-0.0011011999999999,0,sub_13
0.0161263999999997,-0.0117209999999987,0.0140516,0.0007944000000004,0.0003076000000009,0.0005594,0,sub_13
0.0168593999999997,-0.0120069999999987,0.0139108,-7.07999999995771e-05,0.0026060000000009,0.002425,0,sub_13
0.0161027999999997,-0.0106901999999987,0.01416,-0.0015789999999995,0.0034186000000009,0.0034336,0,sub_13
0.0152331999999997,-0.0094043999999987,0.0135066,-0.0015887999999995,0.0040180000000009,0.003171,0,sub_13
0.0149563999999997,-0.0093693999999987,0.0120212,-0.0011581999999995,0.0031710000000009,0.001466,0,sub_13
0.0132669999999997,-0.0107047999999987,0.0121056,0.0009774000000004,0.0042264000000009,0.0021204,0,sub_13
0.0144197999999997,-0.0090713999999987,0.0121406,0.0020548000000004,0.0065662000000009,0.0021248,0,sub_13
0.0153061999999997,-0.0085285999999987,0.0107588,0.0033282000000004,0.0035850000000009,0.000642,0,sub_13
0.0150055999999997,-0.0088763999999988,0.0105262,0.0026798000000004,0.0007590000000009,-6.599999999998274e-05,0,sub_13
0.0151541999999997,-0.0080195999999988,0.0113146,0.0020392000000004,-0.000574599999999,-0.0009895999999999,0,sub_13
0.0173041999999997,-0.0054815999999988,0.0111076,0.0009776000000004,-0.003387199999999,-0.0046915999999999,0,sub_13
0.0158473999999997,-0.0072435999999988,0.0111536,-0.0009509999999995,-0.007693999999999,-0.0069021999999999,0,sub_13
0.0147231999999997,-0.0082505999999988,0.0123598,-0.0030803999999995,-0.007108399999999,-0.0069841999999999,0,sub_13
0.0148379999999997,-0.0083733999999988,0.0132108,-0.0030773999999995,-0.006256999999999,-0.0067715999999999,0,sub_13
0.0151377999999997,-0.0094481999999987,0.0146226,-0.0017943999999995,-0.004561399999999,-0.0056965999999999,0,sub_13
0.0159141999999997,-0.0112299999999987,0.0144998,-0.0020145999999995,-0.000744199999999,-0.0038155999999999,0,sub_13
0.0171749999999997,-0.0116531999999987,0.0142654,-0.0013851999999995,0.0009444000000009,-0.0032077999999999,0,sub_13
0.0166531999999997,-0.0121533999999987,0.0127018,9.380000000040276e-05,0.0015656000000009,-0.0028061999999999,0,sub_13
0.0161041999999997,-0.0121263999999987,0.0113654,0.0009298000000004,0.0011256000000009,-0.0028351999999999,0,sub_13
0.0160971999999997,-0.0109115999999988,0.0105336,0.0015554000000004,0.0009012000000009,-0.0032931999999999,0,sub_13
0.0143601999999997,-0.0099255999999988,0.0112,0.0034776000000004,0.0004718000000009,-0.0041337999999999,0,sub_13
0.0130105999999997,-0.0090307999999988,0.011492,0.0064840000000004,0.0040858000000009,-0.0047583999999999,0,sub_13
0.0135741999999997,-0.0088031999999987,0.011975,0.0084294000000003,0.0089820000000009,-0.0053921999999999,0,sub_13
0.0152733999999997,-0.0080459999999987,0.0127762,0.0090792000000003,0.0119444000000009,-0.0062635999999999,0,sub_13
0.0147245999999997,-0.0075663999999987,0.0123442,0.0088678000000004,0.0115076000000009,-0.0088457999999999,0,sub_13
0.0144057999999997,-0.0068519999999987,0.0110984,0.0067284000000004,0.0087366000000009,-0.0120793999999999,0,sub_13
0.0138183999999997,-0.0062501999999987,0.0101552,0.0028628000000004,0.0021350000000009,-0.0148927999999999,0,sub_13
0.0127237999999997,-0.0056993999999987,0.0095706,-0.0007981999999995,-0.006809399999999,-0.0181289999999999,0,sub_13
0.0110331999999997,-0.0063139999999987,0.008693,-0.0031693999999995,-0.015098199999999,-0.0211259999999999,0,sub_13
0.0109233999999997,-0.0077663999999987,0.0090206,-0.0042553999999995,-0.020204199999999,-0.0219815999999999,0,sub_13
0.0121065999999997,-0.0094191999999987,0.0101054,-0.0042745999999995,-0.023616399999999,-0.0211227999999999,0,sub_13
0.0129671999999997,-0.0098769999999987,0.0116966,-0.0038603999999995,-0.025326599999999,-0.0200493999999999,0,sub_13
0.0133921999999997,-0.0098723999999987,0.0130468,-0.0027977999999995,-0.024485999999999,-0.0196199999999999,0,sub_13
0.0155121999999997,-0.0110855999999988,0.0153104,-0.0042783999999995,-0.017467399999999,-0.0168661999999999,0,sub_13
0.0177909999999997,-0.0114489999999987,0.0158606,-0.0055687999999995,-0.014926199999999,-0.0134645999999999,0,sub_13
0.0175309999999997,-0.0106723999999987,0.0151614,-0.0045205999999995,-0.015583799999999,-0.0113241999999999,0,sub_13
0.0171903999999997,-0.0108857999999987,0.0156332,-0.0034665999999995,-0.014962999999999,-0.0091855999999999,0,sub_13
0.0179125999999997,-0.0109743999999987,0.0156974,-0.0019845999999995,-0.014766199999999,-0.0063981999999999,0,sub_13
0.0166285999999997,-0.0096547999999987,0.0151098,0.0027028000000004,-0.015849599999999,-0.0059367999999999,0,sub_13
0.0155499999999997,-0.0097315999999988,0.015847,0.0050816000000004,-0.009251399999999,-0.0063557999999999,0,sub_13
0.0156493999999997,-0.0103813999999988,0.0158478,0.0044704000000004,-0.000102999999999,-0.0048797999999999,0,sub_13
0.0158527999999997,-0.0102069999999988,0.0140228,0.0046992000000004,0.0058476000000009,-0.0036075999999999,0,sub_13
0.0143115999999997,-0.0092597999999987,0.0128566,0.0044956000000004,0.0094604000000009,-0.0034035999999999,0,sub_13
0.0129225999999997,-0.0087981999999987,0.0113472,0.0032080000000004,0.0090298000000009,-0.0034155999999999,0,sub_13
0.0119203999999997,-0.0079417999999987,0.0099514,0.0016848000000004,0.0043362000000009,-0.0027829999999999,0,sub_13
0.0123175999999997,-0.0079105999999987,0.0102198,-0.0002565999999995,-0.000768599999999,-0.0032173999999999,0,sub_13
0.0128577999999997,-0.0088299999999987,0.0105754,-0.0024045999999995,-0.003956999999999,-0.0032281999999999,0,sub_13
0.0138071999999997,-0.0100697999999988,0.0107684,-0.0030551999999995,-0.005237399999999,-0.0021627999999999,0,sub_13
0.0145593999999997,-0.0105651999999988,0.0113426,-0.0026369999999995,-0.005668399999999,-0.0010831999999999,0,sub_13
0.0141771999999997,-0.0104627999999988,0.0115496,-0.0005021999999995,-0.005035799999999,-0.0010609999999999,0,sub_13
0.0134003999999997,-0.0095307999999988,0.011664,0.0024918000000004,-0.003127999999999,-0.0010343999999999,0,sub_13
0.0140683999999997,-0.0083119999999988,0.011699,0.0039922000000004,-0.001426999999999,-0.0012317999999999,0,sub_13
0.0147577999999997,-0.0079195999999988,0.0119588,0.0031398000000004,-0.000996199999999,-0.0014439999999999,0,sub_13
0.0146531999999997,-0.0076519999999988,0.0112302,0.0014280000000004,-0.001843199999999,-0.0012411999999999,0,sub_13
0.0148445999999997,-0.0075779999999988,0.0115464,-0.0007103999999995,-0.002264399999999,-0.0006145999999999,0,sub_13
0.0148561999999997,-0.0086493999999988,0.0119234,-0.0028545999999995,-0.003114999999999,0.000867,0,sub_13
0.0136229999999997,-0.0090047999999988,0.0125076,-0.0028671999999995,-0.002489599999999,0.0019538,0,sub_13
0.0138893999999997,-0.0096179999999988,0.0123438,-0.0026617999999995,-0.000587399999999,0.0032542,0,sub_13
0.0146485999999997,-0.0107043999999988,0.0125596,-0.0016065999999995,0.0006716000000009,0.004775,0,sub_13
0.0144937999999997,-0.0111299999999987,0.0120496,0.0003030000000004,0.0021408000000009,0.0063014,0,sub_13
0.0152089999999997,-0.0104341999999987,0.0118662,0.0017992000000004,0.0053210000000009,0.0065408,0,sub_13
0.0163073999999997,-0.0106783999999987,0.010726,0.0013676000000004,0.0048938000000009,0.0071794,0,sub_13
0.0156725999999997,-0.0101613999999987,0.0106956,0.0017830000000004,0.0029722000000009,0.0078256,0,sub_13
0.0151683999999997,-0.0091439999999987,0.010697,0.0007108000000004,0.0021484000000009,0.0074436,0,sub_13
0.0157933999999997,-0.0092235999999987,0.0112788,-0.0010015999999995,0.0013268000000009,0.0070572,0,sub_13
0.0152365999999997,-0.0091891999999987,0.0111496,-0.0025071999999995,-0.000774799999999,0.0068874,0,sub_13
0.0147135999999997,-0.0086527999999987,0.0119492,-0.0027229999999995,-0.001174799999999,0.0062972,0,sub_13
0.0147683999999997,-0.0084443999999987,0.011637,-0.0031465999999995,-0.000932199999999,0.0050638,0,sub_13
0.0146295999999997,-0.0091483999999987,0.0117326,-0.0020729999999995,-0.000293399999999,0.0042158,0,sub_13
0.0142919999999997,-0.0093421999999987,0.0111856,-0.0010003999999995,0.0003446000000009,0.0035813999999999,0,sub_13
0.0138755999999997,-0.0092497999999987,0.0115598,-0.0001449999999995,0.0009800000000009,0.0038002,0,sub_13
0.0133973999999997,-0.0089929999999987,0.0113334,-0.0003597999999995,0.0018694000000009,0.0044918,0,sub_13
0.0131873999999997,-0.0086265999999988,0.0113134,-0.0003601999999995,0.0029710000000009,0.0051847999999999,0,sub_13
0.0130285999999997,-0.0081699999999988,0.010955,-0.0007873999999995,0.0040740000000009,0.0058747999999999,0,sub_13
0.0137499999999997,-0.0077735999999988,0.0112878,-0.0010059999999995,0.0041110000000009,0.0065676,0,sub_13
0.0150653999999997,-0.0080963999999988,0.0111206,-0.0012245999999995,0.0032992000000009,0.006407,0,sub_13
0.0158011999999997,-0.0083653999999988,0.0109244,-0.0005863999999995,0.0022342000000009,0.005772,0,sub_13
0.0158093999999997,-0.0084303999999988,0.0113676,0.0004824000000004,0.0022322000000009,0.0053522,0,sub_13
0.0160131999999997,-0.0076329999999988,0.0122434,0.0015550000000004,0.0026580000000009,0.0045046,0,sub_13
0.0152863999999997,-0.0073269999999988,0.0119586,0.0019914000000004,0.0035138000000009,0.0032248,0,sub_13
0.0147769999999997,-0.0068901999999988,0.0115468,0.0017796000000004,0.0041820000000009,0.002837,0,sub_13
0.0143973999999997,-0.0073069999999988,0.0116526,0.0017792000000004,0.0046354000000009,0.0026646,0,sub_13
0.0140039999999997,-0.0078499999999988,0.0112566,0.0007082000000004,0.0044526000000009,0.0026992,0,sub_13
0.0138965999999997,-0.0089391999999988,0.0105186,-0.0012229999999995,0.0034180000000009,0.0033698,0,sub_13
0.0138509999999997,-0.0094385999999988,0.0105832,-0.0020911999999995,0.0021640000000009,0.004689,0,sub_13
0.0131605999999997,-0.0098673999999988,0.0114714,-0.0014511999999995,0.0027982000000009,0.0053336,0,sub_13
0.0139523999999997,-0.0099161999999988,0.0112438,-0.0008109999999995,0.0036448000000009,0.0061916,0,sub_13
0.0140893999999997,-0.0091013999999988,0.0108562,0.0004662000000004,0.0021762000000009,0.0049476,0,sub_13
0.0144123999999997,-0.0091705999999987,0.011555,0.0011080000000004,0.0024118000000009,0.004338,0,sub_13
0.0142865999999997,-0.0086353999999987,0.011436,0.0015346000000004,0.0020100000000009,0.003514,0,sub_13
0.0140951999999997,-0.0086077999999987,0.0104324,0.0019546000000004,0.0005412000000009,0.0031186,0,sub_13
0.0127167999999997,-0.0087501999999987,0.010973,0.0017382000000004,-7.319999999904736e-05,0.0027176,0,sub_13
0.0133123999999997,-0.0093951999999987,0.0119602,0.0013116000000004,0.0018380000000009,0.004635,0,sub_13
0.0137737999999997,-0.0090077999999988,0.0117106,0.0015242000000004,0.0022608000000009,0.0052768,0,sub_13
0.0144589999999997,-0.0091483999999988,0.0121782,0.0013138000000004,0.0029006000000009,0.0052744,0,sub_13
0.0149845999999997,-0.0088749999999988,0.0127524,0.0015396000000004,0.0050328000000009,0.0046322,0,sub_13
0.0160183999999997,-0.0084839999999987,0.012359,0.0007018000000004,0.0076068000000009,0.0035584,0,sub_13
0.0165635999999997,-0.0090731999999987,0.0112836,6.580000000042262e-05,0.0067748000000009,0.0016358,0,sub_13
0.0156553999999997,-0.0092165999999987,0.0104488,-0.0003673999999995,0.0042350000000009,0.0003578,0,sub_13
0.0150321999999997,-0.0086699999999987,0.0102702,-0.0007987999999995,0.0027580000000009,-0.0002805999999999,0,sub_13
0.0146109999999997,-0.0084913999999987,0.0105462,-0.0020863999999995,0.0008570000000009,-0.0007107999999999,0,sub_13
0.0140509999999997,-0.0091971999999987,0.0107312,-0.0023121999999995,-0.001911799999999,-0.0007087999999999,0,sub_13
0.0147035999999997,-0.0097461999999987,0.010569,-0.0029619999999995,-0.003615599999999,-0.0002839999999999,0,sub_13
