userAcceleration.x,userAcceleration.y,userAcceleration.z,rotationRate.x,rotationRate.y,rotationRate.z,label,subject
0.0248501999999998,-0.0544227999999987,0.0402476,0.0230088000000004,0.0467438000000008,-0.0115453999999999,0,sub_19
0.0262305999999998,-0.0536847999999987,0.0394202,0.0214850000000004,0.0416074000000008,-0.0120979999999999,0,sub_19
0.0268317999999998,-0.0534811999999987,0.0383498,0.0143800000000004,0.0266994000000008,-0.0150269999999999,0,sub_19
0.0268825999999998,-0.0535825999999987,0.0374542,0.0046886000000004,0.0056236000000009,-0.0183935999999999,0,sub_19
0.0253817999999998,-0.0537683999999987,0.0372776,-0.0039465999999995,-0.015040999999999,-0.0189757999999999,0,sub_19
0.0231189999999998,-0.0542197999999987,0.037783,-0.0093643999999995,-0.030586999999999,-0.0160027999999999,0,sub_19
0.0203105999999998,-0.0554223999999987,0.0390052,-0.0113433999999995,-0.037210399999999,-0.0095987999999999,0,sub_19
0.0184983999999998,-0.0562867999999987,0.0404264,-0.0103043999999995,-0.034267999999999,-0.0004085999999999,0,sub_19
0.0188251999999998,-0.0574069999999987,0.0416022,-0.0107331999999995,-0.025143599999999,0.0091908,0,sub_19
0.0194755999999998,-0.0580251999999987,0.0424758,-0.0181979999999995,-0.016421999999999,0.0173092,0,sub_19
0.0213303999999998,-0.0580987999999987,0.0431324,-0.0290787999999995,-0.010024399999999,0.0234842,0,sub_19
0.0236707999999998,-0.0579359999999987,0.0428718,-0.0374017999999995,-0.005972599999999,0.0279708,0,sub_19
0.0274993999999998,-0.0546977999999987,0.0413878,-0.0452971999999995,-0.005104399999999,0.0290462,0,sub_19
0.0294313999999998,-0.0513795999999987,0.0396952,-0.0555521999999995,-0.010604999999999,0.0264812,0,sub_19
0.0323161999999997,-0.0492977999999987,0.037967,-0.0656083999999995,-0.023326799999999,0.0198044,0,sub_19
0.0344605999999997,-0.0489505999999987,0.037301,-0.0739729999999995,-0.042434199999999,0.0101564,0,sub_19
0.0361641999999997,-0.0494881999999987,0.0382758,-0.0780693999999995,-0.063465199999999,-0.0015957999999999,0,sub_19
0.0356053999999997,-0.0529059999999987,0.0410784,-0.0743747999999994,-0.081253799999999,-0.0118361999999999,0,sub_19
0.0352171999999997,-0.0559415999999987,0.0443012,-0.0631967999999995,-0.092688799999999,-0.0190413999999999,0,sub_19
0.0336567999999997,-0.0578993999999987,0.04822,-0.0485723999999995,-0.093708999999999,-0.0230311999999999,0,sub_19
0.0323157999999998,-0.0572841999999987,0.0501728,-0.0362517999999995,-0.0827993999999991,-0.0247021999999999,0,sub_19
0.0313239999999998,-0.0556441999999987,0.0504802,-0.0303169999999995,-0.066548799999999,-0.0245017999999999,0,sub_19
0.0314977999999998,-0.0547011999999987,0.0497078,-0.0313263999999995,-0.0522765999999991,-0.0230315999999999,0,sub_19
0.0311757999999997,-0.0548675999999987,0.0477952,-0.0364099999999995,-0.042464399999999,-0.0215841999999999,0,sub_19
0.0310875999999997,-0.0561317999999987,0.0455054,-0.0390959999999995,-0.037088599999999,-0.0197503999999999,0,sub_19
0.0309919999999997,-0.0585121999999987,0.0436548,-0.0368945999999995,-0.035143199999999,-0.0168099999999999,0,sub_19
0.0310049999999997,-0.0591693999999986,0.0430854,-0.0314983999999994,-0.033001999999999,-0.0123519999999999,0,sub_19
0.0301145999999997,-0.0586903999999987,0.0432776,-0.0243845999999995,-0.029371799999999,-0.0087383999999999,0,sub_19
0.0293523999999997,-0.0570417999999987,0.0442366,-0.0172679999999995,-0.025314599999999,-0.0053389999999999,0,sub_19
0.0280997999999998,-0.0557003999999987,0.0453172,-0.0127795999999995,-0.021503999999999,-0.0031761999999999,0,sub_19
0.0273601999999998,-0.0551073999999987,0.0462992,-0.0084987999999995,-0.017050799999999,-0.0016563999999999,0,sub_19
0.0262235999999998,-0.0561495999999987,0.0462246,5.7200000000443006e-05,-0.010271399999999,0.0005312,0,sub_19
0.0255019999999998,-0.0574919999999987,0.0467598,0.0139624000000004,0.0017722000000009,0.0044428,0,sub_19
0.0246659999999998,-0.0600919999999987,0.047771,0.0308752000000004,0.0193404000000009,0.0094366,0,sub_19
0.0248269999999997,-0.0623211999999987,0.0488628,0.0492900000000004,0.0400942000000009,0.0157186,0,sub_19
0.0240351999999997,-0.0625665999999987,0.0487918,0.0668466000000004,0.0597856000000008,0.021996,0,sub_19
0.0235539999999997,-0.0616079999999987,0.0485754,0.0818370000000004,0.0771466000000008,0.0271902,0,sub_19
0.0234749999999997,-0.0608567999999987,0.046962,0.0936118000000004,0.0898724000000008,0.0313154,0,sub_19
0.0239245999999997,-0.0592857999999987,0.0455302,0.1032384000000004,0.0983490000000008,0.0343628,0,sub_19
0.0246577999999998,-0.0577911999999987,0.0441422,0.1098598000000004,0.1010904000000008,0.0356876,0,sub_19
0.0258245999999998,-0.0573885999999987,0.0440406,0.1136996000000004,0.1008640000000008,0.0357146,0,sub_19
0.0274203999999998,-0.0570283999999987,0.0440702,0.1151864000000004,0.0980942000000008,0.0344466,0,sub_19
0.0284903999999998,-0.0564689999999987,0.0450324,0.1158154000000004,0.0944744000000008,0.0329618,0,sub_19
0.0300283999999998,-0.0561167999999987,0.0457886,0.1160178000000004,0.0904314000000008,0.0310474,0,sub_19
0.0313023999999998,-0.0550201999999987,0.0465736,0.1160256000000004,0.0874604000000008,0.0297664,0,sub_19
0.0326823999999998,-0.0539695999999987,0.0473802,0.1153962000000004,0.0855552000000009,0.028907,0,sub_19
0.0335591999999997,-0.0534853999999987,0.04807,0.1149852000000004,0.0851390000000009,0.0284746,0,sub_19
0.0343247999999997,-0.0530037999999987,0.0478828,0.1126610000000004,0.0860096000000009,0.0280254,0,sub_19
0.0350967999999997,-0.0526053999999987,0.0476314,0.1079866000000004,0.0858250000000009,0.0271338,0,sub_19
0.0354221999999997,-0.0528543999999987,0.047412,0.1011578000000004,0.0845748000000009,0.0260196,0,sub_19
0.0346101999999997,-0.0534845999999987,0.0459574,0.0915330000000004,0.0782220000000009,0.0246788,0,sub_19
0.0314915999999997,-0.0550769999999987,0.044883,0.0795438000000004,0.0699520000000008,0.0252466,0,sub_19
0.0275115999999997,-0.0575559999999987,0.0447112,0.0688396000000004,0.0655014000000008,0.0285958,0,sub_19
0.0231323999999997,-0.0575993999999987,0.0451132,0.0642868000000004,0.0662904000000008,0.0345476,0,sub_19
0.0196727999999997,-0.0546737999999987,0.0439364,0.0597434000000004,0.0700590000000009,0.0413502,0,sub_19
0.0172703999999997,-0.0492345999999987,0.0431338,0.0513978000000004,0.0813020000000009,0.0470484,0,sub_19
0.0201949999999997,-0.0453587999999987,0.0414386,0.0415718000000004,0.0898036000000009,0.0469714,0,sub_19
0.0264803999999997,-0.0431711999999987,0.0406042,0.0304504000000004,0.0834420000000009,0.0353678,0,sub_19
0.0335677999999997,-0.0439861999999987,0.0403156,0.0138024000000004,0.0603660000000009,0.0130622,0,sub_19
0.0397577999999997,-0.0461831999999987,0.041696,-0.0026521999999995,0.0270856000000009,-0.0149973999999999,0,sub_19
0.0455115999999997,-0.0491593999999987,0.0430902,-0.0142775999999995,-0.013062799999999,-0.0432007999999999,0,sub_19
0.0484395999999998,-0.0501939999999987,0.0444138,-0.0246455999999995,-0.053872599999999,-0.0669079999999999,0,sub_19
0.0483999999999998,-0.0511557999999987,0.0458714,-0.0346061999999995,-0.088547199999999,-0.0801517999999999,0,sub_19
0.0455179999999998,-0.0538907999999987,0.0499344,-0.0415745999999995,-0.1104957999999991,-0.0816405999999999,0,sub_19
0.0404779999999998,-0.0583327999999987,0.055348,-0.0416843999999995,-0.116525999999999,-0.0739151999999999,0,sub_19
0.0349001999999997,-0.0640307999999987,0.06156,-0.0323199999999995,-0.1072431999999991,-0.0591201999999999,0,sub_19
0.0267511999999997,-0.0682239999999987,0.0653138,-0.0154529999999995,-0.0850117999999991,-0.0389483999999999,0,sub_19
0.0188563999999997,-0.0689387999999987,0.0655088,-0.0015213999999995,-0.048081999999999,-0.0156111999999999,0,sub_19
0.0141515999999997,-0.0657661999999987,0.057567,0.0032772000000004,-0.000472599999999,0.0089304,0,sub_19
0.0140471999999997,-0.0609521999999987,0.047667,0.0050896000000004,0.0448140000000009,0.0308904,0,sub_19
0.0154605999999998,-0.0562507999999987,0.0379094,0.0040842000000004,0.0730948000000009,0.0455886,0,sub_19
0.0185447999999998,-0.0525615999999987,0.0316234,-0.0027303999999995,0.0799212000000009,0.049378,0,sub_19
0.0211229999999998,-0.0483021999999987,0.0275412,-0.0127991999999995,0.0644298000000009,0.0427046,0,sub_19
0.0218673999999998,-0.0450433999999987,0.026698,-0.0229139999999995,0.0306482000000009,0.0279358,0,sub_19
0.0197153999999998,-0.0425517999999987,0.0267844,-0.0415991999999995,-0.015230599999999,0.0088498,0,sub_19
0.0178629999999998,-0.0406097999999987,0.0280916,-0.0700995999999995,-0.060226199999999,-0.0094513999999999,0,sub_19
0.0178011999999998,-0.0403475999999987,0.0305334,-0.1011439999999995,-0.096710399999999,-0.0228675999999999,0,sub_19
0.0201677999999998,-0.0434529999999987,0.0349592,-0.1234171999999995,-0.1230189999999991,-0.0311079999999999,0,sub_19
0.0237417999999997,-0.0489787999999987,0.042317,-0.1324295999999995,-0.1387355999999991,-0.0356373999999999,0,sub_19
0.0275823999999997,-0.0560051999999987,0.0501186,-0.1273153999999995,-0.1413057999999991,-0.0366665999999999,0,sub_19
0.0311749999999997,-0.0633727999999987,0.0579254,-0.1063635999999995,-0.1298833999999991,-0.0341847999999999,0,sub_19
0.0339587999999997,-0.0688919999999987,0.0647208,-0.0721241999999995,-0.1029645999999991,-0.0290661999999999,0,sub_19
0.0354291999999997,-0.0720099999999987,0.0686882,-0.0335713999999995,-0.064348799999999,-0.0224369999999999,0,sub_19
0.0375893999999997,-0.0718391999999987,0.0685866,0.0015818000000004,-0.021464199999999,-0.0147687999999999,0,sub_19
0.0417765999999997,-0.0698209999999987,0.0674374,0.0326762000000004,0.0207936000000009,-0.0067009999999999,0,sub_19
0.0469017999999997,-0.0668219999999987,0.0654894,0.0579932000000004,0.0562668000000009,-0.0018693999999999,0,sub_19
0.0525115999999997,-0.0637931999999987,0.0634174000000001,0.0758018000000004,0.0775128000000009,-0.0024131999999999,0,sub_19
0.0559507999999997,-0.0618811999999987,0.0605176,0.0826690000000004,0.0809192000000009,-0.0077107999999999,0,sub_19
0.0570815999999998,-0.0609497999999987,0.0589278,0.0794474000000004,0.0690284000000009,-0.0149819999999999,0,sub_19
0.0499147999999997,-0.0591985999999987,0.0522622,0.0655178000000004,0.0480154000000009,-0.0227435999999999,0,sub_19
0.0386947999999997,-0.0567147999999987,0.0432704,0.0404612000000004,0.0242544000000009,-0.0263065999999999,0,sub_19
0.0265263999999997,-0.0543109999999987,0.0339164,0.0062028000000004,0.0007136000000009,-0.0237383999999999,0,sub_19
0.0143229999999997,-0.0494743999999987,0.0269298,-0.0227145999999995,-0.014563999999999,-0.0143067999999999,0,sub_19
0.0040827999999997,-0.0451573999999987,0.024198,-0.0372983999999995,-0.016676399999999,0.000535,0,sub_19
0.0003311999999997,-0.0425019999999987,0.0264644,-0.0377727999999995,-0.011174799999999,0.0171746,0,sub_19
0.0025045999999997,-0.0419017999999987,0.0319018,-0.0307473999999995,-0.002700399999999,0.0298036,0,sub_19
0.0085517999999998,-0.0437135999999987,0.0381436,-0.0234693999999995,0.0068694000000009,0.0347418,0,sub_19
0.0165301999999998,-0.0474885999999987,0.0435726,-0.0202281999999995,0.0113758000000009,0.0306852,0,sub_19
0.0240071999999998,-0.0524357999999987,0.0468254,-0.0206213999999995,0.0077998000000008,0.0195774,0,sub_19
0.0313437999999998,-0.0567569999999987,0.050337,-0.0250753999999995,-0.0012853999999991,0.0043892,0,sub_19
0.0352079999999998,-0.0596629999999987,0.0525046,-0.0318889999999995,-0.013980799999999,-0.0116653999999999,0,sub_19
0.0344149999999998,-0.0605521999999987,0.0528932,-0.0331701999999995,-0.026072799999999,-0.0236229999999999,0,sub_19
0.0336573999999997,-0.0613283999999987,0.0534392,-0.0293419999999995,-0.033312199999999,-0.0280735999999999,0,sub_19
0.0318089999999997,-0.0613303999999987,0.0532932,-0.0235895999999995,-0.033764399999999,-0.0265371999999999,0,sub_19
0.0294749999999997,-0.0620495999999987,0.0523306,-0.0163337999999995,-0.026998399999999,-0.0198721999999999,0,sub_19
0.0269677999999997,-0.0619741999999987,0.0501948,-0.0048069999999995,-0.014514599999999,-0.0082709999999999,0,sub_19
0.0256493999999997,-0.0614021999999987,0.0486736,0.0073668000000004,0.0015804000000009,0.0054666,0,sub_19
0.0262067999999998,-0.0607635999999987,0.047604,0.0174108000000004,0.0174740000000008,0.0181214,0,sub_19
0.0292287999999998,-0.0595655999999987,0.0467896,0.0253306000000004,0.0318982000000008,0.0271312,0,sub_19
0.0355211999999997,-0.0596871999999987,0.0493848,0.0330416000000004,0.0425078000000008,0.0312308,0,sub_19
0.0427325999999997,-0.0608151999999987,0.0536802,0.0405614000000004,0.0493220000000008,0.028286,0,sub_19
0.0462813999999997,-0.0593901999999987,0.0627522,0.0493814000000004,0.0533910000000008,0.0180898,0,sub_19
0.0468123999999997,-0.0518283999999987,0.0714732,0.0529448000000004,0.0556380000000008,-0.0113687999999999,0,sub_19
0.0532239999999997,-0.0680963999999987,0.0638704,0.0386478000000004,0.0361684000000009,-0.0291737999999999,0,sub_19
0.0423293999999997,-0.0788595999999987,0.0478342,0.0674296000000004,-0.012521599999999,-0.0231395999999999,0,sub_19
0.0324643999999997,-0.0666339999999987,0.0468662,0.1064738000000004,-0.009265399999999,-0.0188117999999999,0,sub_19
0.0272279999999997,-0.0547313999999987,0.0480924,0.0784322000000004,0.0119508000000009,-0.0254439999999999,0,sub_19
0.0238909999999997,-0.0618345999999987,0.03249,0.0239684000000004,0.0131542000000009,-0.0127935999999999,0,sub_19
0.0100865999999997,-0.0491669999999987,0.0271554,0.0248672000000004,0.0327460000000009,0.0034606,0,sub_19
0.0132497999999997,-0.0370341999999987,0.033767,0.0011826000000004,0.0803718000000009,0.0101068,0,sub_19
0.0171679999999997,-0.0415015999999987,0.029346,-0.0442951999999995,0.0769290000000009,0.0194436,0,sub_19
0.0194809999999997,-0.0489959999999987,0.0200698,-0.0346349999999995,0.0502638000000008,0.0341092,0,sub_19
0.0207497999999997,-0.0495821999999987,0.0346284,-0.0091401999999995,0.0297372000000008,0.045032,0,sub_19
0.0302401999999997,-0.0488867999999987,0.051672,-0.0378509999999995,0.0015088000000008,0.0429448,0,sub_19
0.0389069999999997,-0.0520043999999987,0.0599864,-0.0724681999999995,-0.0281235999999991,0.024154,0,sub_19
0.0415905999999997,-0.0594141999999987,0.063571,-0.0711925999999995,-0.0531639999999991,-0.0016199999999999,0,sub_19
0.0394097999999998,-0.0671375999999987,0.0643332,-0.0506589999999995,-0.059973599999999,-0.0210873999999999,0,sub_19
0.0364637999999998,-0.0710367999999987,0.0552332,-0.0183467999999995,-0.0478999999999991,-0.0310961999999999,0,sub_19
0.0285683999999998,-0.0723939999999987,0.0485544,0.0267448000000004,-0.0346183999999991,-0.0346079999999999,0,sub_19
0.0206029999999998,-0.0720149999999987,0.04803,0.0515382000000004,-0.0212907999999991,-0.0320659999999999,0,sub_19
0.0178049999999997,-0.0717981999999987,0.050192,0.0370546000000004,-0.0053019999999991,-0.0219327999999999,0,sub_19
0.0223281999999997,-0.0692353999999987,0.0506344,0.0060830000000004,0.0013554000000008,-0.0082707999999999,0,sub_19
0.0282301999999997,-0.0646127999999987,0.0510692,-0.0144475999999995,-0.0026465999999991,-0.0019997999999999,0,sub_19
0.0332537999999997,-0.0600549999999987,0.0511958,-0.0270441999999995,-0.0066413999999991,-0.0044325999999999,0,sub_19
0.0366803999999997,-0.0556755999999987,0.0490272,-0.0365897999999995,-0.0095519999999991,-0.0083191999999999,0,sub_19
0.0396599999999997,-0.0526935999999987,0.0439362,-0.0380683999999995,-0.017408199999999,-0.0078701999999999,0,sub_19
0.0403907999999997,-0.0511049999999987,0.041648,-0.0327507999999995,-0.028074999999999,-0.0030971999999999,0,sub_19
0.0395135999999998,-0.0513921999999987,0.0434704,-0.0329713999999995,-0.034469799999999,0.003768,0,sub_19
0.0382531999999998,-0.0513865999999987,0.0469926,-0.0404301999999995,-0.037005199999999,0.0107912,0,sub_19
0.0370317999999998,-0.0524831999999987,0.0488058,-0.0492079999999995,-0.038486399999999,0.0158592,0,sub_19
0.0350253999999998,-0.0543495999999987,0.0508166,-0.0539145999999995,-0.039754399999999,0.0173234,0,sub_19
0.0339405999999998,-0.0566039999999987,0.0526682,-0.0568859999999995,-0.039112999999999,0.0143114,0,sub_19
0.0340317999999998,-0.0569983999999987,0.0529202,-0.0602629999999995,-0.037814999999999,0.0072366,0,sub_19
0.0342035999999998,-0.0587285999999987,0.0508514,-0.0617071999999995,-0.035875799999999,-0.0019619999999999,0,sub_19
0.0344165999999998,-0.0609327999999987,0.0490504,-0.0582593999999995,-0.037150399999999,-0.0109085999999999,0,sub_19
0.0340799999999997,-0.0625259999999987,0.047053,-0.0529101999999995,-0.042268399999999,-0.0194097999999999,0,sub_19
0.0330871999999997,-0.0636817999999987,0.0467708,-0.0488549999999995,-0.049496599999999,-0.0268497999999999,0,sub_19
0.0320505999999997,-0.0651539999999987,0.0473656,-0.0435225999999995,-0.054185199999999,-0.0310793999999999,0,sub_19
0.0314827999999997,-0.0651237999999987,0.0489966,-0.0375491999999995,-0.054843599999999,-0.0314639999999999,0,sub_19
0.0302413999999997,-0.0644119999999987,0.0512336,-0.0329453999999995,-0.051957799999999,-0.0294967999999999,0,sub_19
0.0297319999999998,-0.0641011999999987,0.0530252,-0.0289751999999995,-0.045880599999999,-0.0258287999999999,0,sub_19
0.0290163999999997,-0.0640563999999987,0.053279,-0.0222185999999995,-0.035982399999999,-0.0210779999999999,0,sub_19
0.0286537999999997,-0.0641811999999987,0.0522748,-0.0135319999999995,-0.023323799999999,-0.0156763999999999,0,sub_19
0.0283811999999997,-0.0643247999999987,0.0522964,-0.0044139999999995,-0.010025799999999,-0.0106999999999999,0,sub_19
0.0287119999999997,-0.0649101999999987,0.051429,0.0054414000000004,0.0046176000000009,-0.0048813999999999,0,sub_19
0.0295059999999997,-0.0645821999999987,0.0510748,0.0146558000000004,0.0192624000000009,0.0011462,0,sub_19
0.0309729999999998,-0.0634425999999987,0.0502834,0.0204436000000004,0.0305126000000009,0.0065134,0,sub_19
0.0323193999999998,-0.0617177999999987,0.0506108,0.0221630000000004,0.0364592000000009,0.0097224,0,sub_19
0.0340533999999998,-0.0601575999999987,0.049506,0.0202466000000003,0.0377424000000009,0.0101346,0,sub_19
0.0360719999999998,-0.0587813999999987,0.0486614,0.0159772000000003,0.0343604000000008,0.007118,0,sub_19
0.0371565999999998,-0.0583139999999987,0.0485376,0.0119136000000004,0.0277878000000008,0.0026116,0,sub_19
0.0368467999999997,-0.0593725999999987,0.0496778,0.0110514000000004,0.0212050000000008,-0.0020861999999999,0,sub_19
0.0363167999999997,-0.0613343999999987,0.05061,0.0129736000000004,0.0178048000000009,-0.0059139999999999,0,sub_19
0.0353083999999997,-0.0637827999999987,0.0527908,0.0176850000000004,0.0188648000000008,-0.0086597999999999,0,sub_19
0.0342711999999997,-0.0666025999999987,0.053984,0.0262526000000004,0.0231080000000008,-0.0115963999999999,0,sub_19
0.0328717999999997,-0.0671457999999987,0.0539786,0.0322778000000004,0.0324690000000009,-0.0134891999999999,0,sub_19
0.0304969999999997,-0.0646179999999987,0.0554986,0.0333792000000004,0.0392864000000009,-0.0143447999999999,0,sub_19
0.0310521999999997,-0.0601385999999987,0.0540144,0.0290834000000003,0.0360530000000009,-0.0120409999999999,0,sub_19
0.0320657999999997,-0.0581047999999987,0.047921,0.0243444000000003,0.0319578000000009,-0.0069617999999999,0,sub_19
0.0325495999999997,-0.0571677999999987,0.0417644,0.0264678000000003,0.0348720000000008,-0.0024845999999999,0,sub_19
0.0328687999999998,-0.0604485999999987,0.0385046,0.0386208000000003,0.0343568000000008,-0.0015647999999999,0,sub_19
0.0357153999999998,-0.0647609999999987,0.0375558,0.0483980000000003,0.0257606000000008,-0.0023605999999999,0,sub_19
0.0362449999999998,-0.0693039999999987,0.0407512,0.0470928000000003,0.0183158000000008,-0.0042829999999999,0,sub_19
0.0358057999999998,-0.0678917999999987,0.0479286,0.0323088000000003,0.0038830000000008,-0.0052221999999999,0,sub_19
0.0353511999999998,-0.0649393999999987,0.0538136,0.0042448000000004,-0.018612399999999,-0.0030393999999999,0,sub_19
0.0355281999999998,-0.0603967999999987,0.0563532,-0.0261701999999995,-0.036858799999999,0.004249,0,sub_19
0.0353781999999998,-0.0592875999999987,0.0571612,-0.0444291999999995,-0.037586799999999,0.0133158,0,sub_19
0.0347313999999998,-0.0594593999999987,0.0567262,-0.0455379999999995,-0.023872999999999,0.0190656,0,sub_19
0.0346791999999998,-0.0625595999999987,0.0570032,-0.0333553999999995,-0.001237599999999,0.0199828,0,sub_19
0.0344159999999998,-0.0638809999999987,0.0573884,-0.0139141999999995,0.0194660000000009,0.018176,0,sub_19
0.0340355999999998,-0.0639447999999987,0.0573624,0.0048630000000004,0.0322990000000008,0.0138108,0,sub_19
0.0341809999999998,-0.0620419999999987,0.0534782,0.0181342000000004,0.0363222000000009,0.0085572,0,sub_19
0.0347145999999998,-0.0610139999999987,0.0498114,0.0253880000000004,0.0326886000000008,0.0051942,0,sub_19
0.0344651999999998,-0.0609629999999987,0.0480332,0.0259366000000004,0.0224054000000008,0.0029124,0,sub_19
0.0348867999999998,-0.0623919999999987,0.0483678,0.0138760000000004,0.0076922000000008,0.0005482,0,sub_19
0.0352607999999998,-0.0637261999999987,0.0505006,-0.0077873999999995,-0.008685999999999,-0.0033763999999999,0,sub_19
0.0343337999999998,-0.0647043999999987,0.0521232,-0.0275197999999995,-0.023576199999999,-0.0081439999999999,0,sub_19
0.0329137999999998,-0.0645225999999987,0.0531338,-0.0352851999999995,-0.034459999999999,-0.0128333999999999,0,sub_19
0.0320971999999997,-0.0644147999999987,0.051778,-0.0323009999999995,-0.038504799999999,-0.0162255999999999,0,sub_19
0.0307923999999997,-0.0638227999999987,0.0502184,-0.0211787999999995,-0.033851399999999,-0.0174357999999999,0,sub_19
0.0299499999999997,-0.0637741999999987,0.048888,-0.0066273999999996,-0.022830199999999,-0.0156391999999999,0,sub_19
0.0308247999999997,-0.0633889999999987,0.0497214,0.0045100000000003,-0.010311599999999,-0.0123727999999999,0,sub_19
0.0324431999999997,-0.0627095999999987,0.0499486,0.0060276000000003,-0.001595399999999,-0.0089549999999999,0,sub_19
0.0346913999999997,-0.0608643999999987,0.0499762,-0.0001553999999996,0.0016134000000009,-0.0068659999999999,0,sub_19
0.0381869999999997,-0.0591023999999987,0.0495334,-0.0099887999999996,-0.001975799999999,-0.0065027999999999,0,sub_19
0.0415721999999997,-0.0577283999999987,0.0482612,-0.0236877999999995,-0.014061799999999,-0.0091467999999999,0,sub_19
0.0427379999999998,-0.0583901999999987,0.0469244,-0.0391167999999995,-0.032528399999999,-0.0130765999999999,0,sub_19
0.0429389999999998,-0.0603255999999987,0.04679,-0.0534609999999995,-0.053743799999999,-0.0169841999999999,0,sub_19
0.0416267999999998,-0.0630245999999987,0.046777,-0.0661029999999995,-0.074332799999999,-0.0191715999999999,0,sub_19
0.0385837999999997,-0.0659745999999987,0.0477506,-0.0766015999999995,-0.091313599999999,-0.0198531999999999,0,sub_19
