userAcceleration.x,userAcceleration.y,userAcceleration.z,rotationRate.x,rotationRate.y,rotationRate.z,label,subject
-0.0093728000000002,-0.0013855999999987,-0.0076983999999999,-0.0014807999999995,-0.001313399999999,0.0009574,0,sub_11
-0.0087086000000002,-0.0016401999999987,-0.0070103999999999,-0.0008349999999995,-0.000249399999999,0.0011802,0,sub_11
-0.0074572000000002,-0.0011149999999987,-0.0073653999999999,-0.0003949999999995,0.0018832000000009,0.0007592,0,sub_11
-0.0062686000000002,-0.0008937999999987,-0.0078525999999999,-0.0003775999999995,0.0035964000000009,-0.0009461999999999,0,sub_11
-0.0066008000000002,-0.0001429999999987,-0.0073329999999999,5.300000000047415e-05,0.0031742000000009,-0.0017911999999999,0,sub_11
-0.0076920000000002,0.0014054000000011,-0.0071925999999999,0.0004770000000004,0.0018970000000009,-0.0019943999999999,0,sub_11
-0.0088324000000002,0.0018964000000011,-0.0076063999999999,0.0002578000000004,0.0014682000000009,-0.0011407999999999,0,sub_11
-0.0094520000000002,0.0011954000000011,-0.0079091999999999,0.0006626000000004,-0.001735799999999,0.0005752,0,sub_11
-0.0093088000000002,0.0010014000000011,-0.0078339999999999,-0.0002167999999995,-0.006211999999999,0.0018568,0,sub_11
-0.0085286000000002,0.0007452000000011,-0.0079045999999999,-0.0015097999999995,-0.009611999999999,0.0016422,0,sub_11
-0.0069818000000002,-0.0008369999999988,-0.0065499999999999,-0.0008603999999995,-0.008967199999999,0.0005814,0,sub_11
-0.0058064000000002,-0.0020739999999988,-0.0057185999999999,0.0006522000000004,-0.006619199999999,-0.0009029999999999,0,sub_11
-0.0060326000000002,-0.0021331999999988,-0.0052783999999999,0.0011026000000004,-0.003414599999999,-0.0026093999999999,0,sub_11
-0.0065654000000002,-0.0023117999999988,-0.0056251999999999,0.0017644000000004,0.0006364000000009,-0.0030335999999999,0,sub_11
-0.0071106000000002,-0.0020959999999988,-0.0059495999999998,0.0024188000000004,0.0042542000000009,-0.0026063999999999,0,sub_11
-0.0076188000000002,-0.0009273999999988,-0.0072785999999998,0.0017796000000004,0.0055304000000009,-0.0015441999999999,0,sub_11
-0.0081964000000002,-0.0004563999999988,-0.0081427999999998,6.680000000045447e-05,0.0051068000000009,-0.0007009999999999,0,sub_11
-0.0080596000000002,-0.0003309999999988,-0.0081047999999998,-0.0007955999999995,0.0040422000000009,-0.0002849999999999,0,sub_11
-0.0079740000000002,0.0003930000000011,-0.0083527999999999,-0.0005901999999995,0.0029748000000009,-7.519999999995716e-05,0,sub_11
-0.0080956000000002,0.0002536000000011,-0.0085991999999999,-0.0008047999999995,0.0029760000000009,-0.0002969999999999,0,sub_11
-0.0085844000000002,-0.0002373999999988,-0.0089145999999999,-0.0010261999999995,0.0010612000000009,-0.0009437999999999,0,sub_11
-0.0089822000000002,-0.0001873999999987,-0.0085547999999998,-0.0008235999999995,-0.001494199999999,-0.0015865999999999,0,sub_11
-0.0092978000000002,1.8000000001216435e-05,-0.0077233999999998,-0.0008265999999995,-0.002769999999999,-0.0022259999999999,0,sub_11
-0.0100630000000002,-0.0008979999999987,-0.0066835999999998,-0.0006121999999995,-0.002982199999999,-0.0026515999999999,0,sub_11
-0.0102246000000002,-0.0014841999999987,-0.0061415999999998,-0.0001915999999995,-0.003418399999999,-0.0022243999999999,0,sub_11
-0.0097280000000002,-0.0015971999999987,-0.0061105999999998,-0.0001919999999995,-0.002786799999999,-0.0020151999999999,0,sub_11
-0.0082480000000002,-0.0014793999999988,-0.0058621999999999,-0.0004047999999995,-0.001729399999999,-0.0015943999999999,0,sub_11
-0.0066242000000002,-0.0011761999999988,-0.0063487999999999,-0.0004059999999995,-0.001098799999999,-0.0011713999999999,0,sub_11
-0.0055368000000002,-0.0008039999999988,-0.0060039999999999,-0.0004073999999995,-0.000680399999999,-0.0009617999999999,0,sub_11
-0.0046302000000002,-0.0012745999999988,-0.0062947999999999,-0.0001861999999995,0.0008110000000009,-0.0011757999999999,0,sub_11
-0.0041754000000002,-0.0017073999999988,-0.0062413999999998,-0.0001889999999995,0.0008084000000009,-0.0005347999999999,0,sub_11
-0.0060962000000002,-0.0012769999999988,-0.0062655999999998,0.0002320000000004,0.0001652000000009,0.00011,0,sub_11
-0.0078620000000001,-0.0012101999999988,-0.0058691999999998,0.0006554000000004,0.0003716000000009,0.0013954,0,sub_11
-0.0084178000000002,-0.0009623999999988,-0.0067191999999998,0.0008694000000004,0.0010066000000009,0.0022516,0,sub_11
-0.0086084000000002,-0.0005987999999987,-0.0072095999999998,0.0002202000000004,-0.001334799999999,0.002251,0,sub_11
-0.0094542000000002,-0.0005701999999987,-0.0067153999999999,0.0004322000000004,-0.002823599999999,0.0014008,0,sub_11
-0.0089640000000002,-0.0005605999999987,-0.0058463999999999,0.0008700000000004,-0.001331199999999,0.0007618,0,sub_11
-0.0081642000000002,-0.0012309999999987,-0.0063967999999999,0.0008834000000004,0.0001662000000009,-0.0007353999999999,0,sub_11
-0.0082088000000002,-0.0016241999999987,-0.0061755999999999,0.0013112000000004,-0.000895599999999,-0.0020129999999999,0,sub_11
-0.0085768000000002,-0.0011815999999988,-0.0059537999999999,0.0017360000000004,-0.001323199999999,-0.0020093999999999,0,sub_11
-0.0078800000000002,-0.0007291999999988,-0.0072579999999999,0.0013150000000004,-0.000253399999999,-0.0017983999999999,0,sub_11
-0.0065318000000002,-0.0011385999999988,-0.0083183999999998,-0.0001833999999995,-0.001523599999999,-0.0015917999999999,0,sub_11
-0.0062258000000002,-0.0007753999999988,-0.0075453999999998,-0.0010445999999995,-0.003222999999999,-0.0011665999999999,0,sub_11
-0.0055896000000002,-0.0013291999999988,-0.0072523999999998,-0.0014667999999995,-0.001729599999999,-0.0003151999999999,0,sub_11
-0.0058064000000002,-0.0020439999999987,-0.0068697999999998,-0.0008181999999995,0.0004000000000009,0.0003292,0,sub_11
-0.0067004000000001,-0.0020459999999987,-0.0061527999999998,-0.0006039999999995,0.0014610000000009,0.001184,0,sub_11
-0.0079688000000001,-0.0017693999999987,-0.0060109999999999,-0.0003925999999995,0.0016708000000009,0.0018262,0,sub_11
-0.0092332000000001,-0.0016289999999987,-0.0064817999999999,0.0002476000000004,0.0027296000000009,0.0028974,0,sub_11
-0.0105440000000001,-0.0013289999999987,-0.0066277999999999,0.0002438000000004,0.0020896000000009,0.003112,0,sub_11
-0.0110570000000001,-0.0012085999999987,-0.0067223999999999,2.240000000045444e-05,0.0005994000000009,0.0033304,0,sub_11
-0.0100728000000002,-0.0015251999999987,-0.0067727999999999,0.0008718000000004,-0.000678799999999,0.002915,0,sub_11
-0.0092272000000002,-0.0013039999999988,-0.0067751999999999,0.0017286000000004,-0.001313599999999,0.0014306,0,sub_11
-0.0069306000000002,-0.0009083999999988,-0.0065329999999999,0.0013032000000004,-0.002794399999999,-0.0004887999999999,0,sub_11
-0.0054514000000002,-0.0011301999999988,-0.0058605999999999,0.0013056000000004,-0.003639399999999,-0.0019789999999999,0,sub_11
-0.0043502000000002,-0.0010681999999988,-0.0055903999999999,0.0015248000000004,-0.003210599999999,-0.0028325999999999,0,sub_11
-0.0043412000000002,-0.0008445999999988,-0.0057817999999999,0.0013190000000004,-0.001293199999999,-0.0026227999999999,0,sub_11
-0.0040786000000002,-0.0019483999999988,-0.0057025999999999,0.0008914000000004,-1.939999999904712e-05,-0.0011317999999999,0,sub_11
-0.0050606000000002,-0.0021875999999988,-0.0057127999999999,0.0008914000000004,0.0014678000000009,0.000582,0,sub_11
-0.0061686000000002,-0.0019541999999988,-0.0062701999999998,0.0006800000000004,0.0038064000000009,0.0027206,0,sub_11
-0.0066720000000002,-0.0019931999999988,-0.0061249999999998,0.0009000000000004,0.0061476000000009,0.0037938,0,sub_11
-0.0074182000000002,-0.0013373999999988,-0.0065935999999998,4.640000000045432e-05,0.0061524000000009,0.004008,0,sub_11
-0.0091934000000002,-0.0003851999999988,-0.0070857999999998,-0.0001603999999995,0.0063732000000009,0.0029444,0,sub_11
-0.0111594000000002,0.0001454000000011,-0.0077877999999998,5.960000000045436e-05,0.0063784000000009,0.0014504,0,sub_11
-0.0121748000000002,0.0001838000000011,-0.0081119999999998,5.860000000045436e-05,0.0044676000000009,-0.0002563999999999,0,sub_11
-0.0135800000000002,0.0006376000000011,-0.0088115999999998,-0.0016589999999995,0.0008568000000009,-0.0015455999999999,0,sub_11
-0.0138654000000002,0.0001834000000011,-0.0081711999999998,-0.0020987999999995,-0.002757399999999,-0.0021809999999999,0,sub_11
-0.0119628000000002,4.680000000119671e-05,-0.0076965999999998,-0.0025357999999995,-0.005520199999999,-0.0026035999999999,0,sub_11
-0.0088326000000002,-0.0011191999999988,-0.0062747999999998,-0.0029707999999995,-0.007856999999999,-0.0030269999999999,0,sub_11
-0.0057422000000002,-0.0014851999999988,-0.0052437999999998,-0.0027627999999995,-0.009556799999999,-0.0034465999999999,0,sub_11
-0.0028686000000002,-0.0024007999999988,-0.0044359999999998,-0.0012611999999995,-0.008278199999999,-0.0038609999999999,0,sub_11
-0.0013348000000002,-0.0031453999999988,-0.0038599999999998,0.0006754000000004,-0.004238599999999,-0.0034251999999999,0,sub_11
-0.0014142000000002,-0.0035687999999988,-0.0043173999999998,0.0017548000000004,1.2800000000932898e-05,-0.0019275999999999,0,sub_11
-0.0023564000000002,-0.0029297999999988,-0.0057713999999998,0.0009062000000004,0.0036276000000009,0.0006256,0,sub_11
-0.0046998000000002,-0.0020831999999988,-0.0065453999999998,0.0002696000000004,0.0076708000000009,0.0036112,0,sub_11
-0.0079522000000002,-0.0012121999999988,-0.0071843999999998,-0.0003735999999995,0.0104346000000009,0.006812,0,sub_11
-0.0113572000000002,-0.0002809999999988,-0.0070023999999999,-0.0010187999999995,0.0117114000000009,0.0089464,0,sub_11
-0.0139950000000002,0.0006906000000011,-0.0080883999999999,-0.0016629999999995,0.0117158000000009,0.009587,0,sub_11
-0.0158446000000002,0.0015468000000011,-0.0085853999999999,-0.0003925999999995,0.0078886000000009,0.0076822,0,sub_11
-0.0159406000000002,0.0015760000000011,-0.0083221999999999,0.0004484000000004,0.0017206000000009,0.0042778,0,sub_11
-0.0139110000000002,0.0019128000000011,-0.0074715999999998,0.0021468000000004,-0.004446799999999,2.4800000000042843e-05,0,sub_11
-0.0110158000000002,0.0009638000000011,-0.0074711999999998,0.0029960000000004,-0.008695799999999,-0.0033817999999999,0,sub_11
-0.0080386000000002,0.0005836000000011,-0.0073665999999998,0.0040546000000004,-0.011675799999999,-0.0046519999999999,0,sub_11
-0.0047894000000002,-0.0017163999999987,-0.0072135999999998,0.0025584000000004,-0.010821799999999,-0.0033811999999999,0,sub_11
-0.0022962000000002,-0.0032975999999987,-0.0062749999999998,0.0006374000000004,-0.008267199999999,-0.0008337999999999,0,sub_11
-0.0007576000000002,-0.0042813999999987,-0.0049083999999999,-0.0012767999999995,-0.003584599999999,0.0023518,0,sub_11
0.0001973999999997,-0.0035387999999987,-0.0043973999999999,-0.0008357999999995,0.0017318000000009,0.0044846,0,sub_11
-0.0002666000000002,-0.0043389999999987,-0.0042183999999999,0.0004656000000004,0.0062024000000009,0.0042742,0,sub_11
-0.0019812000000002,-0.0024955999999988,-0.0043909999999999,0.0024022000000004,0.0085442000000009,0.0030028,0,sub_11
-0.0044556000000002,-0.0002839999999988,-0.0059117999999999,0.0034790000000004,0.0096146000000008,0.0013004,0,sub_11
-0.0073166000000002,-0.0001813999999988,-0.0074261999999998,0.0041222000000004,0.0091950000000008,-0.0004029999999999,0,sub_11
-0.0106024000000002,-0.0005759999999988,-0.0079923999999999,0.0028290000000004,0.0064334000000008,-0.0008351999999999,0,sub_11
-0.0133822000000002,-0.0001233999999988,-0.0062707999999998,0.0002438000000004,0.0034540000000008,0.001074,0,sub_11
-0.0145210000000002,-0.0006235999999988,-0.0061023999999998,-0.0019009999999995,0.0034560000000009,0.0029826,0,sub_11
-0.0138560000000002,-0.0015407999999988,-0.0051319999999998,-0.0019009999999995,0.0038804000000009,0.0034094,0,sub_11
-0.0122008000000002,-0.0003121999999988,-0.0060583999999999,-0.0018999999999995,0.0028202000000009,0.002129,0,sub_11
-0.0096810000000002,3.500000000117645e-05,-0.0069953999999999,-0.0021095999999995,0.0011268000000009,-0.0004339999999999,0,sub_11
-0.0074074000000002,0.0008374000000011,-0.0081433999999999,-0.0012531999999995,-0.001209999999999,-0.0036311999999999,0,sub_11
-0.0053150000000002,0.0014696000000011,-0.0083763999999999,2.4000000000454214e-05,-0.004614399999999,-0.0066105999999999,0,sub_11
-0.0039294000000002,0.0012830000000011,-0.0088713999999999,-0.0001969999999995,-0.007380999999999,-0.0078921999999999,0,sub_11
-0.0038646000000002,-0.0005893999999987,-0.0075789999999999,-0.0004219999999995,-0.009089999999999,-0.0072523999999999,0,sub_11
-0.0043494000000002,-0.0019317999999987,-0.0062081999999999,-0.0010755999999995,-0.009313799999999,-0.0046945999999999,0,sub_11
-0.0045382000000002,-0.0037923999999987,-0.0054055999999999,-0.0017157999999995,-0.006552799999999,-0.0019251999999999,0,sub_11
-0.0058902000000002,-0.0045683999999987,-0.0039795999999999,-0.0010707999999995,-0.002730999999999,0.0008518,0,sub_11
-0.0068682000000002,-0.0051017999999987,-0.0043629999999998,-0.0002105999999995,0.0013038000000009,0.0034164,0,sub_11
-0.0068566000000002,-0.0041299999999987,-0.0057019999999998,-0.0001971999999995,0.0057720000000009,0.0049062,0,sub_11
-0.0065908000000002,-0.0032001999999987,-0.0065693999999998,0.0008868000000004,0.0087536000000009,0.0042694,0,sub_11
-0.0066602000000002,-0.0012651999999987,-0.0066827999999998,0.0017480000000004,0.0089688000000009,0.0029936,0,sub_11
-0.0067408000000002,0.0004236000000012,-0.0079327999999998,0.0015374000000004,0.0081226000000009,0.0017116,0,sub_11
-0.0072718000000002,0.0017128000000011,-0.0088557999999999,0.0011154000000004,0.0074910000000009,0.0002144,0,sub_11
-0.0094832000000002,0.0014876000000011,-0.0084905999999999,0.0006772000000004,0.0036618000000009,-0.0008515999999998,0,sub_11
-0.0112260000000002,0.0023944000000011,-0.0082045999999999,0.0002256000000004,-0.002088199999999,-0.0010609999999998,0,sub_11
-0.0115286000000002,0.0024660000000011,-0.0094191999999999,0.0002130000000004,-0.005282199999999,-0.0014843999999999,0,sub_11
-0.0107706000000002,0.0015022000000011,-0.0090043999999999,0.0006286000000004,-0.008476999999999,-0.0025509999999999,0,sub_11
-0.0099300000000002,0.0004488000000011,-0.0071461999999999,0.0010414000000004,-0.012098599999999,-0.0034033999999999,0,sub_11
-0.0082688000000002,-0.0003981999999988,-0.0055063999999999,0.0014694000000004,-0.011250399999999,-0.0031931999999999,0,sub_11
-0.0068460000000001,-0.0023897999999988,-0.0046811999999999,0.0025548000000004,-0.006145199999999,-0.0025565999999999,0,sub_11
-0.0052206000000001,-0.0027443999999988,-0.0041597999999999,0.0034242000000004,-0.001890599999999,-0.0021339999999999,0,sub_11
-0.0048002000000001,-0.0019773999999988,-0.0055157999999999,0.0021604000000004,0.0025846000000009,-0.0012939999999999,0,sub_11
-0.0043526000000001,-0.0017717999999988,-0.0070865999999999,0.0008878000000004,0.0047178000000009,-0.0008783999999999,0,sub_11
-0.0046422000000002,-0.0012919999999988,-0.0073867999999999,-0.0001799999999995,0.0038720000000009,-0.0015255999999999,0,sub_11
-0.0055944000000002,-0.0005641999999988,-0.0072861999999999,-0.0018929999999995,0.0021738000000009,-0.0028229999999999,0,sub_11
-0.0077246000000002,-0.0020491999999988,-0.0053359999999999,-0.0029641999999995,0.0021726000000009,-0.0028361999999999,0,sub_11
-0.0099202000000002,-0.0024319999999988,-0.0042147999999998,-0.0016909999999995,0.0025850000000009,-0.0017651999999999,0,sub_11
-0.0117092000000002,-0.0010037999999988,-0.0049231999999998,-0.0010493999999995,0.0051294000000009,-0.0004877999999999,0,sub_11
-0.0114818000000002,0.0001114000000011,-0.0071751999999998,-0.0010563999999995,0.0051218000000009,0.0001472,0,sub_11
-0.0104550000000002,0.0009708000000011,-0.0087909999999999,-0.0012851999999995,0.0019258000000009,0.0003634,0,sub_11
-0.0088680000000002,0.0020336000000011,-0.0099827999999999,-0.0017281999999995,-0.002755599999999,-0.0007019999999999,0,sub_11
-0.0076080000000002,0.0003438000000011,-0.0094171999999999,-0.0019511999999995,-0.006158599999999,-0.0019811999999999,0,sub_11
-0.0074658000000002,-0.0015699999999988,-0.0076995999999999,-0.0017533999999995,-0.009147399999999,-0.0017643999999999,0,sub_11
-0.0078812000000002,-0.0021477999999988,-0.0060085999999999,-0.0015451999999995,-0.008519399999999,-0.0002701999999999,0,sub_11
-0.0087936000000002,-0.0027979999999987,-0.0054295999999999,-0.0015377999999995,-0.004696599999999,0.0016456,0,sub_11
-0.0096950000000002,-0.0036341999999987,-0.0055805999999999,-0.0013265999999995,-0.002368399999999,0.0042058,0,sub_11
-0.0096494000000002,-0.0030813999999987,-0.0056509999999999,-0.0017545999999995,-0.001310399999999,0.0052676,0,sub_11
-0.0082040000000002,-0.0025595999999987,-0.0053617999999998,-0.0015297999999995,0.0008210000000009,0.004839,0,sub_11
-0.0075198000000002,-0.0027279999999987,-0.0058623999999998,-0.0002369999999995,0.0029496000000009,0.0042044,0,sub_11
-0.0065516000000002,-0.0021749999999988,-0.0057443999999998,0.0010442000000004,0.0033704000000009,0.0044264,0,sub_11
-0.0073610000000002,-0.0002873999999988,-0.0066235999999998,0.0001878000000004,0.0033708000000009,0.0050614,0,sub_11
-0.0086626000000002,7.800000001196637e-06,-0.0076305999999998,-0.0004663999999995,0.0020874000000009,0.0067674,0,sub_11
-0.0104622000000002,-0.0003669999999988,-0.0085241999999999,-0.0006993999999995,-0.001112399999999,0.007838,0,sub_11
-0.0109192000000002,-0.0012543999999988,-0.0084289999999999,-0.0019927999999995,-0.004302599999999,0.0074054,0,sub_11
-0.0112266000000002,-0.0028891999999988,-0.0078993999999999,-0.0028409999999995,-0.005568199999999,0.0048372,0,sub_11
-0.0093936000000002,-0.0044993999999987,-0.0065423999999999,-0.0008933999999995,-0.003428799999999,0.0007886,0,sub_11
-0.0050454000000002,-0.0048625999999987,-0.0055873999999999,0.0012796000000004,-6.199999999046552e-06,-0.0045417999999999,0,sub_11
-6.540000000022639e-05,-0.0034267999999987,-0.0059253999999998,0.0025924000000004,0.0029890000000009,-0.0088093999999999,0,sub_11
0.0044507999999997,-0.0015675999999988,-0.0060187999999998,0.0034718000000004,0.0064042000000009,-0.0111575999999999,0,sub_11
0.0082143999999997,0.0007118000000011,-0.0065207999999998,0.0036970000000004,0.0096008000000009,-0.0111587999999999,0,sub_11
0.0082279999999997,0.0022712000000011,-0.0065149999999998,0.0022000000000004,0.0119410000000009,-0.0086073999999999,0,sub_11
0.0049105999999997,0.0036772000000011,-0.0061021999999998,0.0011144000000004,0.0140540000000009,-0.0028479999999999,0,sub_11
-0.0009502000000002,0.0037762000000011,-0.0055647999999998,-0.0004141999999995,0.0142442000000009,0.0046198,0,sub_11
-0.0092570000000002,0.0025274000000011,-0.0080381999999998,-0.0038755999999995,0.0116714000000009,0.0120776,0,sub_11
-0.0168318000000002,0.0013686000000011,-0.0099523999999999,-0.0073393999999995,0.0059096000000009,0.0174018,0,sub_11
-0.0224174000000002,-0.0006775999999987,-0.0098013999999999,-0.0071423999999995,0.0054700000000009,0.0206084,0,sub_11
-0.0247548000000002,-0.0009725999999987,-0.0107739999999998,-0.0077979999999995,-0.001966199999999,0.0161322,0,sub_11
-0.0241454000000002,-0.0035675999999987,-0.0105205999999998,-0.0071485999999995,-0.008535999999999,0.0069638,0,sub_11
-0.0199696000000002,-0.0039215999999987,-0.0075511999999998,-0.0013235999999995,-0.004040599999999,-0.0032507999999999,0,sub_11
-0.0158550000000002,-0.0019093999999987,-0.0068687999999998,0.0062028000000004,0.0002316000000009,-0.0123851999999999,0,sub_11
-0.0081176000000002,0.0018808000000011,-0.0084415999999998,0.0078894000000004,-0.012521999999999,-0.0211111999999999,0,sub_11
-0.0005410000000002,0.0014222000000011,-0.0075211999999998,0.0078778000000004,-0.015290799999999,-0.0213213999999999,0,sub_11
0.0042761999999997,0.0022316000000011,-0.0067513999999998,0.0072396000000004,-0.008284199999999,-0.0147117999999999,0,sub_11
0.0065381999999997,0.0021490000000011,-0.0089111999999998,0.0033414000000004,-0.011929399999999,-0.0055477999999999,0,sub_11
0.0087813999999997,-0.0003559999999988,-0.0076537999999999,-0.0037501999999995,-0.014493799999999,0.0035976,0,sub_11
0.0062959999999997,-0.0045383999999988,-0.0037853999999999,-0.0071509999999995,-0.002797199999999,0.0129642,0,sub_11
0.0002571999999997,-0.0059041999999988,-0.0015265999999999,-0.0060441999999995,0.0125150000000009,0.0200074,0,sub_11
-0.0045848000000001,-0.0049165999999988,-0.0036969999999998,-0.0038791999999995,0.0195400000000009,0.0206592,0,sub_11
-0.0081582000000001,-0.0025213999999988,-0.0056803999999999,-0.0017189999999995,0.0197704000000009,0.0155514,0,sub_11
-0.0129774000000001,-0.0010753999999988,-0.0056925999999999,0.0032106000000004,0.0174386000000009,0.008325,0,sub_11
-0.0161088000000002,0.0006642000000011,-0.0070219999999998,0.0074944000000004,0.0142552000000009,0.0015222,0,sub_11
-0.0164176000000002,0.0007146000000011,-0.0102025999999998,0.0074868000000004,0.0059726000000009,-0.0050901999999999,0,sub_11
-0.0159538000000002,0.0001596000000011,-0.0095365999999999,0.0055424000000004,-0.002742199999999,-0.0085107999999999,0,sub_11
-0.0144088000000002,0.0007732000000011,-0.0063489999999998,0.0040378000000004,-0.005503999999999,-0.0078833999999999,0,sub_11
-0.0108106000000002,0.0012576000000011,-0.0067803999999998,0.0010530000000004,-0.003580199999999,-0.0055631999999999,0,sub_11
-0.0070392000000002,0.0004642000000012,-0.0086219999999998,-0.0015167999999995,-0.005063399999999,-0.0040901999999999,0,sub_11
-0.0054136000000002,0.0010146000000012,-0.0081285999999998,-0.0021765999999995,-0.009109199999999,-0.0028143999999999,0,sub_11
-0.0048220000000002,0.0009004000000012,-0.0069597999999998,-0.0030419999999995,-0.011874199999999,-0.0019689999999999,0,sub_11
-0.0045762000000002,-0.0013679999999987,-0.0057007999999998,-0.0030323999999995,-0.008894999999999,-0.0011181999999999,0,sub_11
-0.0056576000000002,-0.0034157999999987,-0.0048719999999998,-0.0017387999999995,-0.004855799999999,-4.619999999993622e-05,0,sub_11
-0.0064794000000002,-0.0038263999999988,-0.0045959999999998,-0.0015135999999995,-0.001667399999999,0.0010198,0,sub_11
-0.0061880000000002,-0.0035503999999988,-0.0049909999999998,-0.0014979999999995,0.0019498000000009,0.0016566,0,sub_11
-0.0056790000000001,-0.0026147999999988,-0.0059553999999998,-0.0004117999999995,0.0057788000000009,0.0016596,0,sub_11
-0.0061806000000001,-0.0015871999999988,-0.0072985999999998,0.0002334000000004,0.0053526000000009,0.0005968,0,sub_11
-0.0063386000000001,0.0002892000000011,-0.0084079999999999,-0.0002005999999995,0.0019482000000009,-0.0006833999999999,0,sub_11
-0.0067606000000002,0.0009808000000011,-0.0078575999999999,-0.0004225999999995,-0.000817199999999,-0.0015359999999999,0,sub_11
-0.0076280000000002,0.0008878000000011,-0.0067943999999999,-0.0002101999999995,-0.002091999999999,-0.0026011999999999,0,sub_11
-0.0085048000000002,0.0010970000000011,-0.0062829999999999,-0.0004233999999995,-0.003364399999999,-0.0038829999999999,0,sub_11
-0.0079502000000002,0.0005472000000011,-0.0071399999999999,-0.0006315999999995,-0.005076999999999,-0.0051769999999999,0,sub_11
-0.0075722000000002,-0.0001119999999988,-0.0068647999999998,-0.0006341999999995,-0.007433799999999,-0.0054005999999999,0,sub_11
-0.0079386000000002,-7.179999999880363e-05,-0.0072393999999998,-0.0014901999999995,-0.008514399999999,-0.0043499999999999,0,sub_11
-0.0089654000000002,-0.0002099999999988,-0.0068641999999998,-0.0021355999999995,-0.008325199999999,-0.0013765999999999,0,sub_11
-0.0093222000000002,-0.0013201999999988,-0.0064937999999998,-0.0023573999999995,-0.007927599999999,0.002454,0,sub_11
-0.0100196000000002,-0.0027379999999988,-0.0057525999999998,-0.0025813999999995,-0.007087399999999,0.005656,0,sub_11
-0.0100388000000001,-0.0042835999999988,-0.0045803999999998,-0.0017211999999995,-0.004325799999999,0.0069401999999999,0,sub_11
-0.0093078000000001,-0.0049181999999988,-0.0039595999999998,0.0008614000000004,-7.119999999902794e-05,0.006312,0,sub_11
-0.0080726000000002,-0.0050407999999988,-0.0041717999999998,0.0025962000000004,0.0035550000000009,0.0037558,0,sub_11
-0.0062554000000002,-0.0043275999999988,-0.0055503999999998,0.0039060000000004,0.0065484000000009,0.0005558,0,sub_11
-0.0047422000000002,-0.0026393999999988,-0.0058311999999998,0.0052080000000004,0.0088984000000009,-0.0015751999999999,0,sub_11
-0.0038780000000002,-0.0011157999999988,-0.0072587999999999,0.0054298000000004,0.0101792000000009,-0.0017893999999999,0,sub_11
-0.0029476000000002,-0.0001331999999988,-0.0078561999999999,0.0043550000000004,0.0091158000000009,-0.0007279999999999,0,sub_11
-0.0021136000000002,0.0004468000000011,-0.0081757999999999,0.0037040000000003,0.0078362000000009,0.0007638,0,sub_11
-0.0023262000000002,-0.0004829999999988,-0.0070547999999999,0.0030542000000003,0.0078300000000009,0.0028958,0,sub_11
-0.0047656000000002,-0.0007567999999988,-0.0064305999999999,0.0021988000000004,0.0093168000000009,0.0048106,0,sub_11
