userAcceleration.x,userAcceleration.y,userAcceleration.z,rotationRate.x,rotationRate.y,rotationRate.z,label,subject
-0.0106410000000001,0.0019184000000012,-0.0135469999999999,-0.0014843999999995,-0.0022761999999991,0.002932,0,sub_17
-0.0103530000000001,0.0023020000000012,-0.0134855999999999,-0.0014817999999995,-0.001841999999999,0.002504,0,sub_17
-0.0103528000000001,0.0026224000000012,-0.0140053999999998,-0.0008343999999995,-0.0009813999999991,0.0014388,0,sub_17
-0.0100808000000001,0.0033862000000011,-0.0141319999999998,-0.0006155999999995,-0.0001209999999991,0.000798,0,sub_17
-0.0097438000000001,0.0040708000000012,-0.0143261999999998,0.0002414000000004,9.880000000088722e-05,-5.119999999991008e-05,0,sub_17
-0.0098928000000001,0.0043984000000012,-0.0138561999999998,0.0011016000000004,0.0003140000000008,-0.0013271999999999,0,sub_17
-0.0097676000000001,0.0044430000000012,-0.0141681999999998,0.0017436000000003,-0.0001109999999991,-0.0021767999999999,0,sub_17
-0.0095588000000001,0.0045028000000012,-0.0140797999999998,0.0021684000000003,-0.0009629999999991,-0.0025999999999999,0,sub_17
-0.0091516000000001,0.0038264000000012,-0.0138785999999998,0.0023798000000003,-0.0016009999999991,-0.0030239999999999,0,sub_17
-0.0092180000000001,0.0034962000000012,-0.0135155999999998,0.0023768000000004,-0.0018145999999991,-0.0028089999999999,0,sub_17
-0.0092944000000001,0.0031426000000012,-0.0141053999999998,0.0021566000000003,-0.0024551999999991,-0.0021677999999999,0,sub_17
-0.0099312000000001,0.0025598000000012,-0.0138145999999999,0.0019364000000003,-0.0030957999999991,-0.0015263999999998,0,sub_17
-0.0108730000000001,0.0019160000000012,-0.0137427999999999,0.0019316000000003,-0.0035231999999991,-0.0010973999999998,0,sub_17
-0.0116098000000001,0.0011548000000012,-0.0137563999999998,0.0015030000000003,-0.0041599999999991,-0.0013131999999998,0,sub_17
-0.0113084000000001,0.0010026000000012,-0.0140729999999998,0.0008630000000003,-0.0043697999999991,-0.0015309999999998,0,sub_17
-0.0116550000000001,0.0004858000000012,-0.0140321999999998,1.6200000000407556e-05,-0.0030875999999991,-0.0017521999999998,0,sub_17
-0.0115368000000001,0.0004282000000012,-0.0141381999999998,-0.0010447999999995,-0.0009541999999991,-0.0013359999999999,0,sub_17
-0.0108054000000001,0.0013570000000012,-0.0139769999999998,-0.0023173999999995,0.0009692000000008,-0.0015619999999999,0,sub_17
-0.0102992000000001,0.0028262000000012,-0.0142219999999998,-0.0018837999999995,0.0026738000000008,-0.0017757999999999,0,sub_17
-0.0104772000000001,0.0037022000000012,-0.0144181999999999,-0.0008121999999995,0.0033132000000008,-0.0026245999999999,0,sub_17
-0.0102996000000001,0.0043514000000012,-0.0144505999999999,0.0008940000000004,0.0024600000000008,-0.0036805999999999,0,sub_17
-0.0099700000000001,0.0043288000000012,-0.0139789999999999,0.0028134000000004,0.0011792000000008,-0.0047337999999999,0,sub_17
-0.0101238000000001,0.0032988000000012,-0.0137671999999999,0.0036622000000004,0.0003232000000008,-0.0045129999999999,0,sub_17
-0.0104422000000001,0.0018748000000012,-0.0137879999999999,0.0032276000000004,-0.0003187999999991,-0.0034469999999999,0,sub_17
-0.0105854000000001,0.0004842000000012,-0.0139373999999998,0.0015120000000004,-0.0001081999999991,-0.0013227999999999,0,sub_17
-0.0102308000000001,0.0006904000000012,-0.0136823999999998,-0.0006287999999995,0.0007432000000008,0.0007966,0,sub_17
-0.0099802000000001,0.0018276000000012,-0.0140265999999998,-0.0031933999999995,0.0018108000000008,0.0024854,0,sub_17
-0.0094050000000001,0.0034522000000012,-0.0137793999999998,-0.0053263999999995,0.0028812000000008,0.003109,0,sub_17
-0.0093086000000001,0.0054960000000012,-0.0132289999999998,-0.0061771999999995,0.0037366000000008,0.003101,0,sub_17
-0.0087512000000001,0.0073068000000012,-0.0135185999999999,-0.0051153999999995,0.0022442000000008,0.0024684,0,sub_17
-0.0080138000000001,0.0075220000000012,-0.0136245999999998,-0.0029873999999995,-0.0001025999999991,0.001418,0,sub_17
-0.0084160000000001,0.0074984000000012,-0.0141695999999998,-0.0002211999999995,-0.0035143999999991,-0.0002673999999999,0,sub_17
-0.0095368000000001,0.0062784000000011,-0.0148505999999998,0.0031792000000004,-0.0077821999999991,-0.0015199999999999,0,sub_17
-0.0092438000000001,0.0047936000000011,-0.0156139999999998,0.0052970000000004,-0.012042999999999,-0.0023577999999999,0,sub_17
-0.0092950000000001,0.0021076000000011,-0.0149661999999998,0.0057202000000004,-0.0131035999999991,-0.0027843999999999,0,sub_17
-0.0098306000000001,-0.0003165999999988,-0.0142295999999999,0.0048670000000003,-0.0126709999999991,-0.0025807999999999,0,sub_17
-0.0092822000000001,-0.0026153999999987,-0.0133383999999999,0.0031650000000003,-0.0107457999999991,-0.0019577999999999,0,sub_17
-0.0086486000000001,-0.0035691999999987,-0.0121681999999999,0.0014690000000003,-0.0075423999999991,-0.0013363999999999,0,sub_17
-0.0090878000000001,-0.0045131999999987,-0.0117767999999998,-0.0002217999999995,-0.0037021999999991,-0.0011395999999999,0,sub_17
-0.0099334000000001,-0.0036285999999987,-0.0122395999999998,-0.0014875999999995,-0.0011385999999991,-0.0017925999999999,0,sub_17
-0.0104340000000001,-0.0018723999999987,-0.0130893999999998,-0.0025409999999995,0.0014320000000008,-0.0028709999999999,0,sub_17
-0.0111780000000001,-7.4599999998738e-05,-0.0139127999999998,-0.0023149999999995,0.0037852000000008,-0.0039401999999999,0,sub_17
-0.0108040000000001,0.0020650000000012,-0.0149013999999998,-0.0023063999999995,0.0057114000000008,-0.0045829999999999,0,sub_17
-0.0104474000000001,0.0041592000000012,-0.0152573999999999,-0.0018785999999995,0.0063558000000008,-0.0047937999999999,0,sub_17
-0.0100648000000001,0.0059286000000012,-0.0149765999999999,-0.0008135999999995,0.0065712000000008,-0.0047861999999999,0,sub_17
-0.0095954000000001,0.0063324000000012,-0.0147445999999999,0.0004598000000004,0.0057120000000008,-0.0041351999999999,0,sub_17
-0.0090960000000001,0.0060646000000012,-0.0141445999999998,0.0008760000000003,0.0042156000000008,-0.0032757999999999,0,sub_17
-0.0088240000000001,0.0051668000000012,-0.0137209999999998,0.0012892000000003,0.0020800000000008,-0.0024155999999999,0,sub_17
-0.0094574000000001,0.0030150000000012,-0.0132635999999998,0.0014872000000003,0.0003788000000008,-0.0013389999999999,0,sub_17
-0.0097302000000001,-0.0001867999999987,-0.0131385999999998,0.0008316000000003,-0.0008951999999991,0.0001584,0,sub_17
-0.0100550000000001,-0.0024681999999987,-0.0130767999999998,0.0001828000000003,-0.001526599999999,0.0008004,0,sub_17
-0.0105594000000001,-0.0027101999999987,-0.0134973999999998,-0.0006717999999995,-0.0006649999999991,0.0012254,0,sub_17
-0.0110700000000001,-0.0026613999999987,-0.0144989999999998,-0.0019489999999995,0.0008382000000008,0.001433,0,sub_17
-0.0106176000000001,-0.0010027999999987,-0.0148745999999998,-0.0030053999999995,0.0033976000000008,0.001636,0,sub_17
-0.0105146000000001,0.0025518000000012,-0.0148375999999999,-0.0034225999999995,0.0055296000000008,0.0016304,0,sub_17
-0.0102464000000001,0.0061108000000012,-0.0146509999999999,-0.0034185999999995,0.0065940000000008,0.0018426,0,sub_17
-0.0099772000000001,0.0082218000000012,-0.0143183999999999,-0.0027831999999995,0.0057388000000008,0.0020618,0,sub_17
-0.0095450000000001,0.0083702000000012,-0.0137565999999999,-0.0010889999999995,0.0038176000000008,0.0022978,0,sub_17
-0.0089134000000001,0.0076160000000012,-0.0128617999999998,0.0008130000000004,0.0001930000000009,0.00211,0,sub_17
-0.0084010000000001,0.0047792000000012,-0.0123795999999998,0.0024988000000004,-0.003645799999999,0.0023484,0,sub_17
-0.0085612000000001,0.0015814000000012,-0.0119847999999998,0.0031194000000004,-0.006630199999999,0.0030056,0,sub_17
-0.0084116000000001,-0.0015285999999987,-0.0115505999999998,0.0031068000000004,-0.008121199999999,0.0036564,0,sub_17
-0.0089600000000001,-0.0028427999999987,-0.0112643999999998,0.0022456000000004,-0.008973999999999,0.004506,0,sub_17
-0.0093278000000001,-0.0029155999999987,-0.0121263999999998,0.0005376000000004,-0.008120199999999,0.0055612,0,sub_17
-0.0094418000000001,-0.0019283999999987,-0.0126669999999998,-0.0013741999999995,-0.005983799999999,0.0057586,0,sub_17
-0.0101198000000001,-0.0003161999999987,-0.0134251999999998,-0.0022179999999995,-0.003841399999999,0.0055412,0,sub_17
-0.0110242000000001,0.0009022000000012,-0.0143353999999998,-0.0026369999999995,-0.002762999999999,0.0046872,0,sub_17
-0.0111994000000001,0.0018248000000012,-0.0153087999999998,-0.0026291999999995,-0.0018983999999991,0.0036228,0,sub_17
-0.0113646000000001,0.0021452000000012,-0.0154489999999998,-0.0015515999999996,-0.0012471999999991,0.0017116,0,sub_17
-0.0118896000000001,0.0019224000000012,-0.0152423999999998,-0.0004721999999996,-0.0003819999999991,-0.0004133999999999,0,sub_17
-0.0116980000000001,0.0012334000000012,-0.0151325999999998,0.0003938000000003,0.0004750000000008,-0.0023311999999998,0,sub_17
-0.0109060000000001,0.0007744000000012,-0.0146493999999998,0.0006128000000003,0.0009038000000008,-0.0031847999999998,0,sub_17
-0.0101760000000001,0.0007908000000012,-0.0134175999999998,0.0006196000000003,0.0019848000000008,-0.0040311999999998,0,sub_17
-0.0096848000000001,0.0010810000000012,-0.0128805999999998,-1.5599999999592675e-05,0.0037030000000008,-0.0038145999999998,0,sub_17
-0.0091116000000001,0.0019158000000012,-0.0126397999999998,-0.0006611999999995,0.0041386000000008,-0.0025283999999998,0,sub_17
-0.0083150000000001,0.0029156000000012,-0.0127087999999998,-0.0015251999999995,0.0037218000000008,-0.0010289999999998,0,sub_17
-0.0080450000000001,0.0039238000000012,-0.0125525999999998,-0.0015307999999995,0.0035184000000008,-0.0003783999999998,0,sub_17
-0.0087096000000001,0.0044870000000012,-0.0132863999999998,-0.0013269999999995,0.0024482000000008,0.0006926,0,sub_17
-0.0090322000000001,0.0047700000000012,-0.0139567999999998,-0.0009137999999995,-0.000111599999999,0.001126,0,sub_17
-0.0093884000000001,0.0045540000000012,-0.0144421999999998,-6.99999999995927e-05,-0.002245199999999,0.0011346,0,sub_17
-0.0098618000000001,0.0038450000000012,-0.0146833999999998,0.0005646000000004,-0.003521399999999,0.0007256,0,sub_17
-0.0104884000000001,0.0032134000000012,-0.0151107999999998,0.0009858000000004,-0.004160199999999,0.0009554,0,sub_17
-0.0106466000000001,0.0022092000000012,-0.0149991999999998,0.0011994000000003,-0.003944399999999,0.0007552,0,sub_17
-0.0112998000000001,0.0012846000000012,-0.0147967999999998,0.0012006000000003,-0.0033025999999991,0.0007666,0,sub_17
-0.0112866000000001,0.0010822000000012,-0.0149417999999998,0.0009922000000003,-0.0022321999999991,0.0003488,0,sub_17
-0.0109516000000001,0.0014568000000012,-0.0149739999999998,0.0005722000000003,-0.0007393999999991,0.000344,0,sub_17
-0.0104880000000001,0.0014864000000012,-0.0146989999999998,-6.119999999963268e-05,0.0005420000000008,0.0001242,0,sub_17
-0.0097582000000001,0.0015314000000012,-0.0142323999999998,-0.0004801999999996,0.0020356000000008,-9.439999999991014e-05,0,sub_17
-0.0089818000000001,0.0014684000000012,-0.0137589999999998,-0.0009029999999995,0.0031014000000008,0.0001148,0,sub_17
-0.0085922000000001,0.0015572000000012,-0.0133313999999999,-0.0013301999999995,0.0033104000000008,0.0007578,0,sub_17
-0.0085396000000001,0.0019982000000012,-0.0130207999999998,-0.0013305999999995,0.0030936000000008,0.000977,0,sub_17
-0.0085822000000001,0.0021202000000012,-0.0130333999999998,-0.0011185999999995,0.0026630000000008,0.001198,0,sub_17
-0.0086478000000001,0.0030576000000012,-0.0129305999999998,-0.0006961999999995,0.0015926000000008,0.0014214,0,sub_17
-0.0085502000000001,0.0034836000000012,-0.0129571999999998,-0.0006967999999995,0.0009514000000008,0.001214,0,sub_17
-0.0086972000000001,0.0032748000000012,-0.0130315999999998,-0.0004891999999995,9.680000000086772e-05,0.0016438,0,sub_17
-0.0087510000000001,0.0023778000000012,-0.0129419999999998,-0.0002825999999995,-0.0009709999999991,0.002074,0,sub_17
-0.0090752000000001,0.0017928000000012,-0.0134183999999998,-0.0002867999999995,-0.0016033999999991,0.0022842,0,sub_17
-0.0093288000000001,0.0008596000000012,-0.0140837999999998,-0.0007137999999995,-0.0015943999999991,0.002277,0,sub_17
-0.0099436000000001,0.0006352000000012,-0.0140247999999998,-0.0009293999999995,-0.0017999999999991,0.0024852,0,sub_17
-0.0100874000000001,0.0008484000000012,-0.0140639999999998,-0.0015649999999995,-0.0011493999999991,0.0020484,0,sub_17
-0.0102974000000001,0.0014594000000012,-0.0142983999999998,-0.0015585999999995,-7.479999999911238e-05,0.0016156,0,sub_17
-0.0104340000000001,0.0017090000000012,-0.0138859999999998,-0.0013413999999995,0.0003522000000008,0.0011894,0,sub_17
-0.0105946000000001,0.0020328000000012,-0.0137543999999998,-0.0007003999999995,-0.0002857999999991,0.0003402,0,sub_17
-0.0099096000000001,0.0021296000000012,-0.0142365999999999,0.0003742000000004,-0.0002825999999991,-0.0013613999999999,0,sub_17
-0.0100434000000001,0.0013982000000012,-0.0142589999999999,0.0018766000000004,0.0001476000000008,-0.0026355999999999,0,sub_17
-0.0101626000000001,0.0011064000000012,-0.0141725999999999,0.0023064000000004,-6.019999999911235e-05,-0.0032755999999999,0,sub_17
-0.0098218000000001,0.0008404000000012,-0.0138099999999999,0.0020942000000004,-5.539999999911234e-05,-0.0032793999999999,0,sub_17
-0.0092606000000001,0.0010458000000012,-0.0129649999999999,0.0012438000000004,0.0010144000000008,-0.0026481999999998,0,sub_17
-0.0096004000000001,0.0013732000000012,-0.0125509999999999,-3.919999999959268e-05,0.0020806000000008,-0.0007379999999998,0,sub_17
-0.0094326000000001,0.0018566000000012,-0.0120411999999999,-0.0013251999999995,0.0018678000000008,0.0003216000000001,0,sub_17
-0.0088860000000001,0.0020774000000012,-0.0117259999999999,-0.0017547999999995,0.0016544000000008,0.0007462000000001,0,sub_17
-0.0086386000000001,0.0025758000000012,-0.0122551999999999,-0.0015423999999995,0.0014406000000008,0.0007480000000001,0,sub_17
-0.0090928000000001,0.0027802000000012,-0.0128473999999999,-0.0009045999999995,0.0005890000000008,0.0007518,0,sub_17
-0.0092438000000001,0.0032322000000012,-0.0135929999999999,-5.339999999959268e-05,-0.000475599999999,0.0005436,0,sub_17
-0.0092172000000001,0.0040454000000012,-0.0144345999999999,0.0005864000000004,-0.0006889999999991,0.0007602,0,sub_17
-0.0094082000000001,0.0045654000000012,-0.0150409999999999,0.0005850000000004,-0.0009007999999991,0.0011858,0,sub_17
-0.0094576000000001,0.0047190000000012,-0.0151429999999999,0.0003740000000004,-0.0006841999999991,0.0011822,0,sub_17
-0.0097278000000001,0.0046848000000012,-0.0157317999999998,0.0003778000000004,-0.0002563999999991,0.0007544,0,sub_17
-0.0095936000000001,0.0040516000000012,-0.0156813999999998,0.0008074000000004,-0.0002553999999991,0.0001164,0,sub_17
-0.0092620000000001,0.0032098000000012,-0.0153703999999998,0.0010188000000004,-0.0017431999999991,-0.0009485999999999,0,sub_17
-0.0094268000000001,0.0018682000000012,-0.0146077999999998,0.0018732000000004,-0.0028063999999991,-0.0022229999999999,0,sub_17
-0.0089576000000001,0.0008702000000012,-0.0137433999999998,0.0025094000000003,-0.0049341999999991,-0.0032855999999999,0,sub_17
-0.0077130000000001,-5.199999998738289e-06,-0.0129593999999999,0.0022900000000003,-0.006423999999999,-0.0032867999999999,0,sub_17
-0.0077664000000001,-0.0006223999999987,-0.0127287999999999,0.0016468000000003,-0.006212199999999,-0.0022247999999999,0,sub_17
-0.0089502000000001,-0.0008469999999987,-0.0130139999999998,0.0001558000000004,-0.004294799999999,-0.0007435999999999,0,sub_17
-0.0096590000000001,-0.0008879999999987,-0.0135353999999998,-0.0019723999999995,-0.0015237999999991,0.0009456,0,sub_17
-0.0110464000000001,-7.339999999873836e-05,-0.0150165999999998,-0.0036639999999995,0.0029522000000008,0.0019962,0,sub_17
-0.0125380000000001,0.0004860000000012,-0.0162087999999998,-0.0042857999999995,0.0067902000000008,0.0017732,0,sub_17
-0.0133526000000001,0.0010072000000012,-0.0169275999999998,-0.0044809999999995,0.0091414000000008,5.9600000000090136e-05,0,sub_17
-0.0128820000000001,0.0021824000000012,-0.0172217999999998,-0.0033961999999995,0.0106374000000008,-0.0018629999999999,0,sub_17
-0.0125304000000001,0.0036384000000012,-0.0176363999999998,-0.0018883999999995,0.0110674000000008,-0.0039949999999999,0,sub_17
-0.0118918000000001,0.0041470000000012,-0.0163029999999998,-0.0006007999999995,0.0108554000000008,-0.0052729999999999,0,sub_17
-0.0107938000000001,0.0045014000000012,-0.0145893999999998,-0.0001713999999995,0.0106422000000008,-0.0054887999999999,0,sub_17
-0.0092950000000001,0.0045514000000012,-0.0124921999999998,0.0002522000000003,0.0097874000000008,-0.0050627999999999,0,sub_17
-0.0079810000000001,0.0034412000000012,-0.0118447999999999,2.840000000038749e-05,0.0085054000000008,-0.0039943999999999,0,sub_17
-0.0064028000000001,0.0023064000000012,-0.0104493999999999,-0.0004135999999995,0.0067956000000008,-0.0022859999999999,0,sub_17
-0.0056160000000001,0.0011826000000012,-0.0100711999999998,-0.0010747999999995,0.0044450000000008,6.240000000006986e-05,0,sub_17
-0.0053458000000001,0.0002038000000012,-0.0103351999999998,-0.0010917999999995,0.0016706000000008,0.0015582,0,sub_17
-0.0054026000000001,-0.0002859999999987,-0.0112477999999998,-0.0013201999999995,-0.000676999999999,0.0030518,0,sub_17
-0.0059692000000001,0.0001194000000012,-0.0117011999999998,-0.0006855999999995,-0.002170199999999,0.0032686,0,sub_17
-0.0071238000000001,0.0010276000000012,-0.0124755999999998,0.0001662000000003,-0.003448599999999,0.0028456,0,sub_17
-0.0079552000000001,0.0022060000000012,-0.0135645999999999,0.0010248000000003,-0.004084399999999,0.0015674,0,sub_17
-0.0091194000000001,0.0033414000000012,-0.0143121999999998,0.0018810000000003,-0.004509199999999,0.0005058,0,sub_17
-0.0096816000000001,0.0039382000000012,-0.0146169999999998,0.0027402000000003,-0.0045071999999991,-0.0007699999999999,0,sub_17
-0.0102924000000001,0.0034574000000012,-0.0146321999999998,0.0029582000000004,-0.0045055999999991,-0.0014111999999999,0,sub_17
-0.0107888000000001,0.0025716000000012,-0.0144031999999998,0.0025360000000004,-0.0040771999999991,-0.0016299999999999,0,sub_17
-0.0108984000000001,0.0013714000000012,-0.0142301999999998,0.0023262000000004,-0.0034383999999991,-0.0014203999999999,0,sub_17
-0.0106496000000001,0.0003982000000012,-0.0140537999999998,0.0012632000000004,-0.0023721999999991,-0.0007899999999999,0,sub_17
-0.0107366000000001,-0.0002657999999987,-0.0139943999999998,-1.3199999999592444e-05,-0.0015173999999991,-0.0003743999999999,0,sub_17
-0.0102624000000001,0.0002014000000012,-0.0137899999999998,-0.0008627999999995,-0.0004499999999991,-0.0001679999999999,0,sub_17
-0.0095402000000001,0.0006726000000012,-0.0139181999999998,-0.0010703999999995,0.0004046000000008,-0.0005977999999999,0,sub_17
-0.0094292000000001,0.0011922000000012,-0.0135237999999998,-0.0010635999999995,0.0012594000000008,-0.0012395999999999,0,sub_17
-0.0093798000000001,0.0016500000000012,-0.0132527999999998,-0.0002047999999995,0.0014780000000008,-0.0023021999999999,0,sub_17
-0.0094678000000001,0.0017372000000012,-0.0130465999999998,0.0008664000000004,0.0012706000000008,-0.0035763999999999,0,sub_17
-0.0094934000000001,0.0016092000000012,-0.0133245999999998,0.0010774000000004,0.0006360000000008,-0.0037879999999999,0,sub_17
-0.0098588000000001,0.0011996000000012,-0.0138565999999998,0.0008608000000003,0.0006386000000008,-0.0031487999999999,0,sub_17
-0.0097528000000001,0.0017278000000012,-0.0147561999999998,2.000000004075131e-07,0.0002154000000008,-0.0020861999999999,0,sub_17
-0.0096478000000001,0.0022212000000012,-0.0144875999999998,-0.0014971999999995,0.0004294000000008,-0.0010287999999999,0,sub_17
-0.0092300000000001,0.0035620000000012,-0.0140617999999998,-0.0032051999999995,0.0014956000000008,0.0002398,0,sub_17
-0.0086978000000001,0.0054058000000012,-0.0132715999999998,-0.0040575999999995,0.0025604000000008,0.0010872,0,sub_17
-0.0078448000000001,0.0061458000000012,-0.0125017999999998,-0.0036293999999995,0.0023420000000008,0.0013056,0,sub_17
-0.0071220000000001,0.0059982000000012,-0.0117319999999998,-0.0017075999999995,0.0012698000000008,0.0006808,0,sub_17
-0.0069874000000001,0.0053174000000012,-0.0114297999999998,0.0004276000000004,-0.0002275999999991,-0.0003689999999999,0,sub_17
-0.0071054000000001,0.0039726000000012,-0.0113273999999998,0.0029858000000003,-0.0027909999999991,-0.0016283999999999,0,sub_17
-0.0074190000000001,0.0019206000000012,-0.0116263999999998,0.0053296000000003,-0.0055667999999991,-0.0028889999999999,0,sub_17
-0.0083930000000001,1.8800000001241608e-05,-0.0117609999999998,0.0066108000000003,-0.0062069999999991,-0.0037337999999999,0,sub_17
-0.0104478000000001,-0.0022631999999987,-0.0121091999999999,0.0061832000000003,-0.0064185999999991,-0.0037363999999999,0,sub_17
-0.0116624000000001,-0.0043575999999987,-0.0134847999999999,0.0051096000000003,-0.0068451999999991,-0.0026751999999999,0,sub_17
-0.0130134000000001,-0.0057733999999987,-0.0155493999999999,0.0029758000000003,-0.0055645999999991,-0.0014097999999999,0,sub_17
-0.0150324000000001,-0.0069265999999987,-0.0165805999999999,4.80000000038748e-06,-0.0015289999999991,6.580000000007005e-05,0,sub_17
-0.0163684000000001,-0.0062193999999987,-0.0180333999999999,-0.0038205999999995,0.0022964000000008,0.0015356,0,sub_17
-0.0156134000000001,-0.0011815999999987,-0.0190843999999999,-0.0076383999999995,0.0074018000000008,0.0025764,0,sub_17
-0.0151388000000001,0.0041500000000012,-0.0197879999999999,-0.0101729999999995,0.0127174000000008,0.0031988,0,sub_17
-0.0121040000000001,0.0098552000000012,-0.0188099999999999,-0.0114301999999995,0.0163286000000008,0.002764,0,sub_17
-0.0081786000000001,0.0148438000000012,-0.0167933999999998,-0.0094963999999995,0.0167582000000008,0.0002132,0,sub_17
-0.0053102000000001,0.0187684000000012,-0.0139283999999998,-0.0048049999999995,0.0131318000000008,-0.0027403999999999,0,sub_17
-0.0028480000000001,0.0164426000000012,-0.0111757999999998,0.0013560000000004,0.0048104000000008,-0.0050367999999999,0,sub_17
-0.0003864000000001,0.0115152000000012,-0.0082647999999998,0.0081548000000004,-0.0043679999999991,-0.0075387999999999,0,sub_17
-0.0015742000000001,0.0025326000000012,-0.0065299999999998,0.0140944000000004,-0.0129119999999991,-0.0081247999999999,0,sub_17
-0.0043906000000001,-0.0071853999999987,-0.0066885999999999,0.0166180000000004,-0.0195359999999991,-0.0063869999999999,0,sub_17
-0.0070374000000001,-0.0160113999999987,-0.0086851999999998,0.0144658000000004,-0.021034599999999,-0.0036201999999999,0,sub_17
-0.0112272000000001,-0.0202545999999987,-0.0110605999999998,0.0091416000000004,-0.015917999999999,-0.0006703999999999,0,sub_17
-0.0150170000000001,-0.0181201999999987,-0.0141677999999998,0.0006258000000004,-0.007807399999999,0.0031052,0,sub_17
-0.0160968000000001,-0.0087087999999987,-0.0167067999999998,-0.0085175999999995,0.0020140000000009,0.0058062,0,sub_17
-0.0157458000000001,0.0029230000000012,-0.0185711999999998,-0.0153053999999995,0.0126832000000008,0.0074582,0,sub_17
-0.0140676000000001,0.0146516000000012,-0.0192199999999998,-0.0167789999999995,0.0171620000000008,0.007446,0,sub_17
-0.0099198000000001,0.0210612000000012,-0.0183841999999998,-0.0133621999999996,0.0158788000000008,0.0055526,0,sub_17
-0.0063708000000001,0.0221004000000012,-0.0167961999999998,-0.0052607999999996,0.0101144000000008,0.0013476,0,sub_17
-0.0046048000000001,0.0172102000000012,-0.0150615999999998,0.0045370000000003,0.0013640000000009,-0.0034827999999999,0,sub_17
-0.0045466000000001,0.0060740000000012,-0.0133353999999998,0.0124040000000003,-0.009086199999999,-0.0076873999999999,0,sub_17
-0.0051418000000001,-0.0059675999999987,-0.0120091999999998,0.0153796000000003,-0.013775199999999,-0.0097969999999999,0,sub_17
-0.0075582000000001,-0.0122275999999987,-0.0117325999999998,0.0134602000000004,-0.012706599999999,-0.0089571999999999,0,sub_17
-0.0098324000000001,-0.0134071999999987,-0.0118673999999999,0.0066406000000004,-0.007374799999999,-0.0049483999999999,0,sub_17
-0.0112290000000001,-0.0104477999999987,-0.0129715999999999,-0.0018849999999995,-0.0001263999999991,0.0007552,0,sub_17
-0.0111570000000001,-0.0013027999999987,-0.0144191999999999,-0.0091321999999995,0.0062670000000008,0.0060414,0,sub_17
-0.0104170000000001,0.0083172000000012,-0.0159143999999999,-0.0127567999999995,0.0092482000000008,0.0090072,0,sub_17
-0.0092104000000001,0.0137790000000012,-0.0168233999999998,-0.0116911999999995,0.0079656000000008,0.008593,0,sub_17
-0.0085760000000001,0.0138990000000012,-0.0166569999999998,-0.0063615999999995,0.0041232000000008,0.0058578,0,sub_17
-0.0088362000000001,0.0097992000000012,-0.0158989999999998,0.0002500000000004,-0.0007829999999991,0.0016374,0,sub_17
-0.0092714000000001,0.0036386000000012,-0.0148857999999998,0.0057968000000004,-0.004834999999999,-0.0021641999999999,0,sub_17
