userAcceleration.x,userAcceleration.y,userAcceleration.z,rotationRate.x,rotationRate.y,rotationRate.z,label,subject
-0.0068350000000001,0.0060158000000011,-0.0187825999999998,0.0054146000000003,-0.012948399999999,0.0048744,0,sub_10
-0.0071742000000001,0.0002016000000011,-0.0197119999999999,0.0058646000000003,-0.011228799999999,0.0018872,0,sub_10
-0.0073400000000001,-0.0027533999999988,-0.0200263999999999,0.0048334000000004,-0.007795199999999,-0.0021807999999999,0,sub_10
-0.0085106000000001,-0.0020051999999988,-0.0201845999999999,0.0027240000000004,-0.005641199999999,-0.0049727999999999,0,sub_10
-0.0088020000000002,0.0018562000000011,-0.0204309999999999,-0.0002573999999995,-0.005201199999999,-0.0058487999999999,0,sub_10
-0.0112840000000002,0.0061286000000011,-0.0208497999999999,-0.0028177999999995,-0.004979999999999,-0.0056533999999999,0,sub_10
-0.0136952000000002,0.0099974000000011,-0.0212621999999999,-0.0038883999999995,-0.004767399999999,-0.0045927999999999,0,sub_10
-0.0154920000000002,0.0128392000000011,-0.0222603999999999,-0.0030303999999995,-0.004162799999999,-0.0032979999999999,0,sub_10
-0.0163334000000002,0.0141436000000011,-0.0232753999999998,-0.0010971999999995,-0.002705399999999,-0.0030649999999999,0,sub_10
-0.0172202000000002,0.0138226000000011,-0.0238275999999998,0.0023336000000004,0.0004478000000009,-0.0019691999999999,0,sub_10
-0.0156478000000002,0.0122726000000011,-0.0232105999999998,0.0040574000000004,0.0040314000000009,-0.0004583999999999,0,sub_10
-0.0119014000000002,0.0089618000000012,-0.0216829999999998,0.0049142000000004,0.0052718000000009,0.0016902,0,sub_10
-0.0089232000000002,0.0059500000000011,-0.0198663999999999,0.0051304000000004,0.0073956000000009,0.0031846,0,sub_10
-0.0068040000000002,0.0040510000000011,-0.0186713999999999,0.0040656000000003,0.0090986000000009,0.004457,0,sub_10
-0.0057522000000002,0.0024612000000011,-0.0172841999999999,0.0012908000000003,0.0084708000000009,0.0040112,0,sub_10
-0.0056470000000002,0.0017800000000011,-0.0167745999999999,-0.0004083999999995,0.0063120000000009,0.002725,0,sub_10
-0.0057790000000002,0.0031188000000011,-0.0173439999999999,-0.0018873999999995,0.0045828000000009,0.0003716,0,sub_10
-0.0070054000000001,0.0050470000000011,-0.0187563999999999,-0.0031617999999995,0.0013600000000009,-0.0015511999999999,0,sub_10
-0.0089006000000001,0.0068532000000011,-0.0191449999999998,-0.0035759999999995,-0.000586799999999,-0.0036833999999999,0,sub_10
-0.0113758000000002,0.0084106000000011,-0.0198615999999999,-0.0029233999999995,-0.001476199999999,-0.0047411999999999,0,sub_10
-0.0132308000000001,0.0100040000000011,-0.0205971999999998,-0.0012193999999995,-0.002333599999999,-0.0049417999999999,0,sub_10
-0.0137788000000001,0.0108536000000011,-0.0205549999999998,0.0006942000000004,-0.003407199999999,-0.0044997999999999,0,sub_10
-0.0127302000000002,0.0114226000000011,-0.0200567999999998,0.0021802000000004,-0.004480199999999,-0.0038471999999999,0,sub_10
-0.0119288000000002,0.0106614000000011,-0.0195687999999999,0.0041000000000004,-0.005593999999999,-0.0025437999999999,0,sub_10
-0.0105070000000002,0.0095714000000011,-0.0193877999999999,0.0051636000000004,-0.007343999999999,-0.0012455999999999,0,sub_10
-0.0096662000000002,0.0078044000000011,-0.0197915999999999,0.0055852000000004,-0.009305599999999,0.0002618,0,sub_10
-0.0098718000000002,0.0060064000000011,-0.0202939999999999,0.0047302000000004,-0.010198399999999,0.0019726,0,sub_10
-0.0103054000000002,0.0041622000000011,-0.0201365999999999,0.0032438000000004,-0.009808199999999,0.0030366,0,sub_10
-0.0096856000000001,0.0038620000000011,-0.0203207999999998,0.0006872000000004,-0.008946999999999,0.0030176,0,sub_10
-0.0097676000000001,0.0045366000000011,-0.0205589999999998,-0.0007967999999995,-0.007660199999999,0.002151,0,sub_10
-0.0098454000000002,0.0056208000000011,-0.0203481999999998,-0.0018541999999995,-0.006586999999999,0.001074,0,sub_10
-0.0100654000000002,0.0073282000000011,-0.0206831999999998,-0.0018473999999996,-0.006368799999999,-0.0002079999999999,0,sub_10
-0.0100864000000001,0.0087506000000012,-0.0208805999999998,-0.0012011999999996,-0.007025199999999,-0.0010583999999999,0,sub_10
-0.0108604000000002,0.0099532000000012,-0.0211665999999998,8.040000000038182e-05,-0.007475799999999,-0.0006227999999999,0,sub_10
-0.0111392000000002,0.0101036000000011,-0.0209655999999998,0.0013630000000003,-0.007500999999999,2.600000000005237e-05,0,sub_10
-0.0118990000000002,0.0098236000000011,-0.0210049999999998,0.0020026000000003,-0.007738799999999,0.0010978,0,sub_10
-0.0128852000000002,0.0091306000000011,-0.0213333999999999,0.0028584000000004,-0.007762799999999,0.0017436,0,sub_10
-0.0127458000000002,0.0086876000000011,-0.0222221999999999,0.0034986000000004,-0.006916199999999,0.0026016,0,sub_10
-0.0115430000000002,0.0076840000000011,-0.0216873999999999,0.0024374000000004,-0.004573199999999,0.0036594,0,sub_10
-0.0108828000000002,0.0069472000000011,-0.0211855999999999,0.0007400000000004,-0.001375799999999,0.0047116,0,sub_10
-0.0108658000000002,0.0068164000000011,-0.0204811999999998,0.0001116000000004,0.0011808000000009,0.0051361999999999,0,sub_10
-0.0100402000000002,0.0064174000000011,-0.0199731999999998,-0.0005273999999995,0.0016062000000009,0.0057769999999999,0,sub_10
-0.0103982000000002,0.0062304000000011,-0.0193713999999998,-0.0013807999999995,0.0009704000000009,0.005563,0,sub_10
-0.0107464000000002,0.0073638000000011,-0.0195211999999999,-0.0011641999999995,0.0003334000000009,0.0047156,0,sub_10
-0.0112676000000002,0.0080728000000011,-0.0194649999999998,-0.0009487999999995,-0.000516599999999,0.0038684,0,sub_10
-0.0105012000000002,0.0085820000000011,-0.0193891999999999,-0.0018021999999995,-0.001362399999999,0.0030088,0,sub_10
-0.0098980000000002,0.0094004000000011,-0.0187997999999999,-0.0022231999999995,-0.000931399999999,0.0021506,0,sub_10
-0.0093890000000002,0.0101784000000011,-0.0182305999999999,-0.0022165999999995,-8.499999999903637e-05,0.001296,0,sub_10
-0.0092774000000002,0.0097830000000011,-0.0182101999999998,-0.0011479999999995,-0.000944199999999,-0.0001897999999999,0,sub_10
-0.0095214000000002,0.0103572000000011,-0.0189857999999998,0.0003416000000004,-0.002871199999999,-0.0014575999999999,0,sub_10
-0.0095100000000002,0.0101820000000011,-0.0202109999999998,0.0022512000000004,-0.0056543999999989,-0.0020803999999998,0,sub_10
-0.0101066000000002,0.0091068000000011,-0.0211149999999998,0.0035236000000004,-0.0075839999999989,-0.0024951999999998,0,sub_10
-0.0106026000000002,0.0063668000000011,-0.0217775999999998,0.0039552000000004,-0.006520199999999,-0.0024935999999998,0,sub_10
-0.0110644000000002,0.0041030000000011,-0.0225627999999999,0.0029026000000004,-0.003532999999999,-0.0027185999999999,0,sub_10
-0.0109410000000002,0.0022648000000011,-0.0223111999999999,0.0010062000000004,0.0005270000000009,-0.0040189999999999,0,sub_10
-0.0118210000000002,0.0022232000000011,-0.0215423999999999,-0.0021645999999995,0.0065120000000009,-0.0055381999999999,0,sub_10
-0.0121190000000002,0.0036850000000011,-0.0210405999999999,-0.0051237999999995,0.0122822000000009,-0.0068419999999999,0,sub_10
-0.0119766000000002,0.0073640000000011,-0.0206053999999999,-0.0068211999999995,0.0148486000000009,-0.0072781999999999,0,sub_10
-0.0122428000000002,0.0108162000000011,-0.0195935999999999,-0.0074601999999995,0.0163428000000009,-0.0068509999999999,0,sub_10
-0.0130812000000002,0.0133982000000011,-0.0192259999999999,-0.0066179999999995,0.0163352000000009,-0.0051297999999999,0,sub_10
-0.0127788000000002,0.0137994000000012,-0.0193185999999999,-0.0036461999999995,0.0148256000000009,-0.0031843999999999,0,sub_10
-0.0126600000000002,0.0133044000000011,-0.0192493999999999,-0.0008897999999995,0.0128908000000009,-0.0012397999999999,0,sub_10
-0.0120180000000002,0.0118842000000011,-0.0196063999999999,0.0012324000000004,0.0118122000000009,0.000272,0,sub_10
-0.0114134000000002,0.0103234000000011,-0.0202571999999999,0.0027136000000004,0.0103104000000009,0.0015662,0,sub_10
-0.0101250000000002,0.0071498000000011,-0.0204425999999999,0.0024918000000004,0.0107508000000009,0.0028484,0,sub_10
-0.0076920000000002,0.0053714000000011,-0.0197217999999999,0.0005670000000004,0.0114130000000009,0.0034774,0,sub_10
-0.0049774000000002,0.0038252000000011,-0.0186453999999998,-0.0011423999999995,0.0112272000000009,0.002827,0,sub_10
-0.0046310000000002,0.0030692000000011,-0.0175941999999999,-0.0022041999999995,0.0110460000000009,0.000472,0,sub_10
-0.0054462000000002,0.0039354000000011,-0.0172505999999998,-0.0026335999999995,0.0093704000000009,-0.0016629999999999,0,sub_10
-0.0069940000000002,0.0059280000000011,-0.0172605999999998,-0.0026451999999995,0.0049040000000009,-0.0035801999999999,0,sub_10
-0.0102982000000002,0.0080918000000011,-0.0183301999999998,-0.0028681999999995,0.0017132000000009,-0.0046457999999999,0,sub_10
-0.0134732000000002,0.0099752000000011,-0.0196717999999999,-0.0035215999999995,0.0006718000000009,-0.0042257999999999,0,sub_10
-0.0155806000000002,0.0110022000000011,-0.0210899999999998,-0.0043899999999995,0.0006904000000009,-0.0023131999999999,0,sub_10
-0.0157422000000002,0.0102578000000011,-0.0217467999999998,-0.0048279999999995,0.0015598000000009,-0.0003985999999999,0,sub_10
-0.0148650000000002,0.0098258000000011,-0.0221151999999998,-0.0044007999999995,0.0041340000000009,0.0006652,0,sub_10
-0.0140348000000002,0.0089706000000012,-0.0217507999999998,-0.0024761999999995,0.0069186000000009,0.0010982,0,sub_10
-0.0124886000000002,0.0076650000000011,-0.0212047999999998,-0.0001175999999995,0.0092548000000009,0.000898,0,sub_10
-0.0106072000000002,0.0064362000000011,-0.0203791999999998,0.0018084000000004,0.0101020000000009,0.0004832,0,sub_10
-0.0087456000000002,0.0054228000000011,-0.0193049999999998,0.0022400000000004,0.0111658000000009,0.0004848,0,sub_10
-0.0081678000000002,0.0050360000000011,-0.0182959999999998,0.0018198000000004,0.0122342000000009,5.320000000007276e-05,0,sub_10
-0.0075036000000002,0.0050464000000011,-0.0179799999999998,0.0001142000000004,0.0124740000000008,-0.0006079999999999,0,sub_10
-0.0081006000000002,0.0053078000000011,-0.0179439999999998,-0.0013825999999995,0.0116480000000008,-0.0012661999999999,0,sub_10
-0.0086728000000002,0.0064236000000011,-0.0180315999999998,-0.0026717999999995,0.0097550000000009,-0.0017081999999999,0,sub_10
-0.0098570000000002,0.0077746000000011,-0.0179921999999998,-0.0028951999999995,0.0078574000000009,-0.0019289999999999,0,sub_10
-0.0104712000000002,0.0081212000000011,-0.0182549999999999,-0.0024859999999995,0.0057386000000009,-0.0006495999999999,0,sub_10
-0.0105994000000002,0.0082242000000011,-0.0183693999999999,-0.0005847999999995,0.0025318000000009,0.000436,0,sub_10
-0.0098878000000002,0.0091412000000011,-0.0181879999999999,0.0008878000000004,-0.000887399999999,0.0017324,0,sub_10
-0.0094890000000002,0.0098172000000011,-0.0175879999999999,0.0021546000000004,-0.003025799999999,0.0025986,0,sub_10
-0.0103760000000002,0.0111152000000011,-0.0172761999999999,0.0029900000000004,-0.005367999999999,0.004105,0,sub_10
-0.0106968000000002,0.0122468000000011,-0.0173125999999999,0.0038148000000004,-0.009841599999999,0.0058278,0,sub_10
-0.0110400000000002,0.0119578000000011,-0.0176079999999999,0.0037814000000004,-0.014104199999999,0.0088262,0,sub_10
-0.0104630000000002,0.0093752000000011,-0.0187459999999999,0.0031278000000004,-0.014951599999999,0.0107476,0,sub_10
-0.0092628000000002,0.0062634000000011,-0.0200717999999999,0.0024896000000004,-0.013875399999999,0.011171,0,sub_10
-0.0071598000000002,0.0026932000000011,-0.0210711999999999,0.0016524000000004,-0.012372599999999,0.0090268,0,sub_10
-0.0063886000000002,-0.0004349999999988,-0.0211387999999999,0.0006230000000004,-0.007667199999999,0.0053816,0,sub_10
-0.0059684000000002,-0.0013677999999988,-0.0214279999999999,-0.0001863999999995,-0.003406399999999,0.0006762,0,sub_10
-0.0067628000000002,-0.0001557999999988,-0.0212463999999999,-0.0003661999999995,-0.001279199999999,-0.0038083999999999,0,sub_10
-0.0078568000000002,0.0033300000000011,-0.0201601999999999,-0.0011917999999995,0.0008450000000009,-0.0070155999999999,0,sub_10
-0.0106242000000002,0.0071620000000011,-0.0192515999999999,-0.0007447999999995,0.0021092000000009,-0.0093583999999999,0,sub_10
-0.0133352000000002,0.0111912000000011,-0.0198559999999999,0.0001106000000004,0.0010216000000009,-0.0099861999999999,0,sub_10
-0.0151850000000002,0.0138224000000011,-0.0198605999999999,0.0005278000000004,0.0003750000000009,-0.0084869999999999,0,sub_10
-0.0159202000000002,0.0156422000000011,-0.0201999999999999,0.0009364000000004,-0.000279399999999,-0.0050649999999999,0,sub_10
-0.0166318000000002,0.0154584000000011,-0.0208343999999999,0.0024080000000004,-0.001365199999999,-0.0012077999999999,0,sub_10
-0.0157314000000002,0.0125440000000011,-0.0217153999999999,0.0034584000000004,-0.001383399999999,0.0024316,0,sub_10
-0.0131618000000002,0.0088222000000011,-0.0215949999999998,0.0045248000000004,-0.001210599999999,0.004583,0,sub_10
-0.0097924000000002,0.0054408000000011,-0.0209805999999998,0.0051788000000004,3.740000000096377e-05,0.0045936,0,sub_10
-0.0079708000000002,0.0021740000000011,-0.0203231999999998,0.0041374000000004,0.0029994000000009,0.0037356,0,sub_10
-0.0071548000000002,-2.499999999880211e-05,-0.0192309999999998,0.0018090000000004,0.0046866000000009,0.003084,0,sub_10
-0.0060068000000002,3.2400000001197875e-05,-0.0181889999999998,-0.0011671999999995,0.0046716000000009,0.00243,0,sub_10
-0.0059862000000002,0.0012014000000011,-0.0180989999999998,-0.0045763999999995,0.0051122000000009,0.0017646,0,sub_10
-0.0072354000000002,0.0046298000000011,-0.0184189999999998,-0.0073425999999995,0.0057654000000009,0.0006762,0,sub_10
-0.0092590000000002,0.0087948000000011,-0.0181039999999998,-0.0077631999999995,0.0046686000000009,-0.0003887999999999,0,sub_10
-0.0110154000000002,0.0112994000000011,-0.0189251999999999,-0.0060509999999995,0.0027146000000009,-0.0020787999999999,0,sub_10
-0.0126510000000002,0.0128838000000011,-0.0200887999999999,-0.0022057999999995,0.0009646000000009,-0.0033269999999999,0,sub_10
-0.0131048000000002,0.0139150000000011,-0.0207493999999999,0.0020632000000004,-0.000789599999999,-0.0039309999999999,0,sub_10
-0.0129236000000002,0.0118272000000011,-0.0204883999999999,0.0061198000000004,-0.001905599999999,-0.0041101999999999,0,sub_10
-0.0116540000000002,0.0093282000000011,-0.0200763999999999,0.0086812000000004,-0.001913799999999,-0.0043059999999999,0,sub_10
-0.0099360000000002,0.0062660000000011,-0.0196035999999999,0.0091062000000004,-0.001492599999999,-0.0034489999999999,0,sub_10
-0.0089550000000002,0.0047360000000011,-0.0187403999999999,0.0071790000000004,-0.001491799999999,-0.0019669999999999,0,sub_10
-0.0080128000000002,0.0038656000000011,-0.0185607999999999,0.0041850000000004,-0.001274999999999,-0.0002791999999999,0,sub_10
-0.0075622000000002,0.0037500000000011,-0.0184523999999999,0.0005478000000004,-0.002152599999999,0.001833,0,sub_10
-0.0070926000000002,0.0045646000000011,-0.0189919999999999,-0.0018109999999995,-0.004097399999999,0.0033144,0,sub_10
-0.0078412000000002,0.0067532000000011,-0.0199997999999999,-0.0022419999999995,-0.005829799999999,0.0033134,0,sub_10
-0.0083388000000002,0.0076232000000011,-0.0213865999999999,-0.0022431999999995,-0.007349199999999,0.002888,0,sub_10
-0.0096860000000002,0.0081850000000011,-0.0213023999999999,-0.0015985999999995,-0.008228999999999,0.0018254,0,sub_10
-0.0110340000000002,0.0088258000000011,-0.0218533999999999,-9.63999999995785e-05,-0.008014399999999,0.0001264,0,sub_10
-0.0130474000000002,0.0088802000000011,-0.0218939999999999,0.0005532000000004,-0.007159399999999,-0.0011519999999999,0,sub_10
-0.0133250000000002,0.0085268000000011,-0.0214261999999999,0.0001322000000004,-0.005879599999999,-0.0011563999999999,0,sub_10
-0.0130752000000002,0.0083778000000011,-0.0208239999999999,0.0001428000000004,-0.003323999999999,-0.0011689999999999,0,sub_10
-0.0125644000000002,0.0081136000000011,-0.0206867999999999,0.0003648000000004,-0.001195399999999,-0.0011797999999999,0,sub_10
-0.0121094000000002,0.0080996000000011,-0.0201443999999998,0.0005830000000004,0.0005056000000009,-0.0007627999999999,0,sub_10
-0.0112478000000002,0.0080336000000011,-0.0199779999999998,0.0014356000000003,0.0007138000000009,-0.0005529999999999,0,sub_10
-0.0107108000000002,0.0075010000000011,-0.0195353999999998,0.0027110000000003,6.820000000094364e-05,-0.0003391999999999,0,sub_10
-0.0104958000000002,0.0068428000000011,-0.0194465999999998,0.0031320000000003,-0.000574999999999,0.0003054,0,sub_10
-0.0099262000000002,0.0061116000000011,-0.0192977999999998,0.0031224000000003,-0.002280999999999,0.0007348,0,sub_10
-0.0096264000000002,0.0055570000000011,-0.0197097999999999,0.0031118000000004,-0.004200199999999,0.0011646,0,sub_10
-0.0096032000000002,0.0058628000000011,-0.0197477999999998,0.0024660000000004,-0.004623999999999,0.0011606,0,sub_10
-0.0103246000000002,0.0070906000000011,-0.0200651999999998,0.0013974000000004,-0.004618599999999,0.0007258,0,sub_10
-0.0109080000000002,0.0087758000000011,-0.0197577999999999,0.0007506000000004,-0.005467599999999,0.0005086,0,sub_10
-0.0112106000000002,0.0093532000000011,-0.0195715999999999,0.0007420000000004,-0.005896199999999,0.00115,0,sub_10
-0.0110904000000002,0.0091622000000011,-0.0194387999999999,0.0009468000000004,-0.006325599999999,0.0017928,0,sub_10
-0.0105866000000002,0.0077758000000011,-0.0195783999999999,0.0015802000000004,-0.007182599999999,0.0024392,0,sub_10
-0.0095696000000001,0.0064168000000011,-0.0196223999999999,0.0020012000000004,-0.008462399999999,0.0024436,0,sub_10
-0.0091490000000002,0.0058048000000011,-0.0197165999999999,0.0020036000000004,-0.008680799999999,0.0020134,0,sub_10
-0.0091300000000002,0.0064084000000011,-0.0197447999999999,0.0013728000000004,-0.007405599999999,0.0015768,0,sub_10
-0.0089302000000001,0.0078400000000011,-0.0194949999999999,0.0005266000000004,-0.006767799999999,0.000926,0,sub_10
-0.0099652000000001,0.0084446000000011,-0.0196855999999999,0.0003196000000004,-0.006345199999999,0.0002798,0,sub_10
-0.0109886000000002,0.0089774000000011,-0.0199621999999998,0.0011774000000004,-0.005715799999999,0.000282,0,sub_10
-0.0104320000000002,0.0083170000000011,-0.0200071999999998,0.0018204000000004,-0.005503199999999,-0.0001409999999999,0,sub_10
-0.0100090000000002,0.0077682000000011,-0.0197659999999998,0.0024672000000004,-0.004862799999999,-0.0009917999999999,0,sub_10
-0.0111248000000002,0.0069288000000011,-0.0195147999999998,0.0031168000000004,-0.002946799999999,-0.0012033999999999,0,sub_10
-0.0108928000000002,0.0074844000000011,-0.0194971999999999,0.0031196000000004,-0.001671199999999,-0.0005639999999999,0,sub_10
-0.0103234000000002,0.0077666000000011,-0.0193651999999999,0.0018320000000004,-0.001455599999999,-0.0001453999999999,0,sub_10
-0.0107284000000002,0.0083148000000011,-0.0194363999999999,0.0009732000000004,-0.000815399999999,0.0002758,0,sub_10
-0.0111214000000002,0.0079152000000011,-0.0194547999999999,0.0005380000000004,-0.001027999999999,0.0004874,0,sub_10
-0.0107978000000002,0.0080704000000011,-0.0196163999999999,0.0003106000000004,-0.002307399999999,0.0009154,0,sub_10
-0.0108084000000002,0.0083386000000011,-0.0192499999999998,-0.0001281999999995,-0.003372199999999,0.0011282,0,sub_10
-0.0106396000000002,0.0079374000000011,-0.0190221999999999,-0.0001291999999995,-0.003160799999999,0.0015554,0,sub_10
-0.0108378000000002,0.0074504000000011,-0.0187021999999998,-0.0001301999999995,-0.003373799999999,0.0015556,0,sub_10
-0.0106770000000002,0.0074678000000011,-0.0187373999999998,7.840000000042152e-05,-0.004227599999999,0.0017718,0,sub_10
-0.0103536000000002,0.0072246000000011,-0.0192811999999998,0.0002884000000004,-0.004640599999999,0.0013452,0,sub_10
-0.0098224000000002,0.0064224000000011,-0.0193751999999998,0.0002858000000004,-0.004627599999999,0.0011302,0,sub_10
-0.0095978000000002,0.0066140000000011,-0.0190893999999998,0.0002834000000004,-0.004614599999999,0.000915,0,sub_10
-0.0095262000000002,0.0068180000000011,-0.0188247999999999,0.0002790000000004,-0.004603199999999,0.0011274,0,sub_10
-0.0098782000000002,0.0077226000000011,-0.0187353999999999,6.500000000042153e-05,-0.003951199999999,0.0011238,0,sub_10
-0.0097748000000002,0.0081970000000011,-0.0179721999999999,-0.0003569999999995,-0.003520999999999,0.0004794,0,sub_10
-0.0102832000000002,0.0092542000000011,-0.0178797999999999,-0.0001377999999995,-0.003092199999999,-0.0003741999999999,0,sub_10
-0.0112458000000002,0.0097756000000011,-0.0181089999999999,0.0005042000000004,-0.003304999999999,-0.0010101999999999,0,sub_10
-0.0113588000000002,0.0095954000000011,-0.0191267999999999,0.0015630000000004,-0.003722199999999,-0.0010037999999999,0,sub_10
-0.0104964000000002,0.0078592000000011,-0.0199911999999998,0.0019828000000004,-0.004136199999999,-0.0012153999999999,0,sub_10
-0.0100408000000002,0.0061052000000011,-0.0203333999999998,0.0011328000000004,-0.002202199999999,-0.0014387999999999,0,sub_10
-0.0095264000000002,0.0050488000000011,-0.0199197999999998,0.0002924000000004,0.0012258000000009,-0.0023051999999999,0,sub_10
-0.0094454000000002,0.0044740000000011,-0.0201797999999998,-0.0011851999999995,0.0048708000000009,-0.0036035999999999,0,sub_10
-0.0097772000000002,0.0051376000000011,-0.0199843999999998,-0.0033025999999995,0.0072270000000009,-0.0049031999999999,0,sub_10
-0.0114322000000001,0.0068262000000011,-0.0191529999999999,-0.0047855999999995,0.0093636000000009,-0.0051299999999999,0,sub_10
-0.0115786000000001,0.0094824000000011,-0.0192569999999998,-0.0047889999999995,0.0104506000000009,-0.0047091999999999,0,sub_10
-0.0112252000000001,0.0104494000000011,-0.0197915999999999,-0.0045877999999995,0.0096192000000009,-0.0042843999999999,0,sub_10
-0.0105288000000001,0.0106068000000011,-0.0195331999999998,-0.0037367999999995,0.0109162000000009,-0.0038577999999999,0,sub_10
-0.0106640000000001,0.0100234000000011,-0.0191127999999999,-0.0020265999999995,0.0134884000000009,-0.0034269999999999,0,sub_10
-0.0099104000000001,0.0097330000000011,-0.0194213999999999,-0.0007469999999995,0.0147856000000009,-0.0034247999999999,0,sub_10
-0.0105320000000001,0.0082366000000011,-0.0194835999999999,-0.0001115999999995,0.0141424000000009,-0.0029921999999999,0,sub_10
-0.0108876000000001,0.0075808000000011,-0.0192005999999999,-0.0005419999999995,0.0141406000000009,-0.0021405999999999,0,sub_10
-0.0107442000000001,0.0070732000000011,-0.0189435999999999,-0.0011935999999995,0.0126472000000009,-0.0010749999999999,0,sub_10
-0.0103102000000001,0.0069950000000011,-0.0191187999999999,-0.0020613999999995,0.0100910000000008,-0.0004367999999999,0,sub_10
-0.0096634000000002,0.0069314000000011,-0.0192063999999999,-0.0025015999999995,0.0086270000000008,-0.0006553999999999,0,sub_10
-0.0095336000000002,0.0066020000000011,-0.0193137999999999,-0.0029371999999995,0.0082282000000008,-0.0008755999999999,0,sub_10
-0.0097178000000002,0.0059946000000011,-0.0198191999999998,-0.0027317999999995,0.0080402000000008,-0.0010915999999999,0,sub_10
-0.0098802000000002,0.0061442000000011,-0.0203481999999998,-0.0023157999999995,0.0070000000000009,-0.0015185999999999,0,sub_10
-0.0093494000000002,0.0069572000000011,-0.0201461999999998,-0.0016815999999995,0.0066000000000009,-0.0023721999999999,0,sub_10
-0.0091448000000002,0.0073156000000011,-0.0197981999999998,-0.0014663999999995,0.0068130000000009,-0.0025847999999999,0,sub_10
-0.0090732000000002,0.0079164000000011,-0.0193387999999999,-0.0012501999999995,0.0070270000000009,-0.0030107999999999,0,sub_10
-0.0091336000000002,0.0086566000000011,-0.0184645999999999,-0.0010475999999995,0.0059838000000009,-0.0027999999999999,0,sub_10
-0.0094964000000002,0.0087990000000011,-0.0181369999999999,-0.0004201999999995,0.0047252000000009,-0.0023723999999999,0,sub_10
-0.0098662000000002,0.0076796000000011,-0.0186001999999999,-0.0004309999999995,0.0041072000000009,-0.0017361999999999,0,sub_10
-0.0103618000000002,0.0065004000000011,-0.0194465999999999,-0.0004417999999995,0.0030648000000009,-0.0015267999999999,0,sub_10
-0.0107576000000002,0.0056902000000011,-0.0201999999999999,-0.0004467999999995,0.0026640000000009,-0.0019591999999999,0,sub_10
-0.0113574000000002,0.0050940000000011,-0.0205465999999999,-1.5199999999598434e-05,0.0028788000000009,-0.0028109999999999,0,sub_10
-0.0111034000000002,0.0056944000000011,-0.0204853999999999,-9.399999999578452e-06,0.0039448000000009,-0.0030259999999999,0,sub_10
-0.0109364000000002,0.0072710000000011,-0.0195547999999999,-0.0004331999999995,0.0050098000000009,-0.0026031999999999,0,sub_10
-0.0113504000000002,0.0114518000000011,-0.0173235999999998,0.0001930000000004,0.0045976000000009,-0.0008925999999999,0,sub_10
