userAcceleration.x,userAcceleration.y,userAcceleration.z,rotationRate.x,rotationRate.y,rotationRate.z,label,subject
0.0211619999999998,-0.0203181999999987,0.0100598,0.0352978000000003,-0.0062327999999991,-0.0132701999999998,0,sub_14
0.0154839999999998,-0.0092039999999987,0.007391,0.0267896000000003,0.0050676000000008,-0.0080029999999998,0,sub_14
0.0056329999999998,0.0030842000000012,0.0069824,0.0210632000000003,0.0136064000000008,-0.0071993999999998,0,sub_14
0.0003637999999998,0.0097100000000012,0.0109302,0.0245250000000003,0.0195788000000008,-0.0118829999999998,0,sub_14
0.0026623999999998,0.0054098000000012,0.015103,0.0324322000000003,0.0112864000000008,-0.0229265999999998,0,sub_14
0.0067701999999998,-0.0047419999999987,0.0108194,0.0388210000000003,-0.0038131999999991,-0.0352539999999998,0,sub_14
0.0151645999999998,-0.0275613999999987,-0.0028105999999999,0.0445438000000003,-0.0174483999999991,-0.0403239999999998,0,sub_14
0.0293383999999998,-0.0474993999999987,-0.0189931999999999,0.0527502000000003,-0.0233091999999991,-0.0203901999999998,0,sub_14
0.0176589999999998,-0.0456513999999987,-0.0324981999999999,0.0509502000000003,-0.0176565999999991,0.0060818000000001,0,sub_14
-0.0081694000000001,-0.0263713999999987,-0.0492265999999999,0.0396290000000003,-1.539999999911612e-05,0.0264900000000001,0,sub_14
-0.0350098000000001,-0.0129749999999987,-0.0554641999999998,0.0553494000000003,-0.0060735999999991,0.0360078000000001,0,sub_14
-0.0547216000000001,0.0139722000000012,-0.0390457999999998,0.0815980000000003,-0.0159229999999991,0.0255216000000001,0,sub_14
-0.0715402000000001,0.0377944000000012,-0.0211167999999999,0.0947854000000003,-0.0257893999999991,-0.0226573999999998,0,sub_14
-0.0600444000000001,0.0305060000000012,-0.0111447999999999,0.1053874000000003,-0.0477643999999991,-0.0774617999999998,0,sub_14
-0.0308596000000001,0.0028468000000012,0.0040176,0.1118710000000003,-0.0621431999999991,-0.1102993999999998,0,sub_14
0.0095047999999998,-0.0106015999999987,0.010979,0.0797764000000003,-0.036667999999999,-0.1129061999999998,0,sub_14
0.0379767999999998,-0.0206963999999987,0.0109818,0.0307056000000003,-0.012089199999999,-0.0897795999999998,0,sub_14
0.0428693999999998,-0.0206859999999987,0.0141054,-0.0146405999999996,0.0023998000000009,-0.0508041999999998,0,sub_14
0.0342629999999998,-0.0090699999999987,0.0159044,-0.0510491999999996,0.0111066000000009,-0.0121861999999998,0,sub_14
0.0261333999999998,0.0035452000000012,0.0194212,-0.0795895999999996,0.0015128000000008,0.0141186000000001,0,sub_14
0.0186405999999998,0.0107122000000012,0.0235492,-0.0982545999999996,-0.0127299999999991,0.0223386000000001,0,sub_14
0.0133597999999998,0.0028998000000013,0.018255,-0.1123955999999996,-0.0254647999999991,0.0224698000000001,0,sub_14
0.0188919999999998,-0.0128009999999986,0.0082184,-0.1271699999999996,-0.0352205999999991,0.0240882000000001,0,sub_14
0.0180247999999998,-0.0208403999999986,0.0015956,-0.1397367999999996,-0.0309129999999991,0.0233538000000001,0,sub_14
0.0016903999999998,-0.0162321999999986,-0.0091359999999999,-0.1357859999999996,-0.0155499999999991,0.0141750000000001,0,sub_14
-0.0249140000000001,-0.0117551999999987,-0.0145575999999999,-0.1136935999999996,-0.0091585999999991,-0.0049069999999998,0,sub_14
-0.0438960000000001,-0.0035913999999987,-0.0181815999999999,-0.0770603999999996,-0.0015165999999991,-0.0296573999999998,0,sub_14
-0.0465446000000001,0.0013786000000012,-0.0187089999999999,-0.0323025999999996,0.0084458000000008,-0.0556357999999998,0,sub_14
-0.0381646000000001,9.080000000127806e-05,-0.0180613999999999,0.0070528000000003,0.0100906000000008,-0.0748045999999998,0,sub_14
-0.0219574000000001,-0.0042769999999987,-0.0137883999999999,0.0290322000000003,0.0047104000000008,-0.0804123999999998,0,sub_14
-0.0053172000000001,-0.0080653999999987,-0.0045883999999999,0.0298196000000003,-0.0025661999999991,-0.0729199999999998,0,sub_14
0.0085293999999998,-0.0067755999999987,0.0061428,0.0141534000000003,-0.0068357999999991,-0.0572141999999998,0,sub_14
0.0109105999999998,-0.0042003999999987,0.0133958,-0.0064213999999996,-0.0121501999999991,-0.0423959999999998,0,sub_14
0.0116653999999998,-0.0049671999999987,0.0163072,-0.0235553999999996,-0.0146939999999991,-0.0307619999999998,0,sub_14
0.0099833999999998,-0.0077905999999987,0.0155516,-0.0327361999999996,-0.0119083999999991,-0.0267705999999998,0,sub_14
0.0058997999999998,-0.0079741999999987,0.0104152,-0.0295067999999996,-0.0072255999999991,-0.0284631999999998,0,sub_14
0.0011569999999998,-0.0107143999999987,0.0033608,-0.0151609999999996,-0.0031993999999991,-0.0354183999999998,0,sub_14
-0.0020850000000001,-0.0125091999999987,-0.0041311999999998,0.0023786000000003,0.0014462000000008,-0.0402155999999998,0,sub_14
-0.0032842000000001,-0.0118583999999987,-0.0079667999999998,0.0164780000000003,0.0033260000000008,-0.0405353999999998,0,sub_14
-0.0042868000000001,-0.0102029999999987,-0.0087059999999999,0.0226480000000003,0.0024442000000008,-0.0359931999999998,0,sub_14
-0.0049402000000001,-0.0098221999999987,-0.0100001999999999,0.0198488000000003,0.0032846000000008,-0.0280973999999998,0,sub_14
-0.0049508000000001,-0.0101033999999987,-0.0110029999999999,0.0112722000000003,0.0024330000000008,-0.0183171999999998,0,sub_14
-0.0066742000000001,-0.0111639999999987,-0.0100567999999999,0.0022632000000003,0.0011534000000008,-0.0076847999999998,0,sub_14
-0.0084440000000001,-0.0113373999999987,-0.0081931999999999,-0.0048249999999996,0.0019852000000008,0.0035878000000001,0,sub_14
-0.0065028000000001,-0.0121673999999987,-0.0052727999999999,-0.0050689999999996,0.0055662000000008,0.0140502000000001,0,sub_14
-0.0028374000000001,-0.0145743999999987,-0.0009275999999999,0.0060072000000003,0.0080566000000008,0.0209610000000001,0,sub_14
5.599999999827791e-06,-0.0157319999999987,0.0047346,0.0275186000000003,0.0122898000000008,0.0212818000000001,0,sub_14
0.0053343999999998,-0.0126253999999987,0.0090592,0.0635900000000003,0.0184272000000008,0.0123014000000001,0,sub_14
0.0106127999999998,-0.0115591999999987,0.0118546,0.1067486000000003,0.0199126000000008,-0.0115783999999998,0,sub_14
0.0130611999999998,-0.0099935999999987,0.00966,0.1471394000000003,0.0141980000000008,-0.0440141999999998,0,sub_14
0.0077817999999998,-0.0069327999999987,0.001585,0.1736158000000003,0.0004282000000008,-0.0746141999999998,0,sub_14
0.0028673999999998,-0.0041583999999987,-0.0090873999999999,0.1847504000000003,-0.0186737999999991,-0.1024991999999998,0,sub_14
-0.0061490000000001,-0.0059515999999987,-0.0162615999999999,0.1864708000000003,-0.0324607999999991,-0.1193473999999998,0,sub_14
-0.0131750000000001,-0.0055209999999987,-0.0204393999999999,0.1774748000000003,-0.0396749999999991,-0.1189737999999998,0,sub_14
-0.0156426000000001,-0.0088245999999987,-0.0199657999999999,0.1547566000000003,-0.0441417999999991,-0.1011805999999998,0,sub_14
-0.0071692000000001,-0.0134677999999987,-0.0141553999999998,0.1252104000000003,-0.0358523999999991,-0.0706327999999998,0,sub_14
0.0013921999999998,-0.0155069999999987,-0.0058723999999998,0.0903186000000003,-0.016732399999999,-0.0266767999999998,0,sub_14
0.0128269999999998,-0.0105581999999987,-0.0012035999999998,0.0351266000000003,-0.000751199999999,0.0205600000000001,0,sub_14
0.0210225999999998,-0.0046295999999987,-0.0008435999999999,-0.0303427999999996,0.0088684000000009,0.0692286000000001,0,sub_14
0.0234259999999998,0.0035088000000012,-0.0035331999999999,-0.0894033999999996,0.0142284000000009,0.1119654000000001,0,sub_14
0.0213761999999998,0.0097222000000013,-0.0060129999999999,-0.1324263999999996,0.0114994000000008,0.1390150000000001,0,sub_14
0.0191997999999998,0.0098640000000012,-0.0074951999999999,-0.1544805999999996,0.0028078000000008,0.1472044000000001,0,sub_14
0.0152717999999998,0.0030666000000012,-0.0075397999999999,-0.1506379999999996,-0.0044185999999991,0.1395492000000001,0,sub_14
0.0095783999999998,-0.0055031999999987,-0.0038219999999999,-0.1243135999999996,-0.0088957999999991,0.1175198000000001,0,sub_14
0.0048173999999998,-0.0137759999999987,0.0038594,-0.0902377999999996,-0.0090935999999991,0.0842158000000001,0,sub_14
0.0024769999999998,-0.0176583999999987,0.0098242,-0.0573875999999996,-0.0003259999999991,0.0476872000000001,0,sub_14
-0.0005354000000001,-0.0164183999999987,0.0103134,-0.0303097999999996,0.0101492000000008,0.0153888000000001,0,sub_14
-0.0027662000000001,-0.0134023999999987,0.0085618,-0.0137429999999996,0.0150942000000008,-0.0101389999999998,0,sub_14
-0.0020490000000001,-0.0057243999999987,0.0056232,-0.0050929999999996,0.0211082000000008,-0.0297415999999998,0,sub_14
-0.0047022000000001,0.0035984000000012,-0.0004885999999999,0.0020132000000003,0.0266992000000008,-0.0439449999999998,0,sub_14
-0.0091274000000001,0.0097378000000012,-0.0044365999999999,0.0069282000000003,0.0235464000000008,-0.0540933999999998,0,sub_14
-0.0125812000000001,0.0131316000000012,-0.0052859999999998,0.0086300000000003,0.0184836000000008,-0.0634069999999998,0,sub_14
-0.0143542000000001,0.0119032000000012,-0.0058065999999998,0.0050014000000003,0.0151406000000008,-0.0719055999999997,0,sub_14
-0.0168240000000001,0.0054580000000012,-0.0059571999999998,-0.0048303999999996,0.0111690000000008,-0.0776691999999997,0,sub_14
-0.0165844000000001,-0.0033059999999987,-0.0044197999999998,-0.0176317999999996,0.0105780000000008,-0.0786123999999998,0,sub_14
-0.0168462000000001,-0.0110989999999987,-0.0048873999999998,-0.0295959999999996,0.0127280000000008,-0.0731439999999997,0,sub_14
-0.0171642000000001,-0.0184871999999987,-0.0053911999999999,-0.0394579999999996,0.0135694000000008,-0.0618907999999998,0,sub_14
-0.0165500000000001,-0.0200405999999987,-0.0056405999999999,-0.0420843999999996,0.0137588000000008,-0.0480749999999998,0,sub_14
-0.0135918000000001,-0.0185245999999987,-0.0046953999999999,-0.0372379999999996,0.0132896000000008,-0.0359153999999998,0,sub_14
-0.0086658000000001,-0.0145297999999987,-0.0042065999999999,-0.0302557999999996,0.0109050000000008,-0.0260885999999998,0,sub_14
-0.0025024000000001,-0.0109695999999987,-0.0041317999999999,-0.0273249999999996,0.0070518000000008,-0.0184243999999997,0,sub_14
0.0033995999999998,-0.0073353999999987,-0.0045313999999999,-0.0295247999999996,0.0006614000000008,-0.0112201999999997,0,sub_14
0.0070871999999998,-0.0063989999999986,-0.0036423999999999,-0.0372799999999996,-0.007440999999999,-0.0029319999999997,0,sub_14
0.0085537999999998,-0.0086393999999987,-0.0041359999999999,-0.0493169999999996,-0.015116799999999,0.0089578000000001,0,sub_14
0.0087041999999998,-0.0127365999999987,-0.0053503999999999,-0.0609369999999996,-0.021105199999999,0.0246940000000001,0,sub_14
0.0074723999999998,-0.0165331999999987,-0.0059631999999999,-0.0710651999999996,-0.023068599999999,0.0449220000000001,0,sub_14
0.0069597999999998,-0.0206471999999986,-0.0066849999999999,-0.0808695999999996,-0.020755799999999,0.0720254000000001,0,sub_14
0.0084315999999998,-0.0242993999999987,-0.0070183999999999,-0.0904845999999996,-0.016555399999999,0.1063916000000001,0,sub_14
0.0106237999999998,-0.0252271999999987,-0.0057337999999999,-0.0996871999999996,-0.012793599999999,0.1435386000000001,0,sub_14
0.0119523999999998,-0.0222311999999987,-0.0020319999999999,-0.1067369999999996,-0.010083199999999,0.1753610000000001,0,sub_14
0.0124145999999998,-0.0158793999999987,0.0037154,-0.1075461999999996,-0.0084085999999991,0.1944094000000001,0,sub_14
0.0122577999999998,-0.0084505999999987,0.00931,-0.1005087999999996,-0.0067389999999991,0.1970202000000001,0,sub_14
0.0093283999999998,-0.0010397999999987,0.0118392,-0.0865609999999996,-0.0045955999999991,0.1817326000000001,0,sub_14
0.0042609999999998,0.0036946000000012,0.0099758,-0.0674289999999996,-0.0019893999999991,0.1528074000000001,0,sub_14
0.0003111999999998,0.0055686000000012,0.0059656,-0.0457085999999996,0.0008448000000008,0.1179178000000001,0,sub_14
-0.0036160000000001,0.0034524000000012,-0.0017387999999999,-0.0251717999999996,0.0030702000000008,0.0849650000000001,0,sub_14
-0.0080248000000001,-3.0399999998722248e-05,-0.0086545999999999,-0.0078633999999996,0.0037968000000008,0.0566916000000001,0,sub_14
-0.0110316000000001,-0.0036755999999987,-0.0131201999999999,0.0064318000000003,0.0062084000000008,0.0358726000000001,0,sub_14
-0.0107164000000001,-0.0052675999999987,-0.0152671999999999,0.0189874000000003,0.0100824000000008,0.0237990000000001,0,sub_14
-0.0114470000000001,-0.0055257999999987,-0.0152761999999998,0.0268028000000003,0.0111732000000008,0.0191734000000001,0,sub_14
-0.0100442000000001,-0.0042411999999987,-0.0120459999999998,0.0278666000000003,0.0111670000000008,0.0198218000000001,0,sub_14
-0.0047996000000001,-0.0035009999999987,-0.0079897999999998,0.0244326000000003,0.0109450000000008,0.0247136000000001,0,sub_14
7.039999999980742e-05,-0.0027037999999987,-0.0038485999999998,0.0154298000000003,0.0086018000000008,0.0321330000000001,0,sub_14
0.0008293999999998,-0.0025203999999987,-0.0006787999999998,0.0015126000000003,0.0049966000000008,0.0397334000000001,0,sub_14
0.0025119999999998,-0.0049851999999987,0.0006066,-0.0106889999999996,0.0024542000000008,0.0464898000000001,0,sub_14
0.0031367999999998,-0.0080227999999987,0.001061,-0.0166853999999996,0.0009664000000008,0.0505108000000001,0,sub_14
0.0010671999999998,-0.0074455999999987,0.0014952,-0.0168929999999996,0.0003358000000008,0.0485874000000001,0,sub_14
-0.0001194000000001,-0.0059313999999987,0.001166,-0.0108935999999996,-0.0009359999999991,0.0417944000000001,0,sub_14
0.0019689999999998,-0.0053633999999987,0.0019862,-0.0055285999999996,-0.0026249999999991,0.0332882000000001,0,sub_14
0.0037339999999997,-0.0034227999999987,0.0032392,-0.0067751999999996,-0.0023785999999991,0.0260154000000001,0,sub_14
0.0040587999999997,0.0001066000000012,0.0050748,-0.0129351999999996,-0.0023321999999991,0.0197766000000001,0,sub_14
0.0032503999999998,0.0019094000000012,0.0045236,-0.0220747999999996,-0.0012075999999991,0.0128748000000001,0,sub_14
-0.0003414000000001,0.0024714000000012,0.0002434,-0.0314171999999996,0.0001392000000008,0.0038346000000001,0,sub_14
-0.0067742000000001,0.0019924000000012,-0.0035419999999999,-0.0362737999999996,0.0014746000000008,-0.0062423999999998,0,sub_14
-0.0112204000000001,0.0010416000000012,-0.0064409999999999,-0.0336585999999996,0.0029996000000008,-0.0169083999999998,0,sub_14
-0.0113298000000001,-0.0025215999999987,-0.0100965999999999,-0.0272093999999996,0.0059906000000008,-0.0245583999999998,0,sub_14
-0.0092802000000001,-0.0067593999999987,-0.0126407999999999,-0.0193079999999996,0.0070300000000008,-0.0249317999999998,0,sub_14
-0.0065498000000001,-0.0090433999999987,-0.0108625999999998,-0.0116495999999996,0.0074072000000008,-0.0193239999999998,0,sub_14
-0.0022558000000001,-0.0085379999999987,-0.0078327999999998,-0.0052743999999996,0.0077862000000008,-0.0130841999999998,0,sub_14
0.0008891999999998,-0.0072083999999987,-0.0058689999999999,-0.0020997999999996,0.0073276000000008,-0.0077203999999998,0,sub_14
0.0029539999999998,-0.0060863999999987,-0.0037763999999999,-0.0027697999999996,0.0047570000000008,-0.0036623999999998,0,sub_14
0.0035189999999998,-0.0049707999999987,-0.0013647999999999,-0.0068505999999996,0.0017764000000008,-0.0006961999999998,0,sub_14
0.0047521999999998,-0.0069499999999987,0.0004204,-0.0132785999999996,-0.0003471999999991,0.0031072000000001,0,sub_14
0.0047115999999998,-0.0092235999999987,-6.819999999990714e-05,-0.0182149999999996,-0.0012043999999991,0.0086286000000001,0,sub_14
0.0038467999999998,-0.0111999999999987,-0.0007267999999999,-0.0195171999999996,-0.0003705999999991,0.0143870000000001,0,sub_14
0.0013333999999998,-0.0099573999999987,-0.0016537999999999,-0.0167527999999996,0.0008844000000008,0.0178230000000001,0,sub_14
-0.0012808000000001,-0.0083247999999987,-0.0028287999999999,-0.0126959999999996,0.0023582000000008,0.0187040000000001,0,sub_14
-0.0030906000000001,-0.0051911999999987,-0.0042965999999999,-0.0088437999999996,0.0034160000000008,0.0172342000000001,0,sub_14
-0.0026516000000001,-0.0027389999999987,-0.0054319999999999,-0.0069089999999996,0.0036344000000008,0.0142564000000001,0,sub_14
-0.0018842000000001,-0.0006455999999987,-0.0064211999999999,-0.0069023999999996,0.0017304000000008,0.0108404000000001,0,sub_14
-0.0020126000000001,-6.659999999872254e-05,-0.0069309999999999,-0.0071091999999996,3.940000000088751e-05,0.0076364000000001,0,sub_14
-0.0019230000000001,-0.0004857999999987,-0.0074973999999999,-0.0068879999999996,-0.0012277999999991,0.0046486000000001,0,sub_14
-0.0015046000000001,-0.0018717999999987,-0.0064741999999999,-0.0062421999999996,-0.0022857999999991,0.0023044000000001,0,sub_14
-0.0013698000000001,-0.0028783999999987,-0.0048209999999999,-0.0058095999999996,-0.002706599999999,0.0005988000000002,0,sub_14
-0.0009232000000001,-0.0045423999999987,-0.0035987999999999,-0.0058047999999996,-0.002489999999999,-0.0002559999999997,0,sub_14
0.0001619999999998,-0.0060157999999987,-0.0032135999999999,-0.0070867999999996,-0.002062799999999,0.0005890000000002,0,sub_14
0.0010923999999998,-0.0069561999999987,-0.0024921999999999,-0.0085881999999996,-0.001427799999999,0.0029278000000001,0,sub_14
0.0014513999999998,-0.0067057999999987,-0.0025947999999999,-0.0096617999999996,-0.000581399999999,0.0052692000000001,0,sub_14
0.0014201999999998,-0.0065845999999987,-0.0030829999999999,-0.0100943999999996,0.0002638000000008,0.0074016000000001,0,sub_14
0.0010701999999998,-0.0061091999999987,-0.0038629999999999,-0.0098819999999996,0.0011110000000008,0.0084702000000001,0,sub_14
0.0011285999999998,-0.0061809999999987,-0.0041357999999999,-0.0087509999999996,0.0013100000000008,0.0080806000000001,0,sub_14
0.0005839999999998,-0.0054715999999987,-0.0041753999999999,-0.0071911999999996,0.0012972000000008,0.0070534000000001,0,sub_14
-1.7400000000172486e-05,-0.0051047999999987,-0.0043783999999999,-0.0058437999999996,0.0014982000000008,0.0060244000000001,0,sub_14
-8.000000000017252e-05,-0.0052653999999987,-0.0051369999999999,-0.0044965999999996,0.0014868000000008,0.0047820000000001,0,sub_14
-6.82000000001725e-05,-0.0048575999999987,-0.0045139999999999,-0.0031501999999996,0.0018990000000008,0.0041800000000001,0,sub_14
-1.5600000000192544e-05,-0.0034065999999987,-0.0040699999999999,-0.0027215999999996,0.0021114000000008,0.0039692000000001,0,sub_14
0.0009165999999998,-0.0035789999999987,-0.0040565999999999,-0.0029311999999996,0.0023276000000008,0.0033264000000001,0,sub_14
0.0009609999999998,-0.0039183999999987,-0.0035589999999999,-0.0025055999999996,0.0023252000000008,0.0035430000000001,0,sub_14
0.0005683999999998,-0.0024271999999987,-0.0020179999999999,-0.0008003999999996,0.0023176000000008,0.0039822000000001,0,sub_14
0.0007959999999998,-0.0023021999999987,-0.0018839999999999,-0.0005851999999996,0.0021064000000008,0.0033430000000001,0,sub_14
0.0004361999999998,-0.0043671999999987,-0.0031161999999999,-0.0018595999999996,0.0027526000000008,0.0026922000000001,0,sub_14
-0.0005482000000001,-0.0055287999999987,-0.0031113999999999,-0.0027139999999996,0.0029670000000008,0.0031132000000001,0,sub_14
-0.0012858000000001,-0.0055237999999987,-0.0026325999999999,-0.0027167999999996,0.0025400000000008,0.0033274000000001,0,sub_14
-0.0022518000000001,-0.0066723999999987,-0.0034039999999999,-0.0029283999999996,0.0031790000000008,0.0035386000000001,0,sub_14
-0.0023502000000001,-0.0068615999999987,-0.0043895999999999,-0.0020767999999996,0.0042352000000008,0.0050388000000001,0,sub_14
-0.0017786000000001,-0.0050555999999987,-0.0036947999999999,-0.0001613999999996,0.0042244000000008,0.0061204000000001,0,sub_14
-0.0008412000000001,-0.0028711999999987,-0.0038591999999999,0.0006910000000003,0.0037962000000008,0.0059134000000001,0,sub_14
0.0005581999999998,-0.0014531999999987,-0.0044597999999999,-0.0001567999999996,0.0040166000000008,0.0048390000000001,0,sub_14
0.0023121999999998,-0.0006833999999987,-0.0044805999999999,-0.0022885999999996,0.0031770000000008,0.0035434000000001,0,sub_14
0.0024579999999998,-0.0007247999999987,-0.0040979999999999,-0.0048499999999995,0.0016998000000008,0.0022456000000001,0,sub_14
0.0017583999999998,-0.0010855999999987,-0.0042107999999999,-0.0069873999999995,0.0004306000000009,0.0018050000000001,0,sub_14
0.0013997999999998,-0.0028071999999987,-0.0042837999999999,-0.0084837999999995,8.80000000090756e-06,0.0020086000000001,0,sub_14
0.0009719999999998,-0.0041167999999987,-0.0039513999999999,-0.0089123999999996,8.600000000907534e-06,0.0024328000000001,0,sub_14
0.0002489999999998,-0.0054059999999987,-0.0037949999999999,-0.0086601999999996,-0.000209399999999,0.0032558000000001,0,sub_14
-0.0003794000000001,-0.0058441999999987,-0.0032687999999999,-0.0077651999999996,0.0002096000000009,0.0040824000000001,0,sub_14
-0.0002536000000001,-0.0064169999999987,-0.0026617999999999,-0.0057965999999996,0.0012674000000008,0.0040612000000001,0,sub_14
-0.0003470000000001,-0.0061969999999987,-0.0025573999999999,-0.0040433999999996,0.0021122000000008,0.0042524000000001,0,sub_14
-0.0005110000000001,-0.0057467999999987,-0.0031179999999999,-0.0022947999999996,0.0021038000000008,0.0046582000000001,0,sub_14
-0.0005932000000001,-0.0046323999999987,-0.0030859999999999,-0.0005869999999996,0.0025230000000008,0.0048832000000001,0,sub_14
-0.0007550000000001,-0.0038963999999987,-0.0039171999999999,0.0006932000000003,0.0025184000000008,0.0048922000000001,0,sub_14
-0.0005618000000001,-0.0036281999999987,-0.0043465999999999,0.0012196000000003,0.0020808000000008,0.0056420000000001,0,sub_14
-0.0006096000000001,-0.0025267999999987,-0.0042717999999999,0.0019614000000003,0.0016442000000008,0.0059660000000001,0,sub_14
-0.0006534000000001,-0.0019087999999987,-0.0041363999999999,0.0018534000000003,0.0016384000000008,0.0058564000000001,0,sub_14
-0.0001512000000001,-0.0017237999999987,-0.0048793999999999,0.0006768000000003,0.0014224000000008,0.0059532000000001,0,sub_14
0.0005349999999998,-0.0013683999999987,-0.0049985999999999,-0.0007141999999996,0.0009942000000008,0.0060486000000001,0,sub_14
0.0003991999999998,-0.0009413999999987,-0.0050879999999999,-0.0019933999999996,0.0007874000000008,0.0056128000000001,0,sub_14
0.0007531999999998,-0.0011461999999987,-0.0055039999999999,-0.0026315999999996,0.0005790000000008,0.0049678000000001,0,sub_14
0.0009189999999998,-0.0018083999999987,-0.0055051999999999,-0.0030573999999996,0.0001568000000009,0.0043244000000001,0,sub_14
0.0006951999999998,-0.0023045999999987,-0.0052607999999999,-0.0028421999999996,-5.439999999909251e-05,0.0036852000000001,0,sub_14
0.0001793999999998,-0.0030555999999987,-0.0048879999999998,-0.0023279999999996,0.0003660000000009,0.0025348000000001,0,sub_14
0.0002011999999998,-0.0039163999999987,-0.0049277999999998,-0.0020311999999996,0.0007836000000009,0.0022374000000001,0,sub_14
0.0004137999999998,-0.0046845999999987,-0.0047443999999998,-0.0021619999999996,0.0016264000000009,0.0025774000000001,0,sub_14
0.0005349999999998,-0.0045643999999987,-0.0044511999999999,-0.0020793999999996,0.0024684000000008,0.0029190000000001,0,sub_14
0.0003981999999998,-0.0045975999999987,-0.0041747999999999,-0.0019957999999996,0.0030992000000008,0.0028336000000001,0,sub_14
0.0002477999999998,-0.0040005999999987,-0.0037023999999999,-0.0011461999999996,0.0033050000000008,0.0039074000000001,0,sub_14
-9.960000000015243e-05,-0.0016583999999987,-0.0029353999999999,0.0003484000000003,0.0037252000000008,0.0041310000000001,0,sub_14
-0.0005326000000001,-0.0011071999999987,-0.0036831999999999,0.0007810000000003,0.0035166000000008,0.0026388000000001,0,sub_14
-0.0002878000000001,-0.0015567999999987,-0.0052985999999999,-5.199999999628939e-06,0.0041522000000008,0.0010714000000001,0,sub_14
-0.0012394000000001,-0.0014519999999987,-0.0043525999999999,0.0002648000000003,0.0032892000000008,0.0003678000000001,0,sub_14
-0.0014834000000001,-0.0015619999999987,-0.0039575999999999,0.0003254000000003,0.0032792000000008,-0.0003379999999998,0,sub_14
-0.0018106000000001,-0.0035911999999987,-0.0042493999999999,-0.0008943999999996,0.0039102000000008,-0.0004127999999998,0,sub_14
-0.0016716000000001,-0.0037663999999987,-0.0038459999999999,-0.0008405999999996,0.0043188000000008,0.0008034000000001,0,sub_14
-0.0017034000000001,-0.0032399999999987,-0.0032567999999999,6.200000000330984e-06,0.0036734000000008,0.0016648000000001,0,sub_14
-0.0003482000000001,-0.0028451999999987,-0.0045599999999999,-0.0006329999999996,0.0043132000000008,0.0020870000000001,0,sub_14
0.0005263999999998,-0.0026405999999987,-0.0055859999999999,-0.0014383999999996,0.0038784000000008,0.0018192000000001,0,sub_14
0.0014985999999998,-0.0019585999999987,-0.0056773999999999,-0.0018169999999996,0.0028056000000008,0.0009142000000001,0,sub_14
0.0011319999999998,-0.0016089999999987,-0.0052207999999999,-0.0028367999999996,0.0017340000000008,0.0002184000000001,0,sub_14
0.0007655999999998,-0.0012711999999987,-0.0049375999999999,-0.0038565999999996,0.0012990000000008,0.0001628000000001,0,sub_14
0.0005533999999998,-0.0019699999999987,-0.0052265999999999,-0.0046609999999996,0.0012894000000008,0.0001080000000001,0,sub_14
0.0004555999999998,-0.0024065999999987,-0.0051621999999999,-0.0057307999999996,0.0008662000000008,0.0003146000000001,0,sub_14
