userAcceleration.x,userAcceleration.y,userAcceleration.z,rotationRate.x,rotationRate.y,rotationRate.z,label,subject
-0.0014018000000002,0.0159416000000011,-0.0094141999999999,-0.0034867999999994,0.0014376000000008,0.002023,0,sub_7
-0.0024298000000002,0.0159572000000011,-0.0077593999999999,-0.0022121999999994,-0.0020013999999991,0.003103,0,sub_7
-0.0035660000000001,0.0164576000000011,-0.0055117999999999,-0.0007211999999995,-0.0050143999999991,0.0039704,0,sub_7
-0.0022280000000001,0.0166124000000011,-0.0048541999999999,0.0020296000000004,-0.0088641999999991,0.0052764,0,sub_7
0.0003421999999998,0.0160048000000011,-0.0049261999999999,0.0047882000000004,-0.0114339999999991,0.0061536,0,sub_7
0.0018207999999998,0.0158172000000011,-0.0056189999999999,0.0058782000000004,-0.0110173999999991,0.0051042,0,sub_7
0.0040465999999998,0.0166260000000012,-0.0076573999999999,0.0056900000000004,-0.0108067999999991,0.003405,0,sub_7
0.0069705999999998,0.0168012000000012,-0.0099705999999999,0.0061312000000004,-0.0125175999999991,0.00214,0,sub_7
0.0083125999999998,0.0174890000000012,-0.0115109999999999,0.0055066000000004,-0.0144359999999991,0.0004406,0,sub_7
0.0079831999999998,0.0184568000000011,-0.0113617999999999,0.0042390000000004,-0.0161423999999991,-0.0004089999999999,0,sub_7
0.0081785999999998,0.0190912000000011,-0.0107607999999999,0.0033672000000004,-0.0191263999999991,0.0006568,0,sub_7
0.0071789999999998,0.0196132000000011,-0.0091899999999999,0.0027088000000004,-0.0218989999999991,0.0019376,0,sub_7
0.0063743999999998,0.0202606000000011,-0.0077371999999999,0.0001406000000004,-0.0227455999999991,0.0027752,0,sub_7
0.0061449999999998,0.0200104000000011,-0.0065103999999999,-0.0022045999999995,-0.0212501999999991,0.003825,0,sub_7
0.0062029999999998,0.0184360000000011,-0.0063483999999999,-0.0038909999999995,-0.0191177999999991,0.003826,0,sub_7
0.0061679999999998,0.0164542000000011,-0.0061201999999999,-0.0053531999999995,-0.0161279999999991,0.002332,0,sub_7
0.0064399999999997,0.0142968000000011,-0.0063669999999999,-0.0065935999999995,-0.0114335999999991,0.0006238,0,sub_7
0.0051537999999997,0.0119782000000011,-0.0065443999999999,-0.0069765999999995,-0.0056777999999991,-0.0008661999999999,0,sub_7
0.0042691999999997,0.0101240000000011,-0.0067571999999999,-0.0071481999999995,-0.0003487999999991,-0.0023539999999999,0,sub_7
0.0037421999999997,0.0106042000000011,-0.0071141999999999,-0.0062725999999995,0.0041240000000008,-0.0027807999999999,0,sub_7
0.0037167999999997,0.0129342000000012,-0.0072741999999999,-0.0049827999999995,0.0068868000000008,-0.0021343999999999,0,sub_7
0.0036131999999998,0.0156964000000012,-0.0069711999999999,-0.0032795999999995,0.0075140000000008,-0.0006277999999999,0,sub_7
0.0047581999999998,0.0181750000000012,-0.0072365999999999,-0.0017601999999995,0.0074724000000008,0.0011154,0,sub_7
0.0054619999999998,0.0207626000000011,-0.0064317999999999,-3.619999999954107e-05,0.0065734000000008,0.0039292,0,sub_7
0.0050539999999998,0.0228272000000011,-0.0053905999999999,0.0006228000000004,0.0054678000000008,0.006095,0,sub_7
0.0043823999999998,0.0228446000000011,-0.0049245999999999,0.0008618000000004,0.0054306000000008,0.0078292,0,sub_7
0.0041195999999998,0.0213630000000011,-0.0053279999999999,-0.0001707999999995,0.0064666000000008,0.0086986,0,sub_7
0.0035159999999998,0.0194416000000011,-0.0054903999999999,-0.0010215999999995,0.0077454000000008,0.009332,0,sub_7
0.0035367999999998,0.0175800000000012,-0.0067315999999999,-0.0018703999999995,0.0086016000000008,0.0091114,0,sub_7
0.0033137999999998,0.0150966000000012,-0.0081897999999999,-0.0022569999999995,0.0096366000000008,0.008477,0,sub_7
0.0028977999999998,0.0127886000000012,-0.0091527999999999,-0.0030703999999995,0.0106730000000008,0.0078398,0,sub_7
0.0026583999999998,0.0121738000000012,-0.0092239999999999,-0.0030359999999995,0.0108526000000008,0.0076368,0,sub_7
0.0018405999999998,0.0128784000000011,-0.0086469999999999,-0.0021565999999995,0.0099604000000008,0.0082958,0,sub_7
0.0006759999999998,0.0136154000000011,-0.0081261999999998,-0.0006341999999995,0.0092808000000008,0.0085316,0,sub_7
0.0008033999999998,0.0149926000000011,-0.0072985999999999,0.0006366000000004,0.0073580000000008,0.0087566,0,sub_7
0.0014629999999997,0.0157130000000011,-0.0069881999999999,0.0016910000000004,0.0050090000000008,0.0091944,0,sub_7
0.0017141999999997,0.0164174000000011,-0.0066969999999999,0.0023254000000004,0.0035162000000008,0.0089872,0,sub_7
0.0026389999999997,0.0170330000000011,-0.0069909999999999,0.0025378000000004,0.0020292000000008,0.0077086,0,sub_7
0.0034049999999997,0.0170466000000011,-0.0078653999999999,0.0023366000000004,-0.0001089999999991,0.0070676,0,sub_7
0.0039897999999997,0.0163430000000011,-0.0090959999999999,0.0019218000000004,-0.0020341999999991,0.0066386,0,sub_7
0.0042271999999998,0.0169034000000011,-0.0090549999999999,0.0021484000000004,-0.0039607999999991,0.0060004,0,sub_7
0.0034933999999997,0.0170670000000011,-0.0091723999999999,0.0021586000000004,-0.0058889999999991,0.0060016,0,sub_7
0.0031547999999997,0.0172720000000012,-0.0090837999999999,0.0017440000000004,-0.0071775999999991,0.0062126,0,sub_7
0.0029159999999997,0.0171100000000012,-0.0073857999999999,0.0002456000000004,-0.0082375999999991,0.0062036,0,sub_7
0.0024389999999997,0.0162900000000011,-0.0055497999999999,-0.0014593999999995,-0.0086541999999991,0.0053376,0,sub_7
0.0015951999999997,0.0145584000000011,-0.0043199999999999,-0.0033683999999995,-0.0075761999999991,0.0038272,0,sub_7
0.0013267999999998,0.0133458000000011,-0.0034033999999999,-0.0046191999999995,-0.0058259999999991,0.0010338,0,sub_7
0.0008001999999998,0.0120310000000011,-0.0029889999999999,-0.0048031999999995,-0.0040793999999991,-0.0017519999999999,0,sub_7
0.0009403999999998,0.0109950000000011,-0.0044475999999999,-0.0037079999999995,-0.0023381999999991,-0.0043153999999999,0,sub_7
0.0012279999999998,0.0115660000000011,-0.0063077999999999,-0.0019791999999995,-0.0012417999999991,-0.0060187999999999,0,sub_7
0.0020007999999998,0.0132992000000011,-0.0082025999999999,0.0005916000000004,-0.0016439999999991,-0.0066461999999999,0,sub_7
0.0029153999999998,0.0148762000000012,-0.0095501999999999,0.0033520000000004,-0.0037875999999991,-0.0057695999999999,0,sub_7
0.0043771999999997,0.0157274000000012,-0.0103469999999999,0.0052580000000004,-0.0059289999999991,-0.0046853999999999,0,sub_7
0.0046703999999997,0.0169162000000012,-0.0096243999999999,0.0063144000000004,-0.0078517999999991,-0.0042481999999999,0,sub_7
0.0045321999999997,0.0175248000000012,-0.0088553999999999,0.0071746000000004,-0.0095353999999991,-0.0042439999999999,0,sub_7
0.0052539999999997,0.0174102000000012,-0.0078813999999999,0.0067546000000004,-0.0112143999999991,-0.0042487999999999,0,sub_7
0.0061061999999997,0.0164116000000012,-0.0069579999999999,0.0052784000000004,-0.0107583999999991,-0.0044771999999999,0,sub_7
0.0060601999999998,0.0161066000000012,-0.0062345999999999,0.0044452000000004,-0.0098775999999991,-0.0049153999999999,0,sub_7
0.0057021999999998,0.0159802000000012,-0.0060749999999999,0.0042530000000004,-0.0083615999999991,-0.0049225999999999,0,sub_7
0.0057577999999998,0.0161778000000012,-0.0060417999999999,0.0040482000000004,-0.0060189999999991,-0.0044997999999999,0,sub_7
0.0042311999999997,0.0158878000000012,-0.0059519999999999,0.0036350000000004,-0.0032469999999991,-0.0047197999999999,0,sub_7
0.0028769999999997,0.0161354000000011,-0.0065043999999999,0.0038560000000004,-0.0017555999999991,-0.0049337999999999,0,sub_7
0.0020723999999997,0.0159232000000011,-0.0071455999999999,0.0038698000000004,-0.0006935999999991,-0.0043111999999999,0,sub_7
0.0021805999999997,0.0155768000000011,-0.0071399999999999,0.0036666000000004,-0.0002707999999991,-0.0034755999999999,0,sub_7
0.0023267999999997,0.0147008000000011,-0.0072789999999999,0.0034596000000004,-0.0004879999999991,-0.0024255999999999,0,sub_7
0.0027925999999997,0.0147432000000011,-0.0078533999999999,0.0032534000000004,-0.0009165999999991,-0.0018025999999999,0,sub_7
0.0027757999999997,0.0153986000000012,-0.0075449999999999,0.0026252000000004,-0.0004903999999991,-0.0013973999999999,0,sub_7
0.0025957999999997,0.0164172000000012,-0.0070241999999999,0.0017756000000004,0.0001526000000008,-0.0016177999999999,0,sub_7
0.0030927999999997,0.0171346000000012,-0.0074851999999999,0.0002818000000004,-0.0002665999999991,-0.0020549999999998,0,sub_7
0.0034767999999997,0.0176738000000012,-0.0072865999999998,-0.0014161999999995,-0.0002701999999991,-0.0025217999999998,0,sub_7
0.0038883999999998,0.0173176000000012,-0.0070753999999999,-0.0024741999999994,0.0003606000000008,-0.0023439999999998,0,sub_7
0.0039949999999997,0.0169656000000012,-0.0070869999999999,-0.0031071999999994,0.0007758000000008,-0.0019491999999998,0,sub_7
0.0042187999999997,0.0158588000000012,-0.0068497999999999,-0.0037439999999995,0.0003390000000008,-0.0015533999999998,0,sub_7
0.0035601999999997,0.0151852000000012,-0.0064621999999999,-0.0033091999999995,0.0007514000000008,-0.0013649999999999,0,sub_7
0.0030981999999997,0.0146552000000012,-0.0064299999999999,-0.0022403999999995,0.0011738000000008,-0.0013579999999999,0,sub_7
0.0024857999999997,0.0146372000000012,-0.0069589999999999,-0.0013877999999995,0.0009578000000008,-0.0013517999999999,0,sub_7
0.0030407999999998,0.0143920000000011,-0.0068613999999999,-0.0001103999999995,0.0001020000000008,-0.0015555999999998,0,sub_7
0.0031955999999998,0.0148624000000011,-0.0074745999999999,0.0009544000000004,-0.0007523999999991,-0.0019743999999998,0,sub_7
0.0033985999999998,0.0152938000000011,-0.0080175999999999,0.0013840000000004,-0.0011767999999991,-0.0019971999999998,0,sub_7
0.0028133999999998,0.0158076000000011,-0.0079649999999999,0.0015982000000004,-0.0020265999999991,-0.0020209999999998,0,sub_7
0.0030949999999998,0.0162282000000011,-0.0074147999999999,0.0018116000000004,-0.0028773999999991,-0.0018309999999999,0,sub_7
0.0033571999999998,0.0165064000000012,-0.0075867999999999,0.0018096000000004,-0.0039411999999991,-0.0014285999999999,0,sub_7
0.0036463999999998,0.0169152000000012,-0.0071261999999999,0.0018076000000004,-0.0043683999999991,-0.0003859999999999,0,sub_7
0.0038997999999998,0.0169990000000012,-0.0063793999999999,0.0022296000000004,-0.0041619999999991,0.0008986,0,sub_7
0.0051021999999998,0.0171678000000012,-0.0064803999999999,0.0030792000000004,-0.0035317999999991,0.0023992,0,sub_7
0.0050615999999998,0.0168050000000012,-0.0066875999999999,0.0045678000000004,-0.0031027999999991,0.0036836,0,sub_7
0.0046367999999998,0.0160622000000012,-0.0063275999999999,0.0062708000000004,-0.0028859999999991,0.0045426,0,sub_7
0.0039351999999998,0.0152800000000012,-0.0066557999999999,0.0079796000000005,-0.0020273999999991,0.0047598,0,sub_7
0.0038887999999998,0.0151846000000012,-0.0072149999999999,0.0084100000000004,-0.0013747999999991,0.0043276,0,sub_7
0.0038945999999998,0.0147442000000012,-0.0076679999999999,0.0075584000000004,-0.0019927999999991,0.0030334,0,sub_7
0.0050567999999998,0.0146040000000012,-0.0075897999999999,0.0060686000000004,-0.0024085999999991,0.0017418,0,sub_7
0.0048657999999998,0.0148654000000011,-0.0078487999999999,0.0043732000000004,-0.0011191999999991,0.0004464,0,sub_7
0.0042821999999998,0.0150878000000011,-0.0069397999999999,0.0031064000000004,0.0008070000000008,-0.0006331999999999,0,sub_7
0.0028269999999998,0.0155678000000011,-0.0060169999999999,0.0026884000000004,0.0014528000000008,-0.0019187999999999,0,sub_7
0.0015099999999998,0.0160078000000011,-0.0052873999999999,0.0026834000000004,0.0019028000000008,-0.0027691999999999,0,sub_7
-0.0004110000000001,0.0168496000000011,-0.0049241999999999,0.0028928000000004,0.0025650000000008,-0.0036185999999999,0,sub_7
-0.0004982000000001,0.0175606000000011,-0.0050523999999999,0.0030974000000004,0.0025864000000008,-0.0040397999999999,0,sub_7
0.0011479999999998,0.0172026000000011,-0.0068833999999999,0.0032896000000004,0.0002624000000008,-0.0040307999999999,0,sub_7
0.0032751999999998,0.0162088000000011,-0.0086247999999999,0.0034788000000004,-0.0020641999999991,-0.0033809999999998,0,sub_7
0.0040993999999997,0.0156976000000011,-0.0099997999999999,0.0038950000000004,-0.0033481999999991,-0.0023083999999998,0,sub_7
0.0055841999999997,0.0160334000000011,-0.0106531999999999,0.0047350000000004,-0.0048483999999991,-0.0008049999999998,0,sub_7
0.0059797999999997,0.0165454000000011,-0.0102993999999999,0.0053484000000004,-0.0069739999999991,0.0009204000000001,0,sub_7
0.0055661999999997,0.0178604000000011,-0.0086263999999999,0.0046912000000004,-0.0076009999999991,0.0019942,0,sub_7
0.0051355999999997,0.0189576000000012,-0.0071187999999999,0.0038262000000004,-0.0071611999999991,0.0028514,0,sub_7
0.0051457999999997,0.0186348000000012,-0.0051973999999999,0.0021146000000004,-0.0058637999999991,0.0030608,0,sub_7
0.0044235999999997,0.0170402000000012,-0.0045173999999999,-0.0008665999999995,-0.0034915999999991,0.001978,0,sub_7
0.0033561999999997,0.0150114000000012,-0.0052407999999999,-0.0036155999999995,-6.459999999913583e-05,-0.0001819999999999,0,sub_7
0.0027421999999997,0.0131282000000012,-0.0055843999999999,-0.0055159999999994,0.0022942000000008,-0.0023347999999999,0,sub_7
0.0021905999999997,0.0112780000000012,-0.0060029999999999,-0.0063539999999994,0.0035840000000008,-0.0044787999999999,0,sub_7
0.0015561999999998,0.0117502000000011,-0.0067753999999999,-0.0059193999999994,0.0046634000000008,-0.0059625999999998,0,sub_7
0.0009163999999998,0.0129592000000011,-0.0068927999999999,-0.0037893999999995,0.0044534000000008,-0.0061511999999998,0,sub_7
0.0013137999999997,0.0143188000000011,-0.0058565999999999,-0.0008191999999995,0.0027432000000008,-0.0048363999999999,0,sub_7
0.0015595999999997,0.0162994000000011,-0.0056703999999998,0.0021472000000004,0.0008172000000008,-0.0028803999999999,0,sub_7
0.0018287999999997,0.0180612000000011,-0.0058187999999998,0.0040504000000004,-4.0599999999115824e-05,-0.0007193999999999,0,sub_7
0.0025359999999997,0.0189156000000011,-0.0058739999999998,0.0051038000000004,-0.0011173999999991,0.001212,0,sub_7
0.0035977999999997,0.0184616000000011,-0.0065855999999998,0.0048798000000004,-0.0019747999999991,0.002707,0,sub_7
0.0043315999999997,0.0179090000000011,-0.0082201999999998,0.0033860000000004,-0.0021817999999991,0.0024832,0,sub_7
0.0042395999999997,0.0167498000000011,-0.0092449999999998,0.0016800000000004,-0.0021749999999991,0.0022576,0,sub_7
0.0050023999999997,0.0160614000000011,-0.0089729999999999,-3.499999999950114e-05,-0.0023665999999991,0.0018232,0,sub_7
0.0050917999999998,0.0147484000000011,-0.0084425999999999,-0.0006859999999995,-0.0027765999999991,0.001824,0,sub_7
0.0041131999999998,0.0142788000000012,-0.0077625999999999,-0.0006977999999995,-0.0029775999999991,0.0022562,0,sub_7
0.0027739999999998,0.0141046000000012,-0.0066637999999999,0.0001430000000004,-0.0027581999999991,0.0033346,0,sub_7
0.0020143999999998,0.0135398000000012,-0.0061447999999999,0.0016276000000004,-0.0021129999999991,0.0039898,0,sub_7
0.0007451999999998,0.0128990000000011,-0.0068983999999999,0.0031232000000004,-0.0014799999999991,0.004213,0,sub_7
0.0004589999999998,0.0129736000000011,-0.0077901999999999,0.0037662000000004,-0.0012675999999991,0.0037898,0,sub_7
0.0015841999999997,0.0133478000000011,-0.0081191999999999,0.0029016000000004,-0.0012505999999991,0.0027178,0,sub_7
0.0030957999999997,0.0136964000000011,-0.0083737999999999,0.0018216000000004,-0.0014467999999991,0.0018582,0,sub_7
0.0044465999999997,0.0140876000000011,-0.0075277999999999,0.0007464000000004,-0.0012143999999991,0.0003572,0,sub_7
0.0050155999999997,0.0152668000000011,-0.0074441999999999,-0.0007545999999994,-0.0005551999999991,-0.0009335999999999,0,sub_7
0.0047673999999997,0.0161160000000011,-0.0067535999999998,-0.0018267999999994,0.0003164000000008,-0.0024353999999999,0,sub_7
0.0042843999999997,0.0158382000000011,-0.0065087999999998,-0.0020315999999994,0.0011736000000008,-0.0035061999999999,0,sub_7
0.0038817999999997,0.0156546000000011,-0.0063291999999998,-0.0024515999999994,0.0018178000000008,-0.0043643999999999,0,sub_7
0.0036967999999997,0.0157766000000012,-0.0070291999999998,-0.0030935999999994,0.0018184000000008,-0.0039415999999999,0,sub_7
0.0036683999999997,0.0147292000000012,-0.0067413999999998,-0.0026725999999995,0.0011752000000008,-0.0032969999999999,0,sub_7
0.0036333999999997,0.0139294000000012,-0.0069565999999998,-0.0026997999999995,0.0005438000000008,-0.0020103999999999,0,sub_7
0.0032839999999997,0.0143474000000012,-0.0072997999999999,-0.0018725999999995,0.0001222000000008,-0.0007181999999999,0,sub_7
0.0029073999999997,0.0148720000000012,-0.0075973999999999,-0.0008319999999995,-0.0003001999999991,0.0005754,0,sub_7
0.0025547999999997,0.0153944000000012,-0.0077693999999999,-0.0006419999999995,-0.0009291999999991,0.0010088,0,sub_7
0.0030419999999997,0.0157838000000012,-0.0078777999999999,-0.0013073999999994,-0.0019811999999991,0.0014368,0,sub_7
0.0035507999999997,0.0161160000000012,-0.0077023999999999,-0.0023751999999994,-0.0024027999999991,0.0012162,0,sub_7
0.0041787999999997,0.0160966000000012,-0.0073741999999999,-0.0051441999999994,-0.0017521999999991,0.0007688,0,sub_7
0.0043093999999998,0.0158632000000011,-0.0072989999999999,-0.0081217999999994,-0.0006721999999991,-0.0003215999999999,0,sub_7
0.0042585999999998,0.0158664000000011,-0.0072097999999999,-0.0106797999999994,0.0008416000000008,-0.0014039999999999,0,sub_7
0.0036713999999998,0.0161848000000011,-0.0063335999999999,-0.0119575999999995,0.0029874000000008,-0.0018371999999998,0,sub_7
0.0042825999999998,0.0166206000000011,-0.0064817999999998,-0.0113285999999995,0.0038414000000008,-0.0005463999999999,0,sub_7
0.0042301999999998,0.0175642000000011,-0.0066497999999998,-0.0094297999999995,0.0029840000000008,0.0013964,0,sub_7
0.0041883999999998,0.0180486000000012,-0.0064127999999998,-0.0073223999999995,0.0019094000000008,0.0041956,0,sub_7
0.0041699999999997,0.0177756000000012,-0.0066383999999998,-0.0049963999999995,0.0008214000000008,0.0078452,0,sub_7
0.0042235999999997,0.0172436000000012,-0.0070239999999998,-0.0030989999999995,-0.0009033999999991,0.011279,0,sub_7
0.0036511999999997,0.0164124000000012,-0.0072041999999999,-0.0026945999999995,-0.0017575999999991,0.01321,0,sub_7
0.0033501999999997,0.0148274000000012,-0.0071305999999998,-0.0024931999999995,-0.0013285999999991,0.0140696,0,sub_7
0.0035785999999997,0.0138728000000011,-0.0066893999999998,-0.0031431999999995,-0.0008947999999991,0.014496,0,sub_7
0.0038461999999997,0.0136992000000011,-0.0063331999999998,-0.0031473999999995,0.0001784000000008,0.0142852,0,sub_7
0.0034861999999997,0.0139316000000011,-0.0064999999999998,-0.0029335999999995,0.0018918000000008,0.0136478,0,sub_7
0.0031323999999997,0.0143602000000011,-0.0066943999999998,-0.0020743999999995,0.0029550000000008,0.0134388,0,sub_7
0.0031667999999997,0.0144172000000011,-0.0069019999999999,-0.0001529999999995,0.0035858000000008,0.0138788,0,sub_7
0.0030771999999997,0.0142120000000012,-0.0074069999999999,0.0021968000000004,0.0042168000000008,0.0138944,0,sub_7
0.0028387999999997,0.0135640000000012,-0.0081025999999999,0.0041104000000004,0.0046472000000008,0.013477,0,sub_7
0.0031523999999997,0.0134920000000012,-0.0082063999999999,0.0049572000000004,0.0046570000000008,0.0126252,0,sub_7
0.0032197999999998,0.0132298000000011,-0.0081833999999999,0.0045294000000004,0.0048884000000008,0.010696,0,sub_7
0.0034423999999998,0.0133674000000011,-0.0079251999999999,0.0026100000000004,0.0049146000000008,0.0081158,0,sub_7
0.0034305999999998,0.0142396000000011,-0.0077197999999999,0.0004744000000004,0.0049390000000008,0.006175,0,sub_7
0.0034341999999998,0.0151852000000011,-0.0069161999999999,-0.0007991999999994,0.0047372000000008,0.0044572,0,sub_7
0.0023961999999998,0.0156514000000011,-0.0067437999999999,-0.0003675999999994,0.0043154000000008,0.0029652,0,sub_7
0.0023415999999998,0.0156178000000011,-0.0066705999999999,0.0004906000000005,0.0041044000000008,0.0016896,0,sub_7
0.0018153999999998,0.0156666000000011,-0.0066913999999999,0.0013470000000004,0.0034674000000008,0.0004146,0,sub_7
0.0019655999999998,0.0150558000000011,-0.0070041999999999,0.0024112000000004,0.0024080000000008,-0.0008557999999999,0,sub_7
0.0021223999999998,0.0139508000000011,-0.0071107999999999,0.0026210000000004,0.0011386000000008,-0.0021319999999998,0,sub_7
0.0033077999999998,0.0131634000000011,-0.0071685999999999,0.0009142000000004,0.0007282000000008,-0.0034223999999998,0,sub_7
0.0029453999999998,0.0127860000000011,-0.0071493999999999,-0.0007923999999995,0.0007422000000008,-0.0042861999999998,0,sub_7
0.0024841999999998,0.0132866000000011,-0.0074275999999999,-0.0018571999999995,0.0013922000000008,-0.0049327999999998,0,sub_7
0.0020433999999998,0.0140466000000011,-0.0076621999999999,-0.0020627999999995,0.0022486000000008,-0.0057897999999998,0,sub_7
0.0026441999999998,0.0155074000000011,-0.0081603999999999,-0.0024865999999995,0.0024648000000008,-0.0062201999999999,0,sub_7
0.0035721999999998,0.0161940000000011,-0.0078689999999999,-0.0027027999999995,0.0016142000000008,-0.0064343999999999,0,sub_7
0.0049675999999998,0.0170514000000012,-0.0074131999999999,-0.0024879999999995,0.0005494000000008,-0.0057887999999999,0,sub_7
0.0051749999999998,0.0169360000000011,-0.0070263999999999,-0.0020617999999994,-0.0005177999999991,-0.0047143999999999,0,sub_7
0.0051993999999998,0.0163892000000011,-0.0066975999999999,-0.0024881999999994,-0.0013689999999991,-0.0036461999999999,0,sub_7
0.0039059999999998,0.0158550000000011,-0.0062681999999999,-0.0026963999999994,-0.0015799999999991,-0.0030045999999999,0,sub_7
0.0030953999999998,0.0157006000000011,-0.0064009999999999,-0.0018377999999994,-0.0017947999999991,-0.0023553999999999,0,sub_7
0.0025741999999998,0.0154778000000011,-0.0069209999999999,-0.0005633999999995,-0.0028653999999991,-0.0021313999999998,0,sub_7
0.0035317999999998,0.0155814000000012,-0.0069763999999999,0.0007120000000004,-0.0037229999999991,-0.0019077999999998,0,sub_7
0.0040663999999998,0.0156298000000012,-0.0069629999999999,0.0020088000000004,-0.0041531999999991,-0.0016985999999998,0,sub_7
0.0048071999999998,0.0151824000000012,-0.0070459999999999,0.0028770000000004,-0.0045835999999991,-0.0010651999999998,0,sub_7
0.0045299999999997,0.0148596000000012,-0.0069623999999999,0.0028946000000004,-0.0045841999999991,-0.0006517999999999,0,sub_7
0.0044027999999997,0.0146226000000012,-0.0068819999999999,0.0027036000000004,-0.0035185999999991,-0.0002411999999999,0,sub_7
0.0044889999999997,0.0142254000000012,-0.0076281999999999,0.0020878000000004,-0.0026621999999991,-0.0004741999999999,0,sub_7
0.0049519999999997,0.0142312000000012,-0.0080673999999999,0.0016648000000004,-0.0022329999999991,-0.0009049999999999,0,sub_7
0.0056457999999997,0.0144250000000012,-0.0084935999999999,0.0020972000000004,-0.0020171999999991,-0.0019703999999999,0,sub_7
0.0063231999999997,0.0143266000000012,-0.0089371999999999,0.0027450000000004,-0.0011637999999991,-0.0028215999999999,0,sub_7
0.0059015999999997,0.0146212000000012,-0.0086545999999999,0.0029660000000004,-0.0003089999999991,-0.0036757999999999,0,sub_7
0.0046641999999997,0.0150572000000012,-0.0076601999999999,0.0029838000000004,0.0005382000000008,-0.0041433999999999,0,sub_7
0.0032683999999997,0.0153656000000012,-0.0071363999999999,0.0032114000000004,0.0009568000000008,-0.0041817999999999,0,sub_7
0.0017703999999998,0.0154386000000012,-0.0065313999999999,0.0027996000000004,0.0015906000000008,-0.0042247999999999,0,sub_7
0.0014981999999998,0.0158852000000012,-0.0059835999999999,0.0028088000000004,0.0011568000000008,-0.0040499999999999,0,sub_7
0.0023201999999998,0.0158834000000012,-0.0060721999999999,0.0032458000000004,0.0009346000000008,-0.0038723999999999,0,sub_7
0.0037089999999998,0.0156394000000012,-0.0063675999999999,0.0038850000000004,0.0009314000000008,-0.0036541999999999,0,sub_7
0.0049025999999998,0.0158712000000012,-0.0065685999999999,0.0043146000000004,0.0011446000000008,-0.0040785999999999,0,sub_7
0.0057777999999998,0.0157514000000012,-0.0065857999999999,0.0049582000000004,0.0009156000000008,-0.0038955999999998,0,sub_7
0.0055979999999998,0.0154582000000012,-0.0068359999999999,0.0049646000000004,0.0009036000000008,-0.0041443999999999,0,sub_7
0.0051765999999998,0.0153376000000012,-0.0074365999999999,0.0045442000000004,0.0004686000000008,-0.0048229999999999,0,sub_7
