userAcceleration.x,userAcceleration.y,userAcceleration.z,rotationRate.x,rotationRate.y,rotationRate.z,label,subject
-0.0039538000000002,0.0135880000000012,-0.0047373999999998,6.700000000046512e-05,-0.002170799999999,0.0003612,0,sub_6
-0.0046794000000002,0.0134162000000012,-0.0044743999999998,0.0009126000000004,-0.002374399999999,-0.0002763999999999,0,sub_6
-0.0046360000000002,0.0128620000000012,-0.0052325999999998,0.0015450000000004,-0.002365199999999,-0.0007021999999999,0,sub_6
-0.0054994000000002,0.0122328000000012,-0.0061001999999998,0.0030298000000003,-0.002784199999999,-0.0013349999999999,0,sub_6
-0.0062480000000002,0.0116712000000012,-0.0059487999999998,0.0038862000000003,-0.002360199999999,-0.0015431999999999,0,sub_6
-0.0067684000000002,0.0119404000000012,-0.0056763999999998,0.0028154000000003,-0.002359799999999,-0.0006959999999999,0,sub_6
-0.0064394000000002,0.0117638000000012,-0.0063193999999998,0.0023876000000004,-0.002146999999999,-0.0002719999999999,0,sub_6
-0.0067154000000002,0.0118884000000012,-0.0056987999999998,0.0017334000000004,-0.002133599999999,-0.0002769999999999,0,sub_6
-0.0056266000000002,0.0115248000000011,-0.0054411999999998,0.0006542000000004,-0.001268199999999,0.0001412,0,sub_6
-0.0052620000000002,0.0115872000000011,-0.0057431999999998,4.2500725161431774e-16,-0.001042599999999,0.0003496,0,sub_6
-0.0045592000000002,0.0116250000000012,-0.0055351999999998,0.0004126000000004,-0.001032999999999,0.000352,0,sub_6
-0.0039474000000002,0.0118424000000012,-0.0050661999999998,0.0006100000000004,-0.001448799999999,0.0003534,0,sub_6
-0.0034352000000001,0.0126008000000012,-0.0053947999999999,0.0010356000000004,-0.001451199999999,0.00057,0,sub_6
-0.0038302000000001,0.0131184000000012,-0.0050279999999999,0.0012472000000004,-0.002302399999999,0.0001452,0,sub_6
-0.0033386000000001,0.0131570000000012,-0.0049551999999999,0.0012442000000004,-0.002941599999999,0.000146,0,sub_6
-0.0035628000000001,0.0134250000000012,-0.0051889999999999,0.0014614000000004,-0.002302399999999,-6.699999999992777e-05,0,sub_6
-0.0041276000000001,0.0131446000000012,-0.0056689999999998,0.0016618000000004,-0.002502799999999,-7.299999999992775e-05,0,sub_6
-0.0044960000000001,0.0127148000000012,-0.0053579999999998,0.0016528000000004,-0.002486799999999,-0.0007217999999999,0,sub_6
-0.0053900000000001,0.0125774000000012,-0.0058037999999998,0.0020714000000004,-0.001622599999999,-0.0007277999999999,0,sub_6
-0.0063330000000001,0.0127240000000012,-0.0062091999999998,0.0020652000000004,-0.000967399999999,-0.0013773999999999,0,sub_6
-0.0060404000000001,0.0117358000000012,-0.0064949999999998,0.0020514000000004,-0.001379999999999,-0.0013847999999999,0,sub_6
-0.0054072000000002,0.0112990000000012,-0.0065335999999999,0.0018410000000004,-0.000952199999999,-0.0016005999999999,0,sub_6
-0.0048210000000002,0.0112204000000012,-0.0070823999999999,0.0016276000000004,-0.000739199999999,-0.0013885999999999,0,sub_6
-0.0042140000000002,0.0115420000000011,-0.0063191999999999,-0.0003101999999995,-0.000930199999999,-0.0007711999999999,0,sub_6
-0.0036126000000002,0.0117062000000012,-0.0054731999999999,-0.0022459999999995,-5.839999999905175e-05,0.0004858,0,sub_6
-0.0037808000000002,0.0122336000000012,-0.0043775999999999,-0.0028977999999995,0.0010246000000009,0.0011106,0,sub_6
-0.0048330000000002,0.0130788000000012,-0.0039561999999999,-0.0031247999999995,0.0012556000000009,0.0013122,0,sub_6
-0.0059042000000002,0.0134566000000012,-0.0035781999999999,-0.0042033999999995,0.0014912000000009,0.0010804,0,sub_6
-0.0056558000000002,0.0131838000000012,-0.0040877999999999,-0.0035509999999995,0.0029854000000009,-0.0001987999999999,0,sub_6
-0.0060294000000002,0.0130064000000012,-0.0041481999999999,-0.0011981999999995,0.0031944000000009,-0.0012509999999999,0,sub_6
-0.0065086000000002,0.0127360000000012,-0.0043905999999999,-0.0003465999999995,0.0023408000000009,-0.0016711999999999,0,sub_6
-0.0050114000000002,0.0120346000000012,-0.0050939999999999,-0.0001457999999995,0.0025698000000009,-0.0014635999999999,0,sub_6
-0.0037690000000002,0.0119606000000012,-0.0060139999999999,5.140000000040486e-05,0.0019466000000009,-0.0012549999999999,0,sub_6
-0.0032996000000002,0.0120850000000012,-0.0070855999999999,-0.0006077999999995,0.0004752000000009,-0.0012649999999999,0,sub_6
-0.0032224000000002,0.0113390000000012,-0.0073165999999998,-0.0027587999999995,-0.000989199999999,-0.0017125999999999,0,sub_6
-0.0030164000000002,0.0111840000000011,-0.0083061999999998,-0.0036209999999995,-0.000964999999999,-0.0025805999999999,0,sub_6
-0.0042138000000002,0.0114714000000011,-0.0079717999999998,-0.0038295999999995,-0.000323399999999,-0.0030101999999999,0,sub_6
-0.0047480000000002,0.0115152000000012,-0.0064761999999998,-0.0029723999999995,0.0009504000000009,-0.0025785999999999,0,sub_6
-0.0057226000000002,0.0118090000000012,-0.0054233999999998,-0.0010567999999995,0.0009394000000009,-0.0014969999999999,0,sub_6
-0.0050078000000002,0.0134224000000012,-0.0059749999999998,0.0010702000000004,0.0007138000000009,-0.0001999999999999,0,sub_6
-0.0045934000000002,0.0145606000000012,-0.0049525999999998,0.0004060000000004,-0.000126599999999,0.0017144,0,sub_6
-0.0040356000000002,0.0151776000000012,-0.0045957999999998,-0.0006867999999995,-0.000966999999999,0.004053,0,sub_6
-0.0044032000000001,0.0152246000000012,-0.0053487999999998,-0.0011345999999995,-0.001805599999999,0.005328,0,sub_6
-0.0043276000000001,0.0141104000000012,-0.0048497999999998,-0.0007233999999995,-0.002005199999999,0.0059674,0,sub_6
-0.0046564000000001,0.0133338000000011,-0.0045713999999999,-0.0003033999999995,-0.001348599999999,0.0055374,0,sub_6
-0.0047124000000001,0.0132528000000011,-0.0046357999999999,0.0018438000000004,-0.000282999999999,0.0036284,0,sub_6
-0.0046762000000001,0.0133008000000011,-0.0043195999999999,0.0039910000000004,0.0001458000000009,0.0010792,0,sub_6
-0.0045146000000001,0.0132268000000011,-0.0033025999999998,0.0052778000000004,0.0001474000000009,-0.0004073999999999,0,sub_6
-0.0045182000000001,0.0137270000000011,-0.0033915999999998,0.0050558000000004,-4.639999999903185e-05,-0.0008393999999999,0,sub_6
-0.0046306000000001,0.0132426000000012,-0.0038469999999998,0.0046146000000004,-0.000456799999999,-0.0002043999999999,0,sub_6
-0.0048648000000001,0.0124540000000012,-0.0046171999999998,0.0037408000000004,-0.001295199999999,0.0012826,0,sub_6
-0.0058196000000002,0.0119036000000012,-0.0053533999999998,0.0024414000000004,-0.001918999999999,0.0027664,0,sub_6
-0.0058630000000002,0.0116732000000012,-0.0061693999999998,0.0013572000000004,-0.002541999999999,0.0038246,0,sub_6
-0.0057250000000002,0.0119838000000012,-0.0064555999999998,0.0004998000000004,-0.002754799999999,0.0044598,0,sub_6
-0.0054320000000001,0.0124914000000012,-0.0056593999999998,-0.0003499999999995,-0.001899599999999,0.0044528,0,sub_6
-0.0049610000000001,0.0135342000000012,-0.0046097999999998,-0.0005621999999995,-0.000605199999999,0.0038078,0,sub_6
-0.0039974000000001,0.0139852000000012,-0.0034805999999998,0.0002902000000004,-0.000164999999999,0.0027442,0,sub_6
-0.0030744000000001,0.0146494000000011,-0.0035827999999999,0.0013562000000004,0.0002746000000009,0.001682,0,sub_6
-0.0028826000000001,0.0147324000000011,-0.0034043999999999,0.0026384000000004,0.0011404000000009,0.0004072,0,sub_6
-0.0027952000000001,0.0143992000000012,-0.0038883999999999,0.0032720000000004,0.0007276000000009,-0.0002295999999999,0,sub_6
-0.0029916000000001,0.0135162000000012,-0.0052433999999999,0.0039102000000003,-0.000125199999999,-0.0006511999999999,0,sub_6
-0.0032282000000001,0.0130230000000012,-0.0054723999999999,0.0034836000000003,8.860000000094826e-05,-0.0004407999999999,0,sub_6
-0.0040304000000001,0.0127144000000012,-0.0054987999999999,0.0021976000000004,-0.000336399999999,0.0004054,0,sub_6
-0.0039150000000001,0.0126778000000012,-0.0063179999999998,0.0002678000000004,-0.001399199999999,0.0014614,0,sub_6
-0.0042180000000001,0.0126812000000012,-0.0059937999999998,-0.0003741999999995,-0.001392599999999,0.0016714,0,sub_6
-0.0047342000000001,0.0132806000000012,-0.0050963999999998,-0.0012247999999995,-0.000744199999999,0.0014518,0,sub_6
-0.0049148000000001,0.0138890000000011,-0.0053517999999998,-0.0018659999999995,-0.000948999999999,0.0012348,0,sub_6
-0.0045392000000001,0.0140006000000011,-0.0048715999999998,-0.0016477999999995,-0.000514999999999,0.000382,0,sub_6
-0.0039500000000002,0.0137160000000011,-0.0038725999999999,-0.0003607999999995,0.0005536000000009,-0.0002503999999999,0,sub_6
-0.0031508000000002,0.0137396000000011,-0.0035255999999999,0.0002812000000004,0.0007652000000009,-0.0004597999999999,0,sub_6
-0.0028958000000002,0.0130166000000011,-0.0034077999999999,0.0011260000000004,-0.000518799999999,0.0001888,0,sub_6
-0.0028086000000002,0.0127956000000011,-0.0028605999999999,0.0028346000000004,-0.000734799999999,0.0002026,0,sub_6
-0.0034000000000002,0.0127424000000012,-0.0023889999999999,0.0032640000000004,0.0001154000000009,0.0010606,0,sub_6
-0.0054510000000001,0.0133482000000012,-0.0035723999999999,0.0024062000000004,-9.67999999990518e-05,0.0023382,0,sub_6
-0.0073594000000001,0.0137280000000012,-0.0045295999999999,0.0015496000000004,-0.000520399999999,0.0031888,0,sub_6
-0.0083138000000001,0.0141566000000012,-0.0050831999999999,-0.0001557999999995,0.0001242000000009,0.004032,0,sub_6
-0.0081132000000001,0.0132862000000012,-0.0058075999999999,-0.0018655999999995,0.0001276000000009,0.0046608,0,sub_6
-0.0071792000000001,0.0117790000000012,-0.0056259999999999,-0.0020847999999995,-0.001362199999999,0.0044476,0,sub_6
-0.0043854000000001,0.0099988000000012,-0.0040573999999999,-0.0007987999999995,-0.001785999999999,0.002748,0,sub_6
-0.0010238000000002,0.0091252000000012,-0.0033325999999999,0.0002766000000004,-0.001357599999999,0.0012594,0,sub_6
0.0012553999999997,0.0090778000000012,-0.0023039999999999,0.0011368000000004,-0.000925799999999,-0.0002345999999999,0,sub_6
0.0019591999999997,0.0106080000000012,-0.0011109999999999,0.0015646000000004,-0.000709999999999,-0.0006631999999999,0,sub_6
0.0010895999999997,0.0135378000000011,-0.0020089999999999,0.0019942000000004,0.0003564000000009,-0.0006657999999999,0,sub_6
-0.0013904000000002,0.0158204000000011,-0.0035385999999999,0.0015638000000004,0.0003586000000009,-0.0002455999999999,0,sub_6
-0.0048598000000002,0.0173574000000011,-0.0044191999999999,0.0015590000000004,-6.579999999903192e-05,-3.5399999999947585e-05,0,sub_6
-0.0072710000000002,0.0175612000000011,-0.0060267999999999,0.0026240000000004,-0.000495799999999,-2.759999999992764e-05,0,sub_6
-0.0088708000000002,0.0154574000000011,-0.0070465999999999,0.0036956000000004,-7.099999999903191e-05,-0.0006615999999999,0,sub_6
-0.0089404000000002,0.0128824000000011,-0.0070913999999999,0.0036966000000004,-0.000282399999999,-0.0010885999999999,0,sub_6
-0.0071210000000002,0.0109054000000011,-0.0069153999999999,0.0039028000000004,-0.000281599999999,-0.0006677999999998,0,sub_6
-0.0049206000000002,0.0089486000000011,-0.0057673999999998,0.0034670000000004,-6.799999999907191e-05,0.000389,0,sub_6
-0.0031602000000002,0.0076972000000012,-0.0039941999999998,0.0017480000000004,-6.459999999907191e-05,0.0018646,0,sub_6
-0.0015130000000002,0.0092250000000012,-0.0042195999999998,0.0002396000000004,-0.000701199999999,0.0033424,0,sub_6
-0.0007452000000001,0.0108744000000012,-0.0042511999999998,-0.0008363999999995,-0.000909799999999,0.0039682,0,sub_6
-0.0017690000000001,0.0125170000000011,-0.0033203999999998,-0.0023291999999995,-0.000691399999999,0.0039574,0,sub_6
-0.0021718000000001,0.0145990000000011,-0.0037195999999999,-0.0023281999999995,-0.001114999999999,0.003317,0,sub_6
-0.0029058000000001,0.0167238000000011,-0.0041813999999998,-0.0010411999999995,-0.001113599999999,0.0018306,0,sub_6
-0.0040512000000001,0.0171066000000011,-0.0033099999999998,-0.0004017999999995,-0.001319799999999,0.0003318,0,sub_6
-0.0043316000000002,0.0163042000000011,-0.0033359999999998,0.0004500000000004,-0.001103399999999,-0.0005251999999999,0,sub_6
-0.0037160000000002,0.0151808000000012,-0.0039071999999998,0.0019392000000004,-0.001316199999999,-0.0011633999999998,0,sub_6
-0.0043386000000002,0.0135176000000012,-0.0039893999999998,0.0030006000000004,-0.001528199999999,-0.0015909999999998,0,sub_6
-0.0042038000000002,0.0119316000000012,-0.0048793999999999,0.0032056000000004,-0.001739799999999,-0.0013837999999998,0,sub_6
-0.0034674000000002,0.0105516000000012,-0.0057941999999999,0.0029922000000004,-0.001526799999999,-0.0011717999999998,0,sub_6
-0.0033608000000002,0.0104804000000012,-0.0062243999999998,0.0023502000000004,-0.001738399999999,-0.0009623999999999,0,sub_6
-0.0037028000000002,0.0110150000000012,-0.0057825999999998,0.0014902000000004,-0.001734199999999,-0.0007617999999999,0,sub_6
-0.0038330000000002,0.0121234000000012,-0.0052375999999998,0.0002024000000004,-0.001517399999999,-0.0001371999999999,0,sub_6
-0.0040738000000002,0.0130206000000012,-0.0049401999999998,-0.0004431999999995,-0.001300999999999,6.460000000007234e-05,0,sub_6
-0.0052960000000002,0.0139084000000012,-0.0042275999999998,-0.0006649999999995,-0.001725399999999,0.00027,0,sub_6
-0.0059524000000001,0.0141762000000012,-0.0033325999999999,-0.0008847999999995,-0.001723599999999,0.000475,0,sub_6
-0.0058972000000001,0.0139628000000012,-0.0037663999999998,-0.0010981999999995,-0.001935199999999,0.00026,0,sub_6
-0.0050214000000001,0.0134270000000012,-0.0041979999999998,-0.0008731999999995,-0.000652599999999,-0.0010219999999999,0,sub_6
-0.0045862000000001,0.0130752000000012,-0.0041199999999998,-0.0008645999999995,-8.399999999051875e-06,-0.0023045999999998,0,sub_6
-0.0034716000000001,0.0130072000000012,-0.0047815999999998,-0.0012835999999995,0.0008488000000009,-0.0031631999999998,0,sub_6
-0.0026362000000002,0.0128762000000012,-0.0047465999999998,-0.0012797999999995,0.0017084000000009,-0.0042421999999998,0,sub_6
-0.0024960000000002,0.0130432000000012,-0.0043679999999998,-0.0010625999999995,0.0034162000000009,-0.0044661999999998,0,sub_6
-0.0028760000000002,0.0130818000000012,-0.0042649999999998,-0.0021409999999995,0.0023562000000009,-0.0040547999999998,0,sub_6
-0.0030524000000001,0.0132182000000012,-0.0048923999999998,-0.0040671999999995,0.0013042000000009,-0.0049313999999999,0,sub_6
-0.0035784000000001,0.0133838000000012,-0.0048917999999998,-0.0068323999999995,0.0009046000000009,-0.0083781999999999,0,sub_6
-0.0042210000000001,0.0135256000000012,-0.0054481999999998,-0.0104491999999995,0.0005024000000009,-0.0111803999999999,0,sub_6
-0.0050518000000001,0.0136896000000012,-0.0052391999999998,-0.0117285999999995,-0.000553399999999,-0.0124699999999999,0,sub_6
-0.0054710000000001,0.0124256000000012,-0.0050465999999998,-0.0098191999999995,-0.000557999999999,-0.0120357999999999,0,sub_6
-0.0058302000000001,0.0108412000000012,-0.0038441999999998,-0.0062063999999995,0.0009136000000009,-0.0092413999999999,0,sub_6
-0.0052124000000002,0.0113658000000012,-0.0035159999999998,-0.0015373999999996,0.0025842000000009,-0.0038761999999999,0,sub_6
-0.0043940000000002,0.0120764000000012,-0.0030959999999998,0.0035460000000003,0.0016958000000009,0.0017088,0,sub_6
-0.0032262000000001,0.0118756000000012,-0.0038027999999998,0.0050116000000003,0.0008286000000009,0.0051322,0,sub_6
-0.0031006000000001,0.0130750000000012,-0.0050111999999998,0.0024436000000003,0.0008308000000009,0.0068234,0,sub_6
-0.0029590000000001,0.0139156000000012,-0.0064043999999998,-0.0016133999999995,0.0004180000000009,0.0070092,0,sub_6
-0.0032164000000001,0.0127038000000012,-0.0072779999999998,-0.0050255999999995,-0.000417199999999,0.0057046,0,sub_6
-0.0037966000000001,0.0120020000000012,-0.0078269999999999,-0.0073487999999995,0.0015220000000009,0.0022676,0,sub_6
-0.0049354000000001,0.0142592000000012,-0.0063301999999999,-0.0088205999999995,0.0043156000000009,-0.0011729999999999,0,sub_6
-0.0062106000000001,0.0163240000000012,-0.0038975999999999,-0.0092321999999995,0.0068874000000009,-0.0033239999999999,0,sub_6
-0.0069148000000001,0.0170274000000012,-0.0026453999999999,-0.0090171999999995,0.0079594000000009,-0.0039729999999999,0,sub_6
-0.0058742000000002,0.0164330000000012,-0.0035309999999999,-0.0079657999999995,0.0068912000000009,-0.0029043999999999,0,sub_6
-0.0041970000000002,0.0142912000000012,-0.0048937999999999,-0.0069211999999995,0.0051804000000009,-0.0009803999999999,0,sub_6
-0.0012564000000002,0.0095880000000012,-0.0058255999999999,-0.0048035999999995,0.0030366000000009,0.0005326,0,sub_6
0.0019743999999997,0.0061046000000012,-0.0066763999999999,-0.0011829999999995,0.0011080000000009,0.0001332,0,sub_6
0.0046027999999997,0.0053036000000012,-0.0053085999999999,0.0024434000000004,-0.000178599999999,-0.0009081999999999,0,sub_6
0.0036805999999997,0.0078716000000012,-0.0018453999999999,0.0043648000000004,0.0002532000000009,-0.0021805999999999,0,sub_6
0.0020589999999997,0.0119104000000012,0.0002716,0.0045754000000004,0.0004756000000009,-0.0028237999999999,0,sub_6
-0.0009464000000002,0.0164862000000012,4.120000000006965e-05,0.0028636000000004,0.0007028000000009,-0.0030529999999999,0,sub_6
-0.0047274000000002,0.0194466000000012,-0.0012261999999999,7.940000000044475e-05,0.0002922000000009,-0.0026479999999999,0,sub_6
-0.0082182000000002,0.0199254000000012,-0.0040843999999998,-0.0018493999999995,-0.000119799999999,-0.0026641999999999,0,sub_6
-0.0095940000000002,0.0174054000000012,-0.0070919999999998,-0.0018425999999995,-0.000113799999999,-0.0041597999999999,0,sub_6
-0.0104428000000002,0.0141848000000012,-0.0079807999999998,-0.0003411999999995,-0.000748799999999,-0.0064985999999999,0,sub_6
-0.0101268000000002,0.0112276000000012,-0.0079131999999998,0.0020126000000004,-0.001387599999999,-0.0086177999999999,0,sub_6
-0.0082484000000002,0.0089662000000012,-0.0072971999999999,0.0035092000000004,-0.001807399999999,-0.0098879999999999,0,sub_6
-0.0064324000000002,0.0077168000000012,-0.0056937999999999,0.0028702000000004,-0.001372599999999,-0.0098923999999999,0,sub_6
-0.0047702000000002,0.0084352000000012,-0.0049865999999999,-0.0003437999999995,-0.001790399999999,-0.0075633999999999,0,sub_6
-0.0030352000000002,0.0094712000000012,-0.0047219999999999,-0.0044111999999995,-0.001568799999999,-0.0046003999999999,0,sub_6
-0.0016544000000002,0.0110650000000012,-0.0048487999999999,-0.0080583999999995,-0.001991199999999,-0.0007789999999999,0,sub_6
-0.0006788000000002,0.0134778000000012,-0.0042133999999999,-0.0095711999999995,-0.003063999999999,0.0024164,0,sub_6
-0.0001076000000002,0.0165070000000012,-0.0035703999999999,-0.0100103999999995,-0.004771199999999,0.0034838,0,sub_6
-0.0002454000000002,0.0175792000000012,-0.0021099999999999,-0.0083061999999995,-0.006265199999999,0.002643,0,sub_6
8.039999999977813e-05,0.0184160000000012,-0.0022825999999999,-0.0061487999999995,-0.005201799999999,0.0011776,0,sub_6
0.0005435999999997,0.0184604000000012,-0.0024057999999999,-0.0039731999999995,-0.002636799999999,-0.0028533999999999,0,sub_6
-0.0005330000000002,0.0165848000000012,-0.0022409999999999,-0.0030787999999995,-0.000704999999999,-0.0073197999999999,0,sub_6
-0.0023590000000002,0.0146808000000012,-0.0032529999999999,-0.0021997999999995,-5.999999999905248e-05,-0.0096481999999998,0,sub_6
-0.0037694000000002,0.0135578000000012,-0.0048683999999999,-0.0017551999999995,0.0003676000000009,-0.0104837999999998,0,sub_6
-0.0061408000000002,0.0123044000000012,-0.0040603999999999,-0.0002701999999995,-0.002403999999999,-0.0113243999999999,0,sub_6
-0.0078638000000002,0.0098662000000012,-0.0033705999999999,0.0020530000000004,-0.006253199999999,-0.0098077999999999,0,sub_6
-0.0079184000000002,0.0085026000000012,-0.0037069999999999,0.0045924000000004,-0.007553999999999,-0.0063699999999999,0,sub_6
-0.0069618000000002,0.0080542000000012,-0.0045183999999999,0.0073634000000004,-0.006948999999999,-0.0016419999999999,0,sub_6
-0.0078080000000002,0.0076006000000012,-0.0043161999999999,0.0092550000000004,-0.009971399999999,0.0052208,0,sub_6
-0.0082988000000002,0.0077826000000012,-0.0047023999999999,0.0062264000000004,-0.012351199999999,0.015467,0,sub_6
-0.0087144000000002,0.0097768000000012,-0.0064011999999999,-0.0010475999999995,-0.009391399999999,0.026104,0,sub_6
-0.0098648000000002,0.0113212000000012,-0.0086441999999999,-0.0104591999999995,-0.009610599999999,0.03438,0,sub_6
-0.0109452000000002,0.0114558000000012,-0.0084897999999999,-0.0196841999999995,-0.014715599999999,0.0403042,0,sub_6
-0.0065332000000002,0.0117402000000012,-0.0068305999999999,-0.0239295999999995,-0.008951799999999,0.0411218,0,sub_6
-0.0025008000000002,0.0115420000000012,-0.0054425999999999,-0.0236383999999995,-0.001270999999999,0.0355688,0,sub_6
0.0014515999999997,0.0111826000000012,-0.0035133999999999,-0.0193247999999995,-0.002120599999999,0.0285594,0,sub_6
0.0069637999999997,0.0119326000000012,-0.0006911999999999,-0.0094585999999995,-0.001287799999999,0.0222276,0,sub_6
0.0108751999999997,0.0144830000000012,0.0009682,1.060000000040473e-05,0.0057268000000009,0.0154578,0,sub_6
0.0098837999999997,0.0174148000000012,0.0009502,0.0028152000000004,0.0061420000000009,0.0131366,0,sub_6
0.0079193999999997,0.0211534000000012,0.001031,0.0044972000000004,0.0018698000000009,0.0144358,0,sub_6
0.0018947999999997,0.0237016000000012,0.0001936,0.0055660000000004,0.0008068000000009,0.0129492,0,sub_6
-0.0057846000000001,0.0240678000000012,-0.0014393999999999,0.0049498000000004,0.0014670000000009,0.0082438,0,sub_6
-0.0141864000000001,0.0220802000000012,-0.0054037999999999,0.0054158000000004,0.0029858000000009,0.0009812,0,sub_6
-0.0226664000000001,0.0195182000000012,-0.0092825999999999,0.0076124000000004,0.0047146000000009,-0.0086013999999999,0,sub_6
-0.0295408000000001,0.0153610000000012,-0.0140563999999999,0.0093882000000004,0.0094208000000009,-0.0164815999999999,0,sub_6
-0.0302374000000001,0.0101284000000012,-0.0166223999999999,0.0090080000000004,0.0141148000000009,-0.0194629999999999,0,sub_6
-0.0265596000000002,0.0067730000000012,-0.0155235999999999,0.0058272000000004,0.0177336000000009,-0.0175487999999999,0,sub_6
-0.0194306000000002,0.0051916000000012,-0.0104085999999999,0.0024014000000004,0.0181420000000009,-0.0117865999999999,0,sub_6
-0.0068532000000002,0.0023184000000012,-0.0057763999999999,0.0008926000000004,0.0189824000000009,-0.0075253999999999,0,sub_6
0.0055521999999997,0.0006428000000012,-0.0019773999999999,0.0021736000000004,0.0213130000000009,-0.0053829999999999,0,sub_6
0.0150499999999997,0.0018458000000012,0.0012942,0.0032396000000004,0.0219450000000009,-0.0045217999999999,0,sub_6
0.0176659999999998,0.0054050000000012,0.0034668,0.0056106000000004,0.0221548000000009,-0.0053429999999998,0,sub_6
0.0181305999999997,0.0076604000000012,0.0035244,0.0069214000000004,0.0240720000000009,-0.0059601999999998,0,sub_6
0.0140935999999997,0.0122334000000012,0.0034386,0.0050038000000004,0.0227926000000009,-0.0036047999999998,0,sub_6
0.0086733999999997,0.0180902000000012,0.003335,0.0019984000000004,0.0174664000000009,-0.0006107999999999,0,sub_6
0.0017629999999997,0.0216508000000012,0.0038598,0.0022002000000004,0.0123472000000009,0.0011234,0,sub_6
-0.0020110000000002,0.0230552000000012,0.0017938,0.0032546000000004,0.0099982000000009,0.0015612,0,sub_6
-0.0067040000000002,0.0227580000000011,-0.0012069999999999,0.0047492000000004,0.0072352000000009,-0.0014157999999999,0,sub_6
-0.0121274000000002,0.0217352000000011,-0.0040043999999999,0.0092480000000003,0.0038416000000009,-0.0062719999999999,0,sub_6
-0.0150740000000002,0.0174328000000012,-0.0057079999999999,0.0148328000000003,0.0038564000000009,-0.0119797999999999,0,sub_6
-0.0161558000000002,0.0133358000000012,-0.0083161999999999,0.0187402000000003,0.0085720000000009,-0.0196279999999999,0,sub_6
-0.0165222000000002,0.0088774000000012,-0.0082639999999999,0.0202690000000003,0.0088116000000009,-0.0247233999999999,0,sub_6
-0.0136276000000001,0.0074744000000012,-0.0070487999999999,0.0196286000000003,0.0043586000000009,-0.0266231999999999,0,sub_6
-0.0078134000000001,0.0076630000000012,-0.0049617999999999,0.0166432000000004,0.0047950000000009,-0.0266445999999999,0,sub_6
-0.0002518000000001,0.0092204000000012,-0.0016915999999999,0.0110630000000004,0.0013902000000009,-0.0228335999999999,0,sub_6
0.0050941999999997,0.0112174000000012,0.0001512,0.0041632000000004,-0.005864599999999,-0.0141131999999999,0,sub_6
0.0085375999999997,0.0100880000000012,-0.0004309999999999,-0.0041863999999995,-0.009046199999999,-0.0048095999999999,0,sub_6
