userAcceleration.x,userAcceleration.y,userAcceleration.z,rotationRate.x,rotationRate.y,rotationRate.z,label,subject
0.0021313999999997,0.0120758000000011,-0.0005633999999998,-0.0030581999999995,0.0041764000000009,0.0047498,0,sub_8
0.0023513999999997,0.0131480000000011,-0.0001291999999998,-0.0028485999999995,0.0035356000000009,0.0049656,0,sub_8
0.0024855999999997,0.0140546000000011,0.0011656000000001,-0.0013665999999995,0.0018226000000009,0.0058326,0,sub_8
0.0033917999999997,0.0134256000000011,0.0011522000000001,0.0009796000000004,-0.000720399999999,0.0056792,0,sub_8
0.0043869999999997,0.0133942000000011,0.0006658000000001,0.0031144000000004,-0.002412199999999,0.0059506,0,sub_8
0.0039861999999997,0.0126104000000011,0.0009030000000001,0.0058950000000004,-0.002403399999999,0.0066516,0,sub_8
0.0039393999999997,0.0115672000000012,0.0005882000000001,0.0088860000000004,-0.0026099999999989,0.0077818,0,sub_8
0.0040691999999997,0.0112004000000012,5.720000000011048e-05,0.0106028000000004,-0.0032315999999989,0.0071944,0,sub_8
0.0033613999999997,0.0123722000000012,-0.0002409999999998,0.0123080000000004,-0.0043001999999989,0.0065668,0,sub_8
0.0024617999999997,0.0124864000000012,-0.0004637999999998,0.0133730000000004,-0.0053665999999989,0.0059346,0,sub_8
0.0026801999999997,0.0130112000000012,-0.0002079999999998,0.0135826000000004,-0.0070683999999989,0.0050836,0,sub_8
0.0026161999999997,0.0126992000000012,-0.0006221999999998,0.0127460000000004,-0.008114799999999,0.0042468,0,sub_8
0.0025003999999997,0.0118896000000012,-0.0013865999999998,0.0116988000000004,-0.008308999999999,0.003621,0,sub_8
0.0025729999999997,0.0109942000000012,-0.0021709999999998,0.0104402000000004,-0.007651999999999,0.00342,0,sub_8
0.0024533999999997,0.0104920000000011,-0.0024905999999998,0.0089692000000004,-0.006356799999999,0.003644,0,sub_8
0.0026895999999997,0.0097748000000011,-0.0028349999999998,0.0068628000000004,-0.004418599999999,0.0034356,0,sub_8
0.0025627999999997,0.0100292000000011,-0.0023657999999998,0.0055902000000004,-0.002921999999999,0.003211,0,sub_8
0.0026551999999997,0.0105458000000011,-0.0022123999999998,0.0049530000000004,-0.0020683999999989,0.0034192,0,sub_8
0.0021667999999997,0.0109200000000011,-0.0021031999999998,0.0047416000000004,-0.0020659999999989,0.0029904,0,sub_8
0.0023967999999997,0.0109870000000011,-0.0020655999999998,0.0034802000000004,-0.0020207999999989,0.0019252,0,sub_8
0.0024561999999997,0.0111046000000011,-0.0020249999999998,0.0024276000000004,-0.0021927999999989,0.0017162,0,sub_8
0.0023211999999997,0.0112834000000011,-0.0019641999999998,0.0009482000000004,-0.0027877999999989,0.0010776,0,sub_8
0.0023963999999997,0.0109578000000011,-0.0017915999999998,-0.0007427999999995,-0.003168199999999,0.0002236000000001,0,sub_8
0.0034921999999997,0.0099348000000012,-0.0016899999999998,-0.0028595999999995,-0.002909599999999,-0.0002069999999998,0,sub_8
0.0039881999999997,0.0097962000000012,-0.0023569999999998,-0.0037149999999995,-0.003332799999999,-0.0002123999999998,0,sub_8
0.0042835999999997,0.0097270000000012,-0.0031233999999998,-0.0045665999999995,-0.003540399999999,-0.0008589999999998,0,sub_8
0.0047313999999997,0.0094858000000012,-0.0037985999999998,-0.0054153999999994,-0.002684199999999,-0.0010795999999998,0,sub_8
0.0043769999999997,0.0095934000000012,-0.0036881999999998,-0.0077367999999995,-0.000511399999999,-0.0006651999999999,0,sub_8
0.0039779999999997,0.0102062000000012,-0.0026239999999998,-0.0092047999999995,0.0016584000000009,-0.0002447999999999,0,sub_8
0.0039327999999997,0.0103364000000012,-0.0019949999999998,-0.0104623999999994,0.0023396000000009,-0.0006755999999999,0,sub_8
0.0038461999999997,0.0106054000000012,-0.0015979999999998,-0.0108693999999994,0.0023786000000009,-0.0010995999999999,0,sub_8
0.0034653999999997,0.0108966000000012,-0.0013523999999998,-0.0106407999999995,0.0015622000000009,-0.0013043999999998,0,sub_8
0.0038777999999997,0.0105248000000012,-0.0013745999999998,-0.0097921999999994,0.0002818000000009,-0.0015103999999998,0,sub_8
0.0039829999999997,0.0104140000000012,-0.0023913999999998,-0.0091559999999994,-0.000572599999999,-0.0015047999999998,0,sub_8
0.0028837999999997,0.0102784000000012,-0.0026177999999998,-0.0085007999999995,8.14000000009695e-05,-0.0006511999999998,0,sub_8
0.0020749999999997,0.0101036000000012,-0.0025491999999998,-0.0086989999999995,0.0009506000000009,0.0004098000000001,0,sub_8
0.0015507999999997,0.0096306000000012,-0.0020655999999998,-0.0082563999999994,0.0016062000000009,0.0010482,0,sub_8
0.0012659999999997,0.0106806000000012,-0.0017857999999998,-0.0065323999999994,0.0018338000000009,0.0010552,0,sub_8
0.0010651999999997,0.0112292000000012,-0.0015213999999998,-0.0054541999999995,0.0009976000000009,0.0012728,0,sub_8
0.0016121999999997,0.0120248000000012,-0.0009643999999998,-0.0052445999999995,0.0001446000000009,0.0012754,0,sub_8
0.0018657999999997,0.0116916000000012,-0.0006791999999998,-0.0052475999999995,-0.000494399999999,0.0012762,0,sub_8
0.0024997999999997,0.0115480000000012,-0.0011865999999998,-0.0063153999999995,-0.000703599999999,0.001269,0,sub_8
0.0027907999999997,0.0103526000000012,-0.0013077999999998,-0.0071817999999995,-0.001315199999999,0.0010344,0,sub_8
0.0030567999999997,0.0096536000000012,-0.0016283999999998,-0.0074043999999995,-0.001501199999999,0.0003764,0,sub_8
0.0029963999999997,0.0084370000000012,-0.0023677999999998,-0.0069867999999995,-0.001689399999999,-0.0002771999999999,0,sub_8
0.0034923999999997,0.0083454000000012,-0.0037661999999998,-0.0067805999999995,-0.001450799999999,-0.0009327999999998,0,sub_8
0.0031387999999997,0.0086646000000012,-0.0041335999999998,-0.0065733999999995,-0.000786999999999,-0.0013751999999998,0,sub_8
0.0029425999999997,0.0091156000000012,-0.0044011999999998,-0.0067819999999995,6.680000000094943e-05,-0.0015913999999998,0,sub_8
0.0021457999999997,0.0097234000000012,-0.0046731999999998,-0.0069895999999995,0.0011336000000009,-0.0018079999999998,0,sub_8
0.0017059999999997,0.0107156000000012,-0.0044377999999998,-0.0080497999999995,0.0019922000000009,-0.0024573999999998,0,sub_8
0.0011403999999997,0.0115524000000011,-0.0034873999999998,-0.0089191999999995,0.0030864000000009,-0.0026955999999999,0,sub_8
0.0010721999999997,0.0120204000000011,-0.0030059999999998,-0.0093687999999995,0.0029000000000009,-0.0027155999999998,0,sub_8
0.0010867999999997,0.0120734000000011,-0.0025121999999998,-0.0098221999999995,0.0024980000000009,-0.0020943999999998,0,sub_8
0.0017407999999997,0.0109274000000011,-0.0020903999999998,-0.0100659999999995,0.0014552000000009,-0.0012571999999998,0,sub_8
0.0021309999999997,0.0103040000000011,-0.0021357999999998,-0.0088189999999995,0.0001924000000009,1.8000000000114367e-05,0,sub_8
0.0023313999999997,0.0096640000000011,-0.0021841999999998,-0.0077627999999995,-0.001093999999999,0.0010952000000001,0,sub_8
0.0021709999999997,0.0095396000000011,-0.0022895999999998,-0.0064881999999995,-0.001740199999999,0.0017458,0,sub_8
0.0019711999999997,0.0094040000000011,-0.0032197999999998,-0.0047821999999995,-0.001959199999999,0.001758,0,sub_8
0.0016903999999997,0.0108208000000012,-0.0039593999999998,-0.0039297999999994,-0.000449199999999,0.0017506,0,sub_8
0.0013233999999997,0.0105948000000012,-0.0033933999999998,-0.0045671999999994,0.0019182000000009,0.0017316,0,sub_8
0.0009615999999997,0.0106414000000012,-0.0030879999999998,-0.0037147999999994,0.0027916000000009,0.001084,0,sub_8
0.0010499999999997,0.0105730000000012,-0.0034419999999998,-0.0028653999999994,0.0030258000000009,0.0004372,0,sub_8
0.0008269999999997,0.0108370000000012,-0.0031863999999998,-0.0026587999999994,0.0028352000000009,9.441232518003771e-17,0,sub_8
0.0006225999999997,0.0103292000000012,-0.0028797999999998,-0.0020263999999995,0.0015530000000009,0.0004332,0,sub_8
0.0007389999999997,0.0100328000000012,-0.0034017999999998,-0.0013909999999995,0.0004854000000009,0.000439,0,sub_8
0.0013389999999997,0.0099118000000012,-0.0040799999999998,-0.0009689999999995,-0.000369199999999,0.0006568,0,sub_8
0.0018781999999997,0.0094890000000012,-0.0036807999999998,-0.0009707999999995,5.340000000096967e-05,0.0015108,0,sub_8
0.0019989999999997,0.0091744000000012,-0.0032721999999998,-0.0005315999999995,0.0006990000000009,0.0025746,0,sub_8
0.0024673999999997,0.0091848000000012,-0.0032579999999998,-0.0003009999999995,0.0011372000000009,0.0023554,0,sub_8
0.0026793999999997,0.0104752000000012,-0.0035017999999998,0.0007782000000004,0.0005074000000009,0.0021434,0,sub_8
0.0021307999999997,0.0106540000000012,-0.0029911999999998,0.0007934000000004,0.0005204000000009,0.0019232,0,sub_8
0.0017857999999997,0.0105644000000011,-0.0032077999999998,0.0001696000000004,0.0005366000000009,0.001485,0,sub_8
0.0019765999999997,0.0100746000000011,-0.0038579999999998,-0.0013191999999995,0.0007582000000009,0.0006198,0,sub_8
0.0015693999999997,0.0094312000000011,-0.0039383999999998,-0.0028049999999995,0.0016190000000009,-0.0002461999999999,0,sub_8
0.0014031999999997,0.0083966000000011,-0.0040899999999998,-0.0042663999999995,0.0033376000000009,-0.0004775999999999,0,sub_8
0.0016801999999997,0.0080936000000011,-0.0050971999999998,-0.0055153999999995,0.0048426000000009,-0.0007071999999999,0,sub_8
0.0018219999999997,0.0080498000000012,-0.0052835999999998,-0.0067597999999995,0.0072006000000009,-0.0011513999999999,0,sub_8
0.0017847999999997,0.0086810000000012,-0.0050257999999998,-0.0077945999999995,0.0091302000000009,-0.0011663999999999,0,sub_8
0.0015889999999997,0.0089890000000012,-0.0049647999999998,-0.0090427999999995,0.0106362000000009,-0.0016095999999999,0,sub_8
0.0019993999999997,0.0091158000000012,-0.0046795999999998,-0.0105295999999995,0.0114962000000009,-0.0022619999999999,0,sub_8
0.0017949999999997,0.0091084000000012,-0.0043107999999998,-0.0115915999999995,0.0123530000000009,-0.0024841999999999,0,sub_8
0.0015771999999997,0.0091212000000012,-0.0043507999999998,-0.0122305999999995,0.0123560000000009,-0.0027023999999999,0,sub_8
0.0013941999999997,0.0088764000000012,-0.0045755999999998,-0.0121923999999995,0.0127884000000009,-0.0035571999999999,0,sub_8
0.0013419999999997,0.0088690000000012,-0.0044687999999998,-0.0117349999999995,0.0123636000000009,-0.0035533999999999,0,sub_8
0.0010267999999997,0.0088224000000012,-0.0047615999999998,-0.0117045999999994,0.0119404000000009,-0.0035525999999999,0,sub_8
0.0013143999999997,0.0087866000000012,-0.0048437999999998,-0.0120969999999995,0.0125830000000009,-0.0033423999999998,0,sub_8
0.0012293999999997,0.0086006000000012,-0.0047715999999998,-0.0127009999999995,0.0136526000000009,-0.0031343999999998,0,sub_8
0.0013871999999997,0.0085898000000012,-0.0048073999999998,-0.0133419999999995,0.0136538000000009,-0.0029251999999998,0,sub_8
0.0015983999999997,0.0085710000000012,-0.0054187999999998,-0.0137677999999995,0.0138684000000009,-0.0029285999999998,0,sub_8
0.0012571999999997,0.0085070000000012,-0.0055633999999998,-0.0135515999999995,0.0145068000000009,-0.0029277999999998,0,sub_8
0.0011599999999997,0.0088322000000012,-0.0057745999999998,-0.0139745999999995,0.0145118000000009,-0.0037853999999998,0,sub_8
0.0012559999999997,0.0094230000000012,-0.0060773999999998,-0.0137269999999995,0.0136616000000009,-0.0044251999999998,0,sub_8
0.0009541999999997,0.0093716000000012,-0.0061709999999998,-0.0139071999999995,0.0132366000000009,-0.0044275999999998,0,sub_8
0.0009949999999997,0.0091840000000012,-0.0056169999999998,-0.0145103999999995,0.0138772000000009,-0.0042205999999998,0,sub_8
0.0009135999999997,0.0099046000000012,-0.0057569999999998,-0.0146875999999995,0.0140912000000009,-0.0042237999999999,0,sub_8
0.0011241999999997,0.0096302000000012,-0.0049589999999998,-0.0133749999999995,0.0134478000000009,-0.0042153999999999,0,sub_8
0.0012237999999997,0.0090798000000012,-0.0046277999999998,-0.0121013999999995,0.0117398000000009,-0.0044179999999999,0,sub_8
0.0009505999999997,0.0089652000000011,-0.0049303999999998,-0.0108211999999995,0.0115230000000009,-0.0046223999999999,0,sub_8
0.0002429999999997,0.0095920000000011,-0.0050243999999998,-0.0107945999999995,0.0119442000000009,-0.0039845999999999,0,sub_8
-6.960000000022113e-05,0.0097360000000011,-0.0040847999999998,-0.0109881999999995,0.0119358000000009,-0.0022795999999999,0,sub_8
-0.0001910000000002,0.0100662000000011,-0.0045817999999998,-0.0094805999999995,0.0095820000000009,-0.0016279999999999,0,sub_8
-9.540000000022108e-05,0.0105282000000011,-0.0051433999999998,-0.0079701999999995,0.0074430000000009,-0.0014037999999999,0,sub_8
0.0004273999999997,0.0111682000000011,-0.0049015999999998,-0.0066721999999995,0.0059424000000009,-0.0007547999999999,0,sub_8
0.0007445999999997,0.0100086000000011,-0.0052071999999998,-0.0045491999999995,0.0035914000000009,-0.0007369999999999,0,sub_8
0.0015419999999997,0.0091638000000012,-0.0059201999999998,-0.0024231999999995,0.0012430000000009,-0.0013599999999999,0,sub_8
0.0011359999999997,0.0089328000000012,-0.0055061999999998,-0.0015707999999995,0.0014514000000009,-0.0009269999999999,0,sub_8
0.0003395999999997,0.0081956000000011,-0.0055309999999998,-0.0009325999999995,0.0022962000000009,0.0003584,0,sub_8
-0.0001726000000002,0.0081492000000011,-0.0050239999999998,0.0005770000000004,0.0010032000000009,0.000795,0,sub_8
0.0002245999999997,0.0092864000000011,-0.0046317999999998,0.0029364000000004,-0.001781599999999,0.0005984,0,sub_8
0.0001673999999997,0.0100312000000011,-0.0048385999999998,0.0044440000000004,-0.004137399999999,0.0003952,0,sub_8
0.0004291999999997,0.0100438000000011,-0.0048565999999998,0.0044582000000004,-0.005638999999999,0.0010352,0,sub_8
0.0009647999999997,0.0105672000000011,-0.0041307999999998,0.0044770000000004,-0.006499799999999,0.001247,0,sub_8
0.0014879999999997,0.0094768000000011,-0.0045847999999998,0.0042608000000004,-0.006925999999999,0.0014596,0,sub_8
0.0017341999999997,0.0085898000000011,-0.0051959999999998,0.0046874000000004,-0.006715199999999,0.001676,0,sub_8
0.0015625999999997,0.0079196000000011,-0.0053675999999998,0.0053286000000004,-0.006292199999999,0.0018936,0,sub_8
0.0015073999999997,0.0075464000000011,-0.0064653999999998,0.0064362000000004,-0.006111399999999,0.0014772,0,sub_8
0.0015747999999997,0.0071190000000011,-0.0065075999999998,0.0069028000000004,-0.005928999999999,0.00127,0,sub_8
0.0012161999999997,0.0082668000000012,-0.0067231999999998,0.0071560000000004,-0.005321599999999,0.0014882,0,sub_8
0.0002777999999997,0.0088708000000012,-0.0062911999999998,0.0057022000000004,-0.004071599999999,0.0023346,0,sub_8
-0.0001396000000002,0.0093364000000012,-0.0063229999999998,0.0046742000000004,-0.003248199999999,0.0029708,0,sub_8
-0.0004726000000002,0.0094452000000012,-0.0055975999999998,0.0038206000000004,-0.002820799999999,0.0033916,0,sub_8
-0.0007852000000002,0.0096628000000012,-0.0064117999999998,0.0036082000000004,-0.0023947999999989,0.0036032,0,sub_8
-0.0007616000000002,0.0090542000000012,-0.0067515999999998,0.0030212000000004,-0.0024421999999989,0.0038226,0,sub_8
-0.0001238000000002,0.0087914000000012,-0.0067015999999998,0.0030752000000004,-0.0027031999999989,0.0036196,0,sub_8
0.0004269999999997,0.0083470000000012,-0.0060651999999998,0.0033434000000004,-0.002539799999999,0.0036312,0,sub_8
0.0005647999999997,0.0087774000000012,-0.0060029999999998,0.0033974000000004,-0.001951999999999,0.0042818,0,sub_8
0.0006623999999997,0.0090712000000012,-0.0054927999999998,0.0034504000000004,-0.001577199999999,0.0049326,0,sub_8
0.0003901999999997,0.0098782000000012,-0.0049767999999998,0.0040856000000004,-0.002007999999999,0.0055786,0,sub_8
0.0004923999999997,0.0099186000000012,-0.0049567999999998,0.0051478000000004,-0.002652599999999,0.006014,0,sub_8
0.0006347999999997,0.0100946000000012,-0.0048361999999998,0.0057822000000004,-0.003932999999999,0.00602,0,sub_8
0.0009823999999997,0.0095514000000012,-0.0052399999999998,0.0064780000000004,-0.005697599999999,0.0058274,0,sub_8
0.0013679999999997,0.0091138000000012,-0.0053191999999998,0.0071766000000004,-0.007035399999999,0.0054208,0,sub_8
0.0017885999999997,0.0082038000000011,-0.0053083999999998,0.0087286000000004,-0.008588399999999,0.0048068,0,sub_8
0.0016699999999997,0.0080532000000011,-0.0056205999999998,0.0096414000000004,-0.009925999999999,0.004188,0,sub_8
0.0014197999999997,0.0074098000000011,-0.0065659999999998,0.0101314000000004,-0.010197799999999,0.0037786,0,sub_8
0.0011805999999997,0.0072980000000011,-0.0065065999999998,0.0101342000000004,-0.009982999999999,0.0033512,0,sub_8
0.0007717999999997,0.0078418000000011,-0.0067661999999998,0.0092826000000004,-0.010190399999999,0.0027046,0,sub_8
0.0006265999999997,0.0077828000000011,-0.0069197999999998,0.0069422000000004,-0.008902999999999,0.002473,0,sub_8
0.0006035999999997,0.0076336000000011,-0.0070891999999998,0.0048172000000004,-0.007402399999999,0.002029,0,sub_8
0.0005481999999997,0.0082148000000011,-0.0067949999999998,0.0025284000000004,-0.005310999999999,0.0020212,0,sub_8
0.0001819999999997,0.0086918000000012,-0.0061247999999998,0.0006636000000004,-0.003223799999999,0.0026572,0,sub_8
0.0001213999999997,0.0083566000000012,-0.0059419999999998,-0.0003535999999995,-0.002417999999999,0.0033008,0,sub_8
0.0001237999999997,0.0086840000000011,-0.0061081999999998,-9.239999999953998e-05,-0.003103599999999,0.002887,0,sub_8
0.0002685999999997,0.0091980000000011,-0.0055487999999998,0.0005926000000004,-0.004005599999999,0.0029038,0,sub_8
5.479999999977879e-05,0.0091400000000011,-0.0051879999999998,0.0014424000000004,-0.005072999999999,0.0026974,0,sub_8
0.0007979999999997,0.0086896000000011,-0.0062415999999998,0.0018672000000004,-0.0063493999999989,0.0018474,0,sub_8
0.0006595999999997,0.0083346000000011,-0.0065807999999998,0.0029590000000004,-0.0063727999999989,0.0016462,0,sub_8
0.0006651999999997,0.0074472000000011,-0.0061727999999998,0.0040508000000004,-0.0059719999999989,0.0018716,0,sub_8
-6.580000000022123e-05,0.0068146000000011,-0.0072105999999998,0.0036460000000004,-0.0053561999999989,0.002941,0,sub_8
-0.0002590000000002,0.0069082000000011,-0.0071919999999998,0.0038812000000004,-0.005167199999999,0.003588,0,sub_8
-0.0008354000000002,0.0074678000000011,-0.0064503999999998,0.0049710000000004,-0.005192399999999,0.003814,0,sub_8
-0.0006410000000002,0.0084312000000011,-0.0059649999999998,0.0047556000000004,-0.005405599999999,0.0040264,0,sub_8
-0.0005418000000002,0.0091388000000011,-0.0060325999999998,0.0034762000000004,-0.004975799999999,0.0042306,0,sub_8
-0.0003540000000002,0.0094820000000011,-0.0055351999999998,0.0032656000000004,-0.004760199999999,0.0038016,0,sub_8
-0.0003080000000002,0.0093622000000011,-0.0057513999999998,0.0030560000000004,-0.004119399999999,0.0035858,0,sub_8
-0.0006872000000002,0.0089414000000011,-0.0061747999999998,0.0030642000000004,-0.003273199999999,0.0037946,0,sub_8
-0.0005788000000002,0.0079742000000011,-0.0065541999999998,0.0034992000000004,-0.002640599999999,0.003793,0,sub_8
-0.0001690000000002,0.0075498000000011,-0.0068639999999998,0.0035084000000004,-0.001793599999999,0.0037882,0,sub_8
0.0002209999999997,0.0071434000000012,-0.0067557999999998,0.0037310000000004,-0.000522999999999,0.0042114,0,sub_8
0.0005441999999997,0.0069288000000012,-0.0070453999999998,0.0033136000000004,0.0003256000000009,0.0042034,0,sub_8
0.0007473999999997,0.0072544000000012,-0.0070493999999998,0.0013990000000004,0.0016106000000009,0.0041884,0,sub_8
0.0007063999999997,0.0075548000000011,-0.0070535999999998,-0.0005145999999995,0.0033208000000009,0.0043864,0,sub_8
0.0004057999999997,0.0077592000000011,-0.0074371999999998,-0.0017871999999995,0.0056664000000009,0.0050154,0,sub_8
-0.0002898000000002,0.0083396000000011,-0.0083551999999998,-0.0049835999999995,0.0095160000000009,0.0058286,0,sub_8
-0.0003370000000002,0.0085702000000011,-0.0090237999999998,-0.0109489999999995,0.0155014000000009,0.007688,0,sub_8
-0.0006090000000002,0.0081624000000011,-0.0101171999999998,-0.0190423999999995,0.0238338000000009,0.0105976,0,sub_8
-0.0001146000000002,0.0073608000000012,-0.0116541999999998,-0.0315973999999995,0.0377160000000009,0.0147508,0,sub_8
-0.0001740000000002,0.0079488000000012,-0.0102089999999998,-0.0464935999999995,0.0524604000000009,0.0184592,0,sub_8
0.0002277999999997,0.0084536000000012,-0.0088561999999998,-0.0571399999999995,0.0605810000000009,0.0215792,0,sub_8
0.0002149999999997,0.0079204000000012,-0.0070735999999998,-0.0616179999999995,0.0629336000000009,0.023254,0,sub_8
0.0003467999999997,0.0075978000000012,-0.0061205999999998,-0.0575957999999995,0.0593260000000009,0.0217738,0,sub_8
-0.0010002000000002,0.0082598000000012,-0.0042397999999998,-0.0457085999999995,0.0473886000000009,0.0186502,0,sub_8
-0.0017330000000002,0.0087152000000012,-0.0044341999999998,-0.0302065999999995,0.0333052000000009,0.0161954,0,sub_8
-0.0021594000000002,0.0092644000000011,-0.0039059999999998,-0.0138357999999995,0.0224156000000009,0.0135288,0,sub_8
-0.0034032000000002,0.0109978000000011,-0.0039669999999998,0.0012626000000004,0.0125982000000009,0.0102112,0,sub_8
-0.0043046000000002,0.0125820000000011,-0.0030499999999998,0.0101964000000004,0.0053272000000009,0.0092148,0,sub_8
-0.0042746000000002,0.0142138000000011,-0.0027365999999998,0.0140198000000004,0.0025398000000009,0.0103132,0,sub_8
-0.0042322000000002,0.0140946000000011,-0.0028589999999998,0.0169888000000004,0.0006034000000009,0.012473,0,sub_8
-0.0039270000000002,0.0131620000000012,-0.0031451999999998,0.0190816000000004,-0.001941799999999,0.0143962,0,sub_8
-0.0029348000000002,0.0111890000000012,-0.0041659999999998,0.0205322000000004,-0.004274199999999,0.0169554,0,sub_8
-0.0007238000000002,0.0092292000000012,-0.0056115999999998,0.0226240000000004,-0.006607999999999,0.0193054,0,sub_8
0.0014431999999997,0.0070508000000012,-0.0064469999999998,0.0268506000000004,-0.010645999999999,0.0197498,0,sub_8
0.0028261999999997,0.0057012000000012,-0.0074217999999998,0.0319316000000004,-0.015747199999999,0.0189196,0,sub_8
0.0045339999999997,0.0044538000000012,-0.0089307999999998,0.0349054000000004,-0.021286799999999,0.0163836,0,sub_8
0.0054225999999997,0.0052382000000012,-0.0099605999999998,0.0353294000000004,-0.024898399999999,0.0134002,0,sub_8
0.0051135999999997,0.0061332000000012,-0.0104013999999998,0.0327786000000004,-0.026154199999999,0.0099658,0,sub_8
0.0043303999999997,0.0053006000000012,-0.0113189999999998,0.0281026000000004,-0.026970599999999,0.0050204,0,sub_8
0.0041191999999997,0.0049040000000011,-0.0109131999999998,0.0208540000000004,-0.027741799999999,-0.0020995999999999,0,sub_8
0.0033013999999997,0.0050914000000011,-0.0112643999999998,0.0116938000000004,-0.024891199999999,-0.0075283999999999,0,sub_8
0.0035095999999997,0.0034990000000011,-0.0113519999999998,0.0033870000000004,-0.020982399999999,-0.0118843999999999,0,sub_8
0.0035835999999997,0.0025262000000011,-0.0109351999999998,-0.0017221999999995,-0.018360599999999,-0.0168575999999999,0,sub_8
0.0035015999999997,0.0035874000000011,-0.0096373999999998,-0.0051271999999995,-0.015959399999999,-0.0213911999999998,0,sub_8
0.0033767999999997,0.0041982000000011,-0.0098593999999998,-0.0078713999999995,-0.012527999999999,-0.0246195999999998,0,sub_8
0.0031109999999997,0.0053524000000011,-0.0080777999999998,-0.0091257999999995,-0.011014999999999,-0.0289031999999998,0,sub_8
0.0021283999999997,0.0078378000000012,-0.0046447999999998,-0.0069851999999995,-0.011421199999999,-0.0333983999999998,0,sub_8
0.0012527999999997,0.0107238000000011,-0.0023871999999998,-0.0027251999999995,-0.012484199999999,-0.0353141999999998,0,sub_8
0.0003329999999997,0.0136410000000011,6.160000000013048e-05,0.0040944000000004,-0.012283999999999,-0.0357181999999999,0,sub_8
-0.0020518000000002,0.0164490000000011,-3.379999999986935e-05,0.0126086000000004,-0.013373799999999,-0.0346131999999999,0,sub_8
-0.0040594000000002,0.0184042000000011,-0.0008363999999998,0.0202576000000004,-0.015107599999999,-0.0315905999999999,0,sub_8
-0.0053568000000002,0.0193226000000011,-0.0024337999999998,0.0264618000000004,-0.011082999999999,-0.0311251999999998,0,sub_8
