userAcceleration.x,userAcceleration.y,userAcceleration.z,rotationRate.x,rotationRate.y,rotationRate.z,label,subject
-0.0039804000000001,-0.0177757999999987,-0.0203257999999999,0.0182196000000004,-0.043070599999999,0.0366608000000001,0,sub_10
-0.0045010000000001,-0.0189213999999987,-0.0240885999999999,0.0112224000000004,-0.036216399999999,0.0336120000000001,0,sub_10
-0.0043984000000001,-0.0197715999999987,-0.0261497999999998,0.0057380000000004,-0.026379599999999,0.0292882000000001,0,sub_10
-0.0057220000000001,-0.0184313999999987,-0.0266123999999998,0.0032572000000004,-0.013779999999999,0.0241272000000001,0,sub_10
-0.0082486000000001,-0.0156391999999987,-0.0245075999999998,0.0020508000000004,-0.002675399999999,0.0187636000000001,0,sub_10
-0.0092268000000001,-0.0121159999999987,-0.0217993999999998,0.0023236000000004,0.0056526000000009,0.0138410000000001,0,sub_10
-0.0081310000000001,-0.0091383999999987,-0.0181513999999998,0.0053742000000004,0.0143986000000009,0.0085100000000001,0,sub_10
-0.0048512000000001,-0.0049861999999987,-0.0139603999999999,0.0088352000000004,0.0201578000000009,0.0038266000000001,0,sub_10
0.0008327999999998,-0.0025963999999987,-0.0099587999999999,0.0088668000000004,0.0231566000000009,-0.0002361999999998,0,sub_10
0.0081051999999998,-0.0020865999999987,-0.0077045999999998,0.0078258000000004,0.0255174000000009,-0.0036649999999998,0,sub_10
0.0138431999999998,-0.0035389999999987,-0.0048997999999998,0.0057074000000004,0.0274482000000009,-0.0051775999999998,0,sub_10
0.0180549999999998,-0.0066455999999987,-0.0038483999999998,0.0014168000000004,0.0244720000000009,-0.0030671999999998,0,sub_10
0.0191517999999998,-0.0115053999999987,-0.0037167999999998,-0.0043931999999995,0.0178706000000009,0.0011736000000001,0,sub_10
0.0182177999999998,-0.0136729999999987,-0.0042087999999998,-0.0076541999999995,0.0082792000000009,0.0050086000000001,0,sub_10
0.0165777999999998,-0.0148423999999987,-0.0046135999999998,-0.0096253999999995,0.0006016000000009,0.0086368000000001,0,sub_10
0.0144433999999998,-0.0143339999999987,-0.0070097999999998,-0.0105315999999995,-0.007718199999999,0.0120594000000001,0,sub_10
0.0117049999999998,-0.0112829999999987,-0.0090329999999998,-0.0097067999999995,-0.013476199999999,0.0127134000000001,0,sub_10
0.0095295999999998,-0.0070667999999987,-0.0104011999999998,-0.0067261999999995,-0.017099999999999,0.0106024000000001,0,sub_10
0.0070985999999998,-0.0053147999999987,-0.0112225999999998,-0.0039407999999995,-0.016250799999999,0.0089116000000001,0,sub_10
0.0030563999999998,-0.0038907999999987,-0.0129933999999998,-0.0007323999999995,-0.016042999999999,0.0074382000000001,0,sub_10
-8.300000000016298e-05,-0.0024967999999987,-0.0142513999999998,0.0035408000000004,-0.017750399999999,0.0044792000000001,0,sub_10
-0.0003534000000001,-0.0014281999999987,-0.0152385999999998,0.0075978000000004,-0.021157199999999,0.0004526000000001,0,sub_10
0.0006427999999998,-0.0027007999999987,-0.0149917999999999,0.0104032000000004,-0.018592399999999,-0.0040175999999998,0,sub_10
0.0034341999999998,-0.0055767999999987,-0.0142283999999999,0.0123656000000004,-0.013893199999999,-0.0087099999999998,0,sub_10
0.0071345999999998,-0.0095275999999987,-0.0127519999999999,0.0121866000000004,-0.011739799999999,-0.0142687999999998,0,sub_10
0.0094333999999998,-0.0129191999999987,-0.0108679999999999,0.0098712000000004,-0.009156999999999,-0.0187747999999998,0,sub_10
0.0097211999999998,-0.0154873999999987,-0.0084351999999999,0.0084112000000004,-0.004877999999999,-0.0219951999999998,0,sub_10
0.0097883999999998,-0.0169667999999987,-0.0082337999999999,0.0062804000000004,-0.005080199999999,-0.0228643999999998,0,sub_10
0.0098917999999998,-0.0169037999999987,-0.0091699999999999,0.0032828000000004,-0.006776599999999,-0.0222421999999998,0,sub_10
0.0092431999999998,-0.0137555999999987,-0.0094793999999999,-0.0001483999999995,-0.008265399999999,-0.0199141999999998,0,sub_10
0.0090871999999998,-0.0113039999999987,-0.0092275999999999,-0.0040035999999995,-0.008052599999999,-0.0165231999999998,0,sub_10
0.0078883999999998,-0.0096971999999987,-0.0095293999999999,-0.0095647999999995,-0.006347599999999,-0.0118639999999998,0,sub_10
0.0035641999999998,-0.0070775999999987,-0.0098711999999998,-0.0142665999999995,-0.004215999999999,-0.0080539999999998,0,sub_10
-0.0008110000000001,-0.0022489999999987,-0.0101427999999998,-0.0170423999999995,-0.001449399999999,-0.0048721999999998,0,sub_10
-0.0043992000000001,0.0011856000000012,-0.0114669999999998,-0.0138435999999995,0.0008720000000009,-0.0020753999999998,0,sub_10
-0.0057540000000001,0.0015198000000012,-0.0120951999999998,-0.0074385999999995,0.0070070000000009,0.0033026000000001,0,sub_10
-0.0075962000000001,0.0019708000000012,-0.0148753999999998,2.8400000000485678e-05,0.0131340000000009,0.0097562000000001,0,sub_10
-0.0082896000000001,0.0028896000000012,-0.0185367999999999,0.0119676000000004,0.0132958000000009,0.0121894000000001,0,sub_10
-0.0048550000000001,-0.0026803999999987,-0.0187765999999999,0.0249998000000004,0.0070734000000009,0.0127166000000001,0,sub_10
-0.0003460000000001,-0.0102093999999987,-0.0181119999999999,0.0305976000000004,0.0083340000000009,0.0131822000000001,0,sub_10
0.0034927999999998,-0.0109367999999987,-0.0192091999999999,0.0325796000000004,0.0085564000000009,0.0099920000000001,0,sub_10
0.0081145999999998,-0.0137873999999987,-0.0166361999999999,0.0304990000000004,0.0068756000000009,0.0067760000000001,0,sub_10
0.0137393999999998,-0.0182371999999987,-0.0106821999999999,0.0230772000000004,0.0094516000000009,0.0092856000000001,0,sub_10
0.0148829999999998,-0.0176057999999987,-0.0076333999999998,0.0145548000000004,0.0164952000000009,0.0134898000000001,0,sub_10
0.0163161999999998,-0.0126721999999987,-0.0057245999999998,0.0089916000000004,0.0158644000000009,0.0162292000000001,0,sub_10
0.0188499999999998,-0.0101647999999987,-0.0032465999999998,0.0027684000000004,0.0092764000000009,0.0174762000000001,0,sub_10
0.0201137999999998,-0.0070911999999987,-0.0012103999999999,-0.0013135999999995,0.0012022000000009,0.0155352000000001,0,sub_10
0.0206017999999998,-0.0040515999999987,-0.0009363999999999,-0.0026167999999995,-0.006877399999999,0.0125454000000001,0,sub_10
0.0196135999999998,-0.0006789999999987,-0.0017399999999999,-0.0007261999999995,-0.016671799999999,0.0093666000000001,0,sub_10
0.0159673999999998,-0.0005327999999987,-0.0041339999999999,0.0022352000000004,-0.025405599999999,0.0064074000000001,0,sub_10
0.0101689999999998,-0.0023649999999987,-0.0070823999999999,0.0081894000000004,-0.031173799999999,0.0051744000000001,0,sub_10
0.0055505999999998,-0.0036645999999987,-0.0105417999999999,0.0145714000000004,-0.035032799999999,0.0056512000000001,0,sub_10
0.0007105999999998,-0.0070457999999987,-0.0144653999999999,0.0186130000000004,-0.036331199999999,0.0071766000000001,0,sub_10
-0.0025198000000001,-0.0113149999999987,-0.0175925999999999,0.0169088000000004,-0.033776399999999,0.0090842000000001,0,sub_10
-0.0031300000000001,-0.0141829999999987,-0.0194511999999999,0.0122338000000005,-0.027376799999999,0.0111798000000001,0,sub_10
-0.0015890000000001,-0.0157381999999987,-0.0208647999999999,0.0045936000000005,-0.018825399999999,0.0104746000000001,0,sub_10
-1.600000000143327e-06,-0.0160331999999987,-0.0213347999999999,-0.0049533999999994,-0.009618599999999,0.0074052000000001,0,sub_10
0.0023569999999998,-0.0140811999999987,-0.0208899999999999,-0.0144927999999994,-0.001253799999999,0.0017730000000001,0,sub_10
0.0022383999999998,-0.0124343999999987,-0.0189053999999999,-0.0199789999999994,0.0062472000000009,-0.0044705999999998,0,sub_10
0.0018337999999998,-0.0106745999999987,-0.0162703999999999,-0.0214237999999995,0.0120252000000009,-0.0096155999999998,0,sub_10
0.0006337999999998,-0.0089575999999987,-0.0130455999999999,-0.0184145999999995,0.0154296000000009,-0.0110943999999998,0,sub_10
-0.0002500000000001,-0.0071581999999987,-0.0106143999999999,-0.0107331999999995,0.0175246000000009,-0.0089069999999998,0,sub_10
0.0010929999999998,-0.0052179999999987,-0.0090491999999999,-0.0007181999999995,0.0181142000000009,-0.0052057999999998,0,sub_10
0.0054481999999998,-0.0028589999999987,-0.0090763999999998,0.0067230000000004,0.0163666000000009,-0.0008787999999998,0,sub_10
0.0089499999999998,-0.0015509999999987,-0.0085761999999998,0.0094596000000004,0.0116554000000009,0.0027784000000001,0,sub_10
0.0118865999999998,-0.0008295999999987,-0.0074817999999998,0.0089908000000004,0.0052534000000009,0.0057742000000001,0,sub_10
0.0140617999999998,-0.0025715999999987,-0.0069793999999998,0.0061776000000004,-0.001137799999999,0.0081128000000001,0,sub_10
0.0143829999999998,-0.0046077999999987,-0.0059799999999998,0.0014508000000004,-0.005606599999999,0.0108630000000001,0,sub_10
0.0130537999999998,-0.0062769999999987,-0.0058989999999998,-0.0026377999999995,-0.010715799999999,0.0134048000000001,0,sub_10
0.0115067999999998,-0.0074529999999987,-0.0075065999999998,-0.0033085999999995,-0.015409399999999,0.0155426000000001,0,sub_10
0.0098309999999998,-0.0094697999999987,-0.0089965999999998,-0.0020341999999995,-0.016479999999999,0.0157666000000001,0,sub_10
0.0089965999999998,-0.0088589999999987,-0.0114387999999999,0.0005396000000004,-0.014991599999999,0.0142872000000001,0,sub_10
0.0073313999999998,-0.0071741999999987,-0.0133631999999999,0.0052482000000004,-0.015207399999999,0.0109020000000001,0,sub_10
0.0059523999999998,-0.0053801999999987,-0.0132007999999999,0.0112408000000004,-0.015848799999999,0.0062444000000001,0,sub_10
0.0053661999999998,-0.0024365999999987,-0.0130259999999999,0.0182916000000004,-0.017774599999999,0.0022368000000001,0,sub_10
0.0047535999999998,-0.0005733999999987,-0.0130755999999999,0.0240384000000004,-0.021839399999999,0.0014276000000001,0,sub_10
0.0032447999999998,0.0005844000000012,-0.0118377999999999,0.0282790000000004,-0.026546599999999,0.0027450000000001,0,sub_10
0.0031027999999998,-0.0009265999999987,-0.0112965999999999,0.0308164000000004,-0.031244399999999,0.0031960000000001,0,sub_10
0.0027889999999998,-0.0076119999999987,-0.0113109999999999,0.0282626000000004,-0.028258599999999,0.0046700000000001,0,sub_10
0.0044939999999998,-0.0130461999999987,-0.0101101999999999,0.0176438000000004,-0.014171799999999,0.0075688000000001,0,sub_10
0.0049279999999998,-0.0175883999999987,-0.0110905999999998,0.0029872000000004,0.0039756000000009,0.0108614000000001,0,sub_10
0.0031391999999998,-0.0219669999999987,-0.0135691999999998,-0.0121035999999995,0.0193590000000009,0.0130864000000001,0,sub_10
0.0009503999999998,-0.0227785999999987,-0.0147855999999998,-0.0218735999999995,0.0311044000000009,0.0147122000000001,0,sub_10
-0.0014282000000001,-0.0201549999999987,-0.0162949999999998,-0.0250749999999995,0.0315392000000009,0.0153302000000001,0,sub_10
-0.0018978000000001,-0.0165683999999987,-0.0159381999999998,-0.0231775999999995,0.0262070000000009,0.0151366000000001,0,sub_10
-0.0023434000000001,-0.0127961999999987,-0.0162089999999999,-0.0201999999999995,0.0238538000000009,0.0149468000000001,0,sub_10
0.0003863999999998,-0.0085347999999987,-0.0140029999999999,-0.0159449999999995,0.0210692000000009,0.0149800000000001,0,sub_10
0.0028199999999998,-0.0084419999999987,-0.0123701999999998,-0.0178681999999995,0.0231952000000009,0.0177412000000001,0,sub_10
0.0071715999999998,-0.0043807999999987,-0.0106131999999998,-0.0246645999999995,0.0349182000000009,0.0223788000000001,0,sub_10
0.0074193999999998,-0.0061435999999987,-0.0119701999999998,-0.0325019999999994,0.0442978000000009,0.0287224000000001,0,sub_10
0.0068231999999998,-0.0078191999999987,-0.0115841999999998,-0.0378067999999994,0.0451558000000009,0.0327444000000001,0,sub_10
0.0055659999999998,-0.0107445999999987,-0.0099629999999998,-0.0422187999999994,0.0485920000000009,0.0305738000000001,0,sub_10
0.0071519999999998,-0.0093545999999987,-0.0102453999999998,-0.0413021999999994,0.0477606000000009,0.0254548000000001,0,sub_10
0.0086221999999998,-0.0098129999999987,-0.0108107999999998,-0.0352693999999994,0.0424506000000009,0.0169590000000001,0,sub_10
0.0058967999999998,-0.0072983999999987,-0.0100033999999998,-0.0263049999999994,0.0352070000000009,0.0091260000000001,0,sub_10
0.0041403999999998,-0.0040213999999987,-0.0094575999999998,-0.0122471999999994,0.0221912000000009,0.0017634000000001,0,sub_10
0.0047365999999998,0.0004684000000012,-0.0091077999999999,0.0022016000000005,0.0089304000000009,0.0020948000000001,0,sub_10
0.0028251999999998,0.0020620000000012,-0.0088399999999999,0.0142958000000004,-0.002843599999999,0.0056126000000001,0,sub_10
0.0023845999999998,0.0017052000000012,-0.0087995999999999,0.0200042000000004,-0.008215599999999,0.0120686000000001,0,sub_10
0.0049873999999998,-0.0009431999999987,-0.0086383999999999,0.0193680000000004,-0.006300199999999,0.0131300000000001,0,sub_10
0.0066229999999998,-0.0086183999999987,-0.0102663999999999,0.0159788000000004,-0.002658599999999,0.0111788000000001,0,sub_10
0.0092241999999998,-0.0116473999999987,-0.0128367999999999,0.0106542000000005,-0.001782599999999,0.0098588000000001,0,sub_10
0.0110727999999998,-0.0137349999999987,-0.0149869999999999,0.0064048000000004,-5.399999999904856e-05,0.0074768000000001,0,sub_10
0.0089097999999998,-0.0156561999999987,-0.0149599999999999,-0.0004211999999995,-0.002362599999999,0.0046546000000001,0,sub_10
0.0053153999999998,-0.0187873999999987,-0.0133967999999999,-0.0083207999999995,-0.005309999999999,0.0026804000000001,0,sub_10
0.0054105999999998,-0.0154351999999987,-0.0110093999999999,-0.0132503999999995,-0.008283199999999,0.0045726000000001,0,sub_10
0.0026197999999998,-0.0122117999999987,-0.0110027999999999,-0.0032467999999995,-0.018101599999999,0.0003820000000001,0,sub_10
0.0009437999999998,-0.0106699999999987,-0.0053115999999999,-0.0055965999999995,-0.017883799999999,0.0012200000000001,0,sub_10
-0.0022720000000001,-0.0087719999999987,-0.0041901999999999,-0.0019655999999995,-0.016407599999999,0.0018846000000001,0,sub_10
-0.0037430000000001,-0.0093937999999987,-0.0035397999999999,-0.0002325999999995,-0.007690399999999,0.0048764000000001,0,sub_10
-0.0034628000000001,-0.0057329999999987,-0.0057579999999999,-0.0044529999999994,0.0067958000000009,0.0088876000000001,0,sub_10
-0.0038118000000001,-0.0073163999999987,-0.0057769999999999,-0.0165451999999994,0.0283328000000009,0.0147576000000001,0,sub_10
-0.0046286000000001,-0.0066957999999987,-0.0100577999999999,-0.0158647999999994,0.0353690000000009,0.0128306000000001,0,sub_10
-0.0006914000000001,-0.0066063999999987,-0.0109801999999998,-0.0130707999999995,0.0370748000000009,0.0100704000000001,0,sub_10
0.0047545999999998,-0.0035791999999987,-0.0150173999999998,-0.0013641999999995,0.0276714000000009,0.0071732000000001,0,sub_10
0.0074665999999998,-0.0060485999999987,-0.0150893999999998,0.0111884000000004,0.0148630000000009,0.0025770000000001,0,sub_10
0.0118515999999998,-0.0086755999999987,-0.0129197999999998,0.0113758000000004,0.0072000000000009,0.0006654000000001,0,sub_10
0.0158905999999998,-0.0117111999999987,-0.0113511999999998,0.0051716000000004,0.0055096000000009,0.0025470000000001,0,sub_10
0.0165735999999998,-0.0126295999999987,-0.0122217999999999,-0.0052903999999995,0.0074500000000009,0.0058898000000001,0,sub_10
0.0126155999999998,-0.0133229999999987,-0.0082777999999999,-0.0174641999999995,0.0081190000000009,0.0090086000000001,0,sub_10
0.0065139999999998,-0.0161817999999987,-0.0071349999999999,-0.0251513999999995,0.0079286000000009,0.0100234000000001,0,sub_10
0.0011411999999998,-0.0140671999999987,-0.0101171999999999,-0.0266525999999994,0.0072904000000009,0.0110820000000001,0,sub_10
-0.0008434000000001,-0.0097757999999987,-0.0139311999999999,-0.0255789999999994,0.0098390000000009,0.0121544000000001,0,sub_10
-0.0021576000000001,-0.0076991999999987,-0.0150557999999999,-0.0206703999999994,0.0108836000000009,0.0130420000000001,0,sub_10
-0.0022826000000001,-0.0046167999999987,-0.0176703999999999,-0.0144699999999994,0.0123584000000009,0.0118016000000001,0,sub_10
-0.0015924000000001,2.820000000122759e-05,-0.0166525999999999,-0.0080429999999994,0.0163908000000009,0.0101322000000001,0,sub_10
-0.0026102000000001,0.0004496000000012,-0.0168541999999999,0.0022238000000004,0.0182870000000009,0.0065694000000001,0,sub_10
-0.0047140000000001,-0.0008115999999987,-0.0151603999999999,0.0146118000000004,0.0180426000000009,0.0036652000000001,0,sub_10
-0.0040264000000001,-0.0023461999999987,-0.0123021999999999,0.0203978000000004,0.0225008000000009,0.0026316000000001,0,sub_10
0.0006429999999998,-0.0040609999999987,-0.0126173999999999,0.0238462000000004,0.0299466000000009,0.0024326000000001,0,sub_10
0.0074403999999998,-0.0055947999999987,-0.0143347999999999,0.0206648000000004,0.0340066000000009,0.0021916000000001,0,sub_10
0.0150333999999998,-0.0068711999999987,-0.0139075999999999,0.0129564000000004,0.0270068000000009,0.0010786000000001,0,sub_10
0.0205185999999998,-0.0092075999999987,-0.0120177999999999,0.0094984000000004,0.0136110000000009,-0.0025603999999998,0,sub_10
0.0219837999999998,-0.0128511999999987,-0.0101269999999999,0.0075474000000004,0.0019194000000009,-0.0074727999999998,0,sub_10
0.0197807999999998,-0.0166167999999987,-0.0070955999999999,0.0021786000000004,-0.007641799999999,-0.0094209999999998,0,sub_10
0.0159253999999998,-0.0197585999999987,-0.0022221999999999,-0.0067667999999995,-0.004625199999999,-0.0101283999999998,0,sub_10
0.0128593999999998,-0.0135737999999987,-0.0048823999999999,-0.0099577999999995,-0.001422399999999,-0.0090865999999998,0,sub_10
0.0084005999999998,-0.0101153999999987,-0.0078059999999999,-0.0103855999999995,-0.001633999999999,-0.0090891999999998,0,sub_10
0.0059073999999998,-0.0058911999999987,-0.0094573999999999,-0.0099885999999995,-0.007815599999999,-0.0086511999999998,0,sub_10
0.0027067999999998,-0.0023087999999987,-0.0130659999999999,-0.0066081999999995,-0.015071999999999,-0.0084045999999998,0,sub_10
9.919999999983624e-05,0.0009566000000012,-0.0175069999999998,0.0016976000000004,-0.026182799999999,-0.0066225999999998,0,sub_10
-0.0027618000000001,-0.0051889999999987,-0.0148685999999999,0.0036510000000004,-0.026193399999999,-0.0046857999999998,0,sub_10
-0.0030922000000001,-0.0086375999999987,-0.0135965999999999,-0.0026787999999994,-0.015530799999999,-0.0006839999999998,0,sub_10
-0.0034086000000001,-0.0087111999999987,-0.0169727999999999,-0.0053687999999994,-0.004021199999999,0.0014192000000001,0,sub_10
-7.40000000001637e-05,-0.0070253999999987,-0.0180199999999999,-0.0038027999999994,0.0013094000000009,-7.17999999998685e-05,0,sub_10
0.0028689999999998,-0.0100709999999987,-0.0155273999999999,-0.0046113999999994,0.0087794000000009,-0.0026507999999998,0,sub_10
0.0052085999999998,-0.0134267999999987,-0.0124949999999999,-0.0102995999999994,0.0220206000000009,-0.0056983999999998,0,sub_10
0.0077925999999998,-0.0143699999999987,-0.0124139999999999,-0.0162335999999995,0.0284432000000009,-0.0083117999999998,0,sub_10
0.0097695999999998,-0.0136553999999987,-0.0118513999999999,-0.0185845999999995,0.0261138000000009,-0.0098207999999998,0,sub_10
0.0091691999999998,-0.0102127999999987,-0.0092659999999999,-0.0207317999999995,0.0231386000000009,-0.0098319999999998,0,sub_10
0.0091641999999998,-0.0027557999999987,-0.0114983999999999,-0.0126849999999995,0.0077772000000009,-0.0114653999999998,0,sub_10
0.0078439999999998,0.0004524000000012,-0.0126871999999999,0.0019370000000004,-0.014644799999999,-0.0113345999999998,0,sub_10
0.0065597999999998,0.0003804000000012,-0.0115769999999999,0.0118936000000004,-0.027900199999999,-0.0084707999999998,0,sub_10
0.0062159999999998,-0.0028763999999987,-0.0098657999999998,0.0129384000000004,-0.030894399999999,-0.0065367999999998,0,sub_10
0.0085141999999998,-0.0068767999999987,-0.0103361999999998,0.0108162000000004,-0.028330399999999,-0.0065547999999998,0,sub_10
0.0101289999999998,-0.0091749999999987,-0.0107121999999998,0.0048792000000004,-0.020212599999999,-0.0068201999999998,0,sub_10
0.0105831999999998,-0.0098121999999987,-0.0113877999999998,0.0010798000000004,-0.015069599999999,-0.0109125999999998,0,sub_10
0.0092327999999998,-0.0110349999999987,-0.0113419999999998,0.0011170000000004,-0.014399799999999,-0.0186043999999998,0,sub_10
0.0078483999999998,-0.0118699999999987,-0.0117971999999998,0.0030604000000004,-0.015022599999999,-0.0243583999999998,0,sub_10
0.0042957999999998,-0.0125601999999987,-0.0127407999999998,0.0058314000000004,-0.018005599999999,-0.0266853999999998,0,sub_10
0.0019545999999998,-0.0128977999999987,-0.0125547999999998,0.0045464000000004,-0.018429799999999,-0.0260529999999998,0,sub_10
0.0007681999999998,-0.0104603999999987,-0.0119281999999999,0.0011650000000004,-0.012898999999999,-0.0237399999999998,0,sub_10
0.0003821999999998,-0.0075817999999987,-0.0115939999999999,-0.0013617999999995,-0.006733599999999,-0.0209945999999998,0,sub_10
0.0007673999999998,-0.0041275999999987,-0.0113817999999999,-0.0013291999999995,-0.002275599999999,-0.0197247999999998,0,sub_10
0.0021869999999998,-0.0022665999999987,-0.0105185999999999,0.0001912000000004,-0.000586599999999,-0.0199363999999998,0,sub_10
0.0031629999999998,-0.0020673999999987,-0.0087821999999999,0.0042674000000004,2.8200000000950728e-05,-0.0201287999999998,0,sub_10
0.0040503999999998,-0.0036449999999987,-0.0083719999999999,0.0087320000000004,-0.001275199999999,-0.0177459999999998,0,sub_10
0.0049459999999998,-0.0030877999999987,-0.0097657999999999,0.0138242000000004,-0.004926199999999,-0.0149283999999998,0,sub_10
0.0035573999999998,-0.0075281999999987,-0.0092953999999999,0.0174310000000004,-0.009489799999999,-0.0121511999999998,0,sub_10
0.0041269999999998,-0.0064319999999987,-0.0109433999999999,0.0184774000000004,-0.012771199999999,-0.0081117999999998,0,sub_10
0.0034877999999998,-0.0079601999999987,-0.0124595999999998,0.0178274000000004,-0.014764199999999,-0.0051539999999998,0,sub_10
0.0040687999999998,-0.0095119999999987,-0.0122737999999998,0.0118612000000004,-0.013539199999999,-0.0030919999999998,0,sub_10
0.0031071999999998,-0.0128619999999987,-0.0130613999999998,0.0029050000000004,-0.011669799999999,0.0002302000000001,0,sub_10
0.0029953999999998,-0.0117563999999987,-0.0141069999999998,-0.0054231999999995,-0.009100399999999,0.0042280000000001,0,sub_10
0.0020063999999998,-0.0153321999999987,-0.0123379999999998,-0.0135245999999995,-0.003761199999999,0.0080102000000001,0,sub_10
0.0011705999999998,-0.0171699999999987,-0.0090643999999999,-0.0232851999999995,0.0105392000000009,0.0100602000000001,0,sub_10
0.0008055999999998,-0.0160781999999987,-0.0104695999999999,-0.0253815999999995,0.0180068000000009,0.0091814000000001,0,sub_10
0.0061119999999998,-0.0073127999999987,-0.0093877999999999,-0.0240243999999995,0.0260794000000009,0.0046812000000001,0,sub_10
0.0123867999999998,-0.0006055999999987,-0.0090711999999998,-0.0173605999999995,0.0275304000000009,-0.0002005999999998,0,sub_10
0.0138991999999998,0.0021408000000012,-0.0077691999999998,-0.0072867999999995,0.0242976000000009,-0.0088981999999998,0,sub_10
0.0159791999999998,0.0075722000000012,-0.0092063999999998,0.0125150000000004,0.0027036000000009,-0.0164361999999998,0,sub_10
0.0154265999999998,0.0099580000000012,-0.0081959999999998,0.0293152000000004,-0.017831599999999,-0.0197235999999998,0,sub_10
0.0098003999999998,0.0022642000000012,-0.0071749999999998,0.0375552000000004,-0.033848199999999,-0.0175091999999998,0,sub_10
0.0018961999999998,-0.0071063999999987,-0.0086781999999998,0.0353792000000004,-0.037909999999999,-0.0121781999999998,0,sub_10
-0.0005690000000001,-0.0154923999999987,-0.0115317999999998,0.0266132000000004,-0.037302199999999,-0.0024031999999998,0,sub_10
-0.0014550000000001,-0.0229807999999987,-0.0140259999999998,0.0065874000000004,-0.024728199999999,0.0083460000000001,0,sub_10
-0.0002226000000001,-0.0274099999999987,-0.0156925999999998,-0.0138143999999994,-0.008500199999999,0.0113968000000001,0,sub_10
0.0084935999999998,-0.0097355999999987,-0.0249073999999999,-0.0352359999999994,0.0132906000000009,0.0095196000000001,0,sub_10
0.0124987999999998,-0.0062245999999987,-0.0302683999999999,-0.0277453999999994,0.0045406000000009,0.0010468000000001,0,sub_10
0.0149009999999998,-0.0132915999999987,-0.0289071999999999,-0.0270477999999994,0.0098944000000009,-0.0064327999999998,0,sub_10
0.0180215999999998,0.0026884000000012,-0.0293879999999999,-0.0488429999999994,0.0451462000000009,-0.0119711999999998,0,sub_10
0.0292303999999998,0.0321092000000012,-0.0452137999999999,-0.0303091999999995,0.0291398000000009,-0.0212215999999998,0,sub_10
0.0253419999999998,0.0329164000000012,-0.0492459999999999,0.0196838000000004,-0.015942799999999,-0.0325649999999998,0,sub_10
0.0231339999999998,0.0325030000000012,-0.0301763999999999,0.0160906000000004,-0.007823399999999,-0.0304151999999998,0,sub_10
0.0127947999999998,0.0431946000000012,-0.0311119999999999,0.0165582000000004,-0.002258399999999,-0.0322929999999998,0,sub_10
-0.0009162000000001,0.0240664000000012,-0.0331765999999999,0.0439582000000004,-0.030887599999999,-0.0311615999999998,0,sub_10
-0.0165992000000001,-0.0040179999999987,-0.0209091999999999,0.0313870000000004,-0.011716799999999,-0.0143471999999998,0,sub_10
-0.0232300000000001,-0.0209443999999987,-0.0115765999999999,-0.0009587999999995,0.0268950000000009,0.0063632000000001,0,sub_10
-0.0250300000000001,-0.0198319999999987,-0.0251209999999999,-0.0032923999999995,0.0379496000000009,0.0144512000000001,0,sub_10
-0.0138554000000001,-0.0153207999999987,-0.0264677999999999,0.0030504000000004,0.0329946000000009,0.0226204000000001,0,sub_10
