userAcceleration.x,userAcceleration.y,userAcceleration.z,rotationRate.x,rotationRate.y,rotationRate.z,label,subject
0.0067763999999997,0.0031982000000011,-0.0022057999999999,-0.0001123999999995,0.0048876000000009,0.00043,0,sub_2
0.0069671999999997,0.0039722000000011,-0.0015371999999999,-0.0007553999999995,0.0048872000000009,0.0010664,0,sub_2
0.0067729999999997,0.0052184000000012,-0.0014633999999999,-0.0005449999999995,0.0050960000000009,0.0019222,0,sub_2
0.0066471999999997,0.0058026000000012,-0.0018597999999998,-0.0001217999999995,0.0051346000000009,0.0026042,0,sub_2
0.0070443999999997,0.0059482000000012,-0.0017679999999998,0.0005128000000004,0.0045342000000009,0.0030748,0,sub_2
0.0074197999999997,0.0057162000000012,-0.0026681999999998,0.0005102000000004,0.0039386000000009,0.0029,0,sub_2
0.0068273999999997,0.0053628000000012,-0.0029733999999998,0.0007220000000004,0.0033430000000009,0.0025132,0,sub_2
0.0070925999999997,0.0043716000000012,-0.0025313999999998,0.0009366000000004,0.0029622000000009,0.0016988,0,sub_2
0.0071763999999998,0.0048352000000012,-0.0021289999999999,0.0007280000000004,0.0031794000000009,0.0008426,0,sub_2
0.0068539999999998,0.0048064000000012,-0.0022939999999999,9.180000000044464e-05,0.0036094000000009,0.0004104,0,sub_2
0.0064963999999998,0.0047034000000012,-0.0019825999999998,0.0001048000000004,0.0036478000000009,2.2800000000093667e-05,0,sub_2
0.0070585999999998,0.0042968000000012,-0.0021715999999998,-9.759999999955538e-05,0.0038976000000009,0.0002744,0,sub_2
0.0072293999999998,0.0041214000000012,-0.0023445999999998,-0.0009409999999995,0.0037244000000009,0.0003084,0,sub_2
0.0070947999999998,0.0032794000000012,-0.0021725999999998,-0.0015717999999995,0.0035494000000009,0.0005574,0,sub_2
0.0075889999999998,0.0032268000000011,-0.0023843999999998,-0.0024123999999995,0.0038030000000009,0.0003772,0,sub_2
0.0078345999999998,0.0030596000000011,-0.0030561999999999,-0.0036915999999995,0.0040206000000009,0.000368,0,sub_2
0.0076223999999998,0.0034040000000011,-0.0021585999999999,-0.0043287999999995,0.0042376000000009,-6.399999999990632e-05,0,sub_2
0.0073613999999998,0.0034790000000011,-0.0017955999999999,-0.0036875999999995,0.0042362000000008,-0.0002731999999999,0,sub_2
0.0074929999999998,0.0038824000000011,-0.0020639999999999,-0.0036823999999995,0.0031892000000009,-0.0006959999999999,0,sub_2
0.0071837999999998,0.0038582000000012,-0.0019201999999999,-0.0036807999999995,0.0017144000000009,-0.0006911999999999,0,sub_2
0.0070781999999998,0.0046106000000012,-0.0010081999999998,-0.0023971999999995,0.0008732000000009,-0.0004643999999999,0,sub_2
0.0061679999999998,0.0051548000000012,-0.0015893999999998,-0.0013249999999995,0.0002466000000009,-0.0004531999999999,0,sub_2
0.0054003999999998,0.0053416000000012,-0.0019263999999998,-0.0017473999999995,-0.000375599999999,-0.0002385999999999,0,sub_2
0.0051673999999998,0.0053600000000012,-0.0016041999999998,-0.0017463999999995,4.960000000092341e-05,-2.559999999994633e-05,0,sub_2
0.0053267999999998,0.0056142000000011,-0.0010657999999998,-0.0013177999999995,0.0008986000000009,0.0004036,0,sub_2
0.0056825999999998,0.0050762000000011,-0.0007163999999998,-0.0013197999999995,0.0006848000000009,0.0006174,0,sub_2
0.0066829999999998,0.0041312000000011,-0.0008247999999999,-0.0017461999999995,0.0002582000000009,0.0006126,0,sub_2
0.0070661999999998,0.0039036000000011,-0.0012315999999998,-0.0023841999999995,0.0002586000000008,0.0006056,0,sub_2
0.0068347999999998,0.0036134000000011,-0.0012777999999998,-0.0028057999999995,0.0006850000000008,0.0003862,0,sub_2
0.0063897999999998,0.0035840000000012,-0.0010613999999998,-0.0028035999999995,0.0006830000000008,0.0003838,0,sub_2
0.0057573999999998,0.0039046000000012,-0.0011897999999998,-0.0034451999999995,0.0011042000000008,0.0016582,0,sub_2
0.0049855999999998,0.0047762000000012,-0.0015657999999998,-0.0023839999999995,0.0015198000000008,0.0033742,0,sub_2
0.0045831999999998,0.0045828000000012,-0.0008929999999999,-0.0015285999999995,0.0017306000000009,0.0031664000000001,0,sub_2
0.0050973999999998,0.0044906000000012,-0.0010233999999999,-0.0010989999999995,0.0015196000000009,0.0023150000000001,0,sub_2
0.0060955999999998,0.0041736000000012,-0.0013031999999999,-0.0013073999999995,0.0010858000000009,0.0010280000000001,0,sub_2
0.0072495999999998,0.0037482000000011,-0.0013143999999999,-0.0008775999999995,0.0004360000000009,-4.05999999998863e-05,0,sub_2
0.0076713999999998,0.0026010000000011,-0.0009833999999999,-0.0017319999999995,-0.000849399999999,-0.0009037999999998,0,sub_2
0.0080995999999998,0.0020466000000011,-0.0015459999999999,-0.0021689999999995,-0.002356999999999,0.000159,0,sub_2
0.0074055999999997,0.0013330000000011,-0.0015009999999999,-0.0026127999999995,-0.003658399999999,0.0029308,0,sub_2
0.0067075999999997,0.0006404000000011,-0.0016663999999998,-0.0026299999999995,-0.004522399999999,0.0059228,0,sub_2
0.0055521999999997,0.0001240000000012,-0.0012029999999999,-0.0030653999999995,-0.004528599999999,0.0078426,0,sub_2
0.0046913999999997,1.2600000001238475e-05,-0.0004577999999999,-0.0043397999999995,-0.002184799999999,0.008899,0,sub_2
0.0040893999999997,-0.0001101999999987,9.360000000008984e-05,-0.0062421999999995,0.0024886000000009,0.0097284,0,sub_2
0.0027935999999998,0.0006822000000012,5.720000000008982e-05,-0.0074909999999995,0.0082326000000009,0.0086382,0,sub_2
0.0005029999999998,0.0006160000000012,0.0011078,-0.0082975999999995,0.0146252000000009,0.004773,0,sub_2
-0.0014348000000001,0.0003808000000012,0.0014136,-0.0086641999999995,0.0216650000000009,-0.0014399999999999,0,sub_2
-0.0018076000000001,0.0002422000000012,7.100000000008974e-05,-0.0088211999999995,0.0274274000000009,-0.0080771999999999,0,sub_2
-0.0013824000000001,0.0012362000000012,-0.0021897999999999,-0.0102773999999995,0.0306488000000009,-0.0132187999999998,0,sub_2
0.0022817999999998,0.0038340000000012,-0.0030397999999999,-0.0111183999999995,0.0321482000000009,-0.0145083999999998,0,sub_2
0.0060491999999997,0.0078416000000012,-0.0030121999999999,-0.0090067999999995,0.0310602000000009,-0.0106465999999998,0,sub_2
0.0088097999999997,0.0108306000000012,-0.0035021999999999,-0.0067057999999995,0.0263192000000009,-0.0037917999999998,0,sub_2
0.0095065999999997,0.0141378000000012,-0.0029925999999998,-0.0046297999999995,0.0198712000000009,0.0039182000000001,0,sub_2
0.0086905999999997,0.0154970000000012,-0.0019699999999998,-0.0001969999999995,0.0144846000000008,0.0105752,0,sub_2
0.0049785999999997,0.0137226000000012,-0.0023517999999998,0.0040454000000004,0.0114534000000008,0.0144504,0,sub_2
0.0018969999999998,0.0111088000000012,-0.0031137999999998,0.0046912000000004,0.0118572000000008,0.0148778,0,sub_2
-0.0001360000000001,0.0096814000000012,-0.0026523999999998,0.0049334000000004,0.0167626000000008,0.0133778,0,sub_2
-0.0006312000000001,0.0086086000000012,-0.0022285999999999,0.0049708000000004,0.0218888000000008,0.010167,0,sub_2
-0.0004828000000001,0.0083548000000011,-0.0011221999999999,0.0056426000000004,0.0250976000000008,0.006322,0,sub_2
-0.0003466000000001,0.0077914000000011,0.0009012,0.0069624000000004,0.0274414000000008,0.0016248,0,sub_2
-0.0012034000000001,0.0052500000000011,0.002165,0.0091472000000004,0.0321268000000008,-0.0032829999999999,0,sub_2
-0.0017856000000001,0.0020844000000011,0.001135,0.0091810000000004,0.0327726000000009,-0.0084143999999999,0,sub_2
1.299999999982808e-05,-0.0040877999999988,0.0005388,0.0087594000000004,0.0287258000000009,-0.0118339999999999,0,sub_2
0.0045449999999998,-0.0107831999999987,-0.0004943999999998,0.0063992000000004,0.0212744000000009,-0.0146217999999999,0,sub_2
0.0110077999999998,-0.0157257999999987,-0.0019983999999998,0.0012370000000004,0.0119190000000009,-0.0148595999999999,0,sub_2
0.0179669999999998,-0.0153747999999987,-0.0047299999999998,-0.0058781999999995,-0.001702799999999,-0.0121145999999999,0,sub_2
0.0221963999999998,-0.0107651999999987,-0.0050003999999998,-0.0108711999999995,-0.013432599999999,-0.0048705999999999,0,sub_2
0.0218431999999998,-0.0021933999999988,-0.0047195999999998,-0.0139379999999995,-0.019858999999999,0.0064394,0,sub_2
0.0136041999999998,0.0087656000000011,-0.0041967999999998,-0.0133517999999995,-0.019502799999999,0.0209648,0,sub_2
0.0013973999999998,0.0201332000000012,-0.0028597999999998,-0.0086827999999995,-0.013193599999999,0.0350838,0,sub_2
-0.0120948000000001,0.0252588000000012,0.0021122000000001,9.500000000044404e-05,0.0035480000000009,0.047509,0,sub_2
-0.0207778000000001,0.0248644000000012,0.0029406,0.0103914000000004,0.0192454000000009,0.0533230000000001,0,sub_2
-0.0208870000000001,0.0180048000000012,0.0009356,0.0193950000000004,0.0236896000000009,0.0505968,0,sub_2
-0.0077410000000001,0.0036142000000012,0.0001472,0.0236720000000004,0.0173172000000009,0.042089,0,sub_2
0.0088479999999997,-0.0119255999999987,-0.0015981999999999,0.0211298000000004,0.0088544000000009,0.029477,0,sub_2
0.0248103999999997,-0.0228085999999987,-0.0066401999999999,0.0111418000000004,-0.003618399999999,0.0112488,0,sub_2
0.0306447999999997,-0.0213781999999987,-0.0051599999999999,-0.0024621999999995,-0.011399799999999,-0.0048741999999999,0,sub_2
0.0260225999999997,-0.0130435999999987,0.0007886,-0.0111317999999995,-0.005805799999999,-0.0135023999999999,0,sub_2
0.0081417999999997,0.0005598000000012,0.0046688,-0.0129753999999995,0.0059164000000008,-0.0154677999999999,0,sub_2
-0.0052934000000001,0.0085524000000012,0.003072,-0.0097947999999995,0.0026804000000009,-0.0107559999999999,0,sub_2
-0.0136446000000001,0.0125370000000012,0.0018512,-0.0039393999999995,-0.014209999999999,-0.0010795999999999,0,sub_2
-0.0088098000000001,0.0039370000000012,-0.0014655999999999,0.0017124000000004,-0.030454399999999,0.0070992,0,sub_2
0.0020895999999998,-0.0042143999999987,-0.0060843999999999,-0.0006747999999995,-0.0372723999999991,0.0092276,0,sub_2
0.0167853999999998,-0.0092071999999987,-0.0105559999999999,-0.0096065999999995,-0.035516999999999,0.0042492,0,sub_2
0.0167679999999998,-0.0015817999999987,-0.0043671999999999,-0.0178007999999995,-0.023782799999999,-0.0067223999999999,0,sub_2
0.0100555999999998,0.0079056000000012,0.0022156,-0.0180837999999995,-0.006544599999999,-0.0157229999999998,0,sub_2
-0.0009112000000001,0.0145770000000012,0.0042364,-0.0116203999999995,0.0004116000000009,-0.0167585999999998,0,sub_2
-0.0110922000000001,0.0133126000000012,0.0035764,-0.0012037999999995,-0.0101361999999991,-0.0128301999999998,0,sub_2
-0.0158602000000001,0.0074930000000012,0.0037764,0.0072810000000004,-0.022809599999999,-0.0084853999999998,0,sub_2
-0.0090684000000001,-0.0027161999999988,-0.0009409999999999,0.0110948000000004,-0.025393199999999,-0.0050371999999998,0,sub_2
0.0019441999999997,-0.0106665999999988,-0.0065117999999999,0.0062006000000004,-0.0219687999999991,-0.0046485999999999,0,sub_2
0.0078221999999997,-0.0078841999999987,-0.0059981999999999,-0.0009777999999995,-0.0117819999999991,-0.0098527999999999,0,sub_2
0.0074469999999997,-0.0011521999999987,-0.0014603999999999,-0.0036549999999995,0.0013778000000008,-0.0165249999999999,0,sub_2
0.0031829999999998,0.0064206000000012,0.0011008,-0.0006229999999995,0.0066200000000009,-0.0195151999999999,0,sub_2
-0.0015670000000001,0.0081786000000012,0.001244,0.0053254000000004,0.0001176000000009,-0.0184105999999999,0,sub_2
-0.0036236000000001,0.0057658000000012,0.0012082,0.0125348000000004,-0.009801599999999,-0.0164381999999999,0,sub_2
3.139999999982809e-05,-0.0011029999999987,-0.0009699999999999,0.0148494000000004,-0.015780399999999,-0.0151325999999999,0,sub_2
0.0064157999999998,-0.0043397999999987,-0.0048207999999999,0.0095256000000004,-0.014479199999999,-0.0162395999999999,0,sub_2
0.0105855999999998,-0.0039845999999987,-0.0050585999999999,0.0021006000000004,-0.009321999999999,-0.0207845999999999,0,sub_2
0.0117785999999998,0.0002070000000012,-0.0018337999999999,-0.0031733999999995,-0.001822599999999,-0.0268131999999999,0,sub_2
0.0053249999999998,0.0084034000000012,0.0009834,-0.0037577999999995,0.0053696000000009,-0.0296149999999999,0,sub_2
-0.0032362000000001,0.0133598000000012,0.001072,0.0009520000000004,0.0076268000000008,-0.0283141999999999,0,sub_2
-0.0096166000000001,0.0131878000000012,0.0006422,0.0075534000000004,0.0053954000000008,-0.0250717999999999,0,sub_2
-0.0117274000000001,0.0088110000000012,-0.0008995999999999,0.0111744000000004,0.0059392000000008,-0.0205717999999999,0,sub_2
-0.0072386000000001,0.0015748000000012,-0.0045643999999999,0.0114052000000004,0.0126698000000008,-0.0152487999999999,0,sub_2
0.0028585999999998,-0.0069019999999987,-0.0070023999999999,0.0039746000000004,0.0222782000000008,-0.0140311999999999,0,sub_2
0.0125793999999998,-0.0130793999999987,-0.0067197999999998,-0.0064355999999995,0.0310550000000008,-0.0153969999999999,0,sub_2
0.0169055999999997,-0.0127733999999987,-0.0046997999999998,-0.0145339999999995,0.0355000000000008,-0.0144537999999998,0,sub_2
0.0168093999999998,-0.0093359999999988,-0.0031815999999998,-0.0186243999999995,0.0328872000000009,-0.0102689999999998,0,sub_2
0.0113757999999998,-0.0034331999999988,9.980000000010918e-05,-0.0193389999999995,0.0247112000000009,-0.0030623999999998,0,sub_2
0.0037457999999998,0.0022216000000011,0.0011576000000001,-0.0143135999999995,0.0154354000000009,0.0078176000000001,0,sub_2
-0.0029742000000001,0.0081260000000011,0.0002098,-0.0092797999999995,0.0076526000000009,0.0182684000000001,0,sub_2
-0.0053122000000001,0.0107394000000011,-0.0029013999999999,-0.0059069999999995,0.0052698000000009,0.0251316,0,sub_2
-0.0039682000000001,0.0110662000000011,-0.0030221999999999,-0.0020633999999995,0.0078054000000009,0.027078,0,sub_2
-0.0017898000000001,0.0086496000000012,-0.0037535999999999,0.0003144000000004,0.0112198000000009,0.0236718,0,sub_2
0.0012941999999998,0.0059210000000012,-0.0035301999999998,-0.0004989999999995,0.0127440000000008,0.0161866,0,sub_2
0.0013619999999998,0.0005004000000012,-0.0016665999999998,-0.0027809999999995,0.0153474000000008,0.0065172,0,sub_2
0.0035311999999997,-0.0052955999999987,-0.0012293999999998,-0.0057003999999995,0.0188044000000008,-0.0029441999999998,0,sub_2
0.0082901999999997,-0.0081637999999987,-0.0036873999999998,-0.0118481999999995,0.0175794000000008,-0.0109263999999998,0,sub_2
0.0141769999999998,-0.0070203999999987,-0.0060731999999998,-0.0212339999999995,0.0108150000000008,-0.0161467999999998,0,sub_2
0.0204161999999998,-0.0030159999999987,-0.0056093999999999,-0.0285165999999995,0.0025306000000009,-0.0160095999999998,0,sub_2
0.0244375999999998,0.0025426000000012,-0.0055945999999999,-0.0322015999999995,-0.006208199999999,-0.0119647999999998,0,sub_2
0.0226581999999998,0.0094348000000012,-0.0038191999999998,-0.0333337999999995,-0.013901799999999,-0.0051261999999999,0,sub_2
0.0116029999999998,0.0153738000000012,-0.0020231999999998,-0.0301763999999995,-0.014587999999999,0.0038698,0,sub_2
-0.0035324000000001,0.0193820000000012,0.0002392000000001,-0.0222785999999995,-0.005461599999999,0.0137396,0,sub_2
-0.0182804000000001,0.0205188000000012,0.0016374000000001,-0.0122221999999995,0.0068624000000008,0.0212704,0,sub_2
-0.0275054000000001,0.0214492000000012,0.0035274000000001,-0.0012977999999995,0.0219550000000008,0.0283762,0,sub_2
-0.0280454000000001,0.0190246000000012,0.00358,0.0098524000000004,0.0379068000000008,0.0335598,0,sub_2
-0.0199050000000002,0.0140120000000012,0.0026656,0.0184518000000004,0.0515416000000008,0.034242,0,sub_2
-0.0092314000000002,0.0088084000000012,0.0020262000000001,0.0242742000000004,0.0600642000000009,0.0291442,0,sub_2
0.0005939999999997,0.0051776000000012,0.0009042000000001,0.0264798000000004,0.0669112000000009,0.0199642,0,sub_2
0.0091583999999997,0.0015340000000012,-0.0002505999999998,0.0252532000000004,0.0671756000000009,0.008205,0,sub_2
0.0121455999999997,-0.0016943999999987,-0.0002993999999998,0.0231306000000004,0.0589574000000009,-0.0041469999999999,0,sub_2
0.0120235999999997,-0.0061319999999987,3.6000000001287607e-06,0.0216184000000004,0.0460422000000009,-0.0145659999999998,0,sub_2
0.0126985999999997,-0.0123521999999987,-0.0013443999999998,0.0185838000000004,0.0303480000000009,-0.0213599999999998,0,sub_2
0.0137867999999997,-0.0186861999999987,-0.0027537999999998,0.0138202000000004,0.0140036000000009,-0.0238925999999998,0,sub_2
0.0148993999999997,-0.0216457999999987,-0.0049317999999998,0.0071440000000004,0.0021288000000009,-0.0236667999999998,0,sub_2
0.0136635999999997,-0.0178755999999987,-0.0049395999999998,-0.0009967999999995,-0.001903599999999,-0.0205137999999998,0,sub_2
0.0080235999999998,-0.0084087999999987,-0.0034153999999999,-0.0076199999999995,0.0019316000000008,-0.0147965999999999,0,sub_2
-0.0003046000000001,0.0022250000000012,-0.0015771999999999,-0.0086705999999995,0.0106338000000008,-0.0096231999999999,0,sub_2
-0.0078836000000001,0.0114014000000012,-0.0013185999999999,-0.0052231999999995,0.0165772000000008,-0.0110377999999999,0,sub_2
-0.0096062000000001,0.0169354000000012,-0.0013731999999999,-0.0007213999999995,0.0172008000000008,-0.0150019999999999,0,sub_2
-0.0050106000000001,0.0168230000000012,-0.0032261999999999,0.0020352000000004,0.0097326000000008,-0.0185407999999999,0,sub_2
0.0053229999999998,0.0112384000000012,-0.0046487999999999,0.0030560000000004,-0.004121199999999,-0.0220833999999999,0,sub_2
0.0173253999999998,0.0063894000000011,-0.0050507999999999,0.0004312000000004,-0.018811199999999,-0.0225101999999999,0,sub_2
0.0224117999999997,0.0036352000000012,-0.0037873999999999,-0.0036985999999995,-0.029049999999999,-0.0159029999999999,0,sub_2
0.0169555999999997,0.0038364000000012,-0.0023933999999999,-0.0050497999999995,-0.034625799999999,-0.0056503999999999,0,sub_2
0.0042961999999997,0.0059932000000012,-0.0011255999999999,-0.0029373999999995,-0.033010599999999,0.0039948,0,sub_2
-0.0099850000000002,0.0109740000000012,-0.0018979999999999,5.640000000046372e-05,-0.026280799999999,0.0125712,0,sub_2
-0.0209162000000002,0.0147174000000012,-0.0014591999999999,0.0041354000000004,-0.017840999999999,0.018803,0,sub_2
-0.0258542000000001,0.0168030000000012,-0.0016783999999999,0.0090936000000004,-0.006622599999999,0.0220464,0,sub_2
-0.0194080000000001,0.0136630000000012,-0.0002211999999999,0.0127928000000004,0.0063168000000009,0.0222876,0,sub_2
-0.0095626000000001,0.0092652000000012,0.0007592,0.0149986000000004,0.0199540000000009,0.0199354,0,sub_2
0.0003073999999998,0.0067834000000012,0.0015684,0.0178328000000004,0.0308202000000009,0.0173776,0,sub_2
0.0057619999999998,0.0053904000000012,1.50000000000889e-05,0.0212774000000004,0.0365650000000009,0.016326,0,sub_2
0.0124109999999997,-0.0011343999999987,0.0016394,0.0247076000000004,0.0292688000000009,0.0176548,0,sub_2
0.0104291999999997,-0.0056797999999987,0.0022592,0.0266564000000004,0.0241110000000009,0.0183298,0,sub_2
0.0060299999999997,-0.0115993999999987,0.0019962,0.0234882000000004,0.0183380000000009,0.0174742,0,sub_2
0.0052847999999997,-0.0155681999999987,0.002347,0.0153856000000004,0.0049188000000009,0.0148846,0,sub_2
0.0076611999999997,-0.0188061999999987,0.0028706,0.0072840000000004,-0.009348199999999,0.011228,0,sub_2
0.0088825999999998,-0.0161431999999987,-6.699999999991123e-05,-0.0029721999999995,-0.015266799999999,0.0083866,0,sub_2
0.0067017999999998,-0.0036877999999987,-0.0027655999999999,-0.0130543999999995,-0.028648199999999,0.0068378,0,sub_2
0.0030207999999998,0.0106530000000012,-0.0003855999999999,-0.0148131999999995,-0.040995999999999,0.0059866,0,sub_2
-0.0066682000000001,0.0185438000000012,-1.5799999999911263e-05,-0.0098589999999995,-0.033666999999999,0.004704,0,sub_2
-0.0140266000000001,0.0225716000000012,-0.0011805999999999,-0.0067837999999995,-0.021201799999999,-0.0006577999999998,0,sub_2
-0.0184424000000001,0.0202152000000012,0.0007418,-0.0056663999999995,-0.019160999999999,-0.0081561999999998,0,sub_2
-0.0150104000000001,0.0056218000000012,0.002824,-0.0062855999999995,-0.025416599999999,-0.0173653999999998,0,sub_2
-0.0054124000000001,-0.0070737999999987,-0.0007421999999999,-0.0126821999999995,-0.036122599999999,-0.0274635999999998,0,sub_2
0.0080563999999998,-0.0140911999999987,-0.0025429999999999,-0.0231469999999995,-0.0452191999999991,-0.0345753999999998,0,sub_2
0.0165987999999998,-0.0121291999999987,-0.0015847999999998,-0.0325095999999995,-0.0402827999999991,-0.0355015999999998,0,sub_2
0.0206971999999998,-0.0032071999999987,-0.0021941999999998,-0.0362727999999995,-0.021102399999999,-0.0336297999999998,0,sub_2
0.0211355999999998,0.0100922000000012,-0.0021525999999998,-0.0330089999999995,0.0015392000000009,-0.0261399999999998,0,sub_2
0.0194695999999998,0.0161662000000012,-0.0011173999999998,-0.0225681999999995,0.0164470000000009,-0.0089761999999998,0,sub_2
0.0166233999999998,0.0161950000000012,-0.0006031999999998,-0.0094695999999995,0.0117196000000009,0.0144272000000001,0,sub_2
0.0121763999999998,0.0073116000000012,-0.0025671999999999,0.0018684000000004,-0.005569399999999,0.0371934,0,sub_2
0.0093725999999998,-0.0027303999999987,-0.0060351999999999,0.0070800000000004,-0.016415999999999,0.0526446,0,sub_2
0.0080445999999997,-0.0099651999999987,-0.0060699999999999,0.0051520000000004,-0.011959799999999,0.0588212,0,sub_2
0.0051293999999997,-0.0102655999999987,-0.0026157999999999,-0.0003141999999995,0.0029862000000009,0.0555592,0,sub_2
0.0007677999999997,-0.0064673999999987,0.0005056,-0.0063801999999995,0.0192434000000009,0.0446,0,sub_2
-0.0014796000000002,-0.0001563999999987,0.0035482,-0.0105585999999995,0.0269768000000009,0.0323832,0,sub_2
-0.0047744000000001,0.0030232000000012,0.0057070000000001,-0.0103247999999995,0.0237710000000009,0.023869,0,sub_2
-0.0080664000000001,0.0029716000000012,0.0020130000000001,-0.0079927999999995,0.0147968000000009,0.0175132,0,sub_2
-0.0090590000000001,0.0023694000000012,-0.0020237999999998,-0.0080049999999995,0.0051968000000009,0.00986,0,sub_2
-0.0081592000000001,0.0009576000000012,-0.0033415999999998,-0.0101115999999995,0.0032784000000009,0.001114,0,sub_2
-0.0075770000000001,0.0025162000000012,-0.0040879999999998,-0.0123977999999995,0.0096666000000009,-0.0067893999999999,0,sub_2
-0.0083136000000001,0.0098288000000012,-0.0037575999999998,-0.0142663999999995,0.0158732000000008,-0.0121515999999999,0,sub_2
-0.0112502000000001,0.0168534000000012,-0.0011189999999999,-0.0112619999999995,0.0190610000000008,-0.0127757999999999,0,sub_2
-0.0163482000000001,0.0204130000000012,-0.0002079999999999,-0.0036107999999995,0.0230146000000008,-0.0101839999999998,0,sub_2
-0.0198488000000001,0.0209164000000012,-0.0022835999999999,0.0031946000000004,0.0286756000000008,-0.0076001999999998,0,sub_2
-0.0214546000000001,0.0188008000000012,-0.0033947999999999,0.0068118000000004,0.0332978000000008,-0.0088829999999998,0,sub_2
-0.0115560000000001,0.0106000000000012,-0.0036697999999999,0.0074542000000004,0.0368806000000009,-0.0140307999999998,0,sub_2
0.0046993999999997,0.0003994000000012,-0.0044127999999999,0.0031718000000004,0.0334626000000009,-0.0224085999999998,0,sub_2
0.0221051999999997,-0.0087657999999987,-0.0050337999999999,-0.0047479999999995,0.0200994000000009,-0.0303515999999999,0,sub_2
0.0366687999999997,-0.0147245999999987,-0.0050797999999999,-0.0124993999999995,-9.49999999990986e-05,-0.0350799999999999,0,sub_2
0.0400841999999997,-0.0127911999999987,-0.0047291999999999,-0.0176989999999995,-0.0177595999999991,-0.0353071999999999,0,sub_2
0.0326519999999997,-0.0054293999999987,-0.0034035999999999,-0.0214095999999995,-0.025867799999999,-0.0300077999999999,0,sub_2
0.0199803999999998,0.0051548000000012,0.0005012,-0.0214573999999995,-0.0184663999999991,-0.0170115999999999,0,sub_2
0.0035383999999998,0.0116516000000012,0.0014404,-0.0165899999999995,-0.002162999999999,0.0032714,0,sub_2
-0.0082924000000001,0.0101678000000012,0.000877,-0.0079383999999995,0.0030424000000009,0.0250906,0,sub_2
-0.0053714000000001,-0.0030467999999987,0.000431,-0.0001939999999995,-0.005590199999999,0.0449984,0,sub_2
0.0004591999999998,-0.0118377999999987,-0.0029943999999999,0.0048166000000004,-0.016103799999999,0.0591474,0,sub_2
