userAcceleration.x,userAcceleration.y,userAcceleration.z,rotationRate.x,rotationRate.y,rotationRate.z,label,subject
0.0027219999999997,-0.0202613999999987,0.032194,0.0104088000000004,-0.004436399999999,0.0067372000000001,0,sub_19
0.0017125999999997,-0.0205833999999987,0.0350896,0.0155556000000004,0.0042690000000009,0.0097530000000001,0,sub_19
0.0016347999999997,-0.0197615999999987,0.0357618,0.0232652000000004,0.0130024000000009,0.0125780000000001,0,sub_19
0.0010105999999997,-0.0193605999999987,0.0362764,0.0341684000000004,0.0204456000000009,0.0156406,0,sub_19
-0.0021802000000002,-0.0196911999999987,0.0352734,0.0401632000000004,0.0266318000000009,0.0176024000000001,0,sub_19
-0.0059508000000001,-0.0204595999999987,0.0328458,0.0376116000000003,0.0290180000000008,0.0182274000000001,0,sub_19
-0.0080116000000001,-0.0205409999999987,0.0283448,0.0350284000000003,0.0247978000000008,0.0192880000000001,0,sub_19
-0.0074632000000001,-0.0211625999999987,0.024209,0.0315838000000004,0.0186286000000008,0.0199128000000001,0,sub_19
-0.0058560000000001,-0.0222175999999987,0.0212502,0.0228106000000004,0.0120586000000008,0.0187916000000001,0,sub_19
-0.0018330000000001,-0.0223043999999987,0.0199466,0.0121170000000004,0.0040102000000009,0.0161634000000001,0,sub_19
0.0046963999999998,-0.0212489999999987,0.0175388,0.0099650000000004,-0.006788799999999,0.0155424,0,sub_19
0.0096445999999997,-0.0209809999999987,0.0185742,0.0127168000000004,-0.016122999999999,0.0173038,0,sub_19
0.0094525999999997,-0.0212563999999987,0.022366,0.0127310000000004,-0.018412399999999,0.0179688,0,sub_19
0.0080971999999997,-0.0204241999999987,0.026011,0.0097802000000004,-0.016427799999999,0.0179666,0,sub_19
0.0066281999999997,-0.0194053999999987,0.030213,0.0094014000000004,-0.012532199999999,0.017339,0,sub_19
0.0033503999999997,-0.0187077999999987,0.0362918,0.0017748000000004,-0.004605399999999,0.0130026000000001,0,sub_19
0.0014717999999997,-0.0181837999999987,0.0384628,-0.0092677999999995,0.0012096000000009,0.0069358000000001,0,sub_19
0.0022985999999997,-0.0174383999999987,0.0387106,-0.0169047999999995,0.0019476000000009,0.0036918000000001,0,sub_19
0.0033471999999997,-0.0174285999999987,0.0387772,-0.0149543999999995,0.0022150000000009,0.0032930000000001,0,sub_19
0.0040393999999997,-0.0170145999999987,0.037302,-0.0085145999999995,0.0054452000000009,0.0039898000000001,0,sub_19
0.0042867999999997,-0.0176275999999987,0.0335738,-0.0003727999999995,0.0088772000000009,0.0059802,0,sub_19
0.0041975999999997,-0.0177467999999987,0.031645,0.0041474000000004,0.0116906000000009,0.0060234,0,sub_19
0.0025497999999997,-0.0177099999999987,0.0300748,0.0035292000000004,0.0136222000000009,0.0030256,0,sub_19
0.0020279999999997,-0.0177889999999987,0.0265408,-0.0002923999999995,0.0138648000000009,-0.0010607999999999,0,sub_19
0.0024435999999997,-0.0186685999999987,0.0245224,-0.0022059999999995,0.0128164000000009,-0.0036365999999999,0,sub_19
0.0024949999999997,-0.0190353999999987,0.0242952,-0.0034765999999995,0.0113440000000009,-0.0072755999999998,0,sub_19
0.0020183999999997,-0.0192537999999987,0.023175,-0.0030233999999995,0.0092726000000009,-0.0106757999999998,0,sub_19
0.0013723999999997,-0.0193019999999987,0.0232016,-0.0021481999999995,0.0065590000000009,-0.0136447999999998,0,sub_19
-0.0008490000000002,-0.0197393999999987,0.0254226,-0.0036287999999995,0.0025726000000009,-0.0159875999999998,0,sub_19
-0.0027598000000002,-0.0203487999999987,0.0273982,-0.0091683999999995,-0.002677199999999,-0.0185707999999998,0,sub_19
-0.0041016000000002,-0.0212373999999987,0.028315,-0.0127913999999995,-0.007088199999999,-0.0194325999999999,0,sub_19
-0.0035592000000002,-0.0209085999999987,0.0300774,-0.0121637999999995,-0.007738199999999,-0.0172909999999999,0,sub_19
-0.0031488000000001,-0.0204889999999987,0.0305034,-0.0098319999999995,-0.007547999999999,-0.0136429999999999,0,sub_19
-0.0020712000000001,-0.0204351999999987,0.0306058,-0.0077173999999995,-0.007784599999999,-0.0095687999999999,0,sub_19
-0.0011054000000001,-0.0205491999999987,0.0307012,-0.0045433999999995,-0.007147399999999,-0.0050631999999999,0,sub_19
-0.0006898000000001,-0.0208771999999987,0.0316606,-0.0034933999999995,-0.004796599999999,-0.0010017999999999,0,sub_19
-0.0009866000000001,-0.0222745999999987,0.0321936,-0.0050057999999995,-0.003287399999999,0.0026156000000001,0,sub_19
-0.0006512000000001,-0.0235411999999987,0.032064,-0.0052389999999995,-0.001783399999999,0.0064554000000001,0,sub_19
-0.0005556000000001,-0.0228467999999987,0.0319242,-0.0063161999999995,0.0012174000000008,0.0096466,0,sub_19
-0.0003546000000001,-0.0219663999999987,0.0307574,-0.0080249999999995,0.0033438000000008,0.0121958000000001,0,sub_19
5.8999999999837374e-05,-0.0207275999999987,0.0292354,-0.0071867999999995,0.0029028000000008,0.0151932000000001,0,sub_19
0.0006951999999998,-0.0192423999999987,0.027363,-0.0061905999999995,0.0016120000000008,0.0162304000000001,0,sub_19
0.0012245999999998,-0.0185981999999987,0.0270518,-0.0075299999999995,0.0005518000000008,0.0149010000000001,0,sub_19
0.0017957999999997,-0.0182771999999987,0.0261002,-0.0080099999999995,-0.000718599999999,0.0120822000000001,0,sub_19
0.0025053999999997,-0.0175671999999987,0.0255762,-0.0067841999999995,-0.002632399999999,0.0088488000000001,0,sub_19
0.0026465999999997,-0.0170799999999987,0.0259936,-0.0066261999999995,-0.005179799999999,0.0051816000000001,0,sub_19
0.0020091999999997,-0.0175295999999987,0.0275806,-0.0083273999999995,-0.008139599999999,0.0009006000000001,0,sub_19
0.0006793999999997,-0.0168001999999987,0.0290744,-0.0140731999999995,-0.010439999999999,-0.0049049999999998,0,sub_19
-0.0005116000000002,-0.0161781999999987,0.0315192,-0.0247179999999995,-0.012927799999999,-0.0128809999999998,0,sub_19
-0.0006470000000002,-0.0181379999999987,0.0334316,-0.0428565999999995,-0.012400399999999,-0.0216053999999998,0,sub_19
-0.0003280000000002,-0.0197345999999987,0.0328204,-0.0665151999999995,-0.008645799999999,-0.0333635999999998,0,sub_19
0.0017071999999997,-0.0217147999999987,0.0307656,-0.0871969999999995,-0.003637799999999,-0.0414705999999999,0,sub_19
0.0062043999999997,-0.0239857999999987,0.0285432,-0.0925533999999995,0.0017076000000009,-0.0407115999999998,0,sub_19
0.0122253999999997,-0.0242517999999987,0.0239834,-0.0761935999999995,0.0056612000000009,-0.0303987999999999,0,sub_19
0.0151605999999997,-0.0199765999999987,0.0176082,-0.0238199999999995,-0.001415799999999,-0.0110095999999999,0,sub_19
0.0139263999999997,-0.0180987999999987,0.0240142,0.0332066000000004,-0.015124199999999,0.0109844,0,sub_19
0.0059013999999997,-0.0199821999999987,0.0299924,0.0655740000000004,-0.019539399999999,0.021471,0,sub_19
-0.0052062000000002,-0.0238593999999987,0.0349096,0.0613594000000004,-0.011201799999999,0.0180126000000001,0,sub_19
-0.0142504000000002,-0.0250075999999987,0.0387736,0.0268620000000004,-0.004013199999999,0.0042734000000001,0,sub_19
-0.0177736000000002,-0.0275211999999987,0.0443104,-0.0335851999999996,0.0154344000000009,-0.0156447999999999,0,sub_19
-0.0131786000000002,-0.0262153999999987,0.0369348,-0.0771883999999995,0.0379950000000009,-0.0294673999999999,0,sub_19
-0.0037300000000002,-0.0226195999999987,0.0288952,-0.0835913999999995,0.0424756000000009,-0.0297609999999999,0,sub_19
0.0049617999999997,-0.0188453999999987,0.0238816,-0.0564195999999996,0.0265566000000009,-0.0193253999999999,0,sub_19
0.0069029999999998,-0.0194851999999987,0.0234732,-0.0174941999999996,0.0129432000000009,-0.0053627999999999,0,sub_19
0.0043923999999998,-0.0205495999999987,0.0236082,0.0120534000000004,-0.002113399999999,0.0046904,0,sub_19
-0.0009352000000001,-0.0225371999999987,0.024748,0.0209566000000004,-0.012594599999999,0.0073296,0,sub_19
-0.0033542000000002,-0.0219779999999987,0.026833,0.0151966000000004,-0.014065399999999,0.0060158,0,sub_19
-0.0030250000000002,-0.0203223999999987,0.0268354,0.0043482000000004,-0.010184399999999,0.0027368,0,sub_19
-0.0008854000000002,-0.0193539999999987,0.0262416,-0.0035175999999995,-0.007591399999999,-0.0007333999999999,0,sub_19
0.0007209999999997,-0.0188929999999987,0.026497,-0.0071447999999995,-0.009282799999999,-0.0020319999999999,0,sub_19
0.0019869999999997,-0.0188489999999987,0.0284114,-0.0086603999999995,-0.014608599999999,-0.0020291999999999,0,sub_19
0.0020699999999997,-0.0186255999999987,0.0300246,-0.0097521999999995,-0.020568799999999,-0.0024565999999999,0,sub_19
0.0021213999999997,-0.0186735999999987,0.0304104,-0.0121155999999995,-0.025031199999999,-0.0033219999999998,0,sub_19
0.0033887999999997,-0.0184645999999987,0.0294692,-0.0142579999999995,-0.027365599999999,-0.0037611999999998,0,sub_19
0.0050183999999997,-0.0189933999999987,0.028283,-0.0116789999999995,-0.026951199999999,-0.0037581999999998,0,sub_19
0.0047245999999997,-0.0196889999999987,0.0272972,-0.0063241999999995,-0.025695999999999,-0.0033095999999998,0,sub_19
0.0031053999999998,-0.0212491999999987,0.0282818,-0.0001197999999995,-0.025083599999999,-0.0026405999999998,0,sub_19
0.0004791999999998,-0.0219463999999987,0.0313682,0.0056626000000004,-0.024041199999999,-0.0026159999999998,0,sub_19
-0.0022250000000001,-0.0228331999999987,0.0344296,0.0078274000000004,-0.021279999999999,-0.0030463999999998,0,sub_19
-0.0037088000000001,-0.0228477999999987,0.0360784,0.0057206000000004,-0.016155799999999,-0.0039221999999998,0,sub_19
-0.0019924000000001,-0.0219855999999987,0.0351826,0.0029794000000004,-0.009963399999999,-0.0050175999999998,0,sub_19
-0.0006238000000001,-0.0206549999999987,0.032903,0.0015164000000004,-0.003989399999999,-0.0058899999999999,0,sub_19
0.0011329999999998,-0.0197857999999987,0.0301514,0.0009764000000004,0.0004984000000009,-0.0056725999999999,0,sub_19
0.0021149999999998,-0.0194583999999987,0.028125,0.0025556000000004,0.0026318000000009,-0.0045825999999999,0,sub_19
0.0027073999999997,-0.0194639999999987,0.026746,0.0051892000000004,0.0022040000000009,-0.0032685999999999,0,sub_19
0.0012985999999997,-0.0198065999999987,0.0270426,0.0073874000000004,0.0004968000000009,-0.0013149999999999,0,sub_19
-8.000000000018261e-05,-0.0206939999999987,0.0282086,0.0089486000000004,-0.000993399999999,0.0002066,0,sub_19
-0.0013150000000001,-0.0215417999999987,0.0288456,0.0091592000000004,-0.000784599999999,0.0010624,0,sub_19
-0.0016062000000001,-0.0217239999999987,0.0291524,0.0093794000000004,0.0007060000000009,0.001062,0,sub_19
-0.0015168000000001,-0.0212831999999987,0.029305,0.0088374000000003,0.0028506000000009,0.0008704,0,sub_19
-0.0012676000000001,-0.0212971999999987,0.0296726,0.0085108000000003,0.0047842000000009,3.960000000009854e-05,0,sub_19
-0.0002294000000002,-0.0206981999999987,0.0294764,0.0081822000000003,0.0067160000000008,-0.0003639999999999,0,sub_19
0.0009557999999997,-0.0198895999999987,0.0296898,0.0080650000000003,0.0084332000000008,-0.0005521999999999,0,sub_19
0.0018549999999997,-0.0197007999999987,0.0297184,0.0092204000000004,0.0090780000000008,-8.919999999990147e-05,0,sub_19
0.0021287999999997,-0.0193769999999987,0.0298508,0.0107122000000004,0.0088588000000008,0.0001352,0,sub_19
0.0019943999999997,-0.0194871999999987,0.0306668,0.0117790000000004,0.0086428000000008,-7.059999999990147e-05,0,sub_19
0.0016461999999997,-0.0194071999999987,0.0317058,0.0117838000000004,0.0092836000000009,-0.0004985999999999,0,sub_19
0.0011957999999997,-0.0197171999999987,0.0319092,0.0125220000000004,0.0103396000000008,-0.0008903999999999,0,sub_19
0.0006981999999997,-0.0195873999999987,0.0320656,0.0124106000000004,0.0122510000000008,-0.0012891999999999,0,sub_19
0.0006795999999997,-0.0199745999999987,0.031899,0.0116562000000004,0.0137376000000008,-0.0014783999999999,0,sub_19
0.0009791999999997,-0.0204059999999987,0.0309986,0.0111134000000004,0.0154338000000008,-0.0010253999999999,0,sub_19
0.0011751999999997,-0.0207607999999987,0.0295196,0.0112106000000004,0.0169158000000008,-0.0007813999999999,0,sub_19
0.0011079999999997,-0.0209417999999987,0.0290982,0.0114260000000004,0.0179778000000009,-0.0001403999999999,0,sub_19
0.0010649999999997,-0.0211691999999987,0.0285302,0.0122804000000004,0.0186122000000009,0.000292,0,sub_19
0.0005709999999997,-0.0217389999999987,0.028673,0.0139922000000004,0.0200960000000009,0.0007294,0,sub_19
0.0003041999999997,-0.0216749999999987,0.0288394,0.0148486000000004,0.0211566000000009,0.0011612,0,sub_19
4.359999999979736e-05,-0.0220073999999987,0.0289886,0.0164108000000004,0.0211828000000008,0.0022656,0,sub_19
-7.320000000020264e-05,-0.0224373999999987,0.02905,0.0171212000000004,0.0207894000000008,0.00251,0,sub_19
-3.580000000022264e-05,-0.0218189999999987,0.0290156,0.0169774000000003,0.0201860000000008,0.0027486,0,sub_19
3.799999999777376e-06,-0.0204607999999987,0.0292636,0.0166230000000003,0.0204346000000008,0.0031984,0,sub_19
4.6399999999777376e-05,-0.0196153999999987,0.029135,0.0169096000000004,0.0204698000000008,0.0032256,0,sub_19
-9.260000000022264e-05,-0.0191989999999987,0.0291178,0.0166942000000003,0.0198322000000009,0.0030114,0,sub_19
0.0003523999999997,-0.0185623999999987,0.029564,0.0171152000000003,0.0185524000000009,0.003016,0,sub_19
0.0004045999999997,-0.0192043999999987,0.029462,0.0169426000000004,0.0177558000000009,0.0026138,0,sub_19
0.0007841999999997,-0.0202653999999987,0.0290276,0.0163422000000004,0.0161110000000008,0.0015686,0,sub_19
0.0008401999999997,-0.0208847999999987,0.0291118,0.0153170000000004,0.0155304000000008,0.0011602,0,sub_19
0.0012937999999997,-0.0207339999999987,0.0295142,0.0140824000000004,0.0155906000000008,0.0005356,0,sub_19
0.0011919999999997,-0.0201571999999987,0.0292412,0.0124230000000004,0.0158662000000008,-0.0003057999999999,0,sub_19
0.0014685999999997,-0.0198015999999987,0.028706,0.0109322000000004,0.0152374000000008,-0.0015973999999999,0,sub_19
0.0016483999999997,-0.0193207999999987,0.028201,0.0096492000000004,0.0141784000000008,-0.0020323999999999,0,sub_19
0.0020999999999997,-0.0196327999999987,0.027851,0.0090064000000004,0.0131170000000008,-0.0024627999999999,0,sub_19
0.0018293999999997,-0.0201329999999987,0.0276368,0.0079386000000004,0.0129078000000008,-0.0024699999999999,0,sub_19
0.0016399999999997,-0.0213615999999987,0.027066,0.0073042000000004,0.0125128000000009,-0.0018149999999999,0,sub_19
0.0012057999999997,-0.0214725999999987,0.028101,0.0073090000000003,0.0127514000000009,-0.0003017999999999,0,sub_19
0.0007417999999997,-0.0219257999999987,0.0286422,0.0073146000000003,0.0127786000000009,0.0007844,0,sub_19
0.0001567999999997,-0.0216481999999987,0.0290866,0.0077460000000004,0.0123792000000009,0.0016602,0,sub_19
0.0002061999999997,-0.0216501999999987,0.0293748,0.0081794000000003,0.0119814000000009,0.002109,0,sub_19
0.0002525999999997,-0.0209859999999987,0.0296204,0.0083946000000003,0.0124068000000009,0.0021098,0,sub_19
0.0006345999999997,-0.0209749999999987,0.0295502,0.0079706000000003,0.0130474000000009,0.002106,0,sub_19
0.0010487999999997,-0.0206885999999987,0.0295558,0.0075448000000003,0.0136862000000009,0.0025294,0,sub_19
0.0017849999999997,-0.0204779999999987,0.02921,0.0064550000000003,0.0128364000000008,0.0027492,0,sub_19
0.0024443999999997,-0.0201391999999987,0.02878,0.0053612000000004,0.0109222000000008,0.0027566,0,sub_19
0.0026407999999997,-0.0198679999999987,0.0288618,0.0036226000000004,0.0083694000000008,0.0031876,0,sub_19
0.0028515999999997,-0.0195501999999987,0.0277618,0.0027376000000004,0.0056014000000008,0.0034112,0,sub_19
0.0025533999999997,-0.0197799999999987,0.0275036,0.0020688000000004,0.0028354000000008,0.0029954,0,sub_19
0.0020835999999997,-0.0202333999999987,0.0278594,0.0016352000000004,0.0009210000000008,0.0025676,0,sub_19
0.0014455999999997,-0.0204165999999987,0.0278492,0.0009874000000004,-0.0009933999999991,0.0023518,0,sub_19
0.0007147999999997,-0.0209557999999987,0.0278492,0.0013656000000004,-0.002738599999999,0.0019364,0,sub_19
-0.0001000000000002,-0.0214609999999987,0.0286516,0.0004626000000004,-0.004692399999999,0.0015122,0,sub_19
-0.0005288000000002,-0.0215123999999987,0.02966,-0.0006507999999995,-0.006430599999999,0.000659,0,sub_19
-0.0004082000000002,-0.0212623999999987,0.0293748,-0.0017593999999995,-0.006891199999999,1.780000000009851e-05,0,sub_19
-0.0007578000000001,-0.0209587999999987,0.0297104,-0.0024383999999995,-0.006714399999999,-0.0006211999999999,0,sub_19
-0.0003208000000001,-0.0206677999999987,0.0304724,-0.0035023999999995,-0.006283599999999,-0.0008427999999999,0,sub_19
0.0002101999999998,-0.0207961999999987,0.0307254,-0.0032889999999995,-0.006071999999999,-0.0006277999999999,0,sub_19
0.0008555999999997,-0.0208983999999987,0.0304156,-0.0030785999999995,-0.006075399999999,1.460000000009852e-05,0,sub_19
0.0008299999999997,-0.0212611999999987,0.0310976,-0.0031503999999995,-0.006999799999999,0.0006554,0,sub_19
0.0013707999999997,-0.0217435999999987,0.0312872,-0.0030069999999995,-0.007710799999999,0.0010838,0,sub_19
0.0015537999999997,-0.0217553999999987,0.0309844,-0.0030739999999995,-0.008206399999999,0.0010832,0,sub_19
0.0015803999999997,-0.0213231999999987,0.0307562,-0.0029285999999995,-0.009128199999999,0.0008708,0,sub_19
0.0012407999999997,-0.0210077999999987,0.0303146,-0.0025687999999995,-0.009837599999999,0.0006598,0,sub_19
0.0010573999999997,-0.0204093999999987,0.0300616,-0.0027831999999995,-0.010474199999999,0.0002318,0,sub_19
0.0006077999999997,-0.0199013999999987,0.0305382,-0.0036385999999995,-0.010897399999999,0.0002264,0,sub_19
0.0007289999999997,-0.0200661999999987,0.0306894,-0.0036441999999995,-0.011963599999999,0.0004412,0,sub_19
0.0009351999999997,-0.0205949999999987,0.0310474,-0.0034337999999995,-0.012603399999999,0.0004436,0,sub_19
0.0010679999999997,-0.0207863999999987,0.0312996,-0.0037153999999995,-0.013106799999999,0.0004434,0,sub_19
0.0006309999999997,-0.0209757999999987,0.0316036,-0.0031463999999995,-0.013615799999999,0.00109,0,sub_19
0.0007035999999997,-0.0209145999999987,0.0310972,-0.0032135999999995,-0.013694599999999,0.0013044,0,sub_19
0.0004175999999997,-0.0208099999999987,0.0309976,-0.0037029999999995,-0.013343399999999,0.0008744,0,sub_19
-5.120000000024263e-05,-0.0202113999999987,0.0304908,-0.0052571999999995,-0.012350199999999,0.0006496,0,sub_19
-3.2000000002426354e-06,-0.0200345999999987,0.030365,-0.0058905999999995,-0.011492999999999,3.000000000098497e-06,0,sub_19
0.0006473999999997,-0.0207787999999987,0.0299724,-0.0067353999999995,-0.010421399999999,-0.0008587999999998,0,sub_19
0.0005965999999997,-0.0212737999999987,0.0297348,-0.0061531999999995,-0.010287799999999,-0.0010721999999998,0,sub_19
0.0003229999999997,-0.0218489999999987,0.0295746,-0.0053563999999995,-0.009305199999999,-0.0006441999999999,0,sub_19
-5.920000000020263e-05,-0.0223341999999987,0.0300226,-0.0054131999999995,-0.008107399999999,-8.799999999901507e-06,0,sub_19
-0.0001478000000002,-0.0224319999999987,0.0308504,-0.0063245999999995,-0.006483199999999,0.0012612,0,sub_19
-0.0001676000000002,-0.0218117999999987,0.0311096,-0.0059585999999995,-0.005502399999999,0.0025408,0,sub_19
0.0009379999999997,-0.0217981999999987,0.0314256,-0.0057413999999995,-0.004438799999999,0.0027546,0,sub_19
0.0014085999999997,-0.0212679999999987,0.031696,-0.0046707999999995,-0.003802399999999,0.0025476,0,sub_19
0.0020697999999997,-0.0209979999999987,0.0318006,-0.0023197999999995,-0.003382799999999,0.0021362,0,sub_19
0.0018477999999997,-0.0210879999999987,0.0312978,-0.0004403999999995,-0.003654599999999,0.0015016,0,sub_19
0.0017075999999997,-0.0208207999999987,0.0310512,-5.3799999999578144e-05,-0.003708199999999,0.0008564,0,sub_19
0.0002967999999997,-0.0204577999999987,0.0313942,0.0005414000000004,-0.003978799999999,0.0010676,0,sub_19
-0.0004016000000002,-0.0211663999999987,0.031508,-0.0001455999999995,-0.004246799999999,0.001697,0,sub_19
-0.0011076000000002,-0.0220237999999987,0.0317748,-0.0016803999999995,-0.003233399999999,0.002319,0,sub_19
-0.0013720000000002,-0.0227873999999987,0.0315918,-0.0031635999999995,0.0001766000000009,0.0033726,0,sub_19
-0.0019432000000001,-0.0231363999999987,0.032394,-0.0050761999999995,0.0033732000000009,0.0048506,0,sub_19
-0.0012464000000001,-0.0232225999999987,0.0320518,-0.0057143999999995,0.0052870000000009,0.0063392,0,sub_19
-0.0008874000000001,-0.0224139999999987,0.0316336,-0.0059285999999995,0.0063480000000009,0.0076182,0,sub_19
-0.0002456000000001,-0.0218081999999987,0.031144,-0.0063819999999995,0.0054758000000009,0.0078244,0,sub_19
0.0006607999999998,-0.0207611999999987,0.0313144,-0.0059875999999995,0.0026856000000009,0.0073982,0,sub_19
0.0015131999999997,-0.0209463999999987,0.0302062,-0.0036661999999995,0.0003192000000009,0.0059168,0,sub_19
0.0019225999999997,-0.0210723999999987,0.0299576,-0.0026153999999995,-0.000548999999999,0.0037836,0,sub_19
0.0015331999999997,-0.0219745999999987,0.0299182,-0.0019943999999995,-0.001630399999999,0.002075,0,sub_19
0.0012787999999997,-0.0220651999999987,0.029944,-0.0002873999999995,-0.002272999999999,0.001447,0,sub_19
0.0005495999999997,-0.0226279999999987,0.02939,0.0014166000000004,-0.003342599999999,0.001033,0,sub_19
0.0004021999999997,-0.0226177999999987,0.0296928,0.0018330000000004,-0.004608599999999,0.0006052,0,sub_19
-0.0002888000000002,-0.0229255999999987,0.0297214,0.0022494000000004,-0.005662199999999,0.0003908,0,sub_19
-0.0001396000000001,-0.0220393999999987,0.0301546,0.0022468000000004,-0.005434399999999,-0.0002553999999999,0,sub_19
-0.0002018000000001,-0.0216603999999987,0.0305356,0.0020336000000004,-0.004566599999999,-0.0009039999999999,0,sub_19
0.0003053999999998,-0.0212121999999987,0.0308966,0.0013918000000004,-0.003911399999999,-0.0013415999999999,0,sub_19
0.0002887999999998,-0.0210579999999987,0.03138,0.0007506000000004,-0.003697799999999,-0.0009189999999999,0,sub_19
0.0008025999999998,-0.0210001999999987,0.0315324,0.0005354000000004,-0.003486599999999,-0.0002797999999999,0,sub_19
0.0014481999999997,-0.0214715999999987,0.0313738,0.0007430000000004,-0.004128999999999,0.0003634,0,sub_19
0.0015221999999997,-0.0215331999999987,0.030659,-0.0001099999999995,-0.005160399999999,0.000996,0,sub_19
0.0010713999999997,-0.0219775999999987,0.03091,-0.0005323999999995,-0.005553199999999,0.0014172,0,sub_19
0.0008291999999997,-0.0220383999999987,0.0301574,-0.0009461999999995,-0.004877399999999,0.0009824,0,sub_19
-2.8000000000202603e-05,-0.0220983999999987,0.0302228,-0.0020019999999995,-0.004413199999999,0.0007572,0,sub_19
-0.0003432000000002,-0.0222001999999987,0.0298862,-0.0030567999999995,-0.003948199999999,0.0003184,0,sub_19
-0.0005762000000002,-0.0226281999999987,0.0302804,-0.0019869999999995,-0.003737199999999,-0.0001015999999998,0,sub_19
-0.0005920000000002,-0.0228775999999987,0.0299508,-0.0013439999999995,-0.003524599999999,-0.0005247999999998,0,sub_19
