userAcceleration.x,userAcceleration.y,userAcceleration.z,rotationRate.x,rotationRate.y,rotationRate.z,label,subject
-0.0042796000000002,0.0007790000000011,-0.0067349999999999,-0.0001971999999995,-0.009168399999999,-0.0017307999999999,0,sub_11
-0.0035052000000002,-0.0003263999999988,-0.0059389999999999,-0.0004047999999995,-0.008525799999999,-0.0023739999999999,0,sub_11
-0.0033876000000002,-0.0008435999999988,-0.0048889999999999,-0.0006103999999995,-0.006183999999999,-0.0017373999999999,0,sub_11
-0.0033342000000002,-0.0015035999999988,-0.0047445999999999,-0.0008121999999995,-0.002777999999999,-0.0008885999999999,0,sub_11
-0.0029282000000002,-0.0015977999999988,-0.0058353999999999,-0.0012267999999995,0.0002122000000009,-0.0004633999999999,0,sub_11
-0.0028542000000002,-0.0008613999999988,-0.0064103999999999,-0.0016411999999995,0.0029902000000009,-0.0002517999999999,0,sub_11
-0.0029408000000002,-0.0003607999999988,-0.0061829999999999,-0.0014175999999995,0.0049152000000009,-0.0004617999999999,0,sub_11
-0.0028984000000002,0.0003636000000011,-0.0059737999999999,-0.0005557999999995,0.0053510000000009,-0.0017337999999999,0,sub_11
-0.0029422000000002,0.0018646000000011,-0.0055801999999999,-0.0001225999999995,0.0057866000000009,-0.0025811999999999,0,sub_11
-0.0035292000000002,0.0031066000000011,-0.0064897999999999,0.0011548000000004,0.0042942000000009,-0.0034249999999999,0,sub_11
-0.0037068000000002,0.0031378000000011,-0.0072877999999999,0.0015720000000004,0.0019500000000009,-0.0036325999999999,0,sub_11
-0.0040882000000002,0.0013782000000011,-0.0074163999999999,0.0013434000000004,-0.001033599999999,-0.0032029999999999,0,sub_11
-0.0053474000000002,-0.0008601999999988,-0.0055837999999999,0.0013290000000004,-0.002531799999999,-0.0014919999999999,0,sub_11
-0.0068230000000002,-0.0022625999999988,-0.0053129999999999,0.0019670000000004,-0.001048799999999,0.0008624,0,sub_11
-0.0079906000000002,-0.0029695999999988,-0.0052803999999999,0.0006962000000004,0.0029974000000009,0.0032004,0,sub_11
-0.0090120000000002,-0.0029461999999988,-0.0051163999999999,-0.0001479999999995,0.0061932000000009,0.0046876,0,sub_11
-0.0095238000000001,-0.0007829999999988,-0.0051127999999999,-0.0001415999999995,0.0076860000000009,0.0051148,0,sub_11
-0.0087158000000001,0.0019962000000011,-0.0067847999999999,0.0002966000000004,0.0085450000000009,0.0038368,0,sub_11
-0.0070928000000001,0.0031772000000011,-0.0079055999999999,0.0005148000000004,0.0068510000000009,0.001063,0,sub_11
-0.0065108000000002,0.0030338000000011,-0.0074405999999999,0.0013568000000004,0.0023816000000009,-0.0008481999999999,0,sub_11
-0.0067564000000002,0.0034554000000011,-0.0072587999999999,0.0011176000000004,-0.003369999999999,-0.0008423999999999,0,sub_11
-0.0072362000000002,0.0037242000000011,-0.0074747999999999,0.0006726000000004,-0.006562199999999,0.0004428,0,sub_11
-0.0067982000000002,0.0019752000000011,-0.0079251999999999,-0.0001973999999995,-0.008477999999999,0.002578,0,sub_11
-0.0067088000000002,1.420000000117664e-05,-0.0069215999999999,-0.0017103999999995,-0.010818799999999,0.004923,0,sub_11
-0.0050442000000002,-0.0008747999999988,-0.0054583999999999,-0.0023545999999995,-0.010602399999999,0.006416,0,sub_11
-0.0030338000000002,-0.0020013999999988,-0.0043611999999999,-0.0010505999999995,-0.005911799999999,0.0062078,0,sub_11
-0.0008754000000002,-0.0033111999999988,-0.0039897999999999,0.0004736000000004,-0.000160399999999,0.005143,0,sub_11
-0.0005778000000002,-0.0022773999999988,-0.0043043999999999,0.0013520000000004,0.0045272000000009,0.0042886,0,sub_11
-0.0006746000000002,-0.0005651999999988,-0.0053889999999999,0.0020122000000004,0.0079382000000009,0.0032206,0,sub_11
-0.0014844000000002,0.0011452000000011,-0.0073153999999999,0.0018080000000004,0.0092232000000009,0.0023668,0,sub_11
-0.0021824000000002,0.0026256000000011,-0.0080449999999999,0.0005216000000004,0.0073152000000009,0.0017232,0,sub_11
-0.0030952000000002,0.0038368000000011,-0.0084269999999999,-0.0011971999999995,0.0043426000000009,0.0012914,0,sub_11
-0.0038552000000002,0.0036488000000011,-0.0083977999999999,-0.0020587999999995,0.0013704000000009,1.1000000000025484e-05,0,sub_11
-0.0049728000000002,0.0028342000000011,-0.0080169999999999,-0.0027031999999995,-0.000962599999999,-0.0014821999999999,0,sub_11
-0.0063634000000002,0.0017160000000011,-0.0074013999999999,-0.0029213999999995,-0.003724799999999,-0.0031893999999999,0,sub_11
-0.0080370000000002,0.0003492000000011,-0.0070155999999999,-0.0029251999999995,-0.005425799999999,-0.0040417999999999,0,sub_11
-0.0088734000000002,-0.0003103999999988,-0.0068335999999999,-0.0027085999999995,-0.005629999999999,-0.0046763999999999,0,sub_11
-0.0090206000000001,-0.0006449999999988,-0.0058423999999999,-0.0024937999999995,-0.005411399999999,-0.0044569999999999,0,sub_11
-0.0079554000000002,-0.0007083999999987,-0.0052833999999999,-0.0018551999999995,-0.004984599999999,-0.0033803999999999,0,sub_11
-0.0058362000000002,1.5400000001216524e-05,-0.0051027999999999,-0.0009993999999995,-0.003706399999999,-0.0023031999999999,0,sub_11
-0.0031888000000002,0.0005442000000012,-0.0057717999999999,7.460000000044836e-05,-0.002212399999999,-0.0020795999999999,0,sub_11
-0.0013712000000002,0.0004082000000012,-0.0058469999999999,0.0007138000000004,-0.002003199999999,-0.0016481999999999,0,sub_11
-0.0023164000000002,0.0005686000000012,-0.0056997999999999,0.0009224000000004,-0.001583999999999,-0.0001517999999999,0,sub_11
-0.0041550000000002,0.0010746000000011,-0.0054793999999999,0.0015550000000004,-0.000956599999999,0.002202,0,sub_11
-0.0063310000000002,0.0003516000000011,-0.0054889999999999,0.0013378000000004,0.0013750000000009,0.005402,0,sub_11
-0.0088280000000002,0.0005188000000011,-0.0048343999999999,0.0009052000000004,0.0026424000000009,0.0079674,0,sub_11
-0.0107020000000002,0.0007924000000011,-0.0043289999999999,0.0017508000000004,0.0026304000000009,0.0096888,0,sub_11
-0.0098712000000002,0.0006216000000011,-0.0043827999999999,0.0030356000000004,0.0028404000000009,0.0088492,0,sub_11
-0.0070294000000002,0.0007668000000011,-0.0060719999999999,0.0032708000000004,0.0039182000000009,0.00501,0,sub_11
-0.0051002000000002,0.0015146000000011,-0.0068861999999999,0.0032832000000004,0.0013808000000009,-0.0003213999999999,0,sub_11
-0.0027794000000002,0.0025838000000011,-0.0077361999999999,0.0028602000000004,-0.001797199999999,-0.0043795999999999,0,sub_11
-0.0012918000000002,0.0031722000000011,-0.0071501999999999,0.0011580000000004,-0.003272199999999,-0.0069533999999999,0,sub_11
-1.3600000000203729e-05,0.0025286000000012,-0.0061911999999999,-0.0005497999999995,-0.004115799999999,-0.0076051999999999,0,sub_11
-0.0010188000000002,0.0010132000000012,-0.0040641999999999,-0.0014181999999995,-0.004553399999999,-0.0050473999999999,0,sub_11
-0.0016358000000002,-0.0004107999999987,-0.0028633999999998,-0.0016397999999995,-0.002016599999999,-0.0009933999999999,0,sub_11
-0.0019284000000002,-0.0010371999999988,-0.0030007999999998,-0.0014259999999995,0.0011630000000008,0.001781,0,sub_11
-0.0024454000000002,-0.0008201999999988,-0.0044661999999998,-0.0007863999999995,0.0028548000000008,0.0032784,0,sub_11
-0.0038160000000002,0.0002268000000011,-0.0064639999999998,-0.0005775999999995,0.0032714000000008,0.0043472,0,sub_11
-0.0050376000000002,0.0006300000000011,-0.0080293999999998,-0.0010043999999995,0.0030606000000009,0.0041308,0,sub_11
-0.0060084000000002,1.0400000001196778e-05,-0.0078335999999999,-0.0020751999999995,0.0009388000000009,0.002844,0,sub_11
-0.0075736000000002,-0.0011909999999987,-0.0068277999999999,-0.0022875999999995,9.160000000093948e-05,0.0017754,0,sub_11
-0.0087002000000002,-0.0025239999999987,-0.0065989999999999,-0.0024847999999995,0.0020162000000009,-0.0003737999999999,0,sub_11
-0.0095006000000002,-0.0030979999999987,-0.0059293999999998,-0.0020427999999995,0.0028768000000009,-0.0033717999999999,0,sub_11
-0.0097750000000002,-0.0017253999999988,-0.0052891999999999,-0.0009663999999995,0.0020326000000009,-0.0067903999999999,0,sub_11
-0.0092948000000002,0.0011798000000011,-0.0059305999999999,0.0011818000000004,0.0022498000000009,-0.0102027999999999,0,sub_11
-0.0067276000000002,0.0023702000000011,-0.0057273999999999,0.0033192000000004,0.0011844000000009,-0.0125453999999999,0,sub_11
-0.0042430000000002,0.0031746000000011,-0.0052689999999998,0.0047976000000004,-0.001592999999999,-0.0118905999999999,0,sub_11
-0.0017172000000002,0.0037558000000011,-0.0057085999999999,0.0054148000000004,-0.004161999999999,-0.0093191999999999,0,sub_11
0.0003607999999997,0.0029430000000011,-0.0068419999999999,0.0034704000000004,-0.005453999999999,-0.0044181999999999,0,sub_11
0.0006511999999997,0.0005240000000011,-0.0068273999999999,2.360000000042814e-05,-0.006960399999999,0.0021818,0,sub_11
-0.0017058000000002,-0.0016679999999988,-0.0064823999999999,-0.0036249999999995,-0.006333999999999,0.0083502,0,sub_11
-0.0052910000000002,-0.0026539999999988,-0.0058023999999999,-0.0049043999999995,-0.003361999999999,0.0119686,0,sub_11
-0.0068828000000001,-0.0027211999999988,-0.0074505999999999,-0.0046643999999995,0.0011132000000009,0.0113226,0,sub_11
-0.0083368000000001,-0.0025485999999988,-0.0078793999999999,-0.0024999999999995,0.0030428000000009,0.0064214,0,sub_11
-0.0102912000000001,-0.0014567999999988,-0.0072275999999999,0.0009542000000004,0.0047642000000009,-0.0008205999999999,0,sub_11
-0.0108400000000001,0.0020612000000011,-0.0076161999999999,0.0037598000000004,0.0052070000000009,-0.0074245999999999,0,sub_11
-0.0101260000000002,0.0046270000000011,-0.0079057999999999,0.0044122000000004,0.0026696000000009,-0.0127579999999999,0,sub_11
-0.0074720000000002,0.0048528000000011,-0.0066773999999998,0.0033326000000004,-0.001792199999999,-0.0140453999999999,0,sub_11
-0.0048970000000002,0.0047734000000011,-0.0052869999999999,0.0026692000000004,-0.004991599999999,-0.0116995999999999,0,sub_11
-0.0008824000000002,0.0047492000000011,-0.0063435999999999,0.0011418000000004,-0.008197599999999,-0.0070097999999999,0,sub_11
0.0014849999999997,0.0026372000000011,-0.0061519999999999,-0.0010227999999995,-0.010337599999999,-0.0018983999999999,0,sub_11
0.0025935999999997,-0.0001239999999987,-0.0061811999999999,-0.0031777999999995,-0.010135199999999,0.0034236,0,sub_11
0.0003311999999997,-0.0016253999999987,-0.0046089999999999,-0.0036073999999995,-0.006316799999999,0.0079022,0,sub_11
-0.0025956000000002,-0.0026989999999987,-0.0040611999999999,-0.0040207999999995,-0.000998399999999,0.0102426,0,sub_11
-0.0054158000000002,-0.0035559999999987,-0.0034289999999999,-0.0039953999999995,0.0047572000000009,0.01002,0,sub_11
-0.0075090000000002,-0.0035899999999987,-0.0040417999999999,-0.0028973999999995,0.0092408000000009,0.0072428,0,sub_11
-0.0083242000000002,-0.0022421999999988,-0.0043081999999999,-0.0003075999999995,0.0113834000000009,0.0025564,0,sub_11
-0.0094722000000002,0.0002046000000011,-0.0056357999999998,0.0012020000000004,0.0099104000000009,-0.0027739999999999,0,sub_11
-0.0094550000000002,0.0036036000000011,-0.0065763999999999,0.0020570000000004,0.0060926000000009,-0.0072513999999999,0,sub_11
-0.0084842000000002,0.0062858000000011,-0.0075607999999999,0.0031096000000004,0.0005588000000009,-0.0095869999999999,0,sub_11
-0.0056934000000002,0.0070970000000011,-0.0081855999999999,0.0032980000000004,-0.005405799999999,-0.0100053999999999,0,sub_11
-0.0031204000000002,0.0065724000000011,-0.0086859999999999,0.0013470000000004,-0.010731399999999,-0.0085167999999999,0,sub_11
-0.0004658000000002,0.0040700000000011,-0.0072167999999999,-0.0003887999999995,-0.014358399999999,-0.0057467999999999,0,sub_11
0.0005217999999997,0.0005618000000012,-0.0060295999999999,-0.0021121999999995,-0.014158799999999,-0.0012753999999999,0,sub_11
-0.0002670000000002,-0.0024941999999987,-0.0050741999999999,-0.0042423999999995,-0.009907999999999,0.0027606,0,sub_11
-0.0030922000000002,-0.0043097999999987,-0.0032757999999999,-0.0046559999999995,-0.004593599999999,0.0057392,0,sub_11
-0.0066014000000002,-0.0049061999999987,-0.0023623999999999,-0.0035711999999995,0.0005076000000009,0.0074466,0,sub_11
-0.0083584000000002,-0.0036389999999987,-0.0038061999999999,-0.0016251999999995,0.0051882000000009,0.007024,0,sub_11
-0.0082656000000002,-0.0016799999999988,-0.0056537999999999,0.0005314000000004,0.0064744000000009,0.0031918,0,sub_11
-0.0075330000000002,4.3600000001176985e-05,-0.0057055999999999,0.0026718000000004,0.0030778000000009,-0.0017025999999999,0,sub_11
-0.0061622000000002,0.0018048000000011,-0.0065397999999999,0.0037436000000004,-0.000104599999999,-0.0059639999999999,0,sub_11
-0.0035104000000002,0.0029698000000011,-0.0070643999999999,0.0041718000000004,-0.002861199999999,-0.0089421999999999,0,sub_11
-0.0023192000000002,0.0026896000000011,-0.0065255999999999,0.0035256000000004,-0.005620799999999,-0.0102185999999999,0,sub_11
-0.0016810000000002,0.0018560000000011,-0.0052287999999999,0.0024468000000004,-0.006686599999999,-0.0085091999999999,0,sub_11
-0.0016696000000002,0.0004532000000011,-0.0053017999999999,0.0013720000000004,-0.004990399999999,-0.0048805999999999,0,sub_11
-0.0025260000000002,-0.0008753999999987,-0.0052575999999999,-0.0003459999999995,-0.003294399999999,-0.0006153999999999,0,sub_11
-0.0037202000000002,-0.0016115999999987,-0.0050791999999999,-0.0020605999999995,-0.001385399999999,0.0030022,0,sub_11
-0.0055078000000002,-0.0018981999999987,-0.0048703999999999,-0.0029131999999995,0.0018014000000009,0.0059832,0,sub_11
-0.0072796000000002,-0.0018263999999987,-0.0056073999999999,-0.0022659999999995,0.0052042000000009,0.007486,0,sub_11
-0.0081568000000002,-0.0005443999999987,-0.0068307999999999,-0.0016151999999995,0.0071252000000009,0.0066406,0,sub_11
-0.0080814000000002,-0.0001839999999988,-0.0080401999999999,-0.0009661999999995,0.0062856000000009,0.0034486,0,sub_11
-0.0082440000000002,-9.759999999880296e-05,-0.0082137999999999,0.0009582000000004,0.0039520000000009,-0.0001597999999999,0,sub_11
-0.0078922000000002,0.0005976000000011,-0.0073519999999999,0.0022416000000004,0.0020442000000009,-0.0031323999999999,0,sub_11
-0.0069510000000002,0.0017748000000011,-0.0072033999999999,0.0022426000000004,0.0003476000000009,-0.0050529999999999,0,sub_11
-0.0054934000000002,0.0021278000000011,-0.0066185999999999,0.0020198000000004,-0.001782199999999,-0.0050517999999999,0,sub_11
-0.0040642000000002,0.0029464000000011,-0.0062407999999999,0.0020036000000004,-0.003494199999999,-0.0031269999999999,0,sub_11
-0.0018840000000002,0.0028364000000011,-0.0060741999999999,7.160000000046834e-05,-0.003706999999999,-0.0003607999999999,0,sub_11
-0.0002344000000002,0.0018574000000011,-0.0066859999999999,-0.0020775999999995,-0.004771399999999,0.002405,0,sub_11
-0.0003276000000002,-4.819999999880302e-05,-0.0052639999999999,-0.0033695999999995,-0.005198799999999,0.0049622,0,sub_11
-0.0016416000000002,-0.0013101999999987,-0.0048295999999999,-0.0035803999999995,-0.003919599999999,0.0060294,0,sub_11
-0.0038388000000002,-0.0023559999999987,-0.0038867999999999,-0.0027097999999995,-0.000509199999999,0.0060332,0,sub_11
-0.0071626000000002,-0.0024067999999987,-0.0027447999999999,7.840000000044824e-05,0.0018280000000009,0.005195,0,sub_11
-0.0088086000000002,-0.0010215999999987,-0.0035331999999999,0.0035144000000004,0.0043822000000009,0.0028656,0,sub_11
-0.0085898000000002,0.0004658000000011,-0.0062089999999999,0.0063066000000004,0.0048132000000009,-0.0007473999999999,0,sub_11
-0.0075032000000002,0.0018576000000011,-0.0072447999999999,0.0069448000000004,0.0018386000000009,-0.0033029999999999,0,sub_11
-0.0065374000000002,0.0028326000000011,-0.0074827999999999,0.0060750000000004,-0.001772999999999,-0.0030819999999999,0,sub_11
-0.0055062000000002,0.0025890000000011,-0.0077205999999999,0.0047796000000004,-0.002835799999999,-0.0005169999999999,0,sub_11
-0.0048602000000002,0.0009192000000011,-0.0063567999999998,0.0034822000000004,-0.002627199999999,0.0037554,0,sub_11
-0.0040862000000002,-0.0017851999999987,-0.0035463999999998,0.0021934000000004,-7.659999999906075e-05,0.0084522,0,sub_11
-0.0032474000000002,-0.0031761999999987,-0.0017297999999998,0.0026318000000004,0.0052444000000009,0.0114484,0,sub_11
-0.0005110000000002,-0.0036177999999987,-0.0021219999999999,0.0043734000000004,0.0122718000000009,0.0108108,0,sub_11
0.0017691999999997,-0.0021439999999987,-0.0045553999999999,0.0050528000000004,0.0176096000000009,0.0073904,0,sub_11
0.0005347999999997,-0.0002165999999988,-0.0065333999999999,0.0044328000000004,0.0182722000000009,0.0039736,0,sub_11
-0.0018470000000002,0.0035034000000011,-0.0084673999999999,0.0037916000000004,0.0150964000000009,0.0014162,0,sub_11
-0.0047314000000002,0.0050324000000011,-0.0098133999999999,0.0025086000000004,0.0125578000000009,-7.839999999997412e-05,0,sub_11
-0.0097300000000002,0.0048350000000012,-0.0104459999999999,0.0007834000000004,0.0072484000000009,-0.0009315999999999,0,sub_11
-0.0149486000000002,0.0041966000000012,-0.0098817999999999,-0.0011781999999995,-0.001900399999999,-0.0004995999999999,0,sub_11
-0.0170632000000002,0.0035704000000012,-0.0093835999999999,-0.0031367999999995,-0.011052399999999,-0.0011423999999999,0,sub_11
-0.0170884000000002,0.0025312000000011,-0.0091911999999999,-0.0040055999999995,-0.016580399999999,-0.0032777999999999,0,sub_11
-0.0142086000000002,0.0008776000000012,-0.0080729999999999,-0.0033751999999995,-0.021896199999999,-0.0064711999999999,0,sub_11
-0.0079546000000002,0.0001864000000012,-0.0069363999999999,-0.0027411999999995,-0.026144399999999,-0.0088063999999999,0,sub_11
0.0009413999999997,-0.0008907999999987,-0.0056321999999999,-0.0016581999999995,-0.025706199999999,-0.0113581999999999,0,sub_11
0.0099283999999997,-0.0026001999999987,-0.0036885999999999,0.0005106000000004,-0.019100799999999,-0.0119873999999999,0,sub_11
0.0158575999999997,-0.0046351999999987,-0.0015527999999999,0.0018214000000004,-0.010374599999999,-0.0094207999999999,0,sub_11
0.0182785999999997,-0.0042683999999987,-0.0014539999999998,0.0014174000000004,-0.000163999999999,-0.0036631999999999,0,sub_11
0.0160895999999997,-0.0034987999999988,-0.0022383999999998,0.0005850000000004,0.0108920000000009,0.002726,0,sub_11
0.0106837999999997,-0.0027801999999988,-0.0024083999999998,-0.0004655999999995,0.0206716000000009,0.0089018,0,sub_11
0.0027561999999997,-0.0015435999999988,-0.0034023999999998,-0.0013103999999995,0.0270482000000009,0.0133742,0,sub_11
-0.0050068000000002,-7.199999999880288e-05,-0.0046919999999998,-0.0008789999999995,0.0295974000000009,0.0148696,0,sub_11
-0.0129918000000002,0.0004794000000011,-0.0064979999999998,0.0008266000000004,0.0276834000000009,0.0136076,0,sub_11
-0.0191322000000002,0.0026412000000011,-0.0069173999999998,0.0023102000000004,0.0221550000000009,0.0106396,0,sub_11
-0.0225252000000002,0.0030676000000011,-0.0085725999999998,0.0037976000000004,0.0164176000000009,0.0066036,0,sub_11
-0.0223214000000002,0.0030530000000011,-0.0098029999999998,0.0040056000000004,0.0100492000000009,0.0017048,0,sub_11
-0.0210194000000002,0.0030340000000011,-0.0101793999999999,0.0027038000000004,0.0002762000000009,-0.0029865999999999,0,sub_11
-0.0185226000000002,0.0034488000000011,-0.0089299999999999,0.0005460000000004,-0.009074599999999,-0.0070489999999999,0,sub_11
-0.0122648000000002,0.0035600000000011,-0.0090525999999999,-0.0007409999999995,-0.014593199999999,-0.0111101999999999,0,sub_11
-0.0052770000000002,0.0041006000000011,-0.0080945999999999,-0.0009647999999995,-0.018627599999999,-0.0136715999999999,0,sub_11
0.0003017999999997,0.0038656000000011,-0.0075551999999999,-0.0009943999999995,-0.023952999999999,-0.0132389999999999,0,sub_11
0.0056487999999997,0.0016416000000011,-0.0051027999999999,-0.0001579999999995,-0.023965399999999,-0.0102433999999999,0,sub_11
0.0113907999999997,-0.0009697999999988,-0.0037799999999999,0.0019874000000004,-0.016317399999999,-0.0059665999999999,0,sub_11
0.0141053999999997,-0.0041653999999988,-0.0026971999999999,0.0032744000000004,-0.007609799999999,0.0004394,0,sub_11
0.0121137999999997,-0.0065179999999988,-0.0030915999999998,0.0022056000000004,-0.001029599999999,0.0074738,0,sub_11
0.0060535999999997,-0.0070207999999988,-0.0025641999999999,0.0003112000000004,0.0102466000000009,0.013001,0,sub_11
-0.0008970000000002,-0.0048881999999988,-0.0037289999999999,-0.0007249999999995,0.0208876000000009,0.0168258,0,sub_11
-0.0073172000000002,-0.0032287999999988,-0.0053239999999998,-0.0024205999999995,0.0264138000000009,0.017436,0,sub_11
-0.0130396000000002,-0.0010561999999988,-0.0065989999999998,-0.0026283999999995,0.0262002000000009,0.0135774,0,sub_11
-0.0157698000000002,0.0013336000000011,-0.0070031999999999,0.0007950000000004,0.0234310000000009,0.0063292,0,sub_11
-0.0138376000000002,0.0033478000000011,-0.0080343999999999,0.0048432000000004,0.0161898000000009,-0.0019771999999999,0,sub_11
-0.0111862000000002,0.0054626000000011,-0.0093669999999999,0.0063146000000004,0.0061844000000009,-0.0094433999999999,0,sub_11
-0.0097538000000002,0.0079314000000011,-0.0095705999999999,0.0069260000000004,-0.004453399999999,-0.0136983999999999,0,sub_11
-0.0074608000000002,0.0058806000000011,-0.0086557999999999,0.0062582000000004,-0.010629599999999,-0.0136951999999999,0,sub_11
-0.0060080000000002,0.0041656000000011,-0.0069677999999999,0.0032344000000004,-0.014895399999999,-0.0098651999999999,0,sub_11
-0.0053118000000002,0.0021112000000012,-0.0053813999999999,2.0000000042867675e-07,-0.016611799999999,-0.0041171999999999,0,sub_11
-0.0060814000000001,-0.0013911999999987,-0.0046931999999999,-0.0021587999999995,-0.014913399999999,0.0022738,0,sub_11
-0.0073788000000002,-0.0037191999999987,-0.0043143999999999,-0.0023965999999995,-0.013645199999999,0.008038,0,sub_11
-0.0103640000000002,-0.0025561999999987,-0.0045257999999999,-0.0032561999999995,-0.010660999999999,0.0114456,0,sub_11
-0.0115734000000002,-0.0022423999999987,-0.0061743999999999,-0.0026133999999995,-0.009159999999999,0.0114472,0,sub_11
-0.0097470000000002,-0.0010767999999988,-0.0070579999999999,-0.0009085999999995,-0.011061999999999,0.0091106,0,sub_11
-0.0055322000000002,0.0011844000000011,-0.0074957999999999,0.0008146000000004,-0.012751199999999,0.0037838,0,sub_11
0.0005925999999997,0.0014528000000011,-0.0071649999999999,0.0016988000000004,-0.012302599999999,-0.0026199999999999,0,sub_11
0.0067829999999997,0.0003174000000011,-0.0067577999999999,0.0036408000000004,-0.011241599999999,-0.0071027999999999,0,sub_11
0.0112337999999997,-0.0003179999999988,-0.0054491999999999,0.0036652000000004,-0.006988199999999,-0.0090393999999999,0,sub_11
0.0103257999999997,-0.0017421999999988,-0.0047585999999998,0.0034830000000004,0.0006672000000009,-0.0090589999999999,0,sub_11
0.0076307999999997,-0.0030127999999988,-0.0038343999999998,0.0026550000000004,0.0095930000000009,-0.0065209999999999,0,sub_11
0.0024221999999997,-0.0035517999999988,-0.0032245999999998,0.0015964000000004,0.0170186000000009,-0.0016325999999999,0,sub_11
-0.0046482000000002,-0.0025359999999988,-0.0030771999999998,0.0007400000000004,0.0225362000000009,0.00455,0,sub_11
-0.0109180000000002,-0.0016887999999988,-0.0041891999999998,0.0003094000000004,0.0278394000000009,0.0107358,0,sub_11
-0.0133970000000002,0.0009948000000011,-0.0062269999999998,-0.0007747999999995,0.0284644000000009,0.015214,0,sub_11
-0.0137220000000002,0.0029710000000011,-0.0075839999999999,-0.0016577999999995,0.0239878000000009,0.0162834,0,sub_11
-0.0128652000000002,0.0050340000000011,-0.0090741999999998,-0.0010433999999995,0.0167508000000009,0.013735,0,sub_11
-0.0103330000000002,0.0066320000000011,-0.0101215999999998,-0.0006375999999995,0.0071846000000009,0.0077696,0,sub_11
-0.0090130000000002,0.0065730000000011,-0.0106811999999998,-0.0010851999999995,-0.003439599999999,0.0007316,0,sub_11
-0.0095234000000002,0.0037754000000011,-0.0086597999999998,-0.0013213999999995,-0.013217399999999,-0.0050243999999999,0,sub_11
-0.0099672000000002,0.0011950000000011,-0.0072607999999998,-0.0004725999999995,-0.018317599999999,-0.0090711999999999,0,sub_11
-0.0078134000000002,-0.0025157999999987,-0.0056275999999998,-0.0008859999999995,-0.018303999999999,-0.0120651999999999,0,sub_11
-0.0065828000000002,-0.0067119999999987,-0.0035189999999998,-0.0004447999999995,-0.015109599999999,-0.0120661999999999,0,sub_11
-0.0040600000000002,-0.0080049999999987,-0.0010563999999999,0.0012786000000004,-0.010008199999999,-0.0105651999999999,0,sub_11
2.0199999999776647e-05,-0.0063191999999988,-0.0010055999999999,0.0030114000000004,-0.000874399999999,-0.0082249999999999,0,sub_11
0.0039351999999997,-0.0049761999999988,-0.0024847999999999,0.0043172000000004,0.0091098000000009,-0.0050341999999999,0,sub_11
0.0054253999999997,-0.0035241999999988,-0.0040107999999998,0.0047524000000004,0.0161108000000009,-0.0009909999999999,0,sub_11
