userAcceleration.x,userAcceleration.y,userAcceleration.z,rotationRate.x,rotationRate.y,rotationRate.z,label,subject
-0.0038428000000002,-0.0307555999999987,0.015846,-0.0044585999999995,0.0019576000000009,-0.0040925999999999,0,sub_5
-0.0021440000000002,-0.0282475999999987,0.0168906,-0.0042203999999995,0.0066474000000009,-0.0049515999999999,0,sub_5
-0.0004920000000002,-0.0277497999999987,0.0161042,-0.0054623999999995,0.0134764000000009,-0.0066781999999999,0,sub_5
-0.0017380000000002,-0.0289401999999987,0.0141614,-0.0071663999999995,0.0188458000000009,-0.0084219999999999,0,sub_5
-0.0042968000000002,-0.0306917999999987,0.012574,-0.0078033999999995,0.0231502000000009,-0.0112251999999999,0,sub_5
-0.0093644000000001,-0.0326157999999987,0.0123262,-0.0075879999999995,0.0272386000000009,-0.0140221999999998,0,sub_5
-0.0125650000000001,-0.0343561999999987,0.0116914,-0.0086701999999995,0.0279210000000009,-0.0163963999999998,0,sub_5
-0.0151176000000001,-0.0350233999999987,0.0108654,-0.0074261999999995,0.0245446000000009,-0.0181081999999998,0,sub_5
-0.0151832000000001,-0.0348633999999987,0.011149,-0.0059517999999995,0.0183684000000009,-0.0200127999999998,0,sub_5
-0.0147398000000002,-0.0345339999999987,0.0114622,-0.0048983999999995,0.0138966000000009,-0.0214951999999998,0,sub_5
-0.0125294000000002,-0.0335653999999987,0.0117946,-0.0038555999999995,0.0094154000000009,-0.0206275999999999,0,sub_5
-0.0114356000000002,-0.0329753999999987,0.0119336,-0.0024117999999995,0.0040924000000009,-0.0182681999999999,0,sub_5
-0.0100974000000002,-0.0324061999999987,0.0121688,-0.0024577999999995,-0.000373199999999,-0.0159201999999999,0,sub_5
-0.0079656000000002,-0.0311351999999987,0.0116454,-0.0024883999999995,-0.001854399999999,-0.0140031999999999,0,sub_5
-0.0067212000000002,-0.0299433999999987,0.0109274,-0.0044413999999995,-0.003118399999999,-0.0114589999999998,0,sub_5
-0.0067904000000002,-0.0295787999999987,0.009988,-0.0068151999999995,-0.004800199999999,-0.0106261999999999,0,sub_5
-0.0070850000000002,-0.0302099999999987,0.0090796,-0.0095889999999995,-0.005851599999999,-0.0117123999999998,0,sub_5
-0.0078534000000002,-0.0303589999999987,0.0080252,-0.0125723999999995,-0.006262199999999,-0.0130145999999998,0,sub_5
-0.0093238000000002,-0.0307805999999987,0.007524,-0.0168475999999995,-0.008375999999999,-0.0134689999999998,0,sub_5
-0.0105772000000002,-0.0315283999999987,0.0073296,-0.0191929999999995,-0.013067599999999,-0.0141131999999998,0,sub_5
-0.0113408000000002,-0.0325529999999987,0.0084386,-0.0202581999999995,-0.018612399999999,-0.0156019999999998,0,sub_5
-0.0121146000000001,-0.0324547999999987,0.010188,-0.0202515999999995,-0.022883599999999,-0.0168711999999999,0,sub_5
-0.0121182000000001,-0.0327609999999987,0.0117188,-0.0200269999999995,-0.026514599999999,-0.0185669999999998,0,sub_5
-0.0113986000000001,-0.0338223999999987,0.0129144,-0.0178781999999995,-0.029724599999999,-0.0206769999999998,0,sub_5
-0.0089780000000001,-0.0347521999999987,0.0148,-0.0146745999999995,-0.031006399999999,-0.0225757999999999,0,sub_5
-0.0075974000000001,-0.0346229999999987,0.0162492,-0.0114595999999995,-0.028033999999999,-0.0227707999999998,0,sub_5
-0.0058910000000001,-0.0343097999999987,0.0163118,-0.0097343999999995,-0.022718599999999,-0.0214835999999999,0,sub_5
-0.0049852000000001,-0.0341435999999987,0.015761,-0.0080119999999995,-0.016981599999999,-0.0191287999999998,0,sub_5
-0.0050538000000001,-0.0337881999999987,0.0156116,-0.0064705999999995,-0.010241799999999,-0.0152447999999999,0,sub_5
-0.0071568000000001,-0.0331351999999987,0.0146968,-0.0062135999999995,-0.004349799999999,-0.0113683999999999,0,sub_5
-0.0082384000000001,-0.0331171999999987,0.0139698,-0.0068155999999995,-0.000369799999999,-0.0081365999999999,0,sub_5
-0.0090124000000001,-0.0346881999999987,0.0136452,-0.0069995999999995,0.0019034000000009,-0.0046859999999999,0,sub_5
-0.0095184000000001,-0.0354393999999987,0.013636,-0.0063349999999995,0.0033208000000009,-0.0010147999999999,0,sub_5
-0.0101620000000001,-0.0351941999999987,0.0132744,-0.0059159999999995,0.0039490000000009,0.0013374,0,sub_5
-0.0100486000000001,-0.0347779999999987,0.0123894,-0.0059235999999995,0.0039422000000008,0.0030464,0,sub_5
-0.0103244000000001,-0.0344625999999987,0.0106222,-0.0055083999999995,0.0026572000000008,0.0043328,0,sub_5
-0.0105992000000001,-0.0335171999999987,0.0103132,-0.0046313999999995,0.0002442000000008,0.0043878,0,sub_5
-0.0106822000000001,-0.0326231999999987,0.0098684,-0.0046029999999995,-0.002373799999999,0.0031554,0,sub_5
-0.0113382000000001,-0.0321679999999987,0.0108766,-0.0037135999999995,-0.003714599999999,0.0015002,0,sub_5
-0.0115672000000001,-0.0321927999999987,0.0113864,-0.0021839999999995,-0.003996799999999,0.0009164,0,sub_5
-0.0112250000000001,-0.0320463999999987,0.0115572,-0.0012945999999995,-0.003852199999999,0.0007548,0,sub_5
-0.0105320000000001,-0.0319631999999987,0.0112234,-0.0004429999999995,-0.003644599999999,0.0014014,0,sub_5
-0.0097860000000002,-0.0313477999999987,0.0118966,-0.0008763999999995,-0.003648999999999,0.002894,0,sub_5
-0.0083050000000002,-0.0312247999999987,0.0113834,-0.0023381999999995,-0.003082599999999,0.0040192,0,sub_5
-0.0071230000000002,-0.0312459999999987,0.0120264,-0.0035867999999995,-0.003153399999999,0.0045058,0,sub_5
-0.0064992000000001,-0.0322557999999987,0.0130536,-0.0044113999999995,-0.003864799999999,0.0049962,0,sub_5
-0.0065814000000001,-0.0324179999999987,0.0137546,-0.0043721999999995,-0.003508799999999,0.0042094,0,sub_5
-0.0065076000000001,-0.0335453999999987,0.0133034,-0.0024001999999995,-0.001026599999999,0.0027924,0,sub_5
-0.0062748000000001,-0.0342053999999987,0.0133714,-4.3599999999576615e-05,0.0002470000000009,0.0019528,0,sub_5
-0.0062164000000001,-0.0342391999999987,0.0124268,0.0025236000000004,0.0013050000000009,0.001542,0,sub_5
-0.0060380000000001,-0.0334057999999987,0.0124774,0.0038124000000004,0.0027936000000009,0.0011218,0,sub_5
-0.0058470000000001,-0.0327673999999987,0.012816,0.0055748000000004,0.0038258000000009,0.0007804,0,sub_5
-0.0062646000000001,-0.0322555999999987,0.0133816,0.0071208000000004,0.0052808000000009,0.0015052,0,sub_5
-0.0096130000000001,-0.0325849999999987,0.013686,0.0097326000000004,0.0082166000000009,0.0039446,0,sub_5
-0.0132962000000002,-0.0336183999999987,0.0136574,0.0125482000000004,0.0107188000000009,0.0080952,0,sub_5
-0.0176646000000002,-0.0340385999999987,0.012895,0.0153534000000004,0.0119382000000008,0.0133156,0,sub_5
-0.0212082000000002,-0.0344123999999987,0.0102452,0.0157532000000004,0.0117006000000008,0.0190872,0,sub_5
-0.0240870000000002,-0.0341383999999987,0.0076582,0.0139954000000004,0.0067808000000008,0.0254904,0,sub_5
-0.0240214000000002,-0.0329631999999987,0.0051738,0.0079434000000004,-0.0036651999999991,0.032298,0,sub_5
-0.0204680000000002,-0.0302825999999987,0.0038396,-0.0016713999999995,-0.0157665999999991,0.0363946,0,sub_5
-0.0145150000000002,-0.0280785999999987,0.002914,-0.0106211999999995,-0.026362599999999,0.0364346,0,sub_5
-0.0091246000000002,-0.0259983999999987,0.0040218,-0.0186991999999995,-0.035884399999999,0.0334882,0,sub_5
-0.0038164000000002,-0.0251611999999987,0.0065236,-0.0250365999999995,-0.042199399999999,0.0262772,0,sub_5
0.0021613999999997,-0.0250535999999987,0.0098,-0.0272739999999995,-0.042333799999999,0.0150276,0,sub_5
0.0053863999999997,-0.0268731999999987,0.0135052,-0.0254949999999995,-0.038243999999999,0.0030708,0,sub_5
0.0061877999999997,-0.0302615999999987,0.0174994,-0.0220111999999995,-0.032251999999999,-0.0065263999999999,0,sub_5
0.0055073999999997,-0.0343321999999987,0.0204454,-0.0168155999999995,-0.022229999999999,-0.0131257999999999,0,sub_5
0.0040491999999997,-0.0377259999999987,0.0215604,-0.0102923999999995,-0.010287999999999,-0.0166653999999999,0,sub_5
0.0022227999999997,-0.0401569999999987,0.0213988,-0.0048543999999995,0.0007926000000009,-0.0170065999999999,0,sub_5
-0.0017932000000002,-0.0409625999999987,0.0204398,-0.0002821999999995,0.0116528000000009,-0.0147899999999999,0,sub_5
-0.0061806000000002,-0.0398341999999987,0.0180966,0.0049196000000003,0.0214404000000008,-0.0112857999999998,0,sub_5
-0.0099650000000002,-0.0376975999999987,0.0153976,0.0086028000000003,0.0265428000000008,-0.0069315999999998,0,sub_5
-0.0130522000000002,-0.0342937999999987,0.0127494,0.0111498000000003,0.0282194000000008,-0.0022157999999998,0,sub_5
-0.0170886000000002,-0.0318089999999987,0.009952,0.0141140000000003,0.0264910000000008,0.0012254,0,sub_5
-0.0190188000000002,-0.0301393999999987,0.0072478,0.0151500000000003,0.0217916000000008,0.003375,0,sub_5
-0.0192798000000002,-0.0291957999999987,0.0054798,0.0130150000000003,0.0143580000000008,0.0048988,0,sub_5
-0.0187044000000002,-0.0290535999999987,0.0039712,0.0106694000000004,0.0062912000000009,0.0051402,0,sub_5
-0.0177692000000002,-0.0304643999999987,0.004756,0.0079028000000004,-0.001768999999999,0.0040968,0,sub_5
-0.0151470000000002,-0.0315513999999987,0.0060658,0.0034360000000004,-0.008968599999999,0.0023994000000001,0,sub_5
-0.0125822000000002,-0.0326793999999987,0.00769,-0.0003847999999995,-0.015104199999999,0.0004916000000001,0,sub_5
-0.0105074000000002,-0.0338697999999987,0.00918,-0.0027443999999995,-0.019563199999999,-0.0012283999999998,0,sub_5
-0.0084392000000002,-0.0337421999999987,0.0102794,-0.0042503999999995,-0.023176599999999,-0.0020889999999998,0,sub_5
-0.0073568000000002,-0.0343753999999987,0.0107516,-0.0042713999999995,-0.027651599999999,-0.0018697999999998,0,sub_5
-0.0079962000000002,-0.0356563999999987,0.0126908,0.0002070000000004,-0.031708399999999,-0.0009637999999999,0,sub_5
-0.0075344000000002,-0.0367489999999987,0.0157864,0.0068334000000004,-0.032364599999999,0.0001664,0,sub_5
-0.0067498000000002,-0.0368363999999987,0.019634,0.0128400000000004,-0.027907799999999,0.0019268,0,sub_5
-0.0060516000000002,-0.0381975999999987,0.023095,0.0188696000000004,-0.017488799999999,0.0045344,0,sub_5
-0.0050024000000001,-0.0384535999999987,0.0247298,0.0251346000000004,-0.002382599999999,0.0069238,0,sub_5
-0.0033884000000001,-0.0369953999999987,0.0246992,0.0277612000000004,0.0152800000000009,0.0099104,0,sub_5
-0.0032478000000001,-0.0349167999999987,0.0223346,0.0278130000000004,0.0303924000000009,0.0135234,0,sub_5
-0.0046562000000001,-0.0338337999999987,0.0171476,0.0287086000000004,0.0418858000000009,0.0156514,0,sub_5
-0.0064914000000001,-0.0329229999999987,0.013013,0.0306548000000004,0.0469948000000009,0.0150174,0,sub_5
-0.0083398000000001,-0.0319855999999987,0.0100766,0.0310880000000004,0.0465866000000009,0.0139132,0,sub_5
-0.0110528000000001,-0.0314531999999987,0.0069432,0.0312918000000004,0.0419208000000009,0.012172,0,sub_5
-0.0138886000000001,-0.0312235999999987,0.0045372,0.0323442000000004,0.0344890000000008,0.008731,0,sub_5
-0.0152128000000001,-0.0308189999999987,0.004633,0.0323172000000004,0.0232302000000008,0.0042192,0,sub_5
-0.0159270000000001,-0.0303711999999987,0.0062894,0.0305784000000004,0.0117612000000008,0.0005504,0,sub_5
-0.0159444000000002,-0.0300449999999987,0.0074448,0.0280008000000004,0.0036912000000008,-0.0037299999999999,0,sub_5
-0.0154102000000002,-0.0309619999999987,0.0093802,0.0256480000000004,-0.0011863999999991,-0.0073719999999999,0,sub_5
-0.0135362000000002,-0.0313437999999987,0.0115906,0.0224780000000004,-0.003033199999999,-0.0084909999999999,0,sub_5
-0.0117930000000002,-0.0312099999999987,0.0125926,0.0188842000000004,-0.000844199999999,-0.0061997999999999,0,sub_5
-0.0110506000000002,-0.0313537999999987,0.0134718,0.0142322000000004,0.0047514000000009,-0.0024249999999999,0,sub_5
-0.0116852000000002,-0.0309561999999987,0.0137666,0.0100038000000004,0.0120406000000009,0.0037008,0,sub_5
-0.0122976000000002,-0.0304767999999987,0.0140152,0.0057936000000004,0.0233778000000009,0.0098214,0,sub_5
-0.0129238000000002,-0.0294831999999987,0.0151158,0.0043556000000004,0.0393474000000009,0.0134228,0,sub_5
-0.0132012000000002,-0.0300733999999987,0.0167828,0.0027214000000004,0.0542722000000009,0.0121104,0,sub_5
-0.0125530000000002,-0.0295999999999987,0.016381,0.0006336000000004,0.0621720000000009,0.0097356,0,sub_5
-0.0111456000000002,-0.0312825999999987,0.0137248000000001,-0.0023343999999995,0.0641092000000009,0.0073622,0,sub_5
-0.0099862000000002,-0.0312285999999987,0.0107468000000001,-0.0051179999999995,0.0594404000000009,0.0058378,0,sub_5
-0.0101774000000001,-0.0319961999999987,0.0071026000000001,-0.0111415999999995,0.0462600000000009,0.0045154,0,sub_5
-0.0110106000000001,-0.0321985999999987,0.0032336000000001,-0.0176225999999995,0.0281730000000009,0.0051188,0,sub_5
-0.0121680000000001,-0.0328771999999987,0.0015992000000001,-0.0215239999999995,0.0134892000000009,0.0048814000000001,0,sub_5
-0.0125344000000001,-0.0316783999999987,0.0047122,-0.0228369999999995,0.0028532000000009,0.0025204000000001,0,sub_5
-0.0123564000000001,-0.0313233999999987,0.0080468,-0.0234915999999995,-0.005220999999999,-0.0023875999999998,0,sub_5
-0.0109458000000001,-0.0313525999999986,0.010696,-0.0221979999999995,-0.0075477999999991,-0.0077165999999998,0,sub_5
-0.0089482000000001,-0.0304709999999987,0.0134568,-0.0182997999999995,-0.0002479999999991,-0.0143321999999998,0,sub_5
-0.0073008000000001,-0.0289219999999987,0.0159022,-0.0128685999999995,0.0138718000000009,-0.0228685999999999,0,sub_5
-0.0081708000000001,-0.0286523999999987,0.0174342,-0.0074517999999995,0.0250080000000008,-0.0311877999999999,0,sub_5
-0.0075138000000002,-0.0284991999999987,0.017563,-0.0046307999999995,0.0308166000000008,-0.0369543999999999,0,sub_5
-0.0068782000000002,-0.0307657999999987,0.0153898,-0.0039877999999995,0.0298030000000009,-0.0397365999999999,0,sub_5
-0.0075268000000002,-0.0337415999999987,0.0141708,-0.0014779999999995,0.0208364000000009,-0.0373573999999999,0,sub_5
-0.0098570000000002,-0.0371061999999987,0.0141796,-0.0005155999999995,0.0044004000000009,-0.0304929999999999,0,sub_5
-0.0112918000000002,-0.0391659999999987,0.0132048,-0.0027309999999995,-0.006911199999999,-0.0236571999999999,0,sub_5
-0.0113092000000002,-0.0424163999999987,0.0110194,-0.0041285999999995,-0.014820999999999,-0.0187701999999999,0,sub_5
-0.0119118000000002,-0.0428901999999987,0.0112118,-0.0014691999999995,-0.022105799999999,-0.0138555999999999,0,sub_5
-0.0120506000000001,-0.0418843999999987,0.0120624,-0.0017845999999995,-0.026822599999999,-0.0091787999999999,0,sub_5
-0.0117718000000001,-0.0395577999999987,0.011419,-0.0035763999999995,-0.027699199999999,-0.0045171999999999,0,sub_5
-0.0102634000000001,-0.0374791999999987,0.0101404,-0.0038771999999995,-0.029007999999999,0.000369,0,sub_5
-0.0110926000000001,-0.0353503999999987,0.0106482,-0.0024037999999995,-0.028606599999999,0.0052926,0,sub_5
-0.0119114000000001,-0.0336249999999987,0.0122292,-0.0028303999999995,-0.024997599999999,0.008917,0,sub_5
-0.0117620000000001,-0.0324169999999987,0.011989,-0.0038799999999995,-0.020097999999999,0.0099716,0,sub_5
-0.0098890000000001,-0.0334403999999987,0.0114622,-0.0045921999999995,-0.015868399999999,0.0086616,0,sub_5
-0.0078838000000001,-0.0341163999999987,0.011972,-0.0044673999999995,-0.015051399999999,0.0075756,0,sub_5
-0.0068208000000001,-0.0338569999999987,0.0133076,-0.0043491999999995,-0.014664799999999,0.0075584,0,sub_5
-0.0067824000000001,-0.0338693999999987,0.0145956,-0.0037889999999995,-0.011295199999999,0.007113,0,sub_5
-0.0073194000000001,-0.0347131999999987,0.0151964,-0.0017321999999995,-0.007715999999999,0.0062506,0,sub_5
-0.0079232000000001,-0.0351095999999987,0.01571,0.0025496000000004,-0.005383799999999,0.005423,0,sub_5
-0.0089706000000002,-0.0352579999999987,0.0160822,0.0064124000000004,-0.001345799999999,0.0045902,0,sub_5
-0.0101002000000002,-0.0348389999999987,0.0154424,0.0085710000000004,0.0037618000000009,0.0041714,0,sub_5
-0.0102874000000002,-0.0345035999999987,0.0136028,0.0095730000000004,0.0055626000000009,0.004791,0,sub_5
-0.0104622000000002,-0.0342219999999987,0.0128026,0.0090698000000003,0.0052364000000009,0.00583,0,sub_5
-0.0108496000000002,-0.0330571999999987,0.0116064,0.0055776000000003,0.0047068000000009,0.007062,0,sub_5
-0.0110754000000002,-0.0323029999999987,0.0105182,0.0020900000000004,0.0037570000000009,0.006799,0,sub_5
-0.0112812000000001,-0.0319095999999987,0.010289,9.820000000040347e-05,0.0019548000000009,0.0052658,0,sub_5
-0.0118402000000001,-0.0316373999999987,0.0106016,-0.0003189999999995,0.0006916000000009,0.0018462,0,sub_5
-0.0125470000000001,-0.0317493999999987,0.0109108,-9.419999999957648e-05,6.460000000097873e-05,-0.0013559999999999,0,sub_5
-0.0128954000000001,-0.0330353999999987,0.011005,0.0011946000000004,-0.000568799999999,-0.0039097999999999,0,sub_5
-0.0134684000000001,-0.0343167999999987,0.0113766,0.0022476000000004,-0.001320399999999,-0.0039029999999999,0,sub_5
-0.0134220000000001,-0.0360703999999987,0.011865,0.0022250000000004,-0.002712399999999,-0.0026211999999999,0,sub_5
-0.0130546000000001,-0.0361831999999987,0.0124286,0.0002744000000004,-0.004104599999999,0.0003564,0,sub_5
-0.0126010000000001,-0.0360399999999987,0.0132408,-0.0010321999999995,-0.005071399999999,0.0029106,0,sub_5
-0.0120678000000001,-0.0351257999999987,0.0138666,-0.0016919999999995,-0.004973399999999,0.0050406,0,sub_5
-0.0113082000000001,-0.0343395999999987,0.0139536,-0.0014823999999995,-0.004977599999999,0.0058966,0,sub_5
-0.0106374000000001,-0.0330065999999987,0.0131624,-0.0014813999999995,-0.004976799999999,0.005683,0,sub_5
-0.0103992000000001,-0.0333153999999987,0.0124228,0.0004418000000004,-0.005193199999999,0.004842,0,sub_5
-0.0106864000000001,-0.0330645999999987,0.0120112,0.0019452000000004,-0.005059199999999,0.003838,0,sub_5
-0.0109456000000001,-0.0338395999999987,0.0116588,0.0025932000000004,-0.005348399999999,0.0028286,0,sub_5
-0.0115310000000001,-0.0345777999999987,0.0115592,0.0019572000000004,-0.005636599999999,0.0026648,0,sub_5
-0.0122712000000001,-0.0344859999999987,0.0122744,0.0019602000000004,-0.005503399999999,0.0031458,0,sub_5
-0.0128816000000001,-0.0341229999999987,0.0124468,0.0002612000000004,-0.004511199999999,0.0034004,0,sub_5
-0.0127438000000001,-0.0348231999999987,0.0118202,-0.0010227999999995,-0.004510199999999,0.004246,0,sub_5
-0.0126944000000001,-0.0346521999999987,0.011851,-0.0016733999999995,-0.005366199999999,0.0057382,0,sub_5
-0.0121790000000001,-0.0343247999999987,0.0122682,-0.0016791999999995,-0.005583399999999,0.0068068,0,sub_5
-0.0115632000000002,-0.0351015999999987,0.0125448,-0.0008245999999995,-0.005161199999999,0.007026,0,sub_5
-0.0116908000000002,-0.0358795999999987,0.013002,0.0008906000000004,-0.005601599999999,0.0077096,0,sub_5
-0.0119308000000002,-0.0359231999999987,0.0131048,0.0021802000000004,-0.006251799999999,0.0079632,0,sub_5
-0.0125818000000002,-0.0357291999999987,0.0132762,0.0030564000000004,-0.004342199999999,0.0077834,0,sub_5
-0.0129448000000002,-0.0349371999999987,0.0122422,0.0032858000000004,-0.003072799999999,0.0084544,0,sub_5
-0.0131398000000002,-0.0340623999999987,0.0108086,0.0022196000000004,-0.003722399999999,0.0106144,0,sub_5
-0.0130550000000002,-0.0332641999999987,0.0103884,0.0004984000000004,-0.0050023999999991,0.0125268,0,sub_5
-0.0130324000000002,-0.0321399999999987,0.0102736,-0.0029367999999995,-0.0067067999999991,0.015496,0,sub_5
-0.0126082000000002,-0.0319427999999987,0.0097898,-0.0085115999999995,-0.010104999999999,0.0186734,0,sub_5
-0.0120032000000002,-0.0324639999999987,0.0096322,-0.0140835999999995,-0.014773999999999,0.0199298,0,sub_5
-0.0113398000000002,-0.0327455999999987,0.0102154,-0.0181447999999995,-0.017947399999999,0.0188446,0,sub_5
-0.0104344000000002,-0.0325873999999987,0.0112152,-0.0215467999999995,-0.017498399999999,0.0171184,0,sub_5
-0.0101374000000002,-0.0336547999999986,0.0131038,-0.0228003999999995,-0.014497799999999,0.0147632,0,sub_5
-0.0100610000000002,-0.0348939999999987,0.0139558,-0.0219257999999995,-0.012147799999999,0.0124162,0,sub_5
-0.0101486000000002,-0.0364597999999987,0.0150904,-0.0191279999999995,-0.008316399999999,0.0109352,0,sub_5
-0.0101792000000002,-0.0380685999999987,0.016386,-0.0146261999999995,-0.004917999999999,0.0096804,0,sub_5
-0.0105318000000002,-0.0403119999999987,0.0166938,-0.0088409999999995,-0.001309399999999,0.0080072,0,sub_5
-0.0112878000000001,-0.0426755999999987,0.017161,0.0001554000000004,0.0035768000000009,0.0048598,0,sub_5
-0.0118276000000001,-0.0443465999999987,0.0188332,0.0119276000000004,0.0086672000000009,0.001518,0,sub_5
-0.0108076000000001,-0.0455615999999987,0.0207278,0.0256220000000004,0.0141768000000009,-0.0018109999999999,0,sub_5
-0.0097674000000001,-0.0459547999999987,0.0218254,0.0389024000000004,0.0233064000000009,-0.0042929999999999,0,sub_5
-0.0086760000000001,-0.0454103999999987,0.0219132,0.0506812000000004,0.0324344000000009,-0.0050763999999999,0,sub_5
-0.0078482000000002,-0.0416167999999987,0.019552,0.0581714000000004,0.0385816000000009,-0.0037501999999999,0,sub_5
-0.0083268000000002,-0.0376807999999987,0.0154338,0.0622340000000004,0.0428190000000009,-0.0013771999999999,0,sub_5
-0.0111970000000002,-0.0330269999999987,0.0110392,0.0622236000000003,0.0445232000000009,0.0022442,0,sub_5
-0.0148680000000002,-0.0275369999999987,0.0053746,0.0562002000000003,0.0400604000000009,0.0081816,0,sub_5
-0.0184972000000002,-0.0225219999999987,2.6400000000094405e-05,0.0439576000000003,0.0302860000000009,0.0157914,0,sub_5
-0.0221310000000002,-0.0223499999999987,-0.0036963999999999,0.0289218000000003,0.0166848000000009,0.023814,0,sub_5
-0.0240338000000002,-0.0223423999999987,-0.0042335999999999,0.0132296000000004,-0.000323999999999,0.03205,0,sub_5
-0.0242908000000002,-0.0237931999999987,-0.0028863999999998,-0.0026683999999995,-0.018189999999999,0.0381576,0,sub_5
-0.0230592000000001,-0.0278517999999987,0.0019022,-0.0132031999999995,-0.033078199999999,0.0408806,0,sub_5
-0.0207308000000001,-0.0326643999999987,0.0079154,-0.0175215999999995,-0.045415999999999,0.0397982,0,sub_5
-0.0169086000000001,-0.0359877999999987,0.0145156,-0.0168881999999995,-0.051153799999999,0.0355372,0,sub_5
-0.0130000000000001,-0.0400685999999987,0.0201256,-0.0121447999999995,-0.047495799999999,0.0276438,0,sub_5
-0.0088236000000001,-0.0406811999999987,0.0225884,-0.0054521999999995,-0.037877399999999,0.0193292,0,sub_5
-0.0056574000000002,-0.0397607999999987,0.0223592,0.0003992000000004,-0.025698599999999,0.0107918,0,sub_5
-0.0031870000000002,-0.0379809999999987,0.0213514,0.0062488000000004,-0.012672799999999,0.0035352,0,sub_5
