userAcceleration.x,userAcceleration.y,userAcceleration.z,rotationRate.x,rotationRate.y,rotationRate.z,label,subject
0.0057875999999997,0.0020632000000012,-0.0022153999999998,0.0008300000000004,-0.006408999999999,0.0030162,0,sub_16
0.0057789999999997,0.0016042000000011,-0.0024049999999998,0.0002110000000004,-0.003417199999999,0.0012988,0,sub_16
0.0041889999999997,0.0021654000000011,-0.0024185999999998,-0.0001973999999995,-0.000640999999999,1.0600000000085996e-05,0,sub_16
0.0023881999999997,0.0034252000000011,-0.0025585999999998,-0.0006255999999994,0.0001838000000009,-0.0001839999999999,0,sub_16
0.0009623999999997,0.0044748000000011,-0.0019595999999999,-0.0010671999999994,-0.000913199999999,0.000692,0,sub_16
7.739999999979806e-05,0.0049054000000011,-0.0018591999999998,-0.0013001999999995,-0.003076199999999,0.0015710000000001,0,sub_16
0.0002781999999997,0.0050010000000011,-0.0015639999999998,-0.0008959999999995,-0.005456199999999,0.0028818000000001,0,sub_16
0.0018433999999997,0.0043528000000011,-0.0017363999999999,-0.0007013999999995,-0.007195399999999,0.0039768,0,sub_16
0.0026459999999997,0.0036272000000011,-0.0015337999999998,-0.0004947999999995,-0.008263199999999,0.004407,0,sub_16
0.0033815999999997,0.0026686000000011,-0.0022687999999998,-6.319999999953715e-05,-0.007835999999999,0.0037686,0,sub_16
0.0041113999999997,0.0022986000000011,-0.0024249999999998,-5.559999999953714e-05,-0.006980399999999,0.0029128,0,sub_16
0.0038915999999997,0.0026608000000011,-0.0025637999999998,-0.0004697999999995,-0.005270199999999,0.0018396,0,sub_16
0.0030805999999997,0.0037110000000011,-0.0021157999999998,-0.0006847999999995,-0.003821999999999,0.0010152,0,sub_16
0.0028809999999997,0.0039710000000011,-0.0017727999999999,-0.0013349999999995,-0.003228799999999,0.001257,0,sub_16
0.0024285999999997,0.0051332000000011,-0.0016961999999999,-0.0019957999999995,-0.003918199999999,0.0025688,0,sub_16
0.0023743999999997,0.0048668000000011,-0.0014057999999999,-0.0022317999999995,-0.004822999999999,0.0040976,0,sub_16
0.0023101999999997,0.0042748000000012,-0.0012593999999999,-0.0026831999999995,-0.006153199999999,0.0056252,0,sub_16
0.0028541999999997,0.0030678000000011,-0.0012559999999999,-0.0031185999999995,-0.006795999999999,0.0069048,0,sub_16
0.0028469999999997,0.0028718000000011,-0.0017005999999999,-0.0026871999999995,-0.006156599999999,0.0064798,0,sub_16
0.0029757999999997,0.0021396000000011,-0.0010669999999999,-0.0016295999999995,-0.005364599999999,0.0056724,0,sub_16
0.0024845999999997,0.0026082000000011,-0.0008501999999999,-0.0009965999999995,-0.004357199999999,0.0046482,0,sub_16
0.0026251999999997,0.0022834000000011,-0.0008749999999999,-0.0001559999999995,-0.003992199999999,0.0042672,0,sub_16
0.0028167999999997,0.0023308000000012,-0.0012967999999999,-0.0001745999999995,-0.004902399999999,0.0038818,0,sub_16
0.0025225999999997,0.0023408000000012,-0.0010917999999999,-0.0004143999999995,-0.006879799999999,0.0041372,0,sub_16
0.0031263999999997,0.0023286000000012,-0.0020331999999999,-0.0014879999999995,-0.008155199999999,0.004345,0,sub_16
0.0037359999999997,0.0020460000000012,-0.0022369999999999,-0.0023425999999994,-0.008152999999999,0.0045526,0,sub_16
0.0040197999999997,0.0021302000000012,-0.0023749999999999,-0.0025493999999995,-0.007297399999999,0.0039092,0,sub_16
0.0033785999999997,0.0023346000000012,-0.0022569999999999,-0.0019161999999995,-0.006276399999999,0.0030908,0,sub_16
0.0035755999999997,0.0024664000000012,-0.0022695999999999,-0.0012827999999995,-0.005042999999999,0.0024858,0,sub_16
0.0028941999999997,0.0030554000000012,-0.0017463999999999,-0.0008665999999995,-0.004448999999999,0.0020938,0,sub_16
0.0024243999999997,0.0036448000000012,-0.0017353999999998,-0.0004561999999995,-0.005133199999999,0.0017032,0,sub_16
0.0023853999999997,0.0041832000000011,-0.0016375999999998,-0.0004753999999995,-0.006030799999999,0.0017372,0,sub_16
0.0026869999999997,0.0044336000000011,-0.0017557999999998,-0.0009039999999995,-0.006030999999999,0.0021616,0,sub_16
0.0027143999999997,0.0048112000000011,-0.0016551999999998,-0.0017583999999995,-0.005604599999999,0.002796,0,sub_16
0.0024621999999997,0.0045792000000011,-0.0018609999999998,-0.0017573999999995,-0.005179199999999,0.003009,0,sub_16
0.0025785999999997,0.0042610000000011,-0.0017931999999999,-0.0015439999999995,-0.004755599999999,0.0034374,0,sub_16
0.0018905999999997,0.0044166000000011,-0.0015581999999999,-0.0013409999999995,-0.004778199999999,0.00367,0,sub_16
0.0016291999999997,0.0039564000000011,-0.0013403999999999,-0.0009265999999995,-0.005439799999999,0.0036912,0,sub_16
0.0019171999999997,0.0033706000000011,-0.0017273999999999,-0.0007235999999995,-0.006098799999999,0.0032836,0,sub_16
0.0025253999999997,0.0028992000000011,-0.0011745999999999,-0.0007311999999995,-0.005905799999999,0.0030872,0,sub_16
0.0027977999999997,0.0024496000000011,-0.0009815999999999,-0.0009501999999995,-0.005710399999999,0.002462,0,sub_16
0.0032895999999997,0.0024828000000012,-0.0008389999999999,-0.0015883999999995,-0.005706399999999,0.0020304,0,sub_16
0.0032457999999997,0.0030128000000012,-0.0006281999999999,-0.0015855999999995,-0.005491599999999,0.001603,0,sub_16
0.0032255999999997,0.0030880000000012,-0.0010287999999999,-0.0018027999999995,-0.005067999999999,0.00182,0,sub_16
0.0028001999999997,0.0032986000000012,-0.0015759999999999,-0.0020237999999995,-0.005284399999999,0.0022514,0,sub_16
0.0024401999999997,0.0038928000000012,-0.0020963999999999,-0.0022445999999995,-0.005076399999999,0.0031096,0,sub_16
0.0023445999999997,0.0035476000000011,-0.0025673999999998,-0.0020377999999995,-0.004444599999999,0.0041838,0,sub_16
0.0027071999999997,0.0033460000000011,-0.0025915999999998,-0.0026815999999995,-0.003382799999999,0.0050378,0,sub_16
0.0024229999999997,0.0038154000000011,-0.0021947999999998,-0.0026805999999995,-0.002533199999999,0.0056776,0,sub_16
0.0027451999999997,0.0038810000000011,-0.0022343999999998,-0.0024633999999995,-0.001681799999999,0.005678,0,sub_16
0.0029697999999997,0.0035396000000011,-0.0018469999999998,-0.0016071999999995,-0.001469999999999,0.0052564,0,sub_16
0.0029029999999997,0.0034314000000012,-0.0016809999999999,-0.0011765999999995,-0.001459199999999,0.0043976,0,sub_16
0.0028053999999997,0.0029722000000012,-0.0021699999999999,-0.0005411999999995,-0.002730199999999,0.0041828,0,sub_16
0.0029499999999997,0.0028178000000012,-0.0017539999999999,9.600000000046282e-05,-0.004211599999999,0.0033274,0,sub_16
0.0034643999999997,0.0030896000000012,-0.0018501999999999,9.220000000046284e-05,-0.005479399999999,0.0028946,0,sub_16
0.0035961999999997,0.0033034000000012,-0.0019119999999999,-0.0003363999999995,-0.005895199999999,0.0028848,0,sub_16
0.0037843999999997,0.0032918000000012,-0.0018959999999999,-0.0007611999999995,-0.005467599999999,0.0028812,0,sub_16
0.0040641999999997,0.0038470000000012,-0.0017163999999999,-0.0011793999999995,-0.004397399999999,0.0020224,0,sub_16
0.0041077999999997,0.0037296000000012,-0.0021839999999999,-0.0013879999999995,-0.003755799999999,0.0015928,0,sub_16
0.0032795999999997,0.0035006000000012,-0.0016915999999999,-0.0011663999999995,-0.002883199999999,0.0013664,0,sub_16
0.0028521999999997,0.0036442000000012,-0.0018519999999999,-0.0011611999999995,-0.002648999999999,0.0011394,0,sub_16
0.0026383999999997,0.0038418000000011,-0.0021219999999999,-0.0007321999999995,-0.003055599999999,0.0009162,0,sub_16
0.0027355999999997,0.0040080000000011,-0.0022913999999999,-9.05999999995372e-05,-0.003251399999999,0.0011214,0,sub_16
0.0026711999999997,0.0041060000000011,-0.0020213999999999,-0.0002995999999995,-0.002805199999999,0.0013198,0,sub_16
0.0029789999999997,0.0044304000000011,-0.0023221999999999,-0.0005111999999995,-0.002378399999999,0.0013178,0,sub_16
0.0033309999999997,0.0048148000000011,-0.0019847999999999,-0.0007215999999995,-0.001738599999999,0.0013154,0,sub_16
0.0035733999999997,0.0051004000000012,-0.0016031999999999,-0.0005071999999995,-0.001313999999999,0.0015298,0,sub_16
0.0031965999999997,0.0047588000000012,-0.0008295999999999,-0.0007209999999995,-0.001929199999999,0.002155,0,sub_16
0.0031883999999997,0.0035982000000012,-1.4599999999918064e-05,-0.0009425999999995,-0.004036399999999,0.0029958,0,sub_16
0.0034969999999997,0.0015964000000012,2.4200000000081883e-05,-0.0013831999999995,-0.008270199999999,0.002983,0,sub_16
0.0043873999999997,0.0006522000000012,-0.0006653999999999,-0.0020381999999995,-0.013564999999999,0.0021158000000001,0,sub_16
0.0046931999999997,-0.0005799999999987,-0.0019437999999999,-0.0033237999999995,-0.017151599999999,0.0008146000000001,0,sub_16
0.0043565999999997,-0.0002479999999987,-0.0040949999999999,-0.0043811999999995,-0.016927199999999,-0.0011157999999998,0,sub_16
0.0036585999999997,0.0018660000000012,-0.0058369999999999,-0.0043503999999995,-0.012019399999999,-0.0030445999999998,0,sub_16
0.0022097999999997,0.0048900000000012,-0.0061227999999999,-0.0047329999999995,-0.0028539999999991,-0.0036997999999998,0,sub_16
0.0006845999999997,0.0065972000000012,-0.0053293999999999,-0.0042529999999995,0.0084618000000008,-0.0028733999999999,0,sub_16
-3.8000000000201935e-05,0.0085640000000012,-0.0033767999999999,-0.0029365999999995,0.0172130000000008,-0.0007557999999999,0,sub_16
0.0002325999999997,0.0096516000000012,-0.0007769999999999,-0.0016499999999995,0.0199962000000008,0.00201,0,sub_16
0.0009575999999997,0.0094800000000012,0.0016022,-0.0003893999999995,0.0174512000000008,0.0052098,0,sub_16
0.0028039999999997,0.0080068000000012,0.0029938,0.0014942000000004,0.0106446000000009,0.0079922,0,sub_16
0.0046677999999997,0.0050268000000012,0.003607,0.0031456000000004,-2.079999999908821e-05,0.0097266,0,sub_16
0.0062609999999997,0.0014992000000012,0.003421,0.0039434000000004,-0.012380799999999,0.009748,0,sub_16
0.0081101999999997,-0.0017837999999987,0.001839,0.0036868000000004,-0.022604199999999,0.0091184,0,sub_16
0.0092379999999997,-0.0043655999999987,-0.0011235999999999,0.0017424000000004,-0.029409199999999,0.007618,0,sub_16
0.0093723999999997,-0.0053333999999987,-0.0035971999999999,-0.0005945999999995,-0.030644199999999,0.0056594,0,sub_16
0.0072851999999997,-0.0033115999999987,-0.0061795999999999,-0.0035429999999995,-0.025273199999999,0.003902,0,sub_16
0.0040605999999998,0.0002690000000012,-0.0076033999999999,-0.0068911999999995,-0.013510799999999,0.0025608,0,sub_16
0.0003491999999998,0.0039760000000011,-0.0068403999999999,-0.0083037999999995,0.0018660000000009,0.0014422,0,sub_16
-0.0022592000000001,0.0071050000000011,-0.0044201999999999,-0.0075921999999995,0.0153170000000009,0.0005546,0,sub_16
-0.0037848000000001,0.0091732000000011,-0.0023781999999999,-0.0058459999999995,0.0231974000000009,-0.0002977999999998,0,sub_16
-0.0025490000000001,0.0096048000000011,0.000323,-0.0024185999999995,0.0251074000000009,-0.0013445999999998,0,sub_16
0.0003337999999998,0.0085476000000011,0.0021648,0.0020578000000004,0.0215018000000009,-0.0023959999999998,0,sub_16
0.0031127999999998,0.0053332000000011,0.0029302,0.0058702000000004,0.0129966000000009,-0.0030185999999998,0,sub_16
0.0059251999999997,0.0019326000000011,0.0021348,0.0079660000000004,0.0019424000000009,-0.0040771999999998,0,sub_16
0.0085009999999997,-0.0010869999999988,0.0010912000000001,0.0081444000000004,-0.008465799999999,-0.0051499999999998,0,sub_16
0.0098277999999998,-0.0028491999999987,-0.0013493999999998,0.0064216000000004,-0.014394199999999,-0.0060281999999998,0,sub_16
0.0100521999999998,-0.0030935999999987,-0.0037207999999998,0.0034402000000004,-0.013105399999999,-0.0060507999999998,0,sub_16
0.0092587999999997,-0.0010037999999987,-0.0056099999999998,-0.0005801999999995,-0.005846399999999,-0.0063017999999998,0,sub_16
0.0066913999999997,0.0020916000000012,-0.0054559999999998,-0.0039403999999995,0.0063088000000009,-0.0061271999999998,0,sub_16
0.0031801999999997,0.0055164000000012,-0.0045883999999999,-0.0055843999999995,0.0195488000000009,-0.0057447999999998,0,sub_16
-0.0003148000000002,0.0080978000000012,-0.0023795999999999,-0.0057471999999995,0.0295894000000009,-0.0057753999999998,0,sub_16
-0.0026852000000002,0.0090388000000011,-3.3799999999918185e-05,-0.0040231999999995,0.0319542000000009,-0.0059965999999998,0,sub_16
-0.0034458000000002,0.0094638000000011,0.0015978,-0.0004057999999995,0.0281346000000009,-0.0064103999999999,0,sub_16
-0.0022294000000002,0.0086926000000011,0.0024444,0.0036184000000004,0.0194150000000009,-0.0072421999999999,0,sub_16
5.139999999979831e-05,0.0067420000000011,0.0018788,0.0072054000000004,0.0102418000000009,-0.0074191999999999,0,sub_16
0.0031027999999997,0.0042646000000011,0.0007172,0.0090854000000004,0.0017114000000009,-0.0069677999999999,0,sub_16
0.0066889999999997,0.0011924000000012,-0.0013897999999999,0.0094890000000004,-0.003403199999999,-0.0069583999999999,0,sub_16
0.0094037999999997,-0.0007327999999987,-0.0033651999999999,0.0077910000000004,-0.003585199999999,-0.0069805999999999,0,sub_16
0.0110847999999997,-0.0017257999999987,-0.0054707999999999,0.0046262000000004,0.0026278000000009,-0.0065941999999999,0,sub_16
0.0103297999999997,-0.0005279999999987,-0.0057495999999999,0.0010540000000004,0.0124668000000009,-0.0068559999999999,0,sub_16
0.0078713999999997,0.0012648000000012,-0.0056443999999999,-0.0012341999999995,0.0227290000000009,-0.0075367999999999,0,sub_16
0.0044155999999997,0.0044078000000012,-0.0044569999999999,-0.0022555999999995,0.0302162000000009,-0.0079913999999999,0,sub_16
0.0010971999999997,0.0065354000000012,-0.0021717999999999,-0.0016001999999995,0.0331984000000009,-0.0084179999999999,0,sub_16
-0.0015432000000002,0.0080134000000012,-0.0007121999999999,0.0005190000000004,0.0304196000000009,-0.0079723999999999,0,sub_16
-0.0021808000000002,0.0076804000000012,0.0004038,0.0028180000000004,0.0214564000000009,-0.0062357999999999,0,sub_16
-0.0008574000000002,0.0058640000000012,0.001032,0.0048894000000004,0.0090860000000009,-0.0047099999999998,0,sub_16
0.0009815999999997,0.0037690000000012,0.0003830000000001,0.0061192000000004,-0.001971199999999,-0.0034259999999998,0,sub_16
0.0039587999999997,0.0015996000000012,-0.0012769999999998,0.0060852000000004,-0.009614399999999,-0.0023687999999998,0,sub_16
0.0056759999999997,0.0004756000000012,-0.0023175999999998,0.0047968000000004,-0.011924999999999,-0.0017543999999998,0,sub_16
0.0066869999999997,-0.0001585999999987,-0.0036371999999998,0.0031076000000004,-0.009330399999999,-0.0020035999999998,0,sub_16
0.0059119999999997,0.0011264000000012,-0.0040487999999998,0.0007868000000004,-0.003967399999999,-0.0014061999999999,0,sub_16
0.0043087999999997,0.0032220000000012,-0.0029029999999998,-0.0021839999999995,0.0007260000000009,-0.0003647999999999,0,sub_16
0.0017793999999997,0.0052390000000012,-0.0023157999999998,-0.0038861999999995,0.0032828000000009,0.0011156,0,sub_16
0.0007069999999997,0.0063856000000012,-0.0018585999999998,-0.0041027999999995,0.0022230000000009,0.0023828,0,sub_16
0.0001803999999997,0.0072114000000012,-0.0010835999999998,-0.0030467999999995,-0.000970199999999,0.0032342,0,sub_16
0.0008887999999997,0.0067428000000011,-0.0006789999999999,-0.0015619999999995,-0.004162999999999,0.0036612,0,sub_16
0.0021259999999997,0.0056732000000011,-0.0013609999999999,0.0005676000000004,-0.006929599999999,0.0034514,0,sub_16
0.0038157999999997,0.0041058000000011,-0.0016307999999999,0.0020610000000004,-0.008841799999999,0.003236,0,sub_16
0.0055661999999997,0.0027076000000011,-0.0019321999999999,0.0031298000000004,-0.009055999999999,0.0026028,0,sub_16
0.0071753999999997,0.0020122000000011,-0.0024177999999999,0.0022868000000004,-0.007345999999999,0.0019538,0,sub_16
0.0071411999999997,0.0016966000000012,-0.0025243999999999,0.0012362000000004,-0.004144799999999,0.0015152,0,sub_16
0.0067945999999997,0.0015950000000012,-0.0024721999999999,-0.0002411999999995,-0.000729799999999,0.0012868,0,sub_16
0.0054599999999997,0.0021876000000012,-0.0022991999999999,-0.0019325999999995,0.0014046000000009,0.0006346,0,sub_16
0.0035325999999997,0.0033218000000011,-0.0020283999999999,-0.0032039999999995,0.0022582000000009,0.0002006,0,sub_16
0.0020197999999997,0.0043070000000011,-0.0022273999999999,-0.0027759999999995,0.0020380000000009,0.0004208,0,sub_16
0.0015749999999997,0.0050166000000011,-0.0023159999999999,-0.0025653999999995,0.0007542000000009,0.0004272,0,sub_16
0.0013875999999997,0.0051836000000011,-0.0024397999999999,-0.0014981999999995,0.0003188000000009,0.0006522,0,sub_16
0.0018019999999997,0.0052118000000011,-0.0021411999999999,-0.0002189999999995,0.0005256000000009,0.0010882,0,sub_16
0.0024833999999997,0.0043502000000012,-0.0022673999999999,0.0006404000000004,0.0015888000000009,0.0008792,0,sub_16
0.0028675999999997,0.0038968000000012,-0.0020443999999999,0.0008560000000004,0.0028388000000009,0.0004692,0,sub_16
0.0034037999999997,0.0034284000000012,-0.0019459999999999,0.0014964000000004,0.0038732000000009,0.0002762,0,sub_16
0.0029853999999997,0.0032936000000012,-0.0015917999999998,0.0017042000000004,0.0038430000000009,0.0002952000000001,0,sub_16
0.0027373999999997,0.0030898000000012,-0.0016825999999998,0.0016968000000004,0.0035998000000009,0.0005266000000001,0,sub_16
0.0027667999999997,0.0025336000000012,-0.0016495999999998,0.0010396000000004,0.0020770000000009,0.0016096000000001,0,sub_16
0.0033175999999997,0.0022550000000011,-0.0016413999999998,0.0003870000000004,-0.000266199999999,0.0020354,0,sub_16
0.0035655999999997,0.0024888000000011,-0.0021111999999998,0.0001678000000004,-0.001755999999999,0.001822,0,sub_16
0.0043133999999997,0.0026438000000011,-0.0023389999999998,-0.0002569999999995,-0.001964999999999,0.0011784,0,sub_16
0.0048605999999997,0.0028640000000011,-0.0022557999999998,-0.0006825999999995,-0.000948199999999,0.000132,0,sub_16
0.0043937999999997,0.0042034000000011,-0.0019469999999998,-0.0004659999999995,0.0002804000000009,-0.0011237999999999,0,sub_16
0.0031031999999997,0.0044284000000011,-0.0016119999999998,-3.999999999953733e-05,0.0010804000000009,-0.0019501999999999,0,sub_16
0.0024749999999997,0.0045296000000011,-0.0016949999999998,0.0001622000000004,0.0001742000000009,-0.0021349999999999,0,sub_16
0.0025531999999997,0.0048270000000012,-0.0017893999999999,0.0001480000000004,-0.000945999999999,-0.0018937999999999,0,sub_16
0.0025301999999997,0.0046274000000011,-0.0019359999999999,0.0003538000000004,-0.002226799999999,-0.0014633999999999,0,sub_16
0.0032617999999997,0.0042996000000011,-0.0021259999999999,0.0001366000000004,-0.002441599999999,-0.0008235999999999,0,sub_16
0.0036637999999997,0.0044124000000011,-0.0023313999999999,-7.57999999995374e-05,-0.001803399999999,-0.0003985999999999,0,sub_16
0.0036411999999997,0.0040666000000011,-0.0024033999999998,-0.0005023999999995,-0.000129399999999,-0.0001709999999999,0,sub_16
0.0033319999999997,0.0036142000000011,-0.0020259999999998,-0.0007193999999995,0.0006914000000009,5.900000000008607e-05,0,sub_16
0.0028585999999997,0.0037302000000012,-0.0022463999999998,-0.0005107999999995,0.0010856000000009,7.900000000008607e-05,0,sub_16
0.0022507999999997,0.0034264000000011,-0.0019203999999998,-0.0005193999999995,0.0006282000000009,9.860000000008608e-05,0,sub_16
0.0024945999999997,0.0035722000000011,-0.0020209999999998,-0.0003173999999995,-0.000256799999999,0.0003338,0,sub_16
0.0028529999999997,0.0039446000000011,-0.0015431999999999,0.0001074000000004,-0.000684399999999,0.0003372,0,sub_16
0.0029867999999997,0.0037010000000011,-0.0018233999999999,0.0005350000000004,-0.000684999999999,0.0001266,0,sub_16
0.0028519999999997,0.0037616000000011,-0.0013487999999999,0.0001054000000004,-0.001322599999999,0.0001244000000001,0,sub_16
0.0028647999999997,0.0045458000000012,-0.0017095999999999,0.0003130000000004,-0.001334999999999,0.0001346000000001,0,sub_16
0.0027383999999997,0.0045540000000012,-0.0015701999999999,-0.0001213999999995,-0.001346799999999,0.0005676000000001,0,sub_16
0.0026477999999997,0.0045444000000012,-0.0016309999999999,-0.0009863999999995,-0.001997399999999,0.0012122000000001,0,sub_16
0.0022333999999997,0.0050934000000012,-0.0018563999999999,-0.0007825999999995,-0.002225399999999,0.0018636000000001,0,sub_16
0.0023771999999997,0.0050470000000012,-0.0019533999999999,-0.0007939999999995,-0.002454399999999,0.0029408,0,sub_16
0.0026943999999997,0.0047918000000012,-0.0020153999999999,-0.0012235999999995,-0.002455399999999,0.0035786,0,sub_16
0.0029145999999997,0.0046762000000012,-0.0020391999999999,-0.0010073999999995,-0.001816999999999,0.0035792,0,sub_16
0.0029117999999997,0.0043232000000012,-0.0017483999999999,-0.0001499999999995,-0.001179999999999,0.0033708,0,sub_16
0.0030869999999997,0.0041118000000012,-0.0017373999999999,6.100000000046268e-05,-0.001191399999999,0.0033764,0,sub_16
0.0030415999999997,0.0038204000000012,-0.0020977999999999,-0.0001489999999995,-0.000559599999999,0.0027374,0,sub_16
0.0027279999999997,0.0029100000000012,-0.0018701999999999,6.000000000046268e-05,-0.001209399999999,0.0025302,0,sub_16
0.0032881999999997,0.0019476000000012,-0.0021297999999998,-0.0001633999999995,-0.002923799999999,0.002535,0,sub_16
0.0034721999999997,0.0023328000000012,-0.0026643999999998,-0.0005991999999995,-0.004848599999999,0.0021112,0,sub_16
0.0037809999999997,0.0025998000000012,-0.0027253999999998,-0.0008095999999995,-0.004845399999999,0.0014688,0,sub_16
0.0042465999999997,0.0030790000000012,-0.0026245999999998,-0.0008037999999995,-0.003991599999999,0.0010404,0,sub_16
0.0043853999999997,0.0038726000000012,-0.0027683999999998,-0.0007949999999995,-0.002498599999999,0.0006114,0,sub_16
0.0032637999999997,0.0045796000000011,-0.0015913999999999,-0.0003567999999995,-0.000792199999999,-0.0002421999999999,0,sub_16
0.0030045999999997,0.0047074000000011,-0.0007393999999999,-0.0003529999999995,0.0006914000000009,-2.899999999993409e-05,0,sub_16
0.0026509999999997,0.0043830000000011,-0.0007399999999999,-0.0007825999999995,0.0006852000000009,0.0001832,0,sub_16
0.0025935999999997,0.0037806000000011,-0.0006691999999999,-0.0005769999999994,-0.000600599999999,0.0001878,0,sub_16
0.0024941999999997,0.0034728000000011,-0.0001291999999999,5.640000000050262e-05,-0.001887199999999,-1.839999999993413e-05,0,sub_16
0.0026765999999997,0.0028994000000012,-0.0006001999999999,4.9800000000482617e-05,-0.002959399999999,-1.5599999999934155e-05,0,sub_16
0.0026475999999997,0.0026242000000012,-0.0013183999999999,4.880000000046262e-05,-0.003172399999999,-1.539999999993415e-05,0,sub_16
0.0023345999999997,0.0032746000000012,-0.0015863999999999,-0.0001693999999995,-0.003600199999999,0.0006246,0,sub_16
0.0018503999999997,0.0034666000000012,-0.0017679999999999,3.760000000044262e-05,-0.004244599999999,0.0012696,0,sub_16
0.0022451999999997,0.0031918000000012,-0.0022317999999999,-0.0001849999999995,-0.005314399999999,0.0021258,0,sub_16
0.0029823999999997,0.0029204000000012,-0.0026677999999999,-0.0004017999999995,-0.005530399999999,0.0025536,0,sub_16
0.0038433999999997,0.0023918000000012,-0.0024353999999999,-0.0008261999999995,-0.005316199999999,0.002125,0,sub_16
0.0046243999999997,0.0013132000000012,-0.0018957999999998,-0.0010333999999995,-0.005311599999999,0.0006298,0,sub_16
0.0049503999999997,0.0018528000000012,-0.0025145999999998,-0.0014543999999995,-0.005304999999999,-0.0006549999999999,0,sub_16
0.0040509999999997,0.0030180000000012,-0.0025309999999998,-0.0018715999999995,-0.004446199999999,-0.0019407999999999,0,sub_16
0.0031361999999997,0.0046098000000012,-0.0029379999999998,-0.0020783999999995,-0.002953999999999,-0.0019441999999999,0,sub_16
0.0024207999999997,0.0056084000000012,-0.0032089999999998,-0.0020801999999995,-0.002319399999999,-0.0008757999999999,0,sub_16
0.0024071999999997,0.0065878000000011,-0.0031061999999999,-0.0018647999999995,-0.0006209999999991,0.0004064,0,sub_16
0.0026383999999997,0.0068238000000011,-0.0021857999999999,-0.0014349999999995,0.0015016000000008,0.0019032,0,sub_16
0.0033487999999997,0.0069130000000011,-0.0021653999999999,-0.0014309999999995,0.0040512000000008,0.0036102,0,sub_16
0.0037675999999997,0.0063306000000011,-0.0016151999999999,-0.0007877999999995,0.0057488000000008,0.0046818,0,sub_16
