userAcceleration.x,userAcceleration.y,userAcceleration.z,rotationRate.x,rotationRate.y,rotationRate.z,label,subject
0.0017867999999998,-0.0053525999999987,-0.0011407999999999,0.0909956000000005,0.0221342000000009,0.0773832000000001,0,sub_1
-0.0034000000000001,0.0084268000000012,0.0007982,0.0162068000000005,0.0610880000000009,0.0445504000000001,0,sub_1
-0.0069730000000001,0.0200424000000012,0.006579,-0.0555327999999994,0.0659440000000009,0.0113556000000001,0,sub_1
-0.0084314000000001,0.0251072000000012,0.006597,-0.0768459999999994,0.0433344000000009,-0.0169653999999998,0,sub_1
-0.0078908000000001,0.0263394000000012,0.0001068000000001,-0.0591801999999994,0.0077960000000009,-0.0426473999999998,0,sub_1
-0.0086062000000001,0.0221480000000012,-0.0096589999999998,-0.0332061999999994,-0.030329999999999,-0.0678407999999998,0,sub_1
0.0002983999999998,0.0162344000000012,-0.0150797999999998,-0.0016669999999994,-0.046602599999999,-0.0748631999999998,0,sub_1
0.0074949999999998,0.0139076000000012,-0.0169549999999998,0.0230826000000005,-0.035867799999999,-0.0633805999999998,0,sub_1
0.0108319999999998,0.0100018000000012,-0.0169219999999998,0.0386332000000005,-0.023424199999999,-0.0449139999999998,0,sub_1
0.0132603999999998,0.0028960000000012,-0.0145775999999999,0.0503354000000004,-0.011398399999999,-0.0251919999999998,0,sub_1
0.0158285999999998,-0.0009579999999987,-0.0106933999999999,0.0574092000000004,0.0123726000000009,-0.0082945999999998,0,sub_1
0.0098411999999998,-0.0019135999999987,-0.0065091999999999,0.0521448000000004,0.0307022000000009,-0.0053633999999998,0,sub_1
0.0057461999999998,-0.0055687999999987,-0.0032885999999999,0.0389632000000004,0.0320636000000009,-0.0144293999999998,0,sub_1
0.0056331999999998,-0.0063865999999987,-0.0015835999999999,0.0266200000000004,0.0281036000000009,-0.0254053999999998,0,sub_1
0.0090441999999998,-0.0024055999999987,-0.0038361999999998,0.0131860000000005,0.0262486000000009,-0.0289139999999998,0,sub_1
0.0085831999999998,0.0035180000000012,-0.0077849999999998,-0.0019891999999994,0.0235220000000009,-0.0260245999999998,0,sub_1
0.0057751999999998,0.0081476000000012,-0.0093823999999998,-0.0178271999999994,0.0186556000000009,-0.0203601999999998,0,sub_1
0.0027957999999998,0.0095670000000012,-0.0108249999999998,-0.0283301999999994,0.0154684000000009,-0.0133797999999998,0,sub_1
-0.0001546000000001,0.0087622000000012,-0.0144419999999998,-0.0260375999999994,0.0122298000000009,-0.0048145999999998,0,sub_1
-0.0023922000000001,0.0059422000000012,-0.0151721999999999,-0.0149887999999994,0.0070568000000009,0.0001820000000001,0,sub_1
-4.860000000017003e-05,0.0026592000000012,-0.0126217999999999,-0.0019927999999995,0.0061444000000009,0.0036916000000001,0,sub_1
0.0015101999999998,-0.0005065999999987,-0.0109409999999999,0.0099548000000004,0.0092840000000009,0.0071890000000001,0,sub_1
-0.0007506000000001,-0.0020825999999987,-0.0047335999999999,0.0152762000000004,0.0105266000000009,0.0114974000000001,0,sub_1
-0.0021010000000001,-0.0020397999999987,-0.0009043999999999,0.0101622000000004,0.0122478000000009,0.0116730000000001,0,sub_1
-0.0010184000000001,-0.0015465999999987,-0.0014557999999999,-0.0004839999999995,0.0140022000000009,0.0083918000000001,0,sub_1
0.0010569999999998,-0.0028685999999987,-0.0066293999999999,-0.0098399999999994,0.0146996000000009,0.0019162000000001,0,sub_1
0.0023583999999998,-0.0032133999999987,-0.0085795999999999,-0.0189627999999994,0.0185966000000009,-0.0056297999999998,0,sub_1
0.0040481999999998,0.0006418000000012,-0.0122511999999999,-0.0242145999999994,0.0316320000000009,-0.0108101999999998,0,sub_1
0.0039739999999998,0.0014296000000012,-0.0108791999999999,-0.0290559999999994,0.0408318000000009,-0.0161965999999998,0,sub_1
0.0051355999999998,0.0042868000000012,-0.0069959999999999,-0.0271027999999994,0.0434010000000009,-0.0208861999999998,0,sub_1
0.0028037999999998,0.0069496000000012,-0.0003741999999999,-0.0251635999999994,0.0423508000000009,-0.0262121999999998,0,sub_1
0.0027701999999998,0.0087704000000012,0.0014184,-0.0249485999999994,0.0400190000000009,-0.0291989999999998,0,sub_1
0.0050923999999998,0.0081480000000012,-0.0009395999999998,-0.0226169999999994,0.0363914000000009,-0.0296055999999998,0,sub_1
0.0085369999999998,0.0106102000000012,-0.0048195999999998,-0.0137053999999994,0.0337714000000009,-0.0212079999999998,0,sub_1
0.0083301999999998,0.0098852000000012,-0.0065157999999998,-0.0073761999999994,0.0305040000000009,-0.0085545999999998,0,sub_1
0.0086245999999998,0.0110050000000012,-0.0091031999999998,-0.0006299999999994,0.0282878000000009,0.0073050000000001,0,sub_1
0.0026807999999998,0.0107106000000012,-0.0088969999999999,0.0025168000000005,0.0267448000000009,0.0175838000000001,0,sub_1
-0.0049016000000001,0.0100820000000012,-0.0026379999999999,-0.0065093999999994,0.0146238000000009,0.0194584000000001,0,sub_1
-0.0087064000000001,0.0096270000000012,0.0007556,-0.0178523999999994,0.0012644000000009,0.0131996000000001,0,sub_1
-0.0088964000000001,0.0103292000000012,-0.0011859999999999,-0.0231729999999994,-0.005283199999999,0.0031284000000001,0,sub_1
-0.0058912000000001,0.0087608000000012,-0.0043991999999999,-0.0244189999999994,-0.008007399999999,-0.0075601999999998,0,sub_1
-0.0026744000000001,0.0060212000000012,-0.0060063999999998,-0.0211871999999994,-0.010969599999999,-0.0167315999999998,0,sub_1
0.0024827999999998,0.0052018000000012,-0.0103437999999998,-0.0089731999999994,-0.007153999999999,-0.0234983999999998,0,sub_1
0.0068159999999998,0.0013396000000012,-0.0142331999999998,0.0066556000000005,-0.000166599999999,-0.0270401999999998,0,sub_1
0.0079503999999998,-0.0042429999999987,-0.0151433999999998,0.0169328000000005,0.0047016000000009,-0.0286935999999998,0,sub_1
0.0100879999999998,-0.0063435999999987,-0.0127821999999998,0.0192954000000005,0.0087306000000009,-0.0267689999999998,0,sub_1
0.0134243999999998,-0.0050133999999987,-0.0114403999999999,0.0171660000000005,0.0157438000000009,-0.0203829999999998,0,sub_1
0.0171657999999998,-0.0031171999999987,-0.0137757999999999,0.0207700000000005,0.0246224000000009,-0.0058405999999998,0,sub_1
0.0163335999999998,0.0018260000000012,-0.0116111999999999,0.0139176000000005,0.0345988000000009,0.0096954000000001,0,sub_1
0.0139059999999998,0.0084786000000012,-0.0090229999999999,0.0068422000000005,0.0435070000000009,0.0260854000000001,0,sub_1
0.0057383999999998,0.0104286000000012,-0.0088789999999999,0.0059426000000005,0.0451680000000009,0.0378272000000001,0,sub_1
0.0038743999999998,0.0119680000000012,-0.0077949999999999,0.0088508000000005,0.0382986000000009,0.0483246000000001,0,sub_1
0.0021093999999998,0.0124634000000012,-0.0020319999999999,0.0015538000000005,0.0319226000000009,0.0508450000000001,0,sub_1
0.0001143999999998,0.0098108000000012,-0.0018975999999998,-0.0020999999999994,0.0215154000000009,0.0459184000000001,0,sub_1
-0.0021666000000001,0.0063624000000012,-0.0006237999999998,-0.0089347999999994,0.0066800000000009,0.0322160000000001,0,sub_1
0.0007923999999998,0.0055850000000012,0.0010690000000001,-0.0193803999999994,-0.005581399999999,0.0174170000000001,0,sub_1
0.0059707999999998,0.0059442000000012,-0.0029179999999998,-0.0263773999999994,-0.005940199999999,0.0069000000000001,0,sub_1
0.0060233999999998,0.0040008000000012,-0.0102767999999998,-0.0229405999999994,-0.005930799999999,0.0017968000000001,0,sub_1
0.0067639999999998,0.0029930000000012,-0.0126127999999998,-0.0148301999999994,-0.005532199999999,0.0018534000000001,0,sub_1
0.0089111999999998,0.0012816000000012,-0.0126935999999998,-0.0056489999999994,0.0022934000000009,0.0085310000000001,0,sub_1
0.0046955999999998,-0.0007219999999987,-0.0126643999999998,-0.0015673999999994,0.0148234000000009,0.0151670000000001,0,sub_1
-0.0027964000000001,-0.0013483999999987,-0.0112991999999999,-0.0011377999999994,0.0165208000000009,0.0164500000000001,0,sub_1
-0.0043394000000001,0.0013558000000012,-0.0092413999999999,-0.0045655999999994,0.0124874000000009,0.0155764000000001,0,sub_1
-0.0061552000000001,0.0043792000000012,-0.0082555999999999,-0.0092729999999994,0.0088834000000009,0.0149068000000001,0,sub_1
-0.0090012000000001,0.0081736000000012,-0.0107247999999999,-0.0116315999999994,0.0031506000000009,0.0116924000000001,0,sub_1
-0.0054080000000001,0.0109932000000012,-0.0119377999999999,-0.0063167999999994,-0.004737399999999,0.0081070000000001,0,sub_1
-0.0013262000000001,0.0105522000000012,-0.0116277999999998,0.0022146000000005,-0.008589799999999,0.0049664000000001,0,sub_1
0.0005779999999998,0.0078688000000012,-0.0103991999999998,0.0094834000000005,-0.009026999999999,0.0013856000000001,0,sub_1
0.0034427999999998,0.0046324000000012,-0.0077113999999998,0.0144148000000005,-0.007536999999999,-0.0024273999999998,0,sub_1
0.0066285999999998,0.0015464000000012,-0.0053581999999998,0.0150808000000005,-0.003907999999999,-0.0045635999999998,0,sub_1
0.0078995999999998,-0.0006645999999987,-0.0046629999999998,0.0127512000000005,-0.000488199999999,-0.0050109999999998,0,sub_1
0.0087649999999998,-0.0007655999999987,-0.0071109999999999,0.0116954000000005,0.0018602000000009,-0.0050207999999998,0,sub_1
0.0095247999999998,0.0004610000000012,-0.0078253999999999,0.0104300000000004,0.0052740000000009,-0.0048197999999998,0,sub_1
0.0097693999999998,0.0023286000000012,-0.0095045999999999,0.0089406000000004,0.0067692000000009,-0.0041905999999998,0,sub_1
0.0089273999999998,0.0045438000000012,-0.0091743999999999,0.0099902000000004,0.0029316000000009,-0.0041779999999998,0,sub_1
0.0068727999999998,0.0061858000000012,-0.0082583999999999,0.0118948000000004,-0.001551799999999,-0.0041675999999998,0,sub_1
0.0045419999999998,0.0066984000000012,-0.0049173999999999,0.0105928000000004,-0.005392799999999,-0.0022579999999998,0,sub_1
0.0024701999999998,0.0076114000000012,-0.0040393999999999,0.0107706000000005,-0.011160999999999,0.0007326000000001,0,sub_1
0.0001889999999998,0.0084890000000012,-0.0041377999999998,0.0143680000000005,-0.015875399999999,0.0035318000000001,0,sub_1
-0.0011490000000001,0.0091626000000012,-0.0045853999999998,0.0184086000000005,-0.017393999999999,0.0059028000000001,0,sub_1
-0.0026124000000001,0.0100880000000012,-0.0044641999999998,0.0224558000000005,-0.017413599999999,0.0072124000000001,0,sub_1
-0.0032512000000001,0.0091270000000012,-0.0057467999999998,0.0273662000000004,-0.016366799999999,0.0074584000000001,0,sub_1
-0.0023794000000001,0.0063424000000012,-0.0076415999999998,0.0303750000000004,-0.013387399999999,0.0055524000000001,0,sub_1
-0.0002442000000001,0.0031844000000012,-0.0093021999999999,0.0304048000000004,-0.011886399999999,0.0014890000000001,0,sub_1
0.0022799999999998,0.0008594000000012,-0.0102811999999999,0.0293678000000004,-0.010381599999999,-0.0025817999999998,0,sub_1
0.0060399999999998,-0.0023421999999987,-0.0116359999999999,0.0278932000000004,-0.010582799999999,-0.0057985999999998,0,sub_1
0.0090711999999998,-0.0034637999999987,-0.0115283999999999,0.0253388000000004,-0.011852599999999,-0.0070981999999998,0,sub_1
0.0084621999999998,-0.0030627999999987,-0.0094453999999998,0.0204296000000004,-0.012059799999999,-0.0056381999999998,0,sub_1
0.0069421999999998,-0.0028873999999987,-0.0063047999999998,0.0114584000000004,-0.010127199999999,-0.0014297999999998,0,sub_1
0.0051983999999998,-0.0028597999999987,-0.0040643999999998,0.0016290000000004,-0.008195799999999,0.0038408000000001,0,sub_1
0.0029345999999998,-0.0001099999999987,-0.0027873999999998,-0.0086237999999995,-0.005835399999999,0.0086804000000001,0,sub_1
-0.0001082000000001,0.0023000000000012,-0.0041237999999998,-0.0162903999999994,-0.002840599999999,0.0099034000000001,0,sub_1
-0.0004608000000001,0.0044242000000012,-0.0058095999999999,-0.0198927999999994,-6.299999999905929e-05,0.0085910000000001,0,sub_1
-0.0006118000000001,0.0068078000000012,-0.0080869999999999,-0.0170825999999994,0.0037632000000009,0.0058264000000001,0,sub_1
-0.0010930000000001,0.0081168000000012,-0.0095695999999999,-0.0129847999999994,0.0082282000000009,0.0020018000000001,0,sub_1
-0.0002828000000001,0.0073452000000012,-0.0102851999999999,-0.0078285999999994,0.0109842000000008,-0.0015995999999998,0,sub_1
0.0021757999999998,0.0063422000000012,-0.0089685999999999,-0.0044063999999994,0.0118286000000009,-0.0026453999999998,0,sub_1
0.0031825999999998,0.0046114000000012,-0.0082759999999999,-0.0037711999999994,0.0111856000000009,-0.0022129999999998,0,sub_1
0.0037887999999998,0.0028400000000012,-0.0077899999999999,-0.0065585999999994,0.0094862000000009,-0.0009483999999998,0,sub_1
0.0044647999999998,0.0016958000000012,-0.0079637999999998,-0.0095665999999994,0.0065076000000009,0.0007436000000001,0,sub_1
0.0040725999999998,0.0015760000000012,-0.0078639999999998,-0.0127841999999994,0.0043820000000009,0.0024332000000001,0,sub_1
0.0040071999999998,0.0017506000000012,-0.0074289999999998,-0.0155657999999994,0.0033244000000009,0.0030562000000001,0,sub_1
0.0047729999999998,0.0026202000000012,-0.0073293999999998,-0.0162145999999994,0.0016218000000009,0.0032676000000001,0,sub_1
0.0053003999999998,0.0037692000000012,-0.0074261999999998,-0.0145135999999994,-0.000298599999999,0.0026412000000001,0,sub_1
0.0052271999999998,0.0047986000000012,-0.0076937999999999,-0.0121659999999994,-0.001366399999999,0.0013772000000001,0,sub_1
0.0052827999999998,0.0056210000000012,-0.0084025999999999,-0.0089581999999994,-0.001157999999999,-9.619999999987988e-05,0,sub_1
0.0040117999999998,0.0062228000000012,-0.0094107999999999,-0.0059713999999994,-0.002016999999999,-0.0009287999999998,0,sub_1
0.0030701999999998,0.0061510000000012,-0.0096921999999999,-0.0040553999999994,-0.003724399999999,-0.0017677999999998,0,sub_1
0.0026945999999998,0.0055566000000012,-0.0098559999999999,-0.0019295999999994,-0.005223999999999,-0.0015375999999998,0,sub_1
0.0029537999999998,0.0047884000000012,-0.0093411999999998,-0.0010801999999994,-0.005442399999999,-0.0008903999999998,0,sub_1
0.0031281999999998,0.0039666000000012,-0.0092573999999998,-0.0017271999999994,-0.007143599999999,-0.0011063999999998,0,sub_1
0.0040659999999998,0.0037016000000012,-0.0088359999999998,-0.0021539999999994,-0.008414999999999,-0.0023895999999998,0,sub_1
0.0045499999999998,0.0031048000000012,-0.0089907999999998,-0.0010821999999994,-0.008626399999999,-0.0036635999999998,0,sub_1
0.0045569999999998,0.0035854000000012,-0.0090429999999998,-0.0006467999999994,-0.008619799999999,-0.0055831999999998,0,sub_1
0.0047759999999998,0.0038846000000012,-0.0085223999999999,5.127408914118447e-16,-0.008827799999999,-0.0072875999999998,0,sub_1
0.0048613999999998,0.0044740000000012,-0.0067789999999999,0.0004372000000005,-0.007546199999999,-0.0083543999999998,0,sub_1
0.0032695999999998,0.0041480000000012,-0.0063277999999999,0.0004456000000005,-0.006264999999999,-0.0089967999999998,0,sub_1
0.0026087999999998,0.0037994000000012,-0.0065333999999999,0.0006624000000005,-0.005837599999999,-0.0094231999999998,0,sub_1
0.0025861999999998,0.0029560000000012,-0.0071561999999999,0.0017252000000005,-0.006480999999999,-0.0092013999999998,0,sub_1
0.0032467999999998,0.0019754000000012,-0.0085505999999999,0.0030006000000004,-0.006913999999999,-0.0085509999999998,0,sub_1
0.0032713999999998,0.0010134000000012,-0.0102079999999999,0.0042760000000004,-0.007346999999999,-0.0079003999999998,0,sub_1
0.0045091999999998,0.0005390000000012,-0.0099573999999999,0.0049068000000004,-0.008418399999999,-0.0068263999999998,0,sub_1
0.0039419999999998,0.0012682000000012,-0.0094165999999999,0.0051166000000004,-0.008634599999999,-0.0061835999999998,0,sub_1
0.0030931999999998,0.0021580000000012,-0.0088009999999999,0.0053312000000004,-0.008634399999999,-0.0063955999999998,0,sub_1
0.0020063999999998,0.0028022000000012,-0.0080643999999998,0.0040482000000005,-0.009268999999999,-0.0064035999999998,0,sub_1
0.0012881999999998,0.0034598000000012,-0.0075265999999998,0.0023384000000005,-0.010114399999999,-0.0066281999999998,0,sub_1
0.0011241999999998,0.0047728000000012,-0.0077957999999998,0.0010562000000005,-0.010535999999999,-0.0066365999999998,0,sub_1
0.0020707999999998,0.0048200000000012,-0.0067869999999998,-0.0012997999999994,-0.011171799999999,-0.0053703999999998,0,sub_1
0.0025317999999998,0.0047118000000012,-0.0058525999999998,-0.0032263999999994,-0.009896799999999,-0.0028217999999998,0,sub_1
0.0019265999999998,0.0056780000000012,-0.0052539999999998,-0.0045023999999994,-0.007765799999999,-0.0017653999999998,0,sub_1
0.0027951999999998,0.0049140000000012,-0.0047171999999998,-0.0042875999999994,-0.005854599999999,-0.0002709999999998,0,sub_1
0.0023023999999998,0.0040070000000012,-0.0047469999999998,-0.0034201999999994,-0.001812599999999,0.0005844000000001,0,sub_1
0.0018403999999998,0.0043922000000012,-0.0047855999999998,-0.0031869999999994,0.0020244000000009,-5.979999999983984e-05,0,sub_1
0.0016733999999998,0.0039468000000012,-0.0053471999999999,-0.0050969999999994,0.0035262000000009,-0.0009297999999998,0,sub_1
0.0025915999999998,0.0042268000000012,-0.0072525999999999,-0.0055277999999994,0.0039488000000009,0.0003484000000001,0,sub_1
0.0022875999999998,0.0053598000000012,-0.0097681999999999,-0.0055297999999994,0.0054326000000009,0.0022692000000001,0,sub_1
0.0024653999999997,0.0053156000000012,-0.0104817999999999,-0.0046769999999994,0.0039138000000009,0.0039818000000001,0,sub_1
0.0024301999999997,0.0036640000000012,-0.0113793999999999,-0.0027647999999994,0.0013234000000009,0.0063440000000001,0,sub_1
0.0027291999999998,0.0033708000000012,-0.0108599999999999,-0.0008429999999994,0.0008636000000009,0.0087038000000001,0,sub_1
0.0027171999999998,0.0013042000000012,-0.0091285999999999,-0.0001887999999994,0.0025416000000009,0.0104112000000001,0,sub_1
0.0021729999999998,0.0014222000000012,-0.0079623999999999,0.0028048000000005,0.0012336000000009,0.0108568000000001,0,sub_1
0.0028677999999998,0.0019376000000012,-0.0066551999999999,0.0042830000000005,-0.001119199999999,0.0119384000000001,0,sub_1
0.0035377999999998,0.0037186000000012,-0.0058659999999998,0.0047048000000004,-0.001124599999999,0.0130098000000001,0,sub_1
0.0038535999999998,0.0047748000000012,-0.0072003999999998,0.0066232000000004,-0.002844199999999,0.0132368000000001,0,sub_1
0.0037629999999998,0.0057326000000012,-0.0085277999999998,0.0093988000000004,-0.006261199999999,0.0109082000000001,0,sub_1
0.0052677999999998,0.0057158000000012,-0.0082893999999998,0.0121838000000004,-0.006698599999999,0.0094306000000001,0,sub_1
0.0047809999999998,0.0053958000000012,-0.0088571999999998,0.0151960000000004,-0.004366199999999,0.0077372000000001,0,sub_1
0.0041989999999998,0.0048702000000012,-0.0085855999999998,0.0173372000000004,-0.005441399999999,0.0064694000000001,0,sub_1
0.0030761999999998,0.0047206000000012,-0.0067931999999998,0.0160498000000004,-0.006079199999999,0.0073158000000001,0,sub_1
0.0023527999999998,0.0046684000000012,-0.0058461999999998,0.0132574000000005,-0.007358599999999,0.0100752000000001,0,sub_1
0.0011579999999998,0.0043448000000012,-0.0059721999999998,0.0062016000000005,-0.008831999999999,0.0117368000000001,0,sub_1
0.0018671999999998,0.0048820000000012,-0.0061323999999998,-0.0019135999999994,-0.009021799999999,0.0129622000000001,0,sub_1
0.0027343999999998,0.0045394000000012,-0.0067765999999998,-0.0089361999999994,-0.005815599999999,0.0139744000000001,0,sub_1
0.0041487999999998,0.0037176000000012,-0.0085063999999998,-0.0112509999999994,-0.001977199999999,0.0126688000000001,0,sub_1
0.0037731999999998,0.0039048000000012,-0.0084203999999998,-0.0116405999999994,0.0018588000000009,0.0103084000000001,0,sub_1
0.0026615999999998,0.0034268000000012,-0.0074201999999998,-0.0107521999999994,0.0050518000000009,0.0077440000000001,0,sub_1
0.0010547999999998,0.0028110000000012,-0.0084907999999998,-0.0079545999999994,0.0058934000000009,0.0054096000000001,0,sub_1
5.599999999850169e-06,0.0027970000000012,-0.0100187999999998,-0.0036783999999994,0.0044004000000009,0.0020228000000001,0,sub_1
-7.400000000169944e-06,0.0033828000000012,-0.0107601999999999,-0.0002621999999994,0.0018434000000009,-0.0009413999999998,0,sub_1
0.0019307999999998,0.0027710000000012,-0.0106937999999998,0.0018680000000004,-0.000714199999999,-0.0026325999999998,0,sub_1
0.0031881999999998,0.0014720000000012,-0.0105189999999998,0.0042036000000004,-0.004987999999999,-0.0028253999999998,0,sub_1
0.0060071999999998,0.0009336000000012,-0.0100557999999998,0.0054724000000004,-0.007772199999999,-0.0015317999999998,0,sub_1
0.0075245999999998,0.0014522000000012,-0.0097743999999998,0.0054734000000004,-0.006933199999999,0.0006030000000001,0,sub_1
0.0071521999999998,0.0021116000000012,-0.0077561999999998,0.0014190000000004,-0.005868799999999,0.0031364000000001,0,sub_1
0.0066021999999998,0.0036120000000012,-0.0068721999999999,-0.0026395999999994,-0.004383199999999,0.0069510000000001,0,sub_1
0.0071141999999998,0.0064170000000012,-0.0063457999999999,-0.0054155999999994,-0.001191599999999,0.0105596000000001,0,sub_1
0.0052689999999998,0.0080702000000012,-0.0049971999999999,-0.0075509999999994,0.0003010000000009,0.0122518000000001,0,sub_1
0.0035415999999998,0.0086852000000012,-0.0031817999999998,-0.0086271999999994,-0.001187999999999,0.0126734000000001,0,sub_1
0.0007393999999998,0.0101928000000012,-0.0028075999999998,-0.0062821999999994,-0.003116999999999,0.0124780000000001,0,sub_1
-0.0020150000000001,0.0106972000000012,-0.0055243999999998,-0.0056419999999994,-0.005887599999999,0.0109898000000001,0,sub_1
-0.0028440000000001,0.0067354000000012,-0.0094691999999998,-0.0083981999999994,-0.006296999999999,0.0079794000000001,0,sub_1
-0.0045888000000001,0.0014882000000012,-0.0125583999999998,-0.0079291999999994,-0.002876999999999,0.0034912000000001,0,sub_1
-0.0050746000000001,-0.0009375999999987,-0.0136811999999999,-0.0019185999999994,-0.000119199999999,-0.0001029999999998,0,sub_1
-0.0011872000000001,-0.0022867999999987,-0.0140563999999999,0.0083664000000005,0.0037014000000009,-0.0055907999999998,0,sub_1
0.0027663999999998,-0.0024281999999987,-0.0121901999999998,0.0197356000000005,0.0096560000000009,-0.0127827999999998,0,sub_1
0.0030265999999998,-0.0001013999999987,-0.0095921999999998,0.0280816000000005,0.0113460000000009,-0.0163585999999998,0,sub_1
0.0048353999999998,0.0024374000000012,-0.0065057999999998,0.0308298000000005,0.0066452000000009,-0.0152649999999998,0,sub_1
0.0078275999999998,0.0037822000000012,-0.0036449999999998,0.0269638000000005,0.0038788000000009,-0.0125107999999998,0,sub_1
0.0079959999999998,0.0043934000000012,-0.0020317999999999,0.0177712000000005,0.0053820000000009,-0.0072355999999998,0,sub_1
0.0072051999999998,0.0048088000000012,-0.0018121999999999,0.0096354000000005,0.0070852000000009,0.0003968000000001,0,sub_1
0.0078083999999998,0.0043220000000012,-0.0022335999999999,0.0042728000000005,0.0077168000000009,0.0071954,0,sub_1
0.0086373999999998,0.0047404000000012,-0.0039759999999999,-0.0004429999999994,0.0085644000000009,0.0127162,0,sub_1
0.0097921999999998,0.0050002000000012,-0.0066129999999999,-0.0047359999999994,0.0087704000000009,0.0184546000000001,0,sub_1
0.0095853999999998,0.0054274000000012,-0.0080529999999999,-0.0079667999999994,0.0079076000000009,0.0242018000000001,0,sub_1
0.0080731999999998,0.0032196000000012,-0.0102333999999999,-0.0086307999999994,0.0038576000000009,0.0254846000000001,0,sub_1
0.0057697999999998,0.0031274000000012,-0.0107827999999998,-0.0094871999999994,-0.001871199999999,0.0203586000000001,0,sub_1
0.0056009999999998,0.0039284000000012,-0.0109671999999998,-0.0041519999999994,-0.007405999999999,0.0146346000000001,0,sub_1
0.0032651999999998,0.0037504000000012,-0.0120191999999998,-0.0004909999999994,-0.005054599999999,0.0095296000000001,0,sub_1
0.0012461999999998,0.0029092000000012,-0.0140659999999998,0.0014698000000005,-0.002479599999999,0.0031304000000001,0,sub_1
0.0006261999999998,0.0031426000000012,-0.0122765999999998,0.0014908000000005,-0.002249199999999,-0.0013567999999998,0,sub_1
0.0011869999999998,0.0040944000000012,-0.0110317999999999,0.0059812000000005,-0.000134599999999,-0.0013283999999998,0,sub_1
0.0012179999999998,0.0044780000000012,-0.0096675999999998,0.0049410000000005,0.0058344000000009,-0.0013433999999998,0,sub_1
0.0013207999999998,0.0047442000000012,-0.0086399999999998,0.0058166000000004,0.0060494000000009,-0.0039023999999998,0,sub_1
0.0023795999999998,0.0041156000000012,-0.0072627999999998,0.0075226000000004,0.0017848000000009,-0.0058087999999998,0,sub_1
0.0038863999999998,0.0043702000000012,-0.0067175999999998,0.0068796000000004,-0.000138599999999,-0.0049569999999998,0,sub_1
0.0055363999999998,0.0041672000000012,-0.0068921999999998,0.0030456000000004,0.0005044000000009,-0.0037035999999998,0,sub_1
0.0061023999999998,0.0036948000000012,-0.0070519999999998,-0.0001499999999995,0.0011434000000009,-0.0020183999999998,0,sub_1
0.0066887999999998,0.0029466000000012,-0.0070521999999998,-0.0035851999999994,-0.000560199999999,0.0009512000000001,0,sub_1
0.0072253999999998,0.0011236000000012,-0.0072939999999998,-0.0046739999999994,-0.001848399999999,0.0045776000000001,0,sub_1
0.0081985999999998,2.6400000001244784e-05,-0.0075057999999998,-0.0040411999999994,-0.002075399999999,0.0071458000000001,0,sub_1
