userAcceleration.x,userAcceleration.y,userAcceleration.z,rotationRate.x,rotationRate.y,rotationRate.z,label,subject
0.0029699999999998,0.0190490000000011,0.0028216,-0.0002603999999995,2.360000000083437e-05,-0.0012517999999999,0,sub_9
0.0028791999999998,0.0189270000000012,0.002674,0.0008046000000004,-0.0001909999999991,-0.0012483999999999,0,sub_9
0.0029153999999997,0.0186544000000012,0.0028418,0.0008026000000004,-0.0006139999999991,-0.0014659999999999,0,sub_9
0.0026445999999997,0.0180716000000011,0.0029442,0.0003778000000004,-0.0003955999999991,-0.0019007999999999,0,sub_9
0.0020533999999997,0.0184178000000012,0.002884,-0.0006879999999995,0.0002488000000008,-0.0016997999999999,0,sub_9
0.0028227999999997,0.0184564000000011,0.0022272,-0.0011155999999995,0.0004646000000008,-0.0014937999999999,0,sub_9
0.0032333999999997,0.0186102000000011,0.0022324,-0.0015423999999995,0.0006784000000008,-0.0012833999999999,0,sub_9
0.0034763999999997,0.0186358000000011,0.0022188,-0.0013299999999995,0.0011012000000008,-0.0006413999999999,0,sub_9
0.0036745999999997,0.0190164000000011,0.0026552,-0.0006947999999995,0.0004582000000008,-0.0002087999999999,0,sub_9
0.0043149999999997,0.0183204000000011,0.0030854,0.0007970000000004,-0.0001841999999991,-0.0004141999999999,0,sub_9
0.0040873999999997,0.0184854000000011,0.0041768,0.0014392000000004,-0.0001833999999991,-0.0008401999999999,0,sub_9
0.0044595999999997,0.0181100000000012,0.0045054,0.0020796000000004,-0.0003965999999991,-0.0010521999999999,0,sub_9
0.0041831999999997,0.0179358000000012,0.0043366,0.0014416000000004,-0.0001793999999991,-0.0012737999999999,0,sub_9
0.0041021999999997,0.0182730000000011,0.0038508,0.0003808000000004,0.0011038000000008,-0.0012859999999999,0,sub_9
0.0037597999999998,0.0189042000000012,0.0035082,-0.0006801999999995,0.0025980000000008,-0.0010817999999999,0,sub_9
0.0034555999999998,0.0188466000000012,0.0033442,-0.0013173999999995,0.0036638000000008,-0.0006601999999999,0,sub_9
0.0026433999999998,0.0187264000000011,0.0028144,-0.0019613999999995,0.0030260000000008,-0.0004501999999999,0,sub_9
0.0024193999999998,0.0188464000000012,0.0028472,-0.0011097999999995,0.0021744000000008,-0.0008719999999999,0,sub_9
0.0029133999999998,0.0185466000000011,0.0031708,-0.0004715999999995,0.0013236000000008,-0.0012953999999999,0,sub_9
0.0033083999999998,0.0189410000000012,0.003153,0.0003790000000004,4.6800000000854445e-05,-0.0019303999999999,0,sub_9
0.0035979999999998,0.0189996000000012,0.0030324,0.0005876000000004,-0.0010173999999991,-0.0019291999999999,0,sub_9
0.0037803999999998,0.0193844000000012,0.0036592,0.0005896000000004,-0.0005893999999991,-0.0019313999999999,0,sub_9
0.0040327999999998,0.0194032000000011,0.0036648,0.0003754000000004,-0.0001649999999991,-0.0012923999999999,0,sub_9
0.0034681999999998,0.0194054000000012,0.0028758,-5.519999999955109e-05,-0.0001669999999991,-0.0004407999999999,0,sub_9
0.0031581999999998,0.0193424000000011,0.0031864,-0.0006991999999995,4.400000000083437e-05,0.0006226,0,sub_9
0.0028887999999998,0.0195910000000011,0.0030774,-0.0007011999999995,4.300000000083436e-05,0.0012656,0,sub_9
0.0022963999999997,0.0195178000000012,0.0027242,0.0001482000000004,-0.0003871999999991,0.0019152,0,sub_9
0.0020159999999997,0.0190348000000012,0.0026608,0.0012120000000004,-0.0010293999999991,0.0021392,0,sub_9
0.0023707999999997,0.0189252000000012,0.0027182,0.0020654000000004,-0.0014559999999991,0.0019344,0,sub_9
0.0025829999999997,0.0185584000000011,0.0027226,0.0024960000000004,-0.0014533999999991,0.0012988,0,sub_9
0.0033959999999997,0.0182306000000012,0.002609,0.0022874000000004,-0.0008117999999991,0.0008692,0,sub_9
0.0044025999999997,0.0182140000000011,0.0026976,0.0012292000000004,0.0004728000000008,0.0002192,0,sub_9
0.0048331999999997,0.0177292000000011,0.0030078,-0.0004709999999995,0.0015456000000008,-0.0002213999999999,0,sub_9
0.0052937999999997,0.0170392000000011,0.0036866,-0.0019561999999995,0.0026160000000008,-0.0004411999999999,0,sub_9
0.0055975999999997,0.0168830000000011,0.0028382,-0.0034413999999994,0.0030498000000008,-0.0013009999999999,0,sub_9
0.0051287999999997,0.0174906000000011,0.0029356,-0.0042865999999995,0.0032690000000008,-0.0023695999999999,0,sub_9
0.0046339999999997,0.0173080000000011,0.003681,-0.0047087999999995,0.0030590000000008,-0.0030073999999999,0,sub_9
0.0041639999999997,0.0178402000000011,0.0037744,-0.0047051999999995,0.0026346000000008,-0.0036419999999999,0,sub_9
0.0038465999999997,0.0174436000000011,0.0036024,-0.0044899999999994,0.0017866000000008,-0.0049211999999999,0,sub_9
0.0031327999999997,0.0173244000000011,0.0044294,-0.0042737999999995,0.0017884000000008,-0.0055605999999998,0,sub_9
0.0021907999999997,0.0167354000000011,0.0040828,-0.0049109999999995,0.0024298000000008,-0.0055657999999998,0,sub_9
0.0012271999999997,0.0177258000000011,0.0021464,-0.0063983999999995,0.0037098000000008,-0.0049303999999998,0,sub_9
0.0004479999999998,0.0190416000000011,0.0007756,-0.0089499999999995,0.0062692000000008,-0.0036631999999998,0,sub_9
-0.0007900000000001,0.0209024000000012,2.400000000007971e-05,-0.0108651999999995,0.0088230000000008,-0.0015369999999999,0,sub_9
-0.0012904000000001,0.0218580000000012,0.0002692,-0.0108649999999995,0.0098804000000008,0.0001772,0,sub_9
-0.0009332000000001,0.0219848000000011,0.0006156,-0.0085213999999995,0.0090164000000008,0.000842,0,sub_9
0.0003731999999998,0.0207006000000011,0.0018676,-0.0040491999999995,0.0066590000000008,0.000449,0,sub_9
0.0019157999999998,0.0193698000000011,0.0026846,0.0010650000000004,0.0034522000000008,-0.0012201999999999,0,sub_9
0.0036453999999998,0.0188336000000011,0.0037536,0.0049018000000004,0.0008890000000008,-0.0028991999999999,0,sub_9
0.0054471999999998,0.0181694000000011,0.003776,0.0068156000000004,-0.0008211999999991,-0.0030971999999999,0,sub_9
0.0078419999999998,0.0192166000000011,0.0038384,0.0072384000000004,-0.0023173999999991,-0.0030847999999999,0,sub_9
0.0090895999999998,0.0204946000000011,0.004448,0.0068066000000004,-0.0031749999999991,-0.0022247999999999,0,sub_9
0.0096545999999998,0.0207230000000011,0.0057658,0.0072236000000004,-0.0046763999999991,-0.0009307999999999,0,sub_9
0.0096943999999998,0.0200846000000011,0.0057078,0.0080626000000004,-0.0072445999999991,0.0003676,0,sub_9
0.0091193999999998,0.0201116000000011,0.0047792,0.0084766000000004,-0.0102339999999991,0.000809,0,sub_9
0.0064471999999998,0.0187630000000012,0.0042686,0.0082536000000004,-0.0119393999999991,0.0012368,0,sub_9
0.0034149999999998,0.0170280000000012,0.0033562,0.0067572000000004,-0.0123611999999991,0.0014406,0,sub_9
-6.800000000172987e-06,0.0161342000000012,0.0013316,0.0041972000000004,-0.0119323999999991,0.0022828,0,sub_9
-0.0025930000000001,0.0153190000000011,-8.81999999999202e-05,0.0010068000000004,-0.0097949999999991,0.0026912,0,sub_9
-0.0053560000000001,0.0139746000000012,-0.0004371999999999,-0.0017481999999995,-0.0057417999999991,0.0031,0,sub_9
-0.0062716000000001,0.0129710000000011,-0.0010479999999999,-0.0049253999999995,-0.0008339999999991,0.0032912,0,sub_9
-0.0063732000000001,0.0134106000000011,-0.0019567999999999,-0.0078863999999995,0.0040756000000008,0.0028428,0,sub_9
-0.0049750000000001,0.0148934000000011,-0.0017167999999999,-0.0104189999999995,0.0094142000000008,0.0019638,0,sub_9
-0.0029896000000001,0.0169856000000011,-0.0005857999999999,-0.0112533999999995,0.0132538000000008,0.0015256,0,sub_9
-6.400000000019289e-05,0.0190712000000011,0.0004302,-0.0103913999999995,0.0149560000000008,0.0013158,0,sub_9
0.0034643999999998,0.0214088000000011,0.0016148,-0.0078297999999995,0.0143066000000008,0.0011238,0,sub_9
0.0078923999999998,0.0222770000000011,0.0041748,-0.0042089999999995,0.0117368000000008,0.0007282,0,sub_9
0.0108199999999998,0.0218364000000011,0.006135,0.0002604000000004,0.0080988000000008,0.0003396,0,sub_9
0.0118425999999998,0.0209982000000011,0.0065148,0.0040868000000004,0.0036116000000008,-0.0002657999999999,0,sub_9
0.0125097999999998,0.0201234000000011,0.0070846,0.0057786000000004,-0.0008687999999991,-0.0006725999999999,0,sub_9
0.0111537999999998,0.0188394000000011,0.0073734,0.0057642000000004,-0.0036401999999991,-0.0002417999999999,0,sub_9
0.0083141999999998,0.0182032000000011,0.0053182,0.0044714000000004,-0.0049199999999991,0.0012462,0,sub_9
0.0059503999999998,0.0181950000000011,0.0032216,0.0021156000000004,-0.0055559999999991,0.0025126,0,sub_9
0.0035485999999998,0.0177040000000011,0.0015554,-1.9999999995308927e-06,-0.0042837999999991,0.0035738,0,sub_9
0.0010369999999998,0.0164910000000011,0.0003952,-0.0010431999999995,-0.0019459999999991,0.003573,0,sub_9
-0.0008296000000001,0.0154782000000011,-0.0003661999999999,-0.0012297999999995,-0.0006711999999991,0.0022976,0,sub_9
-0.0019310000000001,0.0149614000000011,0.0001648,-0.0005609999999995,0.0001780000000008,0.0001742,0,sub_9
-0.0017342000000002,0.0153244000000011,0.000566,0.0001088000000004,0.0012402000000008,-0.0019495999999998,0,sub_9
-0.0005312000000002,0.0162512000000011,0.0020628,0.0003338000000004,0.0018862000000008,-0.0038715999999998,0,sub_9
0.0016447999999997,0.0184844000000011,0.0025976,0.0007634000000004,0.0016752000000008,-0.0047227999999998,0,sub_9
0.0039589999999997,0.0208682000000011,0.003462,0.0016140000000004,0.0014574000000008,-0.0042891999999999,0,sub_9
0.0063211999999997,0.0211890000000011,0.0041712,0.0026712000000004,0.0003840000000008,-0.0032121999999999,0,sub_9
0.0077233999999997,0.0200926000000011,0.0050766,0.0041656000000004,-0.0013463999999991,-0.0019073999999999,0,sub_9
0.0081673999999997,0.0191748000000011,0.0049188,0.0050180000000004,-0.0037127999999991,-0.0008199999999999,0,sub_9
0.0063489999999998,0.0181740000000012,0.0048808,0.0052352000000004,-0.0054361999999991,-0.0001651999999999,0,sub_9
0.0040871999999998,0.0173002000000012,0.00359,0.0041730000000004,-0.0063053999999991,0.0011204,0,sub_9
0.0014783999999998,0.0175882000000012,0.001975,0.0024728000000004,-0.0065339999999991,0.0026146,0,sub_9
-0.0004046000000001,0.0173184000000011,0.0003804,0.0009764000000004,-0.0063191999999991,0.0034584,0,sub_9
-0.0012084000000001,0.0161990000000012,-0.0004407999999999,-8.179999999953083e-05,-0.0046101999999991,0.0032352,0,sub_9
-0.0007874000000001,0.0153606000000011,-0.0006111999999999,-0.0013481999999995,-0.0020371999999991,0.0019466,0,sub_9
-6.740000000019246e-05,0.0145688000000011,0.0002674,-0.0015399999999995,0.0005390000000008,-0.0010433999999999,0,sub_9
0.0007659999999998,0.0141908000000012,0.00131,-0.0021537999999995,0.0037574000000008,-0.0044645999999999,0,sub_9
0.0008457999999998,0.0147620000000012,0.0024054,-0.0034143999999995,0.0067600000000008,-0.0066081999999999,0,sub_9
0.0008601999999998,0.0167044000000011,0.0031588,-0.0048997999999995,0.0095408000000008,-0.0064029999999999,0,sub_9
0.0011793999999998,0.0181292000000012,0.0033774,-0.0068219999999995,0.0112434000000008,-0.0042819999999999,0,sub_9
0.0013053999999998,0.0194882000000011,0.0033552,-0.0081145999999995,0.0116612000000008,-0.0010869999999999,0,sub_9
0.0015243999999998,0.0217188000000011,0.0036192,-0.0077079999999995,0.0107932000000008,0.0025488,0,sub_9
0.0022481999999998,0.0230438000000012,0.0037218,-0.0055895999999995,0.0079948000000008,0.005557,0,sub_9
0.0032009999999998,0.0232652000000012,0.0038096,-0.0017671999999995,0.0032780000000008,0.0072978,0,sub_9
0.0039443999999998,0.0233070000000011,0.0036582,0.0029144000000004,-0.0014365999999991,0.0077626,0,sub_9
0.0045475999999998,0.0226300000000011,0.0037218,0.0067502000000004,-0.0050805999999991,0.0075794,0,sub_9
0.0048725999999998,0.0206604000000011,0.0038598,0.0088848000000004,-0.0074403999999991,0.0073826,0,sub_9
0.0046191999999998,0.0193362000000011,0.0033806,0.0088866000000004,-0.0078631999999991,0.0065286,0,sub_9
0.0044457999999998,0.0183302000000011,0.00313,0.0071862000000004,-0.0072145999999991,0.0056612,0,sub_9
0.0034439999999998,0.0171574000000011,0.0033958,0.0059136000000004,-0.0063545999999991,0.0047966,0,sub_9
0.0034265999999998,0.0165484000000011,0.0026584,0.0044340000000004,-0.005073599999999,0.0039268,0,sub_9
0.0033731999999997,0.0167044000000011,0.0021818,0.0033850000000004,-0.004002799999999,0.0019922,0,sub_9
0.0029539999999997,0.0168194000000011,0.0025508,0.0025484000000004,-0.002933599999999,0.0002726,0,sub_9
0.0022845999999997,0.0177128000000012,0.001882,0.0021366000000004,-0.0018675999999991,-0.0010165999999999,0,sub_9
0.0025887999999997,0.0188606000000011,0.0012578,0.0010828000000004,-0.0005887999999991,-0.0016695999999999,0,sub_9
0.0024417999999997,0.0192658000000011,0.0016128,0.0004446000000004,-0.0001603999999991,-0.0016745999999999,0,sub_9
0.0022895999999997,0.0190346000000011,0.001598,1.5000000000469057e-05,5.080000000085517e-05,-0.0008233999999999,0,sub_9
0.0025475999999997,0.0187808000000011,0.0014262,0.0002216000000004,-0.0003803999999991,0.000247,0,sub_9
0.0023663999999997,0.0181344000000011,0.001548,0.0008550000000004,-0.0010289999999991,0.001322,0,sub_9
0.0024699999999997,0.0171196000000011,0.001913,0.0021276000000004,-0.0023171999999991,0.001975,0,sub_9
0.0025975999999997,0.0167594000000011,0.0018364,0.0027628000000004,-0.0033883999999991,0.002196,0,sub_9
0.0028063999999998,0.0166178000000011,0.002258,0.0029752000000004,-0.0040303999999991,0.0019862,0,sub_9
0.0028953999999998,0.0165504000000011,0.0023558,0.0027656000000004,-0.0036053999999991,0.001772,0,sub_9
0.0031083999999997,0.0163878000000011,0.002682,0.0021294000000004,-0.0027509999999991,0.0017664,0,sub_9
0.0029297999999997,0.0164194000000012,0.0024284,0.0010672000000004,-0.0016819999999991,0.0017576,0,sub_9
0.0026821999999997,0.0168694000000012,0.0023028,0.0002214000000004,-0.0001867999999991,0.0015362,0,sub_9
0.0025519999999997,0.0169446000000012,0.0019194,9.400000000449056e-06,0.0004590000000008,0.001321,0,sub_9
0.0028907999999997,0.0171278000000012,0.0021082,0.0004348000000004,0.0002512000000008,0.0008976,0,sub_9
0.0029949999999997,0.0170012000000011,0.0021682,0.0010744000000004,-0.0001685999999991,4.860000000007662e-05,0,sub_9
0.0032803999999997,0.0171854000000011,0.0026148,0.0014968000000004,-0.0012277999999991,-0.0005873999999999,0,sub_9
0.0033813999999997,0.0167470000000012,0.0031316,0.0017040000000004,-0.0024999999999991,-0.0010109999999999,0,sub_9
0.0038017999999998,0.0171698000000011,0.003181,0.0012782000000004,-0.0027097999999991,-0.0014409999999999,0,sub_9
0.0037259999999998,0.0173748000000011,0.0027724,0.0002114000000004,-0.0022817999999991,-0.0010217999999999,0,sub_9
0.0030295999999998,0.0174780000000011,0.0026656,-0.0008583999999995,-0.0020683999999991,-0.0001747999999999,0,sub_9
0.0021411999999998,0.0175874000000011,0.0017086,-0.0017071999999995,-0.0016519999999991,0.0006736,0,sub_9
0.0014613999999998,0.0178368000000011,0.0008692,-0.0025561999999995,-0.0010233999999991,0.0017354,0,sub_9
0.0010557999999998,0.0177648000000011,0.000558,-0.0025497999999995,-0.0001837999999991,0.0025892,0,sub_9
0.0004383999999998,0.0175278000000011,0.0006162,-0.0016889999999995,1.7200000000855203e-05,0.0025954,0,sub_9
0.0010847999999998,0.0178250000000011,0.0007232,2.8200000000469e-05,0.0002176000000008,0.0019664,0,sub_9
0.0020137999999998,0.0179652000000011,0.0019034,0.0013122000000004,0.0006410000000008,0.0015476,0,sub_9
0.0028673999999998,0.0179958000000011,0.002595,0.0030200000000004,0.0004236000000008,0.0011326,0,sub_9
0.0031201999999998,0.0178646000000011,0.0026126,0.0032314000000004,-3.199999999164852e-06,0.0011346,0,sub_9
0.0038117999999998,0.0180288000000011,0.0028874,0.0023726000000004,0.0002158000000008,0.001117,0,sub_9
0.0041261999999998,0.0175556000000011,0.0030226,0.0004470000000004,0.0004386000000008,0.001092,0,sub_9
0.0039315999999998,0.0175796000000011,0.0026278,-0.0006241999999995,0.0004470000000008,0.000646,0,sub_9
0.0033205999999998,0.0175082000000011,0.0022316,-0.0008437999999995,-0.0001857999999991,-6.999999999943336e-06,0,sub_9
0.0031209999999998,0.0175644000000011,0.0022384,0.0002140000000004,-0.0016745999999991,-0.0008635999999999,0,sub_9
0.0026343999999998,0.0177428000000011,0.0019536,0.0017038000000004,-0.0029565999999991,-0.0012787999999999,0,sub_9
0.0021531999999998,0.0178208000000011,0.0021032,0.0034070000000004,-0.0040269999999991,-0.0014791999999999,0,sub_9
0.0020827999999998,0.0173916000000011,0.0016168,0.0038338000000004,-0.0040285999999991,-0.0014763999999999,0,sub_9
0.0025307999999998,0.0172000000000011,0.0022508,0.0031902000000004,-0.0029557999999991,-0.0014911999999999,0,sub_9
0.0021765999999998,0.0169560000000012,0.0025458,0.0016942000000004,-0.0016667999999991,-0.0015119999999999,0,sub_9
0.0025291999999998,0.0166820000000011,0.0022332,0.0004114000000004,-0.0005907999999991,-0.0017447999999999,0,sub_9
0.0027121999999997,0.0168414000000011,0.0016188,-0.0008723999999995,0.0004842000000008,-0.0017637999999999,0,sub_9
0.0021581999999997,0.0171086000000011,0.0019606,-0.0010921999999995,0.0009166000000008,-0.0017745999999999,0,sub_9
0.0018395999999997,0.0173288000000011,0.001649,-0.0008797999999995,0.0007028000000008,-0.0017727999999998,0,sub_9
0.0018043999999997,0.0168876000000012,0.0017478,-0.0002407999999995,0.0006996000000008,-0.0015547999999998,0,sub_9
0.0015057999999997,0.0169396000000012,0.0022796,-2.739999999951093e-05,0.0009112000000008,-0.0013399999999999,0,sub_9
0.0017219999999997,0.0175134000000012,0.0026266,-3.639999999953093e-05,0.0011306000000008,-0.0011357999999999,0,sub_9
0.0022873999999997,0.0175268000000011,0.0027724,-0.0002577999999995,0.0017758000000008,-0.0007199999999999,0,sub_9
0.0023755999999997,0.0175134000000012,0.0028612,-0.0009029999999995,0.0026374000000008,-0.0007345999999999,0,sub_9
0.0023341999999997,0.0183038000000011,0.0027506,-0.0009119999999995,0.0030690000000008,-0.0003169999999999,0,sub_9
0.0027067999999997,0.0181648000000012,0.0023966,-0.0009219999999995,0.0028630000000008,-0.0003257999999999,0,sub_9
0.0027623999999997,0.0175652000000012,0.0019974,-0.0007095999999995,0.0024370000000008,-0.0005373999999999,0,sub_9
0.0026993999999997,0.0169848000000011,0.0015164,-0.0004981999999995,0.0017980000000008,-0.0007487999999999,0,sub_9
0.0029589999999997,0.0168524000000011,0.0016698,-0.0002875999999995,0.0011582000000008,-0.0007465999999999,0,sub_9
0.0035453999999997,0.0167240000000012,0.0014882,-0.0005057999999995,0.0011678000000008,-0.0009677999999999,0,sub_9
0.0034031999999997,0.0169660000000011,0.0016526,-0.0007269999999995,0.0011748000000008,-0.0005481999999999,0,sub_9
0.0034539999999997,0.0170116000000012,0.0022214,-0.0009461999999995,0.0011834000000008,-0.0005559999999999,0,sub_9
0.0034609999999997,0.0178190000000012,0.0024904,-0.0011643999999995,0.0014052000000008,-0.0005637999999999,0,sub_9
0.0027575999999997,0.0179244000000012,0.0022176,-0.0011703999999995,0.0014130000000008,-0.0005699999999999,0,sub_9
0.0024107999999998,0.0179018000000012,0.0021678,-0.0007455999999995,0.0007732000000008,-0.0007799999999999,0,sub_9
0.0024815999999997,0.0176884000000012,0.0021284,0.0001060000000004,0.0003440000000008,-0.0007735999999999,0,sub_9
0.0021427999999997,0.0178272000000012,0.0018484,0.0003184000000004,0.0001302000000008,-0.0007717999999999,0,sub_9
0.0023173999999997,0.0179346000000012,0.0015924,0.0005260000000004,-0.0005045999999991,-0.0009895999999999,0,sub_9
0.0029493999999997,0.0179344000000012,0.0018512,0.0007336000000004,-0.0007147999999991,-0.0007805999999999,0,sub_9
0.0030799999999997,0.0178634000000012,0.0019262,0.0005172000000004,-0.0002845999999991,-0.0005753999999999,0,sub_9
0.0028761999999998,0.0179840000000012,0.0022968,8.660000000046907e-05,-0.0002785999999991,-0.0005847999999998,0,sub_9
0.0026083999999997,0.0176520000000012,0.002,8.080000000046907e-05,-0.0002757999999991,-0.0001639999999998,0,sub_9
0.0027725999999997,0.0168976000000012,0.0021304,0.0002950000000004,-0.0002755999999991,-0.0003761999999999,0,sub_9
0.0027515999999997,0.0165536000000012,0.002338,0.0002950000000004,-0.0002755999999991,-0.0003761999999999,0,sub_9
0.0026899999999997,0.0161612000000011,0.0024516,-0.0001325999999995,-0.0004869999999991,-0.0003787999999999,0,sub_9
0.0030379999999997,0.0158762000000011,0.0018074,-0.0003487999999995,-0.0002643999999991,-0.0008109999999999,0,sub_9
0.0034233999999997,0.0156240000000011,0.0016706,-0.0007773999999995,0.0001720000000008,-0.0012449999999999,0,sub_9
0.0038133999999997,0.0160538000000011,0.0013808,-0.0024871999999995,0.0003998000000008,-0.0016875999999999,0,sub_9
0.0042887999999997,0.0185196000000011,-0.0005731999999999,-0.0044035999999995,0.0010588000000008,-0.0032003999999999,0,sub_9
0.0043483999999997,0.0214848000000011,-0.0015371999999999,-0.0039709999999995,0.0019234000000008,-0.0049107999999999,0,sub_9
0.0043735999999997,0.0219500000000011,2.0400000000079385e-05,-0.0014133999999995,0.0012752000000008,-0.0048919999999999,0,sub_9
0.0050943999999997,0.0175290000000011,0.0012782,0.0017738000000004,-0.0010821999999991,-0.0042257999999999,0,sub_9
0.0053569999999997,0.0126652000000011,0.001861,0.0021958000000004,-0.0023611999999991,-0.0044347999999999,0,sub_9
0.0051713999999997,0.0082588000000011,0.0042674,-0.0003585999999995,-0.0019175999999991,-0.0057331999999999,0,sub_9
0.0043977999999997,0.0061476000000011,0.0055658,-0.0050439999999995,-0.0001905999999991,-0.0064071999999999,0,sub_9
0.0024063999999997,0.0091080000000011,0.0032382,-0.0112169999999995,0.0036688000000008,-0.0062397999999999,0,sub_9
-0.0002858000000001,0.0172596000000011,0.0012342,-0.0161145999999995,0.0075194000000008,-0.0049949999999999,0,sub_9
-0.0030720000000001,0.0244322000000011,8.180000000011927e-05,-0.0159123999999995,0.0096358000000008,-0.0007215999999999,0,sub_9
-0.0054814000000001,0.0281482000000012,-0.0015077999999998,-0.0108231999999995,0.0085288000000008,0.0052974,0,sub_9
-0.0056840000000001,0.0283578000000011,-0.0029139999999998,-0.0029705999999995,0.0042196000000008,0.0104852,0,sub_9
-0.0041914000000001,0.0252238000000011,-0.0019085999999998,0.0051030000000004,-0.0015687999999991,0.0124718,0,sub_9
-0.0020064000000001,0.0210174000000011,-0.0006849999999999,0.0110554000000004,-0.0075535999999991,0.0116692,0,sub_9
0.0009441999999998,0.0175332000000011,0.0008774,0.0144658000000004,-0.0113913999999991,0.0089234,0,sub_9
0.0035553999999997,0.0153894000000011,0.0017038,0.0149042000000004,-0.0118097999999991,0.0061524,0,sub_9
0.0052757999999997,0.0149154000000012,0.002685,0.0119364000000004,-0.0096629999999991,0.004209,0,sub_9
0.0057791999999998,0.0150120000000012,0.002714,0.0074768000000004,-0.0058117999999991,0.0035348,0,sub_9
0.0060807999999998,0.0162866000000012,0.0027396,0.0028086000000004,0.0003814000000008,0.0039216,0,sub_9
0.0040579999999998,0.0175540000000011,0.0007646,-0.0012263999999995,0.0059298000000008,0.0051682,0,sub_9
