userAcceleration.x,userAcceleration.y,userAcceleration.z,rotationRate.x,rotationRate.y,rotationRate.z,label,subject
0.0175455999999998,0.0197402000000012,-0.0004083999999998,-0.0014379999999995,0.0009512000000008,-0.0010573999999999,0,sub_2
0.0172781999999998,0.0195832000000012,-0.0001065999999998,-0.0018755999999995,0.0003180000000008,-0.0010625999999999,0,sub_2
0.0167051999999997,0.0196002000000012,-8.639999999988963e-05,-0.0023113999999995,0.0003232000000008,-0.0008549999999999,0,sub_2
0.0166381999999997,0.0200022000000012,0.000801,-0.0025267999999995,0.0001100000000008,-0.0006425999999999,0,sub_2
0.0164817999999997,0.0199630000000012,0.0009754,-0.0023161999999995,-0.000529999999999,-0.0006401999999998,0,sub_2
0.0162557999999997,0.0195606000000012,0.0010668,-0.0018895999999995,-0.0007435999999991,-0.0008503999999998,0,sub_2
0.0165479999999997,0.0192908000000012,0.0004586,-0.0016751999999995,-0.0007433999999991,-0.0010623999999998,0,sub_2
0.0169363999999997,0.0196826000000012,0.000521,-0.0023237999999995,-0.0013735999999991,-0.0012845999999998,0,sub_2
0.0173569999999998,0.0196534000000012,-2.199999999909642e-06,-0.0029685999999995,-0.0011515999999991,-0.0015079999999998,0,sub_2
0.0172537999999997,0.0191964000000012,0.0005078,-0.0038257999999995,-0.0002913999999991,-0.0013063999999998,0,sub_2
0.0171971999999997,0.0192584000000012,0.0005278,-0.0046837999999995,0.0003556000000008,-0.0011045999999998,0,sub_2
0.0168981999999997,0.0197826000000012,0.000211,-0.0051151999999994,0.0005768000000008,-0.0013265999999998,0,sub_2
0.0164363999999997,0.0196252000000012,0.0007656,-0.0040473999999995,0.0012104000000009,-0.0008927999999999,0,sub_2
0.0154045999999997,0.0194624000000012,0.0013726,-0.0029833999999995,0.0009918000000009,-0.0004577999999999,0,sub_2
0.0153943999999998,0.0200774000000012,0.0010076,-0.0021327999999994,0.0003496000000008,-0.0004509999999999,0,sub_2
0.0158187999999998,0.0207644000000012,0.000741,-0.0010729999999994,-0.0002885999999991,-0.0006613999999999,0,sub_2
0.0162087999999998,0.0205552000000012,0.0012342,-0.0004397999999995,-0.0005011999999991,-0.0004479999999999,0,sub_2
0.0165747999999998,0.0202520000000012,0.000321,-0.0002295999999995,-0.0002841999999991,-0.0006653999999999,0,sub_2
0.0175261999999998,0.0199142000000012,5.200000000090375e-06,-0.0002315999999995,-6.57999999991521e-05,-0.0010979999999999,0,sub_2
0.0177495999999998,0.0198950000000012,0.0002218,-2.5199999999534904e-05,-0.0011253999999991,-0.0017409999999999,0,sub_2
0.0178637999999998,0.0192616000000012,0.0007988,-2.7999999999534907e-05,-0.0015523999999991,-0.0015267999999999,0,sub_2
0.0180513999999998,0.0193388000000012,0.0002388,-0.0002433999999995,-0.0013409999999991,-0.0008875999999999,0,sub_2
0.0180813999999998,0.0196998000000012,0.0003416,-0.0013119999999995,-0.001551199999999,-0.0006809999999999,0,sub_2
0.0182953999999998,0.0202752000000012,0.0004592,-0.0013149999999995,-0.001977999999999,-0.0004667999999999,0,sub_2
0.0186255999999998,0.0203108000000012,0.000598,-0.0011015999999995,-0.001766599999999,-0.0002519999999999,0,sub_2
0.0183201999999998,0.0202730000000012,0.0006864,-0.0011025999999995,-0.001979599999999,-0.0002517999999999,0,sub_2
0.0178833999999998,0.0200892000000012,0.001001,-0.0006747999999995,-0.002192599999999,-0.0006757999999999,0,sub_2
0.0180405999999998,0.0198084000000012,0.0007532,-3.479999999953477e-05,-0.002406999999999,-0.0008847999999999,0,sub_2
0.0175061999999998,0.0197282000000012,8.340000000009039e-05,0.0003920000000004,-0.002408599999999,-0.0008817999999999,0,sub_2
0.0172221999999997,0.0203002000000012,0.0001028,0.0008168000000004,-0.002411799999999,-0.0004515999999999,0,sub_2
0.0170217999999997,0.0206566000000012,0.0003580000000001,0.0014550000000004,-0.002415799999999,-1.9799999999916368e-05,0,sub_2
0.0171013999999997,0.0206762000000012,0.000744,0.0020912000000004,-0.002633599999999,0.0006258,0,sub_2
0.0171029999999997,0.0203694000000012,0.0009604,0.0029418000000004,-0.0032757999999991,0.0006326,0,sub_2
0.0172065999999997,0.0198330000000012,0.0011374,0.0035800000000004,-0.0037039999999991,0.0006376000000001,0,sub_2
0.0171147999999998,0.0188542000000012,0.0003576,0.0038002000000004,-0.003915399999999,0.0004260000000001,0,sub_2
0.0175979999999998,0.0186070000000012,-0.0003577999999999,0.0038080000000004,-0.003912999999999,0.0002128000000001,0,sub_2
0.0174463999999998,0.0186710000000012,-0.0009115999999998,0.0033882000000004,-0.004121999999999,-3.199999999896385e-06,0,sub_2
0.0176055999999998,0.0189726000000012,-0.0006271999999998,0.0033970000000004,-0.003694399999999,-3.399999999896384e-06,0,sub_2
0.0182961999999998,0.0196886000000012,-0.0003859999999998,0.0031894000000004,-0.003480799999999,0.0004224,0,sub_2
0.0184387999999998,0.0200630000000012,-6.63999999999097e-05,0.0031884000000004,-0.003057199999999,0.0010628,0,sub_2
0.0181435999999998,0.0202334000000012,-0.0003851999999999,0.0031866000000004,-0.003058799999999,0.00149,0,sub_2
0.0186557999999998,0.0203820000000012,-0.0004021999999999,0.0027696000000004,-0.0030549999999991,0.0010624,0,sub_2
0.0188829999999998,0.0208578000000012,-0.0007951999999998,0.0014992000000004,-0.0028359999999991,0.0008422,0,sub_2
0.0184619999999998,0.0209112000000012,-0.0003699999999998,0.0004442000000004,-0.0019793999999991,0.0008364,0,sub_2
0.0183295999999998,0.0204470000000012,-0.0003307999999998,3.320000000044533e-05,-0.0006971999999991,0.0004072,0,sub_2
0.0181247999999998,0.0201468000000012,0.0001238000000001,-0.0010189999999995,0.0005862000000008,0.0001872,0,sub_2
0.0172167999999998,0.0202012000000012,0.0007642000000001,-0.0005893999999995,0.0014360000000008,0.0004028,0,sub_2
0.0165469999999998,0.0195506000000012,0.0010442,0.0011166000000004,0.0016414000000008,0.0008418,0,sub_2
0.0163121999999997,0.0193320000000012,0.000956,0.0017558000000004,0.0014260000000008,0.0008466,0,sub_2
0.0161843999999997,0.0199800000000012,0.001008,0.0015498000000004,0.0012138000000008,0.0010604,0,sub_2
0.0163629999999997,0.0202652000000012,0.0011596,0.0024114000000004,0.0009988000000008,0.001068,0,sub_2
0.0172147999999997,0.0202472000000012,0.0013128,0.0026332000000004,0.0009982000000008,0.0012844,0,sub_2
0.0175757999999997,0.0201890000000012,0.0017308,0.0020014000000004,0.0014252000000008,0.0019216,0,sub_2
0.0177659999999998,0.0197672000000012,0.0014006,0.0022240000000004,0.0014256000000008,0.0019244,0,sub_2
0.0177593999999998,0.0197394000000012,0.0014124,0.0024334000000004,0.0003604000000008,0.0017136,0,sub_2
0.0180653999999998,0.0192154000000012,0.0017078,0.0028536000000004,-0.0011323999999991,0.0017184,0,sub_2
0.0178303999999998,0.0186698000000012,0.0014254,0.0026392000000004,-0.0013445999999991,0.0017172,0,sub_2
0.0181213999999997,0.0186996000000012,0.0012108,0.0017958000000004,-0.0013367999999991,0.0012862,0,sub_2
0.0183871999999997,0.0191186000000012,0.0008432,0.0007352000000004,-0.0017559999999991,0.0012814,0,sub_2
0.0191655999999997,0.0186748000000012,0.00097,0.0007414000000004,-0.0023911999999991,0.0010708,0,sub_2
0.0193967999999997,0.0189180000000012,0.0009556,0.0005380000000004,-0.0019611999999991,0.001071,0,sub_2
0.0196049999999997,0.0193106000000012,0.0007416,0.0003356000000004,-0.0017425999999991,0.0006442,0,sub_2
0.0187635999999998,0.0194880000000012,3.3000000000110374e-05,0.0003366000000004,-0.002166199999999,3.800000000083641e-06,0,sub_2
0.0186727999999998,0.0192388000000012,0.0006380000000001,0.0009776000000004,-0.002379799999999,-0.0004185999999999,0,sub_2
0.0178001999999998,0.0198428000000012,0.0008122000000001,0.0007652000000004,-0.002165999999999,-0.0004203999999999,0,sub_2
0.0170439999999998,0.0202538000000012,0.0006876,0.0003444000000004,-0.001516599999999,-0.0006373999999998,0,sub_2
0.0165035999999998,0.0202840000000012,0.000779,0.0001312000000004,-0.001933999999999,-0.0006379999999998,0,sub_2
0.0167435999999998,0.0203620000000012,0.0011262,0.0007704000000004,-0.002355199999999,-0.0004189999999998,0,sub_2
0.0164365999999997,0.0206566000000012,0.0004794,0.0016240000000004,-0.002564199999999,-0.0001987999999999,0,sub_2
0.0165943999999997,0.0203454000000012,-6.93999999999496e-05,0.0024806000000004,-0.002345999999999,-0.0001925999999999,0,sub_2
0.0168677999999997,0.0201790000000012,-0.0005913999999999,0.0031178000000004,-0.002775199999999,2.6000000000063604e-05,0,sub_2
0.0175759999999997,0.0199370000000012,-0.0007039999999999,0.0031158000000004,-0.0029889999999991,0.00024,0,sub_2
0.0178877999999997,0.0198168000000012,-0.0010405999999998,0.0029024000000004,-0.0029881999999991,0.0002386,0,sub_2
0.0184155999999998,0.0199752000000012,-0.0004787999999998,0.0024750000000004,-0.0025473999999991,1.9400000000083613e-05,0,sub_2
0.0188137999999998,0.0201756000000011,7.080000000011036e-05,0.0020428000000004,-0.0023229999999991,0.000655,0,sub_2
0.0190161999999998,0.0203986000000011,0.0003394,0.0011858000000004,-0.0016709999999991,0.0012872,0,sub_2
0.0188055999999998,0.0201422000000012,-4.159999999990963e-05,0.0011842000000004,-0.0010203999999991,0.001498,0,sub_2
0.0187711999999998,0.0203822000000012,0.0002794,0.0009674000000005,-0.0010073999999991,0.0014944,0,sub_2
0.0184485999999998,0.0205410000000012,0.0003668,0.0001150000000005,-0.0010033999999991,0.0012748,0,sub_2
0.0183603999999997,0.0201548000000012,0.000564,-0.0011565999999994,0.0002818000000008,0.0006232000000001,0,sub_2
0.0177559999999997,0.0198014000000012,-5.399999999889694e-06,-0.0017881999999995,0.0013528000000008,-0.0002371999999998,0,sub_2
0.0174801999999997,0.0203678000000012,0.0001232000000001,-0.0024233999999995,0.0017838000000008,-0.0008831999999998,0,sub_2
0.0171535999999997,0.0204512000000012,0.0006536,-0.0022099999999995,0.0019954000000008,-0.0006683999999998,0,sub_2
0.0169643999999997,0.0199754000000011,0.000702,-0.0009327999999995,0.0019882000000008,-1.859999999989635e-05,0,sub_2
0.0165161999999997,0.0198696000000011,0.0001214,0.0003426000000004,0.0017674000000008,0.0008452,0,sub_2
0.0161735999999997,0.0202654000000011,0.0007054,0.0014038000000004,0.0015464000000008,0.001921,0,sub_2
0.0155453999999997,0.0204638000000012,0.001095,0.0022534000000004,0.0017522000000008,0.002995,0,sub_2
0.0155437999999997,0.0201676000000012,0.0007246,0.0031068000000004,0.0019614000000008,0.0032144,0,sub_2
0.0163309999999997,0.0197728000000012,0.0009338,0.0031088000000004,0.0019632000000008,0.0027872,0,sub_2
0.0169729999999998,0.0197766000000012,0.001326,0.0035346000000004,0.0008998000000009,0.001937,0,sub_2
0.0177149999999998,0.0195934000000012,0.0005532,0.0035326000000004,-0.000587399999999,0.0008708000000001,0,sub_2
0.0189781999999998,0.0192016000000012,-7.039999999992972e-05,0.0037440000000004,-0.001650999999999,0.0002326000000001,0,sub_2
0.0193323999999998,0.0190780000000012,-0.0003059999999999,0.0035306000000004,-0.0016503999999991,0.0002312000000001,0,sub_2
0.0188587999999998,0.0188926000000012,-0.0010651999999999,0.0028904000000004,-0.0012237999999991,0.0006534000000001,0,sub_2
0.0193659999999998,0.0187478000000012,-0.0014259999999999,0.0016120000000004,-0.0010053999999991,0.0004306000000001,0,sub_2
0.0203877999999997,0.0182248000000012,-0.0007017999999999,0.0013988000000004,-0.0018533999999991,-0.0004243999999999,0,sub_2
0.0205283999999997,0.0183240000000012,0.0003656,0.0007608000000004,-0.0033313999999991,-0.0014963999999999,0,sub_2
0.0208165999999997,0.0183770000000012,0.0005636,-9.05999999995344e-05,-0.0050209999999991,-0.0027833999999999,0,sub_2
0.0214063999999997,0.0188178000000012,0.000472,-0.0005199999999995,-0.0075651999999991,-0.0038525999999998,0,sub_2
0.0208231999999997,0.0190864000000012,-0.0002475999999999,-0.0007351999999995,-0.0094725999999991,-0.0044939999999998,0,sub_2
0.0199103999999997,0.0200088000000012,7.800000000009023e-05,-0.0013743999999995,-0.0098905999999991,-0.0042855999999998,0,sub_2
0.0191003999999997,0.0208254000000012,0.0003046,-0.0013773999999995,-0.0096809999999991,-0.0034313999999998,0,sub_2
0.0181761999999997,0.0216928000000012,0.0015024,-0.0011677999999995,-0.0094727999999991,-0.0023619999999999,0,sub_2
0.0173761999999997,0.0223908000000012,0.0014742,-0.0007519999999995,-0.0090409999999991,-0.0015083999999999,0,sub_2
0.0169109999999997,0.0230230000000012,0.0014854,-0.0005485999999995,-0.0086075999999991,-0.0008699999999999,0,sub_2
0.0163249999999997,0.0227484000000012,0.0012504,0.0002988000000004,-0.0077485999999991,-0.0006549999999999,0,sub_2
0.0154457999999997,0.0216302000000012,0.000941,0.0009376000000004,-0.0058235999999991,-0.0004427999999999,0,sub_2
0.0148551999999997,0.0204252000000012,-0.0002941999999999,0.0002990000000004,-0.0032549999999991,-0.0002401999999998,0,sub_2
0.0152655999999998,0.0201126000000012,-5.799999999990963e-05,-0.0009697999999995,-0.0004815999999991,-3.899999999989641e-05,0,sub_2
0.0162957999999998,0.0197096000000012,0.0009838,-0.0015973999999995,0.0020780000000008,-0.0002601999999998,0,sub_2
0.0178747999999998,0.0196074000000012,0.001038,-0.0024393999999995,0.0040010000000008,-0.0009093999999998,0,sub_2
0.0193749999999998,0.0195788000000012,0.0005918,-0.0030727999999995,0.0046458000000008,-0.0017691999999998,0,sub_2
0.0206599999999998,0.0195042000000012,0.0004104,-0.0024373999999995,0.0042302000000008,-0.0026231999999998,0,sub_2
0.0202701999999998,0.0188628000000012,0.0002622,-0.0015923999999995,0.0029616000000008,-0.0034745999999998,0,sub_2
0.0199141999999997,0.0189444000000012,-6.11999999999296e-05,-0.0009637999999995,0.0016912000000008,-0.0036865999999999,0,sub_2
0.0186553999999997,0.0194534000000012,-0.0001339999999999,-0.0007637999999995,0.0006328000000008,-0.0032607999999999,0,sub_2
0.0179069999999997,0.0198854000000012,0.0001698,-0.0005617999999995,-0.0002115999999991,-0.0030487999999999,0,sub_2
0.0171475999999997,0.0206516000000012,0.0007462,-0.0016287999999995,-0.0004201999999991,-0.0032695999999999,0,sub_2
0.0167503999999997,0.0211928000000012,0.0007152,-0.0018441999999995,-0.0010577999999991,-0.0034837999999999,0,sub_2
0.0158077999999997,0.0213402000000012,-4.2199999999929536e-05,-0.0005769999999995,-0.001913399999999,-0.0028383999999998,0,sub_2
0.0156527999999997,0.0206444000000012,-0.0003369999999999,0.0004778000000004,-0.002130999999999,-0.0017681999999998,0,sub_2
0.0164075999999997,0.0206990000000012,-0.0002481999999999,0.0004696000000004,-0.001704799999999,-0.0009199999999998,0,sub_2
0.0176707999999997,0.0203776000000012,-0.0001839999999999,0.0006728000000004,-0.001917599999999,-0.0002829999999998,0,sub_2
0.0189245999999997,0.0205154000000012,-3.039999999990959e-05,0.0004560000000004,-0.000637399999999,0.0003492000000001,0,sub_2
0.0201443999999997,0.0201084000000012,0.0006504,-0.0010269999999995,0.0017114000000008,0.0003358,0,sub_2
0.0207655999999998,0.0194804000000012,0.0009708,-0.0020813999999995,0.0036362000000008,-0.0005285999999999,0,sub_2
0.0202735999999998,0.0191578000000012,0.000944,-0.0027157999999995,0.0038556000000008,-0.0016013999999999,0,sub_2
0.0191569999999998,0.0191344000000012,0.000889,-0.0029351999999995,0.0038648000000008,-0.0022475999999999,0,sub_2
0.0181521999999998,0.0184740000000012,0.0009652,-0.0035775999999995,0.0047276000000008,-0.0028979999999999,0,sub_2
0.0175751999999998,0.0194604000000012,0.000735,-0.0050763999999995,0.0049542000000008,-0.0035533999999999,0,sub_2
0.0175671999999997,0.0202956000000012,0.0001458,-0.0063655999999995,0.0043278000000008,-0.0042063999999999,0,sub_2
0.0180663999999997,0.0207030000000012,-0.0003697999999999,-0.0068013999999995,0.0045474000000008,-0.0039997999999999,0,sub_2
0.0186581999999997,0.0209224000000012,-0.0010429999999999,-0.0074337999999994,0.0060418000000008,-0.0042197999999999,0,sub_2
0.0196045999999997,0.0211042000000012,-0.0006697999999999,-0.0080661999999994,0.0073240000000008,-0.0046531999999999,0,sub_2
0.0200817999999997,0.0199040000000012,8.280000000009035e-05,-0.0084861999999994,0.0088170000000008,-0.0046581999999999,0,sub_2
0.0204183999999998,0.0199994000000012,-0.0003963999999999,-0.0099737999999994,0.0107618000000008,-0.0050949999999999,0,sub_2
0.0200797999999998,0.0198522000000012,-0.0007201999999999,-0.0123195999999994,0.0116442000000008,-0.0055367999999999,0,sub_2
0.0186213999999998,0.0205156000000012,0.0002788,-0.0116993999999994,0.0086780000000008,-0.0050981999999999,0,sub_2
0.0167407999999998,0.0215242000000012,0.000823,-0.0098083999999994,0.0046376000000008,-0.0035809999999999,0,sub_2
0.0149693999999998,0.0222362000000012,0.000816,-0.0077001999999995,0.0014486000000009,-0.0020633999999999,0,sub_2
0.0134075999999998,0.0221498000000012,0.0017828,-0.0060085999999995,-0.000268599999999,-0.0003403999999999,0,sub_2
0.0126661999999997,0.0224720000000012,0.002135,-0.0036643999999995,-0.000279199999999,0.0003170000000001,0,sub_2
0.0127753999999997,0.0212994000000012,0.0017576,-0.0021583999999995,0.0024852000000009,0.0003240000000001,0,sub_2
0.0129803999999997,0.0203702000000012,0.0011106,-0.0021451999999995,0.0046338000000008,-0.0007417999999998,0,sub_2
0.0138981999999997,0.0194078000000012,0.0010926,-0.0015013999999995,0.0040128000000008,-0.0024405999999998,0,sub_2
0.0154503999999997,0.0197040000000012,0.0009594000000001,0.0001930000000004,0.0008272000000008,-0.0030603999999998,0,sub_2
0.0164705999999998,0.0196530000000012,0.0012574000000001,0.0020940000000004,-0.0027895999999991,-0.0026099999999998,0,sub_2
0.0181753999999997,0.0199174000000012,0.0009732000000001,0.0031464000000004,-0.0047013999999991,-0.0015267999999998,0,sub_2
0.0204485999999997,0.0204680000000012,0.0001974000000001,0.0035712000000004,-0.0042801999999991,-0.0006697999999998,0,sub_2
0.0223077999999997,0.0218142000000012,-0.0004669999999998,0.0025044000000004,-0.0034275999999991,0.0001764,0,sub_2
0.0234789999999997,0.0213736000000012,0.000193,0.0018672000000004,-0.0025739999999991,0.0003846,0,sub_2
0.0249335999999997,0.0201446000000012,4.920000000007026e-05,0.0005956000000004,-0.0008561999999991,0.0003824000000001,0,sub_2
0.0258911999999998,0.0191638000000012,0.0003046,-0.0028039999999995,0.0008742000000008,-0.0009163999999998,0,sub_2
0.0253031999999998,0.0189690000000012,-0.0001333999999999,-0.0053605999999995,0.0004702000000008,-0.0019929999999998,0,sub_2
0.0234495999999998,0.0195612000000012,-0.0001065999999999,-0.0057875999999995,-0.0007933999999991,-0.0030535999999998,0,sub_2
0.0204661999999998,0.0212136000000012,-0.0001657999999999,-0.0047237999999995,-0.0014281999999991,-0.0028227999999998,0,sub_2
0.0167767999999998,0.0232060000000012,-0.0004809999999999,-0.0034551999999995,-0.0025037999999991,-0.0013169999999998,0,sub_2
0.0136597999999998,0.0239376000000012,-0.0013017999999998,-0.0011253999999995,-0.0033761999999991,0.0016914,0,sub_2
0.0111113999999998,0.0231318000000012,0.0001826000000001,0.0009968000000004,-0.0031817999999991,0.0044834,0,sub_2
0.0100397999999998,0.0208012000000012,0.0011158000000001,0.0029202000000004,-0.0014883999999991,0.0055628,0,sub_2
0.0115585999999998,0.0189796000000012,0.0008554,0.0020890000000004,0.0008658000000008,0.004067,0,sub_2
0.0135721999999998,0.0183282000000012,0.000991,-2.3399999999553464e-05,0.0008894000000008,0.0004288,0,sub_2
0.0159267999999998,0.0178226000000012,0.0011938,-0.0006489999999995,-0.0014321999999991,-0.0040507999999999,0,sub_2
0.0196973999999998,0.0177884000000012,0.0009766,-0.0002153999999995,-0.0044009999999991,-0.0074537999999999,0,sub_2
0.0222437999999998,0.0180450000000012,6.080000000007024e-05,-0.0021241999999995,-0.0043863999999991,-0.0089541999999998,0,sub_2
0.0233895999999998,0.0176702000000012,0.0011832,-0.0029967999999994,-0.0071589999999991,-0.0074613999999998,0,sub_2
0.0249963999999998,0.0168816000000012,0.0009608,-0.0008831999999995,-0.0099427999999991,-0.0057339999999998,0,sub_2
0.0246393999999998,0.0175826000000012,0.0006572,-0.0011061999999995,-0.0107993999999991,-0.0044525999999998,0,sub_2
0.0208235999999998,0.0183922000000012,-0.0001757999999999,-0.0028131999999995,-0.0099445999999991,-0.0036109999999998,0,sub_2
0.0180143999999998,0.0203238000000012,-7.759999999990981e-05,-0.0028283999999995,-0.0110193999999991,-0.0012595999999998,0,sub_2
0.0156875999999998,0.0217174000000012,-0.0009631999999998,-0.0015471999999995,-0.0097497999999991,-0.0001839999999998,0,sub_2
0.0135213999999998,0.0223892000000012,0.0002470000000001,-0.0017489999999995,-0.0063435999999991,0.0006648000000001,0,sub_2
0.0124607999999998,0.0234418000000012,0.0012914000000001,-3.719999999953344e-05,-0.0048599999999991,0.0011022000000001,0,sub_2
0.0135465999999997,0.0243460000000012,0.0024878,0.0042244000000004,-0.0061531999999991,0.0011336000000001,0,sub_2
0.0146483999999997,0.0230244000000012,0.0022880000000001,0.0095490000000004,-0.0093633999999991,0.0001066000000001,0,sub_2
0.0164069999999997,0.0220062000000012,0.0012222000000001,0.0121036000000004,-0.0112871999999991,-0.0005139999999998,0,sub_2
0.0187477999999997,0.0212560000000012,4.0200000000110285e-05,0.0135952000000004,-0.0119307999999991,-0.0007163999999998,0,sub_2
0.0215215999999997,0.0193968000000012,-0.0009269999999998,0.0135990000000004,-0.0104419999999991,-7.739999999991677e-05,0,sub_2
0.0224901999999997,0.0172984000000012,-0.0015263999999998,0.0114760000000004,-0.0068177999999991,0.001185,0,sub_2
0.0231821999999998,0.0166910000000012,-0.0017475999999999,0.0074354000000004,-0.0014865999999991,0.0035,0,sub_2
0.0225895999999998,0.0168792000000012,-0.0014605999999999,0.0040330000000004,0.0027794000000008,0.00518,0,sub_2
0.0204875999999998,0.0184932000000012,-0.0004617999999999,0.0023260000000004,0.0036342000000008,0.0060216,0,sub_2
0.0182311999999997,0.0207898000000012,0.000544,0.0019082000000004,0.0025642000000009,0.0064542,0,sub_2
0.0170795999999997,0.0228348000000012,0.001239,0.0019142000000004,0.0006414000000009,0.0066772,0,sub_2
0.0174251999999997,0.0220564000000012,0.0009212,0.0021412000000004,-0.002124199999999,0.0043392,0,sub_2
0.0174485999999997,0.0218062000000012,0.0005462,0.0015254000000004,-0.004452999999999,7.180000000008291e-05,0,sub_2
0.0179657999999997,0.0203814000000012,-0.0008695999999999,5.980000000046643e-05,-0.005289999999999,-0.0035625999999999,0,sub_2
0.0182573999999998,0.0194112000000012,-0.0014453999999999,-0.0007859999999995,-0.005916799999999,-0.0059177999999999,0,sub_2
0.0189393999999998,0.0182478000000012,-0.0020555999999999,-0.0022767999999995,-0.006333399999999,-0.0069959999999998,0,sub_2
0.0185479999999998,0.0202368000000012,-0.0007659999999999,-0.0031341999999995,-0.006333799999999,-0.0061473999999998,0,sub_2
0.0187797999999998,0.0215156000000012,-0.0002799999999999,-0.0018493999999995,-0.005503799999999,-0.0027129999999998,0,sub_2
0.0182269999999998,0.0225862000000012,0.0003166,0.0009254000000004,-0.004682599999999,0.0015864000000001,0,sub_2
0.0178007999999998,0.0226070000000012,0.0003906,0.0026380000000004,-0.003853199999999,0.0048102000000001,0,sub_2
0.0176531999999998,0.0226320000000012,0.0004328,0.0045756000000004,-0.0034387999999991,0.005045,0,sub_2
0.0177633999999998,0.0228986000000012,8.98000000001102e-05,0.0067324000000004,-0.0036565999999991,0.0033592,0,sub_2
0.0175219999999998,0.0217982000000012,-0.0002157999999999,0.0075936000000004,-0.0045015999999991,0.0008026,0,sub_2
0.0179355999999998,0.0207856000000012,9.120000000007016e-05,0.0067506000000004,-0.0040647999999991,-0.0011265999999999,0,sub_2
0.0178543999999998,0.0202088000000012,0.0002436,0.0059038000000004,-0.0029947999999991,-0.0015611999999999,0,sub_2
0.0192837999999998,0.0202568000000012,0.0002796,0.0056874000000004,-0.0023599999999991,-0.0002815999999999,0,sub_2
0.0198769999999998,0.0191494000000012,0.0005156,0.0046166000000004,-0.0008743999999991,0.0020592,0,sub_2
