userAcceleration.x,userAcceleration.y,userAcceleration.z,rotationRate.x,rotationRate.y,rotationRate.z,label,subject
0.0019349999999997,0.0143972000000012,0.0039898,0.0006972000000003,0.0018046000000008,0.0015184000000001,0,sub_4
0.0025381999999997,0.0140178000000011,0.0041558,0.0015436000000003,0.0009606000000008,0.0017522000000001,0,sub_4
0.0025045999999997,0.0138824000000012,0.0046012,0.0023852000000003,-0.001160999999999,0.0017740000000001,0,sub_4
0.0027209999999997,0.0139166000000011,0.0045096,0.0030174000000003,-0.002853999999999,0.0013666000000001,0,sub_4
0.0022627999999997,0.0139850000000011,0.0039518,0.0034400000000004,-0.003906199999999,0.0007432000000001,0,sub_4
0.0016859999999997,0.0142826000000011,0.0038634,0.0034390000000004,-0.004331399999999,0.0005302000000001,0,sub_4
0.0010173999999997,0.0148748000000011,0.0034284,0.0034418000000003,-0.004116799999999,0.0001026000000001,0,sub_4
0.0002741999999997,0.0149642000000011,0.002745,0.0034476000000003,-0.0030505999999991,-0.0001123999999998,0,sub_4
-7.400000000021682e-05,0.0145428000000012,0.0023908,0.0036648000000003,-0.0019869999999991,0.0001014000000001,0,sub_4
-0.0002526000000002,0.0147884000000012,0.002434,0.0036660000000003,-0.0009197999999991,0.0005266000000001,0,sub_4
-0.0001196000000002,0.0143282000000011,0.0022468,0.0032404000000003,-6.339999999913063e-05,0.0007356000000001,0,sub_4
0.0002919999999997,0.0142140000000011,0.002092,0.0021758000000003,0.0010084000000008,0.0009398000000001,0,sub_4
0.0004509999999997,0.0143466000000011,0.0023166,0.0011110000000003,0.0020802000000008,0.0011440000000001,0,sub_4
0.0008239999999997,0.0148738000000011,0.0026092,4.240000000038317e-05,0.0020876000000008,0.0011358000000001,0,sub_4
0.0015541999999997,0.0151702000000011,0.0030236,-0.0001699999999995,0.0018770000000008,0.0007074000000001,0,sub_4
0.0018543999999997,0.0154300000000012,0.0031864,0.0002558000000004,0.0016624000000008,0.0007106000000001,0,sub_4
0.0016315999999997,0.0157140000000012,0.0033124,0.0010948000000004,0.0010316000000008,0.0004948000000001,0,sub_4
0.0024999999999997,0.0158408000000012,0.0032882,0.0015062000000004,0.0001890000000009,0.0002762000000001,0,sub_4
0.0025713999999997,0.0159682000000012,0.0038778,0.0019184000000004,-0.000228199999999,0.0002708000000001,0,sub_4
0.0024167999999997,0.0158334000000012,0.003896,0.0016904000000004,-0.000430999999999,0.0004742000000001,0,sub_4
0.0021615999999997,0.0154600000000012,0.0040798,0.0016750000000004,-0.000847399999999,0.0006794000000001,0,sub_4
0.0023603999999997,0.0156304000000012,0.004492,0.0016720000000003,-0.001486599999999,0.0006802000000001,0,sub_4
0.0016463999999997,0.0157042000000012,0.0042708,0.0018824000000003,-0.0021263999999991,0.0006826000000001,0,sub_4
0.0012303999999997,0.0152802000000012,0.0042546,0.0023120000000003,-0.0017009999999991,0.0004714000000001,0,sub_4
0.0005489999999997,0.0150638000000012,0.0040338,0.0025108000000003,-0.0016913999999991,0.0004608000000001,0,sub_4
0.0005287999999997,0.0157070000000012,0.0038108,0.0024970000000003,-0.0014679999999991,0.0004486000000001,0,sub_4
0.0001215999999997,0.0157984000000012,0.0035746,0.0020556000000003,-0.0012439999999991,0.0006470000000001,0,sub_4
0.0001947999999997,0.0155110000000012,0.0034102,0.0020390000000004,-0.0005987999999991,0.0017024000000001,0,sub_4
0.0002941999999997,0.0154946000000012,0.0029026,0.0018034000000004,-0.0008065999999991,0.0031846,0,sub_4
0.0010157999999997,0.0157052000000012,0.0028896,0.0017976000000004,-0.0008117999999991,0.0044664,0,sub_4
0.0014677999999997,0.0151802000000012,0.0032022,0.0015822000000004,-0.0008127999999991,0.004892,0,sub_4
0.0020617999999997,0.0147244000000012,0.003223,0.0020108000000004,-0.0003881999999991,0.0048944,0,sub_4
0.0023665999999997,0.0147450000000012,0.004131,0.0024296000000004,-0.0003839999999991,0.0042442,0,sub_4
0.0025037999999997,0.0151634000000012,0.004482,0.0026378000000004,-0.0003765999999991,0.0029516,0,sub_4
0.0021603999999997,0.0153514000000012,0.0046594,0.0030602000000004,5.540000000086923e-05,0.0018736,0,sub_4
0.0012871999999997,0.0159450000000012,0.0045296,0.0034780000000004,0.0002710000000008,0.0016506,0,sub_4
0.0003735999999997,0.0159822000000012,0.0045368,0.0036748000000004,-0.0001559999999991,0.0024948000000001,0,sub_4
-0.0002280000000002,0.0163488000000012,0.0037026,0.0038852000000004,-0.0003713999999991,0.0029238000000001,0,sub_4
1.4999999999783157e-05,0.0164028000000012,0.002937,0.0040938000000004,-0.0008007999999991,0.0035668000000001,0,sub_4
0.0001151999999997,0.0161330000000012,0.0028536,0.0043044000000004,-0.0016527999999991,0.0033558000000001,0,sub_4
0.0008137999999997,0.0154930000000012,0.0027386,0.0042922000000004,-0.0022815999999991,0.0024924000000001,0,sub_4
0.0013451999999997,0.0154734000000012,0.0024678,0.0042846000000003,-0.0026939999999991,0.0007744000000001,0,sub_4
0.0018871999999997,0.0151744000000012,0.002993,0.0036352000000003,-0.0028935999999991,-0.0003075999999998,0,sub_4
0.0019051999999997,0.0144274000000012,0.00377,0.0034152000000003,-0.0030919999999991,-0.0020275999999998,0,sub_4
0.0024207999999997,0.0140132000000012,0.003584,0.0027676000000003,-0.0030775999999991,-0.0033233999999998,0,sub_4
0.0021893999999997,0.0138288000000012,0.0033978,0.0023446000000003,-0.0030727999999991,-0.0041809999999998,0,sub_4
0.0023055999999997,0.0138518000000012,0.0034116,0.0019218000000003,-0.0028555999999991,-0.0048251999999998,0,sub_4
0.0021449999999997,0.0139992000000012,0.0028652,0.0014978000000003,-0.0030637999999991,-0.0056823999999998,0,sub_4
0.0017185999999997,0.0148154000000011,0.0025576,0.0006390000000003,-0.0022045999999991,-0.0059107999999998,0,sub_4
0.0007853999999997,0.0153320000000011,0.0028196,-7.399999999596835e-06,-0.0011347999999991,-0.0057107999999998,0,sub_4
0.0004101999999997,0.0158064000000011,0.0025388,-0.0006545999999995,-0.0002777999999991,-0.0055103999999998,0,sub_4
-0.0005016000000002,0.0156328000000011,0.0025808,-0.0019419999999995,0.0005812000000008,-0.0053145999999998,0,sub_4
-0.0008168000000002,0.0153544000000012,0.002433,-0.0027997999999995,0.0022902000000008,-0.0049031999999998,0,sub_4
-0.0006396000000002,0.0152202000000012,0.0024484,-0.0034379999999995,0.0031430000000008,-0.0044813999999998,0,sub_4
-0.0001724000000002,0.0151740000000012,0.0027324,-0.0040769999999995,0.0035706000000008,-0.0042727999999998,0,sub_4
-6.060000000023681e-05,0.0154520000000012,0.0032278,-0.0042923999999995,0.0039940000000008,-0.0034201999999998,0,sub_4
0.0007201999999997,0.0157272000000012,0.003534,-0.0034513999999995,0.0042062000000008,-0.0025661999999998,0,sub_4
0.0011523999999997,0.0157840000000012,0.0041292,-0.0030379999999995,0.0035702000000008,-0.0023551999999998,0,sub_4
0.0009427999999997,0.0158848000000012,0.0043182,-0.0024131999999995,0.0025072000000008,-0.0021421999999998,0,sub_4
0.0011005999999997,0.0156320000000011,0.0040962,-0.0022143999999995,0.0016588000000008,-0.0019323999999998,0,sub_4
0.0014633999999997,0.0155502000000011,0.004063,-0.0018009999999995,0.0003862000000009,-0.0023615999999998,0,sub_4
0.0014089999999997,0.0152774000000011,0.0042574,-0.0018057999999995,-0.000679199999999,-0.0023603999999998,0,sub_4
0.0016191999999997,0.0154420000000011,0.0046432,-0.0013867999999995,-0.001748599999999,-0.0017151999999998,0,sub_4
0.0020299999999997,0.0153052000000011,0.0043068,-0.0009647999999995,-0.002815199999999,-0.0017107999999998,0,sub_4
0.0017933999999997,0.0154836000000012,0.0041154,-0.0001237999999995,-0.003875999999999,-0.0023553999999998,0,sub_4
0.0014581999999997,0.0154568000000012,0.0046382,8.48000000004033e-05,-0.0036545999999991,-0.0034333999999998,0,sub_4
0.0009011999999997,0.0155426000000012,0.0046366,0.0009334000000003,-0.0032229999999991,-0.0042935999999998,0,sub_4
0.0004501999999997,0.0158872000000012,0.003833,0.0015668000000003,-0.003004599999999,-0.0049413999999998,0,sub_4
0.0006821999999997,0.0157232000000012,0.0036224,0.0009152000000003,-0.002998399999999,-0.0047433999999998,0,sub_4
0.0006819999999997,0.0156444000000012,0.0034384,0.0004904000000003,-0.001934199999999,-0.0041067999999998,0,sub_4
0.0002605999999997,0.0147370000000012,0.0033552,0.0004846000000003,-0.001302599999999,-0.0021847999999998,0,sub_4
0.0007265999999997,0.0143644000000012,0.00279,-0.0001631999999995,-0.001094999999999,-0.0002667999999998,0,sub_4
0.0011851999999997,0.0136548000000012,0.002896,-0.0008109999999995,-0.0010995999999991,0.0014378000000001,0,sub_4
0.0009825999999997,0.0138618000000012,0.0035112,2.54000000004034e-05,-0.000249999999999,0.0029266000000001,0,sub_4
0.0005387999999997,0.0142280000000012,0.0038512,0.0006476000000003,0.0001752000000009,0.0042008000000001,0,sub_4
0.0005703999999997,0.0146836000000012,0.0033908,0.0010612000000003,0.0008174000000009,0.0046186000000001,0,sub_4
-4.140000000021678e-05,0.0154880000000012,0.0037754,0.0010510000000003,0.0016760000000009,0.0046060000000001,0,sub_4
-0.0009162000000001,0.0161104000000012,0.0040942,0.0008292000000004,0.0031736000000009,0.0048048000000001,0,sub_4
-0.0014656000000001,0.0161748000000012,0.0039002,0.0001920000000004,0.0040272000000008,0.005013,0,sub_4
-0.0015230000000001,0.0160338000000012,0.0042808,-0.0004499999999995,0.0044520000000008,0.0058624,0,sub_4
-0.0008576000000001,0.0162820000000012,0.0036932,-0.0004671999999995,0.0042454000000008,0.0065036,0,sub_4
0.0005021999999997,0.0161086000000012,0.0035508,-0.0004851999999995,0.0036136000000008,0.0069316,0,sub_4
0.0015949999999997,0.0156364000000012,0.0041198,0.0001388000000004,0.0025568000000008,0.0065102,0,sub_4
0.0023077999999997,0.0154292000000012,0.0043324,0.0014038000000004,0.0014988000000008,0.0058794,0,sub_4
0.0031341999999997,0.0147182000000011,0.0043794,0.0022402000000004,1.6200000000889287e-05,0.0052464,0,sub_4
0.0033639999999997,0.0147752000000011,0.0051086,0.0024498000000004,-0.0014731999999991,0.0046088,0,sub_4
0.0027499999999997,0.0144936000000011,0.004868,0.0030850000000004,-0.0031773999999991,0.0039746000000001,0,sub_4
0.0024715999999997,0.0146424000000011,0.0042194,0.0037232000000004,-0.004454599999999,0.0031260000000001,0,sub_4
0.0015819999999997,0.0148640000000011,0.0040956,0.0037216000000004,-0.005088799999999,0.0022810000000001,0,sub_4
0.0007341999999997,0.0155092000000012,0.0037292,0.0041486000000004,-0.005510599999999,0.0012250000000001,0,sub_4
-0.0003288000000002,0.0152194000000012,0.003804,0.0045756000000004,-0.005507999999999,0.0005958000000001,0,sub_4
-0.0006206000000002,0.0153200000000012,0.0034956,0.0047950000000004,-0.004438399999999,-0.0002499999999998,0,sub_4
-0.0014416000000002,0.0155470000000012,0.003123,0.0041610000000004,-0.0029413999999991,-0.0006749999999998,0,sub_4
-0.0011988000000002,0.0153242000000011,0.0030124,0.0035276000000004,-0.0014477999999991,-0.0006813999999998,0,sub_4
-0.0014102000000002,0.0150172000000011,0.0026926,0.0024684000000004,0.0002604000000008,-0.0006909999999998,0,sub_4
-0.0006850000000002,0.0152452000000011,0.0023982,0.0014082000000004,0.0019678000000008,-0.0004869999999998,0,sub_4
-0.0003606000000002,0.0155934000000011,0.0026466,-8.059999999959687e-05,0.0032504000000008,-0.0002853999999998,0,sub_4
0.0001951999999997,0.0156066000000012,0.0029098,-0.0013589999999995,0.0041054000000008,0.0001320000000001,0,sub_4
0.0001111999999997,0.0158402000000012,0.003121,-0.0026393999999995,0.0047466000000008,0.0007632,0,sub_4
0.0006059999999997,0.0160244000000012,0.0032432,-0.0030681999999995,0.0049586000000008,0.0014008,0,sub_4
0.0006023999999997,0.0161548000000012,0.0036594,-0.0030719999999995,0.0045308000000008,0.0018286,0,sub_4
0.0006647999999997,0.0162972000000012,0.003911,-0.0022221999999995,0.0034668000000008,0.0022714,0,sub_4
0.0009321999999997,0.0165662000000012,0.0048514,-0.0015867999999995,0.0019782000000008,0.0024994,0,sub_4
0.0011497999999997,0.0163360000000012,0.0048692,-0.0003101999999995,0.0002760000000008,0.002305,0,sub_4
0.0012279999999997,0.0161624000000012,0.0050318,0.0007540000000004,-0.0012123999999991,0.002109,0,sub_4
0.0013225999999997,0.0160490000000012,0.0047344,0.0009674000000004,-0.0024831999999991,0.0014794,0,sub_4
0.0009491999999997,0.0157320000000012,0.0050152,0.0009664000000003,-0.0033327999999991,0.0008396,0,sub_4
0.0009467999999997,0.0153694000000012,0.0041582,0.0016084000000003,-0.0035455999999991,0.0002036,0,sub_4
0.0008015999999997,0.0153728000000012,0.0039464,0.0016122000000003,-0.0031177999999991,-0.0002241999999999,0,sub_4
0.0005139999999997,0.0155608000000011,0.0037006,0.0014002000000003,-0.0024765999999991,-0.0002241999999999,0,sub_4
0.0005469999999997,0.0161378000000012,0.003546,0.0011874000000004,-0.0020481999999991,-0.0002239999999999,0,sub_4
0.0004245999999997,0.0161540000000011,0.0030062,0.0009764000000004,-0.0009817999999991,-1.0999999999935942e-05,0,sub_4
-0.0004086000000001,0.0156616000000011,0.002438,0.0003368000000004,0.0002968000000008,0.0008398,0,sub_4
-0.0003954000000001,0.0152024000000011,0.0018844,-0.0005181999999995,0.0007256000000008,0.001263,0,sub_4
0.0001531999999998,0.0152892000000012,0.0018156,-0.0015839999999995,0.0009424000000008,0.0012552,0,sub_4
0.0004515999999998,0.0149582000000012,0.0022982,-0.0017945999999995,0.0015822000000008,0.001253,0,sub_4
0.0007085999999998,0.0150874000000012,0.002548,-0.0013687999999995,0.0013678000000008,0.0012564,0,sub_4
0.0009473999999997,0.0151540000000012,0.0034626,-0.0007295999999995,0.0007282000000008,0.0008344,0,sub_4
0.0006231999999997,0.0162904000000012,0.0041258,-9.319999999957684e-05,0.0007240000000008,0.0008288,0,sub_4
0.0002331999999997,0.0164258000000012,0.0046126,0.0005412000000004,0.0005060000000008,0.0010372,0,sub_4
-0.0004860000000002,0.0163940000000012,0.0043478,0.0005336000000004,7.620000000088905e-05,0.001455,0,sub_4
-0.0008584000000002,0.0165784000000012,0.0043708,0.0003136000000004,-0.0001397999999991,0.001871,0,sub_4
-0.0006326000000002,0.0169534000000012,0.0044026,9.460000000042312e-05,-0.0001427999999991,0.0022868,0,sub_4
-0.0004250000000002,0.0164734000000012,0.003958,0.0005176000000004,-0.0007843999999991,0.0025042000000001,0,sub_4
-0.0002046000000002,0.0160514000000012,0.0037524,0.0009434000000004,-0.0007867999999991,0.0027208000000001,0,sub_4
-3.380000000021685e-05,0.0156996000000012,0.0035656,0.0013622000000004,-0.0005717999999991,0.0025014000000001,0,sub_4
0.0006729999999997,0.0148444000000012,0.0038334,0.0011400000000004,-0.0007797999999991,0.0020644000000001,0,sub_4
0.0010657999999997,0.0147894000000012,0.0037166,0.0009186000000004,-0.0007747999999991,0.0016272000000001,0,sub_4
0.0014811999999997,0.0147314000000012,0.0044682,0.0006972000000003,-0.0007697999999991,0.0011900000000001,0,sub_4
0.0015851999999997,0.0149722000000012,0.0044842,0.0004768000000003,-0.0009761999999991,0.0003258000000001,0,sub_4
0.0013831999999997,0.0153374000000012,0.0045892,0.0004788000000003,-0.0011865999999991,-0.0003147999999998,0,sub_4
0.0005737999999997,0.0161516000000012,0.0044876,0.0009064000000003,-0.0009751999999991,-0.0003119999999998,0,sub_4
-9.48000000002169e-05,0.0164944000000012,0.0042322,0.0009074000000003,-0.0005499999999991,-9.8999999999896e-05,0,sub_4
-0.0004722000000002,0.0169388000000011,0.0038998,0.0006938000000004,8.660000000088883e-05,-0.0003239999999998,0,sub_4
-0.0008846000000002,0.0172316000000011,0.0036492,0.0004782000000004,0.0005094000000008,-0.0003349999999998,0,sub_4
-0.0007598000000002,0.0172346000000011,0.0036436,0.0004760000000003,0.0011436000000008,-0.0001311999999998,0,sub_4
-0.0003014000000002,0.0168398000000011,0.003556,4.800000000038315e-05,0.0013558000000008,-0.0005707999999998,0,sub_4
0.0001863999999997,0.0163156000000011,0.003603,0.0002572000000003,0.0011388000000008,-0.0007917999999998,0,sub_4
0.0001429999999997,0.0156952000000011,0.0039296,0.0002592000000003,0.0013528000000008,-0.0010055999999998,0,sub_4
0.0004745999999997,0.0153982000000011,0.0042558,0.0004726000000003,0.0011398000000008,-0.0012175999999998,0,sub_4
0.0005265999999997,0.0146300000000011,0.004327,0.0002544000000004,0.0002874000000008,-0.0010043999999998,0,sub_4
0.0006215999999997,0.0145298000000011,0.0041812,0.0006740000000004,-0.000141199999999,-0.0007945999999998,0,sub_4
0.0004341999999997,0.0146494000000012,0.0038444,0.0008812000000004,-0.000568199999999,-0.0007997999999998,0,sub_4
0.0006875999999997,0.0148046000000012,0.0034548,0.0006588000000004,-0.001208399999999,-0.0003805999999999,0,sub_4
0.0002279999999998,0.0151378000000012,0.003277,0.0008632000000004,-0.001637799999999,0.000255,0,sub_4
-4.000000000019685e-05,0.0159352000000012,0.0032306,0.0017106000000004,-0.001854799999999,0.0004676,0,sub_4
-0.0006964000000001,0.0165554000000012,0.0034282,0.0019212000000004,-0.001857999999999,0.00111,0,sub_4
-0.0008956000000001,0.0168916000000012,0.0038202,0.0019194000000003,-0.002071799999999,0.0013238,0,sub_4
-0.0008552000000001,0.0168186000000012,0.0037822,0.0025576000000003,-0.0025001999999991,0.0013288000000001,0,sub_4
-0.0002326000000002,0.0166504000000012,0.003936,0.0021336000000003,-0.0020717999999991,0.0011118000000001,0,sub_4
4.639999999978319e-05,0.0164570000000012,0.003965,0.0014952000000003,-0.001643399999999,0.0006722000000001,0,sub_4
0.0011501999999997,0.0159232000000012,0.004101,0.0012798000000003,-0.002068599999999,0.0002366000000001,0,sub_4
0.0021693999999997,0.0156782000000012,0.0040894,0.0008500000000004,-0.002706199999999,-0.0001999999999998,0,sub_4
0.0020289999999997,0.0150234000000012,0.0042056,0.0002108000000004,-0.002278599999999,-0.0004259999999998,0,sub_4
0.0019073999999997,0.0144856000000012,0.003883,-3.3999999995968247e-06,-0.002066399999999,-0.0004351999999998,0,sub_4
0.0020881999999997,0.0143146000000012,0.0037304,-0.0004271999999995,-0.001637799999999,-0.0006523999999998,0,sub_4
0.0020239999999997,0.0146410000000012,0.0032,-0.0012729999999995,-0.0007791999999991,-0.0015139999999998,0,sub_4
0.0009825999999997,0.0149832000000012,0.002964,-0.0008365999999995,0.0005010000000008,-0.0023671999999999,0,sub_4
-1.54000000002168e-05,0.0159196000000012,0.0029898,-0.0001917999999995,0.0009292000000008,-0.0036541999999998,0,sub_4
-0.0012592000000002,0.0167484000000012,0.0027834,0.0002386000000004,0.0009328000000008,-0.0051555999999998,0,sub_4
-0.0019098000000002,0.0176776000000012,0.002695,0.0002406000000004,0.0013604000000008,-0.0058061999999998,0,sub_4
-0.0030970000000002,0.0180838000000012,0.0029886,2.5400000000403222e-05,0.0022098000000008,-0.0051767999999998,0,sub_4
-0.0029288000000002,0.0181996000000012,0.0030704,-0.0014777999999995,0.0022082000000008,-0.0037007999999998,0,sub_4
-0.0014598000000002,0.0171540000000012,0.0030246,-0.0029819999999995,0.0022040000000008,-0.0013611999999998,0,sub_4
5.579999999978311e-05,0.0158990000000012,0.0035354,-0.0040545999999995,0.0022026000000008,-8.699999999985614e-05,0,sub_4
0.0011039999999997,0.0149612000000012,0.0037866,-0.0047013999999995,0.0015624000000008,0.0007640000000001,0,sub_4
0.0028107999999997,0.0138546000000012,0.0042132,-0.0049185999999995,0.0011400000000008,0.0003298000000001,0,sub_4
0.0036095999999997,0.0137650000000012,0.0045768,-0.0040619999999995,0.0013564000000008,-0.0009523999999998,0,sub_4
0.0033647999999997,0.0146590000000012,0.0050076,-0.0025661999999995,0.0005086000000008,-0.0030831999999998,0,sub_4
0.0023685999999997,0.0160622000000012,0.0051666,-0.0008627999999995,-0.0005571999999991,-0.0041439999999998,0,sub_4
0.0007815999999997,0.0169692000000012,0.004885,0.0004126000000004,-0.0014101999999991,-0.0047809999999998,0,sub_4
-0.0010408000000002,0.0177234000000012,0.0038846,0.0014756000000004,-0.0022661999999991,-0.0047725999999998,0,sub_4
-0.0021350000000002,0.0173510000000012,0.0032704,0.0010460000000003,-0.0029037999999991,-0.0047747999999998,0,sub_4
-0.0020050000000002,0.0172848000000012,0.002783,-0.0002379999999995,-0.0022621999999991,-0.0041475999999998,0,sub_4
-0.0008220000000002,0.0166308000000012,0.0025308,-0.0015229999999995,-0.0016215999999991,-0.0033067999999998,0,sub_4
0.0005383999999997,0.0157860000000012,0.002673,-0.0025925999999995,-0.0007677999999991,-0.0026781999999998,0,sub_4
0.0013273999999997,0.0148974000000012,0.0035378,-0.0030201999999995,8.540000000088902e-05,-0.0024723999999998,0,sub_4
0.0019711999999997,0.0148088000000012,0.003954,-0.0025953999999995,0.0005104000000008,-0.0024737999999998,0,sub_4
0.0018829999999997,0.0147432000000011,0.0040836,-0.0019533999999995,0.0007220000000008,-0.0026831999999998,0,sub_4
0.0009513999999998,0.0148170000000011,0.004264,-0.0013123999999995,0.0009328000000008,-0.0026789999999998,0,sub_4
0.0003923999999998,0.0152676000000011,0.0040096,-0.0011017999999995,0.0005052000000009,-0.0024633999999998,0,sub_4
2.939999999982332e-05,0.0160632000000011,0.003792,-0.0009015999999995,0.0002938000000009,-0.0013985999999998,0,sub_4
-0.0009872000000001,0.0165356000000012,0.0032946,-0.0007013999999995,0.0007190000000009,0.0003064000000001,0,sub_4
-0.0018568000000001,0.0167338000000012,0.0031052,-0.0005001999999996,0.0013572000000009,0.0020112000000001,0,sub_4
-0.0019752000000001,0.0165148000000012,0.0028694,-0.0005103999999996,0.0019980000000009,0.0032872,0,sub_4
-0.0016420000000001,0.0161098000000012,0.0034976,0.0001232000000003,0.0030642000000008,0.0041398,0,sub_4
-0.0010454000000002,0.0157974000000011,0.0037734,0.0001222000000004,0.0032756000000008,0.0045668,0,sub_4
-0.0005616000000002,0.0152216000000011,0.0042808,0.0003298000000004,0.0030574000000008,0.0056366,0,sub_4
0.0003857999999997,0.0146430000000011,0.0040998,0.0001086000000004,0.0019904000000008,0.0062774000000001,0,sub_4
0.0008679999999997,0.0149300000000011,0.0044446,9.800000000040324e-05,0.0009296000000008,0.0064922000000001,0,sub_4
0.0008237999999997,0.0152288000000011,0.0043584,-0.0001231999999995,8.440000000088906e-05,0.0062778000000001,0,sub_4
0.0005863999999997,0.0156904000000011,0.0043468,0.0005160000000003,-0.0001211999999991,0.0052142000000001,0,sub_4
0.0010323999999997,0.0163884000000011,0.004514,0.0015838000000003,-0.0003265999999991,0.0037262000000001,0,sub_4
0.0006875999999997,0.0168500000000012,0.0044284,0.0028630000000003,-0.0003223999999991,0.0028802000000001,0,sub_4
0.0010431999999997,0.0174840000000012,0.0043828,0.0035078000000004,-0.0003203999999991,0.0018164000000001,0,sub_4
0.0004751999999997,0.0169962000000012,0.0041748,0.0041490000000004,-0.0003217999999991,0.0016074000000001,0,sub_4
9.77999999997833e-05,0.0161724000000012,0.0034432,0.0041422000000004,-0.0007521999999991,0.0026760000000001,0,sub_4
0.0004011999999997,0.0155742000000012,0.003103,0.0032820000000004,-0.0016039999999991,0.0033120000000001,0,sub_4
0.0010637999999997,0.0155820000000012,0.003372,0.0026416000000004,-0.0022401999999991,0.0031000000000001,0,sub_4
0.0009207999999997,0.0148850000000012,0.0033008,0.0024270000000004,-0.0026665999999991,0.0033178000000001,0,sub_4
