userAcceleration.x,userAcceleration.y,userAcceleration.z,rotationRate.x,rotationRate.y,rotationRate.z,label,subject
0.0112899999999997,-0.0117681999999987,0.007732,-2.6399999999644112e-05,-0.001444199999999,-0.0033799999999998,0,sub_16
0.0112687999999997,-0.0120795999999987,0.0078028,0.0003936000000003,-0.002695599999999,-0.0031413999999998,0,sub_16
0.0116761999999997,-0.0127509999999987,0.0084094,0.0006012000000003,-0.003945399999999,-0.0031179999999998,0,sub_16
0.0125065999999997,-0.0129483999999987,0.0084136,0.0003858000000003,-0.004341599999999,-0.0030985999999998,0,sub_16
0.0122595999999997,-0.0129569999999987,0.008754,0.0003828000000003,-0.004951599999999,-0.0030773999999998,0,sub_16
0.0123271999999997,-0.0137011999999987,0.0082824,0.0001666000000003,-0.005377999999999,-0.0028645999999998,0,sub_16
0.0119575999999998,-0.0134911999999987,0.00824,-0.0002601999999996,-0.004952199999999,-0.0024407999999998,0,sub_16
0.0118659999999998,-0.0130775999999987,0.0081618,-0.0004725999999996,-0.004313999999999,-0.0020157999999998,0,sub_16
0.0117565999999998,-0.0129319999999987,0.0083558,-0.0006851999999996,-0.003850599999999,-0.0015697999999998,0,sub_16
0.0122153999999998,-0.0125671999999987,0.0084188,-0.0006805999999996,-0.002960199999999,-0.0015499999999998,0,sub_16
0.0126325999999997,-0.0119129999999987,0.0086832,-0.0008911999999996,-0.002070799999999,-0.0011045999999998,0,sub_16
0.0129901999999997,-0.0118517999999987,0.0088956,-0.0008865999999996,-0.001180399999999,-0.0010849999999998,0,sub_16
0.0130753999999997,-0.0121325999999987,0.0089222,-0.0008819999999996,-0.000502199999999,-0.0012785999999998,0,sub_16
0.0133695999999998,-0.0122789999999987,0.0088704,-0.0004513999999996,0.0003484000000009,-0.0012765999999998,0,sub_16
0.0135135999999997,-0.0127363999999987,0.0090564,-0.0006655999999996,0.0005604000000009,-0.0008511999999998,0,sub_16
0.0130807999999998,-0.0132399999999987,0.0087484,-0.0004473999999996,0.0014518000000009,-0.0004039999999998,0,sub_16
0.0120679999999997,-0.0133253999999987,0.0087078,-0.0004441999999996,0.0019178000000009,4.220000000012976e-05,0,sub_16
0.0115919999999997,-0.0136507999999987,0.0078766,-1.15999999996441e-05,0.0025970000000009,6.380000000012977e-05,0,sub_16
0.0110189999999997,-0.0134539999999987,0.0077496,-0.0002237999999996,0.0015766000000009,-0.0005577999999998,0,sub_16
0.0106957999999997,-0.0127599999999987,0.0078314,-1.119999999964408e-05,0.0003408000000009,-0.0009625999999998,0,sub_16
0.0110145999999997,-0.0120177999999987,0.0083978,-1.0199999999644082e-05,-0.000507199999999,-0.0020297999999998,0,sub_16
0.0115359999999997,-0.0123563999999987,0.0082356,0.0010624000000003,-0.000505799999999,-0.0033041999999998,0,sub_16
0.0118747999999997,-0.0120047999999987,0.0083624,0.0012786000000003,-7.959999999905247e-05,-0.0035167999999998,0,sub_16
0.0120771999999998,-0.0119105999999987,0.0085642,0.0015012000000003,0.0012412000000009,-0.0030697999999998,0,sub_16
0.0120281999999998,-0.0122859999999987,0.0081722,0.0015150000000003,0.0029916000000009,-0.0032655999999998,0,sub_16
0.0117259999999998,-0.0127035999999987,0.0074144,0.0015194000000003,0.0026114000000009,-0.0034585999999998,0,sub_16
0.0116553999999998,-0.0125655999999987,0.0074302,0.0002358000000003,0.0009554000000009,-0.0032317999999998,0,sub_16
0.0118559999999998,-0.0127383999999987,0.0080118,-0.0004095999999996,-0.001553199999999,-0.0034267999999998,0,sub_16
0.0116231999999998,-0.0131259999999987,0.0078438,-0.0008449999999996,-0.003681399999999,-0.0036405999999998,0,sub_16
0.0113751999999998,-0.0133763999999987,0.0083218,-0.0006401999999996,-0.005387599999999,-0.0034231999999998,0,sub_16
0.0113981999999998,-0.0136143999999987,0.00903,-0.0002191999999996,-0.006242999999999,-0.0029919999999998,0,sub_16
0.0118959999999998,-0.0140717999999987,0.0091786,0.0002102000000003,-0.005999999999999,-0.0025405999999998,0,sub_16
0.0120537999999998,-0.0139583999999987,0.0093346,0.0008550000000003,-0.005543999999999,-0.0023015999999998,0,sub_16
0.0127573999999998,-0.0139813999999987,0.0094746,0.0017150000000003,-0.004662599999999,-0.0020617999999998,0,sub_16
0.0130979999999998,-0.0136593999999987,0.0094764,0.0015082000000003,-0.003777399999999,-0.0018293999999998,0,sub_16
0.0127929999999998,-0.0131127999999987,0.0093706,0.0015156000000003,-0.002467799999999,-0.0013823999999998,0,sub_16
0.0125287999999997,-0.0125185999999987,0.0094926,0.0015194000000003,-0.000978999999999,-0.0007433999999998,0,sub_16
0.0125233999999997,-0.0123853999999987,0.009436,0.0013136000000003,0.0011506000000009,-0.0003203999999998,0,sub_16
0.0118913999999998,-0.0120285999999987,0.0092226,0.0011078000000003,0.0032802000000009,0.0001028000000001,0,sub_16
0.0118439999999997,-0.0123969999999987,0.009389,0.0015412000000003,0.0054068000000009,0.0007440000000001,0,sub_16
0.0121739999999997,-0.0127893999999987,0.0093566,0.0017650000000003,0.0075636000000009,0.0014042000000001,0,sub_16
0.0128815999999998,-0.0130699999999987,0.0095448,0.0024126000000003,0.0090798000000009,0.0020682,0,sub_16
0.0127221999999998,-0.0129707999999987,0.0090356,0.0028432000000003,0.0097444000000009,0.0027318,0,sub_16
0.0129265999999997,-0.0132847999999987,0.0088834,0.0030574000000003,0.0097708000000009,0.0033946,0,sub_16
0.0131197999999997,-0.0134163999999987,0.0083004,0.0030544000000003,0.0087334000000009,0.0038436,0,sub_16
0.0125801999999997,-0.0133265999999987,0.0084412,0.0026210000000003,0.0076680000000008,0.0042692000000001,0,sub_16
0.0115897999999997,-0.0130527999999987,0.0083272,0.0019810000000003,0.0072458000000009,0.0038380000000001,0,sub_16
0.0111061999999997,-0.0131479999999987,0.008432,0.0021978000000003,0.0072650000000009,0.0036418000000001,0,sub_16
0.0109891999999998,-0.0124537999999987,0.008192,0.0022052000000003,0.0077126000000009,0.0030162000000001,0,sub_16
0.0104905999999998,-0.0118919999999987,0.0077896,0.0020088000000003,0.0100792000000009,0.0021732000000001,0,sub_16
0.0109183999999998,-0.0118615999999987,0.0067796,0.0024486000000003,0.0115914000000009,0.0013358000000001,0,sub_16
0.0118543999999998,-0.0122623999999987,0.0064478,0.0026692000000003,0.0122504000000009,0.0009252000000001,0,sub_16
0.0124045999999998,-0.0124765999999987,0.0063558,0.0020234000000003,0.0111864000000009,0.0011356000000001,0,sub_16
0.0121503999999998,-0.0120733999999987,0.0069564,0.0018014000000003,0.0099062000000009,0.0017766000000001,0,sub_16
0.0127989999999998,-0.0120515999999987,0.008076,0.0013718000000003,0.0099052000000009,0.0024146000000001,0,sub_16
0.0128769999999998,-0.0120317999999987,0.0088658,0.0015862000000003,0.0103296000000009,0.0026292000000001,0,sub_16
0.0124431999999998,-0.0119155999999987,0.0090146,0.0020140000000003,0.0109762000000009,0.0030736000000001,0,sub_16
0.0129847999999998,-0.0121443999999987,0.0096984,0.0022378000000003,0.0129052000000009,0.0026604000000001,0,sub_16
0.0137821999999998,-0.0134103999999987,0.0096116,0.0020340000000003,0.0144104000000009,0.0020312000000001,0,sub_16
0.0135625999999998,-0.0143603999999987,0.009612,0.0022454000000003,0.0137818000000009,0.0018348000000001,0,sub_16
0.0133595999999998,-0.0148557999999987,0.0097588,0.0013938000000003,0.0140094000000009,0.0016298000000001,0,sub_16
0.0124813999999998,-0.0148945999999987,0.0096122,0.0007566000000003,0.0148630000000009,0.0018380000000001,0,sub_16
0.0114333999999998,-0.0142553999999987,0.0087362,0.0007596000000003,0.0155022000000009,0.0018372000000001,0,sub_16
0.0108873999999998,-0.0135901999999987,0.008385,0.0014026000000003,0.0161392000000009,0.0018408000000001,0,sub_16
0.0107721999999998,-0.0124737999999987,0.0076852,0.0022594000000003,0.0163652000000009,0.0012226000000001,0,sub_16
0.0114819999999998,-0.0117947999999987,0.0074404,0.0035362000000003,0.0155226000000009,0.0010360000000001,0,sub_16
0.0129989999999998,-0.0118509999999987,0.007617,0.0041710000000003,0.0138318000000009,0.0004186000000001,0,sub_16
0.0134753999999998,-0.0124831999999987,0.0084432,0.0043780000000003,0.0125662000000009,0.0004388000000001,0,sub_16
0.0133465999999998,-0.0129491999999987,0.0084446,0.0039440000000003,0.0115140000000009,0.0008814000000001,0,sub_16
0.0133917999999998,-0.0137117999999987,0.0085556,0.0032952000000003,0.0104476000000009,0.0017328000000001,0,sub_16
0.0130635999999998,-0.0140875999999987,0.0088066,0.0022198000000003,0.0093826000000009,0.0025812000000001,0,sub_16
0.0122295999999998,-0.0140289999999987,0.0085902,0.0015668000000003,0.0078968000000009,0.0030176000000001,0,sub_16
0.0124573999999998,-0.0137601999999987,0.008449,0.0013436000000003,0.0070486000000009,0.0034562,0,sub_16
0.0126025999999998,-0.0140003999999987,0.008833,0.0015528000000003,0.0070530000000009,0.0034696000000001,0,sub_16
0.0123761999999997,-0.0135347999999987,0.0088874,0.0015516000000003,0.0076972000000009,0.0034804,0,sub_16
0.0118697999999997,-0.0131391999999987,0.0086782,0.0015522000000003,0.0089798000000009,0.0037042,0,sub_16
0.0122313999999997,-0.0129203999999987,0.009,0.0015590000000003,0.0108956000000009,0.004129,0,sub_16
0.0117827999999997,-0.0126231999999987,0.0088596,0.0017752000000003,0.0115340000000009,0.0041296000000001,0,sub_16
0.0120723999999998,-0.0118841999999987,0.0083864,0.0015598000000003,0.0111086000000009,0.0041286000000001,0,sub_16
0.0125177999999998,-0.0122641999999987,0.008286,0.0015452000000003,0.0098168000000009,0.0041300000000001,0,sub_16
0.0128019999999998,-0.0125377999999987,0.0085686,0.0019574000000003,0.0078868000000009,0.0034942000000001,0,sub_16
0.0122579999999998,-0.0122733999999987,0.0085902,0.0019438000000003,0.0059592000000009,0.0026418000000001,0,sub_16
0.0121851999999998,-0.0122665999999987,0.0089922,0.0017236000000003,0.0057360000000009,0.0019994000000001,0,sub_16
0.0117267999999998,-0.0127723999999987,0.0096978,0.0025760000000003,0.0065752000000009,0.0011494000000001,0,sub_16
0.0120331999999998,-0.0128531999999987,0.0097396,0.0027970000000003,0.0074300000000009,0.0002954000000001,0,sub_16
0.0122641999999998,-0.0136117999999987,0.0094118,0.0023722000000003,0.0078576000000009,0.0002920000000001,0,sub_16
0.0125663999999998,-0.0133741999999987,0.0093342,0.0021530000000003,0.0072166000000009,0.0009322000000001,0,sub_16
0.0128943999999998,-0.0125421999999987,0.0090954,0.0012828000000003,0.0069696000000009,0.0017768000000001,0,sub_16
0.0130423999999998,-0.0115221999999987,0.0091616,0.0004126000000003,0.0062982000000009,0.0021946000000001,0,sub_16
0.0126663999999998,-0.0111645999999987,0.0093444,0.0001836000000003,0.0058378000000009,0.0026166000000001,0,sub_16
0.0123081999999998,-0.0107669999999987,0.0097058,0.0001744000000003,0.0060192000000009,0.0021848000000001,0,sub_16
0.0125289999999998,-0.0115405999999987,0.0097558,0.0001740000000003,0.0076936000000009,0.0013238000000001,0,sub_16
0.0124115999999998,-0.0130127999999987,0.0103876,0.0006084000000003,0.0081234000000009,4.440000000012976e-05,0,sub_16
0.0123799999999998,-0.0136733999999987,0.0099944,0.0006124000000003,0.0083390000000009,-0.0005967999999998,0,sub_16
0.0124989999999998,-0.0138943999999987,0.0097134,0.0006162000000003,0.0085546000000009,-0.0012379999999998,0,sub_16
0.0125241999999998,-0.0135535999999987,0.0089582,0.0010430000000003,0.0085530000000009,-0.0012349999999998,0,sub_16
0.0126703999999998,-0.0133151999999987,0.0082828,0.0016648000000003,0.0072186000000009,-0.0012365999999998,0,sub_16
0.0129643999999998,-0.0129415999999987,0.007537,0.0020712000000003,0.0054588000000009,-0.0012391999999998,0,sub_16
0.0131765999999997,-0.0131701999999987,0.007213,0.0020450000000003,0.0024222000000009,-0.0012429999999998,0,sub_16
0.0129743999999997,-0.0126641999999987,0.0072464,0.0015912000000003,-0.000613799999999,-0.0010363999999998,0,sub_16
0.0132315999999997,-0.0121537999999987,0.007731,0.0007146000000003,-0.003220399999999,-0.0012605999999998,0,sub_16
0.0130773999999997,-0.0115185999999987,0.0081806,0.0002830000000003,-0.004496399999999,-0.0014755999999998,0,sub_16
0.0130193999999997,-0.0111691999999987,0.0084582,-0.0001475999999996,-0.005559399999999,-0.0016907999999998,0,sub_16
0.0129103999999998,-0.0112539999999987,0.0089434,-0.0003637999999996,-0.0061977999999989,-0.0016915999999998,0,sub_16
0.0128661999999997,-0.0116175999999987,0.0087976,-0.0001659999999996,-0.0066845999999989,-0.0016995999999998,0,sub_16
0.0126335999999998,-0.0117519999999987,0.008649,-0.0003919999999996,-0.006530799999999,-0.0017113999999998,0,sub_16
0.0127007999999997,-0.0122503999999987,0.0088928,-0.0010475999999996,-0.006802399999999,-0.0015119999999998,0,sub_16
0.0119361999999997,-0.0127969999999987,0.008399,-0.0012735999999996,-0.006436399999999,-0.0013105999999998,0,sub_16
0.0115987999999997,-0.0121895999999987,0.008475,-0.0014937999999996,-0.004792199999999,-0.0011105999999998,0,sub_16
0.0116341999999997,-0.0121325999999987,0.00877,-0.0017013999999996,-0.003725399999999,-0.0013269999999998,0,sub_16
0.0119107999999997,-0.0122807999999987,0.00863,-0.0012717999999996,-0.003087799999999,-0.0013247999999998,0,sub_16
0.0120025999999998,-0.0128985999999987,0.0083108,-0.0008537999999996,-0.003146999999999,-0.0019775999999998,0,sub_16
0.0126147999999998,-0.0129679999999987,0.0085858,-0.0004453999999996,-0.004699999999999,-0.0019873999999998,0,sub_16
0.0131075999999998,-0.0134591999999987,0.0083982,-0.0002493999999996,-0.006675799999999,-0.0026391999999998,0,sub_16
0.0132159999999998,-0.0130281999999987,0.0088736,-4.959999999962464e-05,-0.007374999999999,-0.0028653999999998,0,sub_16
0.0132309999999998,-0.0131155999999987,0.0088744,0.0001522000000003,-0.007435799999999,-0.0028787999999998,0,sub_16
0.0129447999999998,-0.0120143999999987,0.0088546,0.0001532000000003,-0.007010599999999,-0.0026655999999998,0,sub_16
0.0133939999999998,-0.0123125999999987,0.0087846,-5.719999999964461e-05,-0.006795199999999,-0.0030947999999998,0,sub_16
0.0133175999999998,-0.0120243999999987,0.008774,-0.0002753999999996,-0.007647399999999,-0.0028815999999998,0,sub_16
0.0133763999999998,-0.0121785999999987,0.0083952,-0.0011335999999996,-0.008285399999999,-0.0024593999999998,0,sub_16
0.0134065999999997,-0.0119331999999987,0.0089434,-0.0015761999999996,-0.009191399999999,-0.0024739999999998,0,sub_16
0.0133961999999997,-0.0118565999999987,0.0090926,-0.0013747999999996,-0.009459399999999,-0.0026985999999998,0,sub_16
0.0128035999999997,-0.0110631999999987,0.008787,-0.0013829999999996,-0.008449999999999,-0.0024989999999998,0,sub_16
0.0124885999999997,-0.0112917999999987,0.008656,-0.0013853999999996,-0.006586999999999,-0.0027277999999998,0,sub_16
0.0121211999999998,-0.0113651999999987,0.0090652,-0.0007485999999996,-0.005575599999999,-0.0035921999999998,0,sub_16
0.0119571999999998,-0.0122449999999987,0.0086382,-0.0007437999999996,-0.004934599999999,-0.0040203999999998,0,sub_16
0.0119601999999998,-0.0133147999999987,0.0087438,-0.0011687999999996,-0.004506999999999,-0.0040239999999998,0,sub_16
0.0123121999999998,-0.0135377999999987,0.0092796,-0.0013921999999996,-0.004558399999999,-0.0040335999999998,0,sub_16
0.0125415999999998,-0.0133851999999987,0.009333,-0.0009753999999996,-0.004611799999999,-0.0040387999999998,0,sub_16
0.0122519999999998,-0.0129659999999987,0.0086888,-0.0003471999999996,-0.004667799999999,-0.0036151999999998,0,sub_16
0.0116617999999998,-0.0121639999999987,0.008422,0.0002810000000003,-0.005148199999999,-0.0036183999999998,0,sub_16
0.0115427999999998,-0.0118711999999987,0.008284,0.0006932000000003,-0.006266999999999,-0.0036221999999998,0,sub_16
0.0111055999999998,-0.0115645999999987,0.0078602,0.0006904000000003,-0.006693999999999,-0.0034079999999998,0,sub_16
0.0111649999999998,-0.0112957999999987,0.0074,0.0006884000000003,-0.006907999999999,-0.0031941999999998,0,sub_16
0.0117181999999998,-0.0114853999999987,0.0077386,0.0004740000000003,-0.007120399999999,-0.0031953999999998,0,sub_16
0.0124377999999998,-0.0118647999999987,0.0082274,4.540000000035533e-05,-0.007120599999999,-0.0027709999999998,0,sub_16
0.0130135999999998,-0.0117417999999987,0.008157,-0.0006027999999996,-0.006935599999999,-0.0021375999999997,0,sub_16
0.0132903999999998,-0.0118233999999987,0.00802,-0.0006127999999996,-0.007603199999999,-0.0019259999999997,0,sub_16
0.0131701999999998,-0.0121077999999987,0.0086004,-0.0012647999999996,-0.008482399999999,-0.0015047999999998,0,sub_16
0.0132045999999998,-0.0124071999999987,0.0086872,-0.0021281999999996,-0.008934799999999,-0.0010855999999998,0,sub_16
0.0129383999999998,-0.0122897999999987,0.0091154,-0.0023477999999996,-0.008749599999999,-0.0008763999999998,0,sub_16
0.0124035999999998,-0.0119915999999987,0.0089856,-0.0019171999999996,-0.007898799999999,-0.0008745999999998,0,sub_16
0.0120299999999998,-0.0121109999999987,0.0093208,-0.0014837999999996,-0.006620999999999,-0.0010867999999998,0,sub_16
0.0119939999999998,-0.0118501999999987,0.0089638,-0.0008379999999996,-0.004925799999999,-0.0010827999999998,0,sub_16
0.0120703999999998,-0.0116143999999987,0.0088282,2.1000000000355305e-05,-0.003443399999999,-0.0012905999999998,0,sub_16
0.0121399999999998,-0.0116129999999987,0.0084182,0.0002332000000003,-0.003025599999999,-0.0010741999999998,0,sub_16
0.0125499999999998,-0.0113175999999987,0.0085016,0.0002262000000003,-0.003885599999999,-0.0008575999999998,0,sub_16
0.0125171999999998,-0.0109081999999987,0.0081602,-0.0006349999999996,-0.004743399999999,-0.0004333999999998,0,sub_16
0.0124545999999998,-0.0109529999999987,0.008144,-0.0017105999999996,-0.006869199999999,-0.0006517999999998,0,sub_16
0.0124559999999998,-0.0116987999999987,0.0071862,-0.0030041999999996,-0.010059599999999,-0.0008703999999998,0,sub_16
0.0121841999999998,-0.0127971999999987,0.0068496,-0.0038787999999996,-0.015168199999999,-0.0012973999999998,0,sub_16
0.0118469999999998,-0.0131951999999987,0.006619,-0.0056035999999996,-0.019196399999999,-0.0015105999999998,0,sub_16
0.0122943999999998,-0.0133409999999987,0.0075464,-0.0058271999999996,-0.021737799999999,-0.0019289999999998,0,sub_16
0.0122379999999998,-0.0139317999999987,0.0089884,-0.0047579999999996,-0.021513999999999,-0.0023415999999998,0,sub_16
0.0117827999999998,-0.0134995999999987,0.0107916,-0.0028229999999996,-0.018311199999999,-0.0025383999999998,0,sub_16
0.0118873999999998,-0.0123951999999987,0.0121158,-0.0008657999999996,-0.010632599999999,-0.0031679999999998,0,sub_16
0.0117193999999998,-0.0116793999999987,0.0123874,0.0017350000000003,-0.002754399999999,-0.0042281999999998,0,sub_16
0.0119849999999998,-0.0107567999999987,0.011362,0.0032602000000003,0.0032102000000009,-0.0052933999999998,0,sub_16
0.0125107999999997,-0.0093385999999987,0.0101572,0.0032804000000003,0.0072600000000009,-0.0057257999999998,0,sub_16
0.0127973999999997,-0.0079721999999987,0.008736,0.0026550000000003,0.0092044000000009,-0.0065741999999998,0,sub_16
0.0126849999999997,-0.0070471999999987,0.0069142,0.0020170000000003,0.0085914000000009,-0.0072055999999998,0,sub_16
0.0120901999999998,-0.0070855999999987,0.0060424,0.0020142000000003,0.0073354000000009,-0.0074043999999998,0,sub_16
0.0111211999999998,-0.0079341999999987,0.0052758,0.0022192000000003,0.0054368000000009,-0.0069599999999998,0,sub_16
0.0103581999999998,-0.0091837999999987,0.0041756,0.0024192000000003,0.0026852000000009,-0.0063009999999998,0,sub_16
0.0102325999999998,-0.0113079999999987,0.0037264,0.0015416000000003,-0.001577199999999,-0.0052333999999998,0,sub_16
0.0100375999999998,-0.0131311999999987,0.003798,-0.0001969999999996,-0.006904399999999,-0.0035295999999998,0,sub_16
0.0105031999999998,-0.0149829999999987,0.0041696,-0.0025805999999996,-0.013294599999999,-0.0018289999999998,0,sub_16
0.0101995999999998,-0.0166029999999987,0.0048084,-0.0049603999999996,-0.018832599999999,-0.0001293999999998,0,sub_16
0.0099259999999998,-0.0174605999999987,0.0072178,-0.0066841999999996,-0.021996799999999,0.0009458000000001,0,sub_16
0.0094881999999998,-0.0169641999999987,0.0091558,-0.0071103999999996,-0.021542599999999,0.0018118000000001,0,sub_16
0.0098789999999998,-0.0157549999999987,0.0109226,-0.0064507999999996,-0.017255599999999,0.0022530000000001,0,sub_16
0.0104125999999998,-0.0138175999999987,0.0119054,-0.0049231999999996,-0.010412399999999,0.0020562000000001,0,sub_16
0.0125321999999998,-0.0110859999999987,0.0129966,-0.0031803999999996,-0.003143799999999,0.0018604000000001,0,sub_16
0.0145371999999998,-0.0085383999999987,0.0116884,-0.0014445999999996,0.0026052000000009,0.0012242000000001,0,sub_16
0.0164017999999998,-0.0067683999999987,0.0104,0.0002806000000003,0.0057984000000009,0.0003776000000001,0,sub_16
0.0172249999999998,-0.0055401999999987,0.009117,0.0015704000000003,0.0056210000000009,-0.0008825999999998,0,sub_16
0.0170635999999998,-0.0055297999999987,0.0085472,0.0022132000000003,0.0043790000000009,-0.0017187999999998,0,sub_16
0.0157831999999998,-0.0067375999999987,0.0075262,0.0026466000000003,0.0031410000000009,-0.0034109999999998,0,sub_16
0.0142067999999998,-0.0084779999999987,0.006947,0.0028616000000003,0.0016874000000009,-0.0042499999999998,0,sub_16
0.0124305999999998,-0.0102599999999987,0.0063122,0.0026460000000003,1.960000000094716e-05,-0.0044507999999998,0,sub_16
0.0108747999999998,-0.0124599999999987,0.0062428,0.0017866000000003,-0.001255599999999,-0.0044551999999998,0,sub_16
0.0097897999999998,-0.0146027999999987,0.0058068,0.0004940000000003,-0.004020799999999,-0.0044605999999998,0,sub_16
0.0085165999999998,-0.0162815999999987,0.0056164,-0.0005919999999996,-0.007004799999999,-0.0031825999999998,0,sub_16
0.0080745999999998,-0.0168651999999987,0.0064578,-0.0018883999999996,-0.009348999999999,-0.0019067999999998,0,sub_16
0.0079075999999998,-0.0161087999999987,0.0072586,-0.0031687999999996,-0.010577599999999,-0.0010491999999998,0,sub_16
0.0085245999999998,-0.0148829999999987,0.0079426,-0.0033699999999996,-0.009252399999999,-0.0004009999999998,0,sub_16
0.0098083999999998,-0.0129309999999987,0.009116,-0.0016393999999996,-0.005801799999999,-0.0001693999999999,0,sub_16
0.0112805999999998,-0.0106661999999987,0.0100118,9.88000000003552e-05,-0.001707799999999,-0.0010065999999999,0,sub_16
0.0121503999999998,-0.0084239999999987,0.0095184,0.0016218000000003,0.0019608000000009,-0.0018447999999998,0,sub_16
0.0130629999999998,-0.0077491999999987,0.0094982,0.0033430000000003,0.0049384000000009,-0.0020501999999998,0,sub_16
0.0131539999999998,-0.0074055999999987,0.00844,0.0046300000000003,0.0062130000000009,-0.0022563999999998,0,sub_16
0.0129803999999998,-0.0078931999999987,0.0078276,0.0044226000000003,0.0064626000000009,-0.0022411999999998,0,sub_16
0.0128533999999998,-0.0093643999999987,0.0072016,0.0037826000000003,0.0062842000000009,-0.0013739999999998,0,sub_16
0.0131853999999998,-0.0111661999999987,0.0074018,0.0033588000000003,0.0065320000000009,-0.0007193999999998,0,sub_16
0.0131899999999998,-0.0128695999999987,0.0072908,0.0031486000000003,0.0067792000000009,-6.319999999987092e-05,0,sub_16
0.0130797999999998,-0.0144741999999987,0.0081024,0.0027220000000003,0.0070244000000009,0.0012322000000001,0,sub_16
0.0125161999999998,-0.0152995999999987,0.008347,0.0025018000000003,0.0076558000000009,0.0033664000000001,0,sub_16
0.0123853999999998,-0.0151355999999987,0.0086484,0.0025000000000003,0.0087152000000009,0.0048606000000001,0,sub_16
0.0115119999999998,-0.0146863999999987,0.0087262,0.0024972000000003,0.0097736000000009,0.0065684000000001,0,sub_16
0.0108733999999998,-0.0140257999999987,0.008919,0.0022856000000003,0.0112614000000009,0.0076332000000001,0,sub_16
