userAcceleration.x,userAcceleration.y,userAcceleration.z,rotationRate.x,rotationRate.y,rotationRate.z,label,subject
0.0232371999999998,0.0674544000000012,-0.0269251999999999,-0.0754295999999995,-0.0185931999999991,-0.0562267999999999,0,sub_3
0.0310779999999998,0.0606406000000012,-0.0312151999999999,-0.0654717999999995,-0.0236465999999991,-0.0357707999999999,0,sub_3
0.0243091999999998,0.0419992000000012,-0.0239249999999999,-0.0747097999999995,-0.0182279999999991,-0.0064919999999999,0,sub_3
0.0196917999999998,0.0279996000000012,-0.0183699999999999,-0.0039261999999995,0.0529644000000008,0.030658,0,sub_3
0.0087625999999998,-0.0148021999999987,-0.0167911999999999,0.0086638000000004,0.0546188000000008,0.0322394,0,sub_3
0.0031789999999998,-0.0147763999999987,-0.0120419999999999,0.0023476000000004,0.0243934000000008,0.0305252,0,sub_3
0.0018207999999998,-0.0049069999999987,-0.0143481999999999,0.0062564000000004,0.0261378000000008,0.0170908,0,sub_3
0.0103465999999998,0.0085668000000012,-0.0235105999999999,0.0267336000000004,0.0160866000000008,0.0087012,0,sub_3
0.0167181999999998,0.0108848000000012,-0.0191733999999999,0.0457406000000004,-0.0066487999999991,0.0300142,0,sub_3
0.0121937999999998,-0.0054033999999987,-0.0093611999999999,0.0449058000000004,-0.0078807999999991,0.0723116,0,sub_3
0.0039317999999998,-0.0218731999999987,-0.0050645999999999,0.0175232000000004,0.0012762000000008,0.097105,0,sub_3
-0.0007256000000001,-0.0236489999999988,-0.0039603999999998,-0.0105949999999995,0.0050238000000008,0.0900672,0,sub_3
-0.0006132000000001,-0.0185115999999988,-0.0075171999999998,-0.0330935999999994,0.0066938000000008,0.0649116,0,sub_3
0.0011189999999998,-0.0119889999999988,-0.0116279999999998,-0.0497907999999994,0.0115626000000008,0.0340238,0,sub_3
0.0041061999999998,-0.0047515999999988,-0.0104185999999998,-0.0534645999999994,0.0223344000000008,0.0074926,0,sub_3
0.0047291999999998,0.0016770000000011,-0.0035365999999999,-0.0460815999999994,0.0319722000000008,-0.0114825999999999,0,sub_3
0.0020669999999998,0.0054578000000012,0.0035108,-0.0340579999999994,0.0381506000000008,-0.0218751999999999,0,sub_3
0.0001493999999998,0.0094026000000012,0.0081796,-0.0171813999999995,0.0349266000000008,-0.0294443999999999,0,sub_3
0.0010469999999998,0.0117864000000012,0.0066172,0.0056178000000004,0.0208134000000008,-0.0363171999999999,0,sub_3
0.0042077999999998,0.0115358000000012,6.280000000007738e-05,0.0403314000000004,4.940000000084876e-05,-0.0420301999999999,0,sub_3
0.0074807999999998,0.0086900000000012,-0.0103777999999999,0.0729392000000004,-0.0132551999999991,-0.0464855999999999,0,sub_3
0.0115301999999998,0.0084134000000012,-0.0204601999999999,0.1077074000000004,-0.0127503999999991,-0.0430385999999998,0,sub_3
0.0117243999999998,0.0119062000000012,-0.0312131999999999,0.1403370000000004,-0.0082105999999991,-0.0344843999999998,0,sub_3
0.0091105999999998,0.0141684000000012,-0.0275345999999999,0.1831366000000004,-0.0162901999999991,-0.0224245999999998,0,sub_3
0.0017721999999998,0.0128700000000012,-0.0228207999999999,0.1988274000000005,-0.0278919999999991,-0.0118315999999999,0,sub_3
-0.0057026000000001,0.0092566000000012,-0.0133229999999999,0.2008776000000004,-0.0377347999999991,-0.0030451999999999,0,sub_3
-0.0064412000000001,-0.0009047999999987,0.0005086,0.1716332000000004,-0.0382801999999991,-0.0011123999999999,0,sub_3
-0.0028818000000001,-0.0128873999999987,0.0089858,0.1260808000000004,-0.0176521999999991,-0.0053025999999999,0,sub_3
0.0014897999999998,-0.0194839999999987,0.0016648,0.0786350000000004,0.0080990000000008,-0.0103671999999998,0,sub_3
0.0060115999999998,-0.0123429999999987,0.0051792,0.0512678000000004,0.0041134000000008,-0.0022211999999999,0,sub_3
0.0082103999999998,-0.0074311999999987,0.0052242,0.0419288000000004,-0.0189179999999991,0.0112026,0,sub_3
0.0027839999999998,-0.0026795999999987,0.0010982,0.0466398000000004,-0.0539107999999991,0.0200398,0,sub_3
-0.0022386000000001,-0.0006233999999987,0.0043586,0.0474738000000004,-0.0969859999999991,0.0288602,0,sub_3
-0.0054088000000001,-0.0010081999999987,0.0085624,0.0200604000000004,-0.1165031999999991,0.0316846,0,sub_3
-0.0028326000000001,-0.0091825999999987,-0.0010161999999999,-0.0160845999999995,-0.0975885999999991,0.0215804,0,sub_3
0.0043303999999998,-0.0101165999999987,-0.0075351999999999,-0.0498305999999995,-0.0671771999999991,0.0114782,0,sub_3
0.0070349999999998,-0.0038729999999987,-0.0107665999999999,-0.0723579999999995,-0.0477077999999991,0.010655,0,sub_3
0.0058039999999998,0.0060638000000012,-0.0090405999999999,-0.0800097999999995,-0.0431983999999991,0.0084594,0,sub_3
0.0035461999999998,0.0167982000000012,-0.0040027999999999,-0.0808967999999995,-0.0527743999999991,0.006329,0,sub_3
0.0031501999999998,0.0246380000000012,0.0050642,-0.0788291999999995,-0.0659971999999991,0.0078558,0,sub_3
0.0058133999999998,0.0272998000000012,0.009838,-0.0765691999999995,-0.0796637999999991,0.0136574,0,sub_3
0.0167413999999998,0.0238568000000012,0.0128134,-0.0637265999999995,-0.0690625999999991,0.0154426,0,sub_3
0.0220693999999998,0.0195494000000012,0.0028434,-0.0430015999999995,-0.0508609999999991,0.0277418,0,sub_3
0.0209507999999998,0.0113194000000012,-0.0107789999999999,-0.0227723999999995,-0.0350533999999991,0.053073,0,sub_3
0.0122875999999998,9.26000000012292e-05,-0.0229479999999999,-0.0171129999999995,-0.0311319999999991,0.079813,0,sub_3
-0.0003184000000001,-0.0143197999999987,-0.0266147999999999,-0.0278257999999994,-0.0273143999999991,0.0934066,0,sub_3
-0.0168350000000001,-0.0253535999999987,-0.0282945999999999,-0.0470455999999994,-0.0319301999999991,0.09221,0,sub_3
-0.0333930000000001,-0.0325837999999987,-0.0160255999999999,-0.0816277999999995,-0.0172033999999991,0.0624666,0,sub_3
-0.0428076000000001,-0.0310871999999987,-0.0083173999999999,-0.1130013999999994,0.0180810000000008,0.0038774,0,sub_3
-0.0419100000000001,-0.0205237999999987,-0.0069021999999999,-0.1192673999999995,0.0703812000000008,-0.0692995999999999,0,sub_3
-0.0365692000000001,-0.0013857999999987,-0.0115557999999999,-0.0991433999999994,0.1206186000000008,-0.1290437999999999,0,sub_3
-0.0306538000000001,0.0193434000000011,-0.0122909999999999,-0.0623689999999994,0.1527890000000008,-0.1606609999999999,0,sub_3
-0.0160754000000001,0.0351422000000011,-0.0110329999999999,-0.0085539999999994,0.1619780000000008,-0.1609377999999999,0,sub_3
-0.0004358000000001,0.0436674000000011,0.001728,0.0474162000000005,0.1516782000000008,-0.1378873999999998,0,sub_3
0.0118173999999998,0.0473234000000011,0.0198372,0.0913014000000004,0.1228376000000008,-0.1031471999999998,0,sub_3
0.0200897999999998,0.0433224000000011,0.0327726,0.1170126000000004,0.0832050000000008,-0.0710837999999998,0,sub_3
0.0287217999999998,0.0305666000000012,0.0327682,0.1199564000000004,0.0473154000000008,-0.0496525999999998,0,sub_3
0.0392197999999998,0.0124156000000012,0.0202418,0.1028656000000004,0.0170708000000008,-0.0377707999999998,0,sub_3
0.0463411999999998,-0.0042887999999987,0.0005082,0.0768564000000004,-0.0075869999999991,-0.0300175999999999,0,sub_3
0.0451457999999997,-0.0191585999999987,-0.0190781999999999,0.0468420000000004,-0.0205161999999991,-0.0214529999999999,0,sub_3
0.0384137999999997,-0.0295165999999987,-0.0314915999999999,0.0147812000000004,-0.0151109999999991,-0.0139943999999999,0,sub_3
0.0288817999999998,-0.0334119999999987,-0.0359569999999999,-0.0208803999999995,-0.0062737999999991,-0.0091291999999998,0,sub_3
0.0140207999999998,-0.0242475999999987,-0.0289581999999999,-0.0513915999999995,-0.0055297999999991,-0.0089159999999998,0,sub_3
0.0007881999999998,-0.0111853999999987,-0.0173541999999999,-0.0714465999999995,-0.0094897999999991,-0.0135375999999998,0,sub_3
-0.0071278000000001,0.0009382000000012,-0.0063805999999999,-0.0816835999999995,-0.0145423999999991,-0.0197981999999998,0,sub_3
-0.0117060000000001,0.0095420000000011,0.0015352,-0.0860503999999995,-0.0186571999999991,-0.0241461999999998,0,sub_3
-0.0156706000000001,0.0160048000000011,0.00896,-0.0791093999999995,-0.0185681999999991,-0.0239341999999999,0,sub_3
-0.0152230000000001,0.0185660000000011,0.0100116,-0.0585173999999995,-0.0151359999999991,-0.0191445999999999,0,sub_3
-0.0118082000000001,0.0224784000000011,0.0082218,-0.0330129999999995,-0.0081093999999991,-0.0117615999999999,0,sub_3
-0.0087130000000001,0.0235172000000012,0.0044614,-0.0113551999999995,-0.0010743999999991,-0.0031235999999999,0,sub_3
-0.0051364000000001,0.0259418000000012,0.0016578,0.0071746000000004,-0.0015933999999991,0.0040568,0,sub_3
-0.0023388000000001,0.0259418000000012,0.0021414,0.0195196000000004,-0.0029371999999991,0.0096996000000001,0,sub_3
-0.0012414000000001,0.0228522000000012,0.0028406,0.0212112000000004,-0.0006225999999991,0.015477,0,sub_3
-0.0022116000000001,0.0161866000000012,0.0034024,0.0173686000000004,0.0019356000000008,0.018438,0,sub_3
0.0003441999999998,0.0101338000000012,0.0027822,0.0142816000000004,-0.0020965999999991,0.0155636,0,sub_3
0.0025935999999998,0.0034914000000012,0.0034688,0.0112138000000004,-0.0067483999999991,0.0077762,0,sub_3
0.0069017999999998,0.0002130000000012,0.0005304,0.0068848000000004,-0.0081953999999991,-0.0010921999999999,0,sub_3
0.0093471999999998,-0.0030365999999987,-0.0044015999999998,0.0034342000000005,-0.0051669999999991,-0.0110285999999999,0,sub_3
0.0101385999999998,-0.0060917999999987,-0.0083395999999998,0.0021136000000005,-0.0032105999999991,-0.0211621999999999,0,sub_3
0.0060743999999998,-0.0060829999999987,-0.0088415999999998,0.0021740000000004,0.0006628000000008,-0.0307805999999999,0,sub_3
0.0029945999999998,-0.0019471999999987,-0.0077647999999999,0.0030908000000004,0.0070822000000008,-0.0384735999999998,0,sub_3
0.0017291999999998,0.0043558000000012,-0.0071241999999999,0.0055554000000004,0.0097494000000008,-0.0449297999999998,0,sub_3
0.0026353999999998,0.0113540000000012,-0.0040557999999999,0.0088294000000004,0.0066450000000008,-0.0473135999999998,0,sub_3
0.0041279999999998,0.0162504000000012,-0.0002175999999999,0.0101466000000004,0.0028784000000008,-0.0422327999999998,0,sub_3
0.0065281999999998,0.0177852000000012,0.0036702,0.0097338000000004,0.0012192000000008,-0.0299027999999998,0,sub_3
0.0084913999999998,0.0169934000000012,0.0053684,0.0086636000000004,-0.0010895999999991,-0.0143717999999999,0,sub_3
0.0091677999999998,0.0134232000000012,0.0065606,0.0083754000000004,-0.0034895999999991,-5.659999999991991e-05,0,sub_3
0.0101461999999998,0.0077504000000012,0.0044372,0.0070540000000004,-0.0035217999999991,0.009121,0,sub_3
0.0106385999999998,0.0030314000000012,0.0021758,0.0057794000000004,-0.0003291999999991,0.0110308,0,sub_3
0.0087637999999998,0.0021742000000011,-0.0014413999999999,0.0051132000000004,0.0038418000000008,0.0088032,0,sub_3
0.0055491999999998,0.0020254000000011,-0.0039683999999999,0.0025208000000004,0.0069534000000008,0.0067772,0,sub_3
0.0021419999999998,0.0031778000000011,-0.0062695999999999,-0.0024195999999995,0.0102846000000008,0.0051618,0,sub_3
-0.0013116000000001,0.0069830000000011,-0.0053471999999999,-0.0058739999999995,0.0121182000000008,0.0037722,0,sub_3
-0.0040508000000001,0.0113212000000011,-0.0042375999999999,-0.0072195999999995,0.0101026000000008,0.0041116,0,sub_3
-0.0047172000000001,0.0126400000000012,-0.0021733999999999,-0.0080903999999995,0.0073316000000008,0.0051772,0,sub_3
-0.0034006000000001,0.0135276000000011,-0.0004883999999999,-0.0065995999999995,0.0064750000000008,0.004975,0,sub_3
-0.0015632000000001,0.0148568000000011,0.0005482,-0.0010527999999995,0.0064548000000008,0.0052274,0,sub_3
-0.0004046000000001,0.0139816000000011,0.0008086,0.0051128000000004,0.0045038000000008,0.008264,0,sub_3
0.0011957999999998,0.0110228000000011,0.0009646,0.0091934000000004,0.0037852000000008,0.011627,0,sub_3
0.0031987999999998,0.0086936000000011,0.000963,0.0120074000000004,0.0039318000000008,0.0128436,0,sub_3
0.0053137999999998,0.0068328000000012,-0.0012863999999999,0.0135544000000004,0.0053678000000008,0.0123406,0,sub_3
0.0068067999999998,0.0052708000000012,-0.0020931999999999,0.0136118000000004,0.0057514000000008,0.0099056,0,sub_3
0.0081641999999998,0.0046214000000012,-0.0020435999999999,0.0126244000000004,0.0084926000000008,0.0048966,0,sub_3
0.0094711999999998,0.0048082000000012,-0.0017819999999999,0.0109732000000004,0.0147018000000008,-0.0013185999999999,0,sub_3
0.0100913999999998,0.0046274000000011,-0.0027165999999999,0.0074014000000004,0.0213420000000008,-0.0071203999999999,0,sub_3
0.0085663999999998,0.0070816000000011,-0.0042083999999999,0.0085414000000004,0.0255882000000008,-0.0106659999999999,0,sub_3
0.0030391999999998,0.0100994000000011,-0.0043603999999999,0.0145726000000004,0.0310760000000008,-0.0092649999999999,0,sub_3
-0.0044424000000001,0.0111500000000011,-0.0012025999999999,0.0175946000000004,0.0374034000000008,-0.0021175999999999,0,sub_3
-0.0089776000000001,0.0103186000000011,-0.0001151999999999,0.0167604000000004,0.0441548000000008,0.0088478,0,sub_3
-0.0100832000000001,0.0099554000000012,0.0014844,0.0184810000000004,0.0457994000000008,0.015992,0,sub_3
-0.0080104000000001,0.0066284000000012,0.00352,0.0169710000000004,0.0409094000000008,0.0147060000000001,0,sub_3
0.0013993999999998,0.0005824000000012,0.0029454,0.0069348000000004,0.0320252000000008,0.0073834000000001,0,sub_3
0.0121885999999998,-0.0027005999999987,-0.0003777999999999,-0.0015877999999995,0.0248512000000008,-0.0027081999999998,0,sub_3
0.0176315999999998,-0.0012121999999987,-0.0019917999999999,-0.0067057999999995,0.0165958000000008,-0.0117063999999999,0,sub_3
0.0180823999999998,0.0024160000000012,-0.0024765999999999,-0.0150271999999995,0.0123518000000008,-0.0131493999999999,0,sub_3
0.0165239999999998,0.0061850000000012,-0.0021451999999998,-0.0259309999999995,0.0104312000000008,-0.0073495999999999,0,sub_3
0.0108887999999998,0.0127882000000012,0.0003368,-0.0330133999999995,0.0078434000000008,0.0021098,0,sub_3
0.0058965999999998,0.0193838000000011,0.0021204,-0.0356243999999995,0.0033218000000008,0.0118166,0,sub_3
0.0009883999999998,0.0241372000000011,0.0042188,-0.0320601999999995,-0.0037789999999991,0.0217834,0,sub_3
-0.0033270000000001,0.0247848000000011,0.0048552,-0.0218871999999995,-0.0104543999999991,0.0306224,0,sub_3
-0.0065304000000001,0.0242306000000011,0.0041046,-0.0054939999999995,-0.0120295999999991,0.037362,0,sub_3
-0.0085470000000001,0.0216184000000011,0.0015822,0.0149782000000004,-0.0100005999999991,0.0414302,0,sub_3
-0.0094758000000001,0.0166452000000011,-0.0007859999999999,0.0346104000000004,-0.0085933999999991,0.0418612,0,sub_3
-0.0084738000000001,0.0105508000000011,-0.0036093999999999,0.0485132000000004,-0.0050157999999991,0.0373356,0,sub_3
-0.0057144000000001,0.0067910000000011,-0.0050309999999999,0.0556014000000004,-0.0014025999999991,0.0297714,0,sub_3
-0.0030436000000001,0.0045138000000011,-0.0045191999999999,0.0569172000000004,0.0007352000000008,0.023237,0,sub_3
-0.0001192000000001,0.0029598000000011,-0.0033773999999999,0.0528920000000004,0.0007750000000008,0.0167994,0,sub_3
0.0020187999999998,0.0023576000000011,-0.0025775999999998,0.0469424000000004,0.0016668000000008,0.0120566,0,sub_3
0.0038781999999998,0.0029542000000011,-0.0010423999999999,0.0405564000000004,0.0019150000000008,0.008807,0,sub_3
0.0061801999999998,0.0038072000000011,0.0002024,0.0348046000000004,0.0025606000000008,0.0062408,0,sub_3
0.0078725999999998,0.0036212000000012,0.0004772,0.0290614000000004,0.0040626000000008,0.0026052,0,sub_3
0.0089607999999998,0.0032394000000012,0.0004088,0.0224724000000004,0.0070598000000008,-0.0012517999999999,0,sub_3
0.0097637999999998,0.0028062000000012,0.0003954,0.0152366000000004,0.0079314000000008,-0.0057515999999999,0,sub_3
0.0099159999999998,0.0018622000000012,-0.0003997999999999,0.0067110000000004,0.0068890000000008,-0.0100441999999999,0,sub_3
0.0090235999999998,0.0008038000000012,-0.0018821999999999,-0.0026677999999995,0.0050206000000008,-0.0141665999999999,0,sub_3
0.0067477999999998,0.0021024000000012,-0.0025873999999999,-0.0118379999999995,0.0029350000000008,-0.0174325999999999,0,sub_3
0.0046261999999998,0.0039474000000012,-0.0033203999999998,-0.0190955999999995,-1.299999999915622e-05,-0.0198295999999999,0,sub_3
0.0016813999999998,0.0073204000000012,-0.0039363999999999,-0.0261735999999995,-0.0028049999999991,-0.0213519999999999,0,sub_3
-0.0019328000000001,0.0120388000000012,-0.0028741999999999,-0.0300481999999995,-0.0036957999999991,-0.0215723999999999,0,sub_3
-0.0051498000000001,0.0165258000000011,-0.0010877999999999,-0.0292295999999994,-0.0033307999999991,-0.0202661999999999,0,sub_3
-0.0069440000000001,0.0183574000000011,0.0004798,-0.0249959999999994,-0.0023401999999991,-0.0185097999999999,0,sub_3
-0.0079376000000001,0.0185858000000011,0.001353,-0.0182009999999994,-0.0013575999999991,-0.0169489999999999,0,sub_3
-0.0077140000000001,0.0173842000000011,0.0018882,-0.0083829999999995,-0.0007527999999991,-0.0168811999999999,0,sub_3
-0.0053704000000001,0.0141678000000011,0.0001764,0.0008036000000004,0.0011352000000008,-0.0174603999999999,0,sub_3
-0.0022582000000001,0.0130498000000012,-0.0008741999999999,0.0080804000000004,0.0045248000000008,-0.0189093999999999,0,sub_3
0.0006195999999998,0.0135412000000012,-0.0015167999999999,0.0140682000000004,0.0072746000000008,-0.0190845999999999,0,sub_3
0.0023733999999998,0.0144344000000012,-0.0002909999999999,0.0172392000000004,0.0086484000000008,-0.0167063999999998,0,sub_3
0.0041565999999998,0.0144304000000012,0.0009604,0.0157056000000004,0.0093928000000008,-0.0126509999999998,0,sub_3
0.0047475999999998,0.0143474000000011,0.003339,0.0124524000000004,0.0073734000000008,-0.0086041999999998,0,sub_3
0.0044839999999998,0.0128836000000011,0.0048236,0.0096058000000004,0.0019394000000008,-0.0034819999999998,0,sub_3
0.0046335999999998,0.0105500000000011,0.0047942,0.0067574000000004,-0.0045573999999991,0.0010006000000001,0,sub_3
0.0054235999999998,0.0087680000000011,0.0030628,0.0035204000000004,-0.0109445999999991,0.0026954,0,sub_3
0.0051675999999997,0.0089736000000011,0.0018084,0.0015712000000004,-0.0171171999999991,0.0029034,0,sub_3
0.0048613999999997,0.0105866000000011,-0.0002471999999999,0.0002542000000004,-0.0225023999999991,0.0039252,0,sub_3
0.0038675999999997,0.0118280000000011,-0.0018905999999999,-0.0019029999999995,-0.0253263999999991,0.0045106,0,sub_3
0.0020531999999998,0.0128768000000011,-0.0025747999999999,-0.0048993999999995,-0.025588199999999,0.004446,0,sub_3
-0.0002644000000001,0.0132966000000011,-0.0022003999999999,-0.0055341999999995,-0.022662399999999,0.0043936,0,sub_3
-0.0025396000000001,0.0126292000000012,-0.0019451999999999,-0.0035999999999995,-0.017615999999999,0.00457,0,sub_3
-0.0043040000000001,0.0111424000000012,-0.0010177999999999,-0.0001535999999995,-0.011869599999999,0.0030912,0,sub_3
-0.0051568000000001,0.0097118000000012,-0.0008311999999999,0.0037178000000004,-0.007611799999999,0.000549,0,sub_3
-0.0043942000000001,0.0085394000000012,-0.0001781999999999,0.0069462000000004,-0.0046273999999991,-0.0026369999999999,0,sub_3
-0.0026346000000001,0.0093518000000012,-0.0001243999999999,0.0086694000000004,-0.003345599999999,-0.0049765999999999,0,sub_3
-5.7600000000154056e-05,0.0101396000000012,0.000106,0.0085872000000004,-0.0029543999999991,-0.0065355999999999,0,sub_3
0.0017597999999998,0.0113842000000012,0.000351,0.0076440000000004,-0.0027791999999991,-0.0066049999999998,0,sub_3
0.0029071999999998,0.0116006000000012,0.0016644,0.0058444000000004,-0.0017547999999991,-0.0051859999999998,0,sub_3
0.0032759999999998,0.0120120000000012,0.0017322,0.0053220000000004,-0.0001007999999991,-0.0024769999999998,0,sub_3
0.0029241999999998,0.0112408000000012,0.0020214,0.0045920000000004,0.0015590000000008,-0.0010513999999998,0,sub_3
0.0019899999999998,0.0100810000000012,0.0017218,0.0039568000000004,0.0036876000000008,9.600000000100458e-06,0,sub_3
0.0017183999999998,0.0097748000000012,0.0008928,0.0022660000000004,0.0066788000000008,-0.0006469999999999,0,sub_3
0.0013537999999998,0.0111756000000011,-0.0004881999999999,0.0022832000000004,0.0094528000000008,-0.0017185999999999,0,sub_3
0.0013693999999998,0.0121688000000011,-0.0001419999999999,0.0018144000000004,0.0100636000000008,-0.0017365999999999,0,sub_3
0.0011599999999998,0.0121638000000011,-0.0003749999999999,0.0015512000000004,0.0100304000000008,-0.0006839999999999,0,sub_3
0.0014155999999998,0.0128808000000011,0.0001382,0.0004278000000004,0.0080844000000008,-6.239999999991947e-05,0,sub_3
0.0009655999999998,0.0122846000000011,0.001078,0.0014266000000004,0.0044232000000008,0.001431,0,sub_3
0.0009549999999998,0.0107492000000011,0.00172,0.0011442000000004,0.0005534000000008,0.0029156,0,sub_3
0.0002161999999998,0.0097798000000012,0.0015876,0.0009270000000004,-0.0005101999999991,0.0027018,0,sub_3
0.0007457999999998,0.0105688000000011,0.001574,0.0002928000000004,0.0001336000000008,0.0020556,0,sub_3
0.0008705999999998,0.0111660000000011,0.0014688,0.0004928000000004,0.0020280000000008,0.0018688,0,sub_3
0.0010455999999998,0.0118316000000011,0.001176,-0.0007997999999995,0.0043528000000008,0.0018844,0,sub_3
0.0010573999999998,0.0121672000000011,0.0008658,-0.0022979999999994,0.0083828000000008,0.0018966,0,sub_3
0.0004117999999998,0.0132096000000011,0.0009618,-0.0031619999999994,0.0111324000000008,0.0019148,0,sub_3
-0.0008222000000001,0.0128586000000012,0.0017028,-0.0038201999999994,0.0121768000000008,0.0019366,0,sub_3
-0.0009808000000001,0.0119026000000012,0.0013556,-0.0053117999999994,0.0130326000000008,0.0023524,0,sub_3
-0.0009828000000001,0.0119506000000012,0.0009188,-0.0050983999999994,0.0134562000000008,0.0027806,0,sub_3
-0.0010304000000001,0.0122008000000012,0.000678,-0.0031693999999995,0.0140938000000008,0.0015114,0,sub_3
-0.0006908000000001,0.0121360000000012,0.000373,-0.0006229999999995,0.0145232000000008,-0.0001577999999999,0,sub_3
-0.0006852000000001,0.0130318000000012,0.0001624,0.0038456000000004,0.0162208000000008,-0.0009605999999999,0,sub_3
-0.0014806000000001,0.0145984000000011,0.00094,0.0112956000000004,0.0170540000000008,-0.0013143999999999,0,sub_3
-0.0020566000000001,0.0154924000000011,0.0020016,0.0166034000000004,0.0170384000000008,-0.0006135999999999,0,sub_3
-0.0014016000000001,0.0151766000000011,0.0015728,0.0195430000000004,0.0146778000000008,0.0024236,0,sub_3
0.0003637999999998,0.0143906000000011,0.0009526,0.0237904000000004,0.0131596000000008,0.0054462,0,sub_3
0.0020965999999998,0.0138224000000011,0.0002628,0.0288854000000004,0.0092992000000008,0.0074094,0,sub_3
0.0034427999999998,0.0116334000000012,-0.0004043999999999,0.0309934000000004,0.0039636000000008,0.0078582,0,sub_3
0.0039077999999998,0.0089430000000012,0.0009496,0.0337654000000004,-0.0005039999999991,0.003824,0,sub_3
0.0018505999999998,0.0075362000000012,0.0010448,0.0341902000000004,-0.0017343999999991,-0.0017089999999999,0,sub_3
0.0013913999999998,0.0087256000000012,0.0027052,0.0270146000000004,-0.0240643999999991,0.001064,0,sub_3
0.0112111999999998,-7.299999999879e-05,0.0033128,0.0093666000000004,-0.0448877999999991,0.0091032,0,sub_3
0.0145489999999998,-0.0049155999999987,0.007066,-0.0023229999999995,-0.0229031999999991,0.016061,0,sub_3
0.0195287999999998,-0.0045577999999987,-0.0018631999999998,-0.0217941999999995,0.0287052000000008,0.0274128,0,sub_3
0.0216913999999998,-0.0044523999999987,-0.0088005999999999,-0.0333581999999995,0.0760072000000008,0.036458,0,sub_3
