userAcceleration.x,userAcceleration.y,userAcceleration.z,rotationRate.x,rotationRate.y,rotationRate.z,label,subject
-0.0087092000000001,0.0368076000000012,0.012785,-0.0433375999999995,0.0648536000000008,0.023477,0,sub_18
-0.0066248000000001,0.0380154000000012,0.0158602,-0.0232479999999995,0.0635394000000008,0.0150734000000001,0,sub_18
-0.0076038000000001,0.0365876000000012,0.015867,0.0006354000000004,0.0504990000000008,0.0054292000000001,0,sub_18
-0.0093090000000001,0.0339916000000012,0.0150286,0.0221314000000004,0.0297918000000008,-0.0029399999999998,0,sub_18
-0.0132274000000001,0.0296088000000012,0.0116616,0.0335700000000004,0.0071840000000008,-0.0068903999999998,0,sub_18
-0.0185788000000001,0.0260378000000012,0.0064862,0.0338980000000004,-0.0151863999999991,-0.0072865999999998,0,sub_18
-0.0244438000000001,0.0223596000000012,0.0015368,0.0289080000000004,-0.0326429999999991,-0.0064445999999998,0,sub_18
-0.0265366000000001,0.0203208000000012,-0.0007541999999998,0.0203156000000004,-0.044335399999999,-0.0054213999999998,0,sub_18
-0.0272480000000002,0.0199486000000012,-0.0017687999999998,0.0089714000000004,-0.053239999999999,-0.0065573999999998,0,sub_18
-0.0262654000000002,0.0221776000000012,-0.0025319999999998,-0.0014809999999995,-0.055322799999999,-0.0094049999999998,0,sub_18
-0.0241194000000002,0.0239504000000012,-0.0002207999999998,-0.0097631999999995,-0.048256199999999,-0.0111811999999998,0,sub_18
-0.0211392000000002,0.0260742000000012,0.0025172,-0.0167737999999995,-0.041201799999999,-0.0110255999999998,0,sub_18
-0.0182182000000002,0.0294156000000012,0.0049652,-0.0225367999999995,-0.041395599999999,-0.0108519999999998,0,sub_18
-0.0152696000000002,0.0325558000000012,0.0056826,-0.0227461999999995,-0.039905999999999,-0.0102143999999998,0,sub_18
-0.0122704000000001,0.0353600000000012,0.0076382,-0.0192947999999995,-0.030123599999999,-0.0087073999999998,0,sub_18
-0.0091986000000001,0.0385178000000012,0.0101516,-0.0149263999999995,-0.0146353999999991,-0.0067635999999998,0,sub_18
-0.0054038000000001,0.0412080000000012,0.0128268,-0.0075773999999995,-0.0010733999999991,-0.0052237999999999,0,sub_18
-0.0020208000000001,0.0429074000000012,0.0155368,0.0065774000000004,0.0075646000000008,-0.0036301999999999,0,sub_18
-0.0002660000000001,0.0418316000000012,0.0174192,0.0230562000000004,0.0112934000000008,-0.0018005999999999,0,sub_18
-0.0015938000000001,0.0367786000000012,0.0141508,0.0375812000000004,0.0071476000000008,-0.0004017999999999,0,sub_18
-0.0034210000000002,0.0316718000000012,0.0092682,0.0458586000000004,-0.003318399999999,-0.0009715999999998,0,sub_18
-0.0093450000000002,0.0259610000000012,0.004429,0.0456222000000004,-0.0094917999999991,-0.0020335999999998,0,sub_18
-0.0174596000000002,0.0190400000000012,-7.899999999991247e-05,0.0366524000000004,-0.0120449999999991,-0.0029273999999998,0,sub_18
-0.0254832000000002,0.0153778000000012,-0.0031253999999999,0.0191468000000004,-0.0158425999999991,-0.0049471999999998,0,sub_18
-0.0311054000000002,0.0168938000000012,-0.0025243999999999,-0.0013325999999995,-0.0172833999999991,-0.0076317999999998,0,sub_18
-0.0354246000000002,0.0199090000000012,0.0002926,-0.0185971999999995,-0.0132055999999991,-0.0079509999999998,0,sub_18
-0.0347168000000002,0.0244590000000012,0.0038392,-0.0298853999999995,-0.007237199999999,-0.0067353999999998,0,sub_18
-0.0298724000000002,0.0311666000000012,0.007031,-0.0373141999999995,0.0027972000000009,-0.0055181999999998,0,sub_18
-0.0218620000000002,0.0360706000000012,0.0097266,-0.0359811999999995,0.0170570000000009,-0.0029633999999998,0,sub_18
-0.0131536000000002,0.0380024000000012,0.0111376,-0.0274069999999995,0.0302184000000009,0.0015662000000001,0,sub_18
-0.0049050000000002,0.0380368000000011,0.0111756,-0.0154493999999995,0.0365504000000009,0.0061282000000001,0,sub_18
-0.0001310000000002,0.0355346000000012,0.0105274,-0.0047491999999995,0.0342838000000008,0.0089672000000001,0,sub_18
0.0007691999999997,0.0316792000000012,0.010167,0.0042268000000004,0.0269150000000008,0.0105188000000001,0,sub_18
-0.0018174000000002,0.0286980000000012,0.009545,0.0097706000000004,0.0144492000000008,0.0109846,0,sub_18
-0.0086478000000002,0.0258428000000012,0.0079852,0.0108278000000004,-0.0009767999999991,0.0097138,0,sub_18
-0.0162100000000002,0.0236276000000012,0.0065252,0.0084864000000004,-0.014255399999999,0.0071346,0,sub_18
-0.0223592000000002,0.0225806000000012,0.0047248,0.0042046000000004,-0.020194799999999,0.0043348,0,sub_18
-0.0257510000000002,0.0239872000000012,0.0032022,-0.0008989999999995,-0.018251799999999,0.0023738,0,sub_18
-0.0266624000000002,0.0257450000000012,0.0030874,-0.0065965999999995,-0.008072599999999,0.0023096000000001,0,sub_18
-0.0241548000000002,0.0277182000000012,0.004179,-0.0103641999999995,0.0057158000000009,0.0037496000000001,0,sub_18
-0.0195818000000002,0.0307104000000012,0.0059974,-0.0115893999999995,0.0160840000000009,0.0058528,0,sub_18
-0.0145306000000002,0.0328924000000011,0.0085758,-0.0079311999999995,0.0215330000000009,0.0084238,0,sub_18
-0.0109738000000002,0.0331674000000011,0.010174,-0.0017259999999995,0.0244148000000009,0.011443,0,sub_18
-0.0086244000000002,0.0324082000000011,0.0103374,0.0029462000000004,0.0218324000000009,0.013829,0,sub_18
-0.0068588000000002,0.0331820000000011,0.0104812,0.0060998000000004,0.0126548000000009,0.0151446,0,sub_18
-0.0075134000000002,0.0320746000000011,0.0109882,0.0107440000000004,0.0013474000000009,0.0149780000000001,0,sub_18
-0.0096964000000002,0.0311856000000011,0.011426,0.0134862000000004,-0.007178399999999,0.0135126000000001,0,sub_18
-0.0110992000000002,0.0299320000000012,0.0090962,0.0132852000000004,-0.013960799999999,0.0111800000000001,0,sub_18
-0.0126994000000001,0.0301296000000012,0.0063482,0.0126718000000004,-0.018606999999999,0.0077736000000001,0,sub_18
-0.0138620000000001,0.0291502000000012,0.0042398,0.0139970000000004,-0.018999599999999,0.0045890000000001,0,sub_18
-0.0159746000000001,0.0271860000000012,0.0039346,0.0142630000000004,-0.017259799999999,0.0018214000000001,0,sub_18
-0.0167842000000001,0.0271202000000012,0.0022094,0.0104576000000004,-0.018916399999999,-0.0005429999999998,0,sub_18
-0.0181174000000001,0.0285794000000012,0.0027336,0.0061882000000004,-0.020176399999999,-0.0014257999999998,0,sub_18
-0.0190502000000002,0.0289766000000012,0.005132,0.0038526000000004,-0.015489399999999,0.0006882000000001,0,sub_18
-0.0195842000000002,0.0285688000000012,0.0081548,0.0006578000000004,-0.010592599999999,0.0042916000000001,0,sub_18
-0.0171698000000002,0.0292540000000012,0.0076976,-0.0051163999999995,-0.005649399999999,0.0068238000000001,0,sub_18
-0.0141652000000002,0.0296906000000012,0.0070312,-0.0085165999999995,0.0039778000000009,0.0080846000000001,0,sub_18
-0.0111460000000002,0.0291094000000012,0.0077502,-0.0104031999999995,0.0159518000000009,0.0072166000000001,0,sub_18
-0.0095016000000002,0.0279022000000012,0.0078648,-0.0131383999999995,0.0260232000000009,0.0033542000000001,0,sub_18
-0.0088644000000001,0.0285908000000012,0.006346,-0.0177881999999994,0.0356822000000009,-0.0022303999999998,0,sub_18
-0.0099638000000001,0.0297710000000012,0.0056398,-0.0190263999999994,0.0414536000000008,-0.0058783999999998,0,sub_18
-0.0117110000000001,0.0294812000000012,0.0074526,-0.0166821999999995,0.0391088000000009,-0.0075681999999998,0,sub_18
-0.0143308000000001,0.0287782000000011,0.0088916,-0.0128931999999995,0.0269540000000009,-0.0081669999999998,0,sub_18
-0.0161780000000001,0.0291740000000011,0.0090562,-0.0091387999999995,0.0090390000000008,-0.0068359999999998,0,sub_18
-0.0179960000000002,0.0287158000000012,0.0099036,-0.0038751999999995,-0.007825399999999,-0.0039909999999998,0,sub_18
-0.0186862000000002,0.0277988000000012,0.0091596,-0.0004905999999995,-0.015733999999999,-0.0013841999999998,0,sub_18
-0.0197678000000002,0.0274344000000011,0.0064356,-0.0006855999999995,-0.013613999999999,0.0005438000000001,0,sub_18
-0.0189206000000002,0.0277122000000012,0.004624,-0.0031805999999995,-0.000833999999999,0.0026558,0,sub_18
-0.0182756000000002,0.0277776000000012,0.0036102,-0.0073529999999995,0.0174958000000009,0.0036806,0,sub_18
-0.0158622000000002,0.0277800000000011,0.004399,-0.0117619999999995,0.0332782000000009,0.003416,0,sub_18
-0.0135746000000002,0.0287572000000011,0.0065032,-0.0142757999999995,0.0396812000000009,0.0018876000000001,0,sub_18
-0.0114818000000002,0.0300216000000011,0.0087338,-0.0138433999999995,0.0371248000000009,0.0006050000000001,0,sub_18
-0.0104062000000002,0.0310374000000011,0.0097204,-0.0108851999999995,0.0279506000000009,0.0004166000000001,0,sub_18
-0.0088590000000001,0.0316440000000011,0.0108598,-0.0053875999999995,0.0138680000000009,3.8800000000110685e-05,0,sub_18
-0.0088002000000001,0.0315714000000011,0.0109148,0.0003214000000004,-0.000641399999999,-0.0003369999999998,0,sub_18
-0.0094832000000001,0.0310044000000012,0.0099184,0.0043286000000004,-0.010670799999999,0.0001312000000001,0,sub_18
-0.0113592000000001,0.0301130000000012,0.0080484,0.0064392000000004,-0.015367199999999,0.0005794000000001,0,sub_18
-0.0139422000000001,0.0295770000000012,0.007052,0.0070754000000004,-0.016858399999999,-5.519999999986925e-05,0,sub_18
-0.0166010000000001,0.0290138000000012,0.0069286,0.0075050000000004,-0.016432999999999,-0.0002663999999998,0,sub_18
-0.0182766000000001,0.0289126000000011,0.0060818,0.0077266000000004,-0.014314599999999,-0.0007233999999998,0,sub_18
-0.0192862000000001,0.0288732000000011,0.0057938,0.0079490000000004,-0.011770999999999,-0.0009671999999998,0,sub_18
-0.0181046000000002,0.0288178000000011,0.0067362,0.0081628000000004,-0.010720399999999,-0.0007819999999998,0,sub_18
-0.0165572000000001,0.0284476000000012,0.0072756,0.0077290000000004,-0.010735399999999,4.12000000001308e-05,0,sub_18
-0.0144934000000001,0.0290092000000012,0.0068402,0.0058044000000004,-0.010105999999999,0.0008530000000001,0,sub_18
-0.0129210000000001,0.0291838000000012,0.0067566,0.0038898000000004,-0.008184399999999,0.0014782000000001,0,sub_18
-0.0123308000000001,0.0295286000000012,0.0071108,0.0028286000000004,-0.006265599999999,0.0021092,0,sub_18
-0.0121904000000001,0.0296114000000012,0.0074908,0.0024068000000004,-0.004774399999999,0.0025316,0,sub_18
-0.0122048000000001,0.0288706000000012,0.0074736,0.0024012000000004,-0.003692799999999,0.002076,0,sub_18
-0.0118110000000001,0.0293718000000012,0.0066884,0.0017564000000004,-0.003456999999999,0.0005490000000001,0,sub_18
-0.0119492000000001,0.0300076000000012,0.0057166,0.0017556000000004,-0.001522399999999,-0.0001211999999998,0,sub_18
-0.0124482000000001,0.0300694000000012,0.006205,0.0021720000000004,-0.000446799999999,0.0004944,0,sub_18
-0.0131640000000001,0.0297506000000012,0.0062154,0.0025748000000004,-0.002353799999999,0.0011138,0,sub_18
-0.0136838000000001,0.0306090000000011,0.0067404,0.0021356000000004,-0.004697599999999,0.0015412,0,sub_18
-0.0149382000000001,0.0299006000000011,0.0081254,0.0040434000000004,-0.006412999999999,0.002625,0,sub_18
-0.0158690000000001,0.0289526000000011,0.008717,0.0057496000000004,-0.009011599999999,0.0039078,0,sub_18
-0.0155930000000001,0.0285860000000012,0.0080332,0.0053404000000004,-0.009039999999999,0.0036770000000001,0,sub_18
-0.0159922000000002,0.0284144000000011,0.0080022,0.0047408000000004,-0.004378799999999,0.0030116000000001,0,sub_18
-0.0153872000000002,0.0280142000000011,0.0074444,0.0039228000000004,-0.000569999999999,0.0025592000000001,0,sub_18
-0.0141288000000002,0.0276260000000011,0.0067452,0.0024640000000004,0.0034524000000009,0.0025294000000001,0,sub_18
-0.0130756000000002,0.0281896000000011,0.0072954,0.0009848000000004,0.0062290000000009,0.0020882000000001,0,sub_18
-0.0122552000000002,0.0282050000000011,0.0085676,0.0014124000000004,0.0060162000000009,0.0016642000000001,0,sub_18
-0.0107830000000002,0.0289368000000011,0.0084146,0.0007626000000004,0.0030390000000009,0.0008090000000001,0,sub_18
-0.0100954000000001,0.0297498000000012,0.0083984,0.0011856000000004,0.0019732000000009,0.0005998000000001,0,sub_18
-0.0100532000000001,0.0301930000000012,0.008568,0.0022740000000004,0.0004270000000009,0.0003848000000001,0,sub_18
-0.0105544000000001,0.0303224000000012,0.0086516,0.0025050000000004,-0.002180599999999,-4.859999999988914e-05,0,sub_18
-0.0111116000000001,0.0303282000000012,0.0074916,0.0021018000000004,-0.004144399999999,-0.0011279999999998,0,sub_18
-0.0117272000000001,0.0299056000000012,0.0075576,0.0019168000000004,-0.004194799999999,-0.0013539999999998,0,sub_18
-0.0127064000000001,0.0292384000000012,0.0073874,0.0010934000000004,-0.004029199999999,-0.0017981999999998,0,sub_18
-0.0138810000000001,0.0293580000000012,0.0068976,2.9400000000468863e-05,-0.003810799999999,-0.0022331999999998,0,sub_18
-0.0141044000000001,0.0293450000000012,0.0059762,-0.0003857999999995,-0.001464999999999,-0.0024527999999998,0,sub_18
-0.0146432000000001,0.0290634000000012,0.006631,-0.0010135999999995,0.0019436000000008,-0.0018207999999998,0,sub_18
-0.0150258000000001,0.0294198000000012,0.0072096,-0.0012213999999995,0.0040714000000008,-0.0009703999999998,0,sub_18
-0.0146548000000001,0.0297812000000012,0.0080548,-0.0001479999999995,0.0031892000000008,-0.0005411999999998,0,sub_18
-0.0147720000000001,0.0297370000000012,0.008169,0.0011348000000004,0.0018784000000008,0.0003174000000001,0,sub_18
-0.0142024000000002,0.0297212000000012,0.0086032,0.0019900000000004,0.0005682000000008,0.0013868,0,sub_18
-0.0137176000000002,0.0300050000000012,0.0081232,0.0026328000000004,-0.001164799999999,0.0018144,0,sub_18
-0.0135282000000002,0.0299402000000012,0.0078408,0.0037062000000004,-0.002046999999999,0.0022438,0,sub_18
-0.0136268000000002,0.0302472000000012,0.007438,0.0043472000000004,-0.000775199999999,0.003315,0,sub_18
-0.0121052000000002,0.0298960000000012,0.007654,0.0041390000000004,0.0007168000000009,0.003306,0,sub_18
-0.0117014000000002,0.0299694000000012,0.0077962,0.0045612000000004,-0.000135999999999,0.0030906,0,sub_18
-0.0108962000000002,0.0297580000000012,0.0083852,0.0058332000000004,-0.001844199999999,0.0028822,0,sub_18
-0.0105346000000002,0.0293088000000012,0.0081604,0.0064632000000004,-0.004612799999999,0.0020298000000001,0,sub_18
-0.0104376000000002,0.0286068000000012,0.0080064,0.0060254000000004,-0.007802999999999,0.0009568000000001,0,sub_18
-0.0110688000000002,0.0285338000000012,0.0077176,0.0049518000000004,-0.010139399999999,9.760000000011083e-05,0,sub_18
-0.0113100000000002,0.0275468000000012,0.0081408,0.0030364000000004,-0.009916199999999,-0.0007705999999998,0,sub_18
-0.0125326000000002,0.0278274000000012,0.008086,6.080000000046916e-05,-0.007985599999999,-0.0014347999999998,0,sub_18
-0.0128022000000002,0.0280208000000012,0.0081266,-0.0018451999999995,-0.005631799999999,-0.0023055999999998,0,sub_18
-0.0127632000000002,0.0285948000000011,0.0086404,-0.0031245999999995,-0.003911399999999,-0.0027519999999998,0,sub_18
-0.0131686000000002,0.0287152000000011,0.0099146,-0.0031237999999995,-0.002195599999999,-0.0031893999999998,0,sub_18
-0.0130302000000002,0.0314706000000011,0.0090542,-0.0026991999999995,-0.001120399999999,-0.0036231999999998,0,sub_18
-0.0116912000000002,0.0322160000000011,0.008468,-0.0003561999999995,0.0007952000000009,-0.0027625999999998,0,sub_18
-0.0119236000000001,0.0328842000000011,0.008919,0.0019764000000004,0.0018524000000008,-0.0004055999999998,0,sub_18
-0.0117934000000001,0.0333318000000012,0.0081524,0.0047300000000004,-0.0011459999999991,0.001113,0,sub_18
-0.0116126000000001,0.0329136000000012,0.0073498,0.0061978000000004,-0.0052059999999991,0.0028376,0,sub_18
-0.0123702000000001,0.0311462000000012,0.0074876,0.0078828000000004,-0.0084145999999991,0.0045628,0,sub_18
-0.0131100000000001,0.0303784000000012,0.007746,0.0084928000000004,-0.0120367999999991,0.0052048,0,sub_18
-0.0121330000000001,0.0296638000000012,0.0072594,0.0067728000000004,-0.012876799999999,0.0047588,0,sub_18
-0.0115064000000002,0.0289038000000011,0.0080134,0.0042310000000004,-0.007319799999999,0.0036580000000001,0,sub_18
-0.0112088000000002,0.0291892000000011,0.0095476,0.0023332000000004,-0.001337199999999,0.0021338000000001,0,sub_18
-0.0103492000000002,0.0290792000000011,0.011312,0.0017012000000004,0.0016574000000008,0.0008358000000001,0,sub_18
-0.0104082000000001,0.0289128000000011,0.010367,0.0014934000000004,0.0016632000000009,-0.0004473999999998,0,sub_18
-0.0110928000000001,0.0289162000000011,0.0096696,0.0021316000000004,-3.839999999908535e-05,-0.0017225999999998,0,sub_18
-0.0122764000000001,0.0295314000000011,0.0087106,0.0021152000000004,-0.002373199999999,-0.0023633999999998,0,sub_18
-0.0127860000000001,0.0301306000000012,0.0068388,0.0012498000000004,-0.002790999999999,-0.0021577999999998,0,sub_18
-0.0132952000000001,0.0308162000000012,0.0052296,-0.0006795999999995,-0.002353799999999,-0.0017471999999998,0,sub_18
-0.0126788000000002,0.0317990000000011,0.006117,-0.0026077999999995,-0.001278999999999,-0.0009101999999998,0,sub_18
-0.0113428000000002,0.0330798000000011,0.0072346,-0.0032509999999995,0.0002202000000009,-0.0007055999999998,0,sub_18
-0.0093740000000002,0.0330840000000012,0.0079184,-0.0019689999999995,0.0010664000000009,-0.0002703999999998,0,sub_18
-0.0076284000000002,0.0333638000000012,0.0088092,-0.0002619999999995,0.0014850000000009,0.0001682000000001,0,sub_18
-0.0070662000000002,0.0324858000000011,0.0091548,0.0006022000000004,0.0040378000000008,0.0003846000000001,0,sub_18
-0.0078162000000002,0.0318748000000012,0.0097242,0.0008348000000004,0.0082980000000008,0.0003808000000001,0,sub_18
-0.0102158000000002,0.0306320000000011,0.0101812,0.0008362000000004,0.0121354000000008,0.0010112000000001,0,sub_18
-0.0132414000000002,0.0297562000000011,0.0103872,0.0004050000000004,0.0151204000000008,0.0020670000000001,0,sub_18
-0.0160332000000002,0.0290662000000011,0.0098508,-3.659999999953104e-05,0.0155496000000008,0.0029122000000001,0,sub_18
-0.0176546000000002,0.0289714000000012,0.0095516,0.0001530000000004,0.0140594000000008,0.0037644000000001,0,sub_18
-0.0179230000000002,0.0283982000000012,0.0087796,-0.0003011999999995,0.0108704000000009,0.0037596000000001,0,sub_18
-0.0159638000000002,0.0287834000000012,0.0084204,-0.0007461999999995,0.0063996000000009,0.0033350000000001,0,sub_18
-0.0128940000000002,0.0300662000000012,0.008582,-0.0003347999999995,0.0019284000000009,0.0022754000000001,0,sub_18
-0.0096944000000002,0.0313862000000012,0.0085328,0.0011434000000004,-0.002546599999999,0.0012234000000001,0,sub_18
-0.0071290000000002,0.0326870000000012,0.0088606,0.0030446000000004,-0.007663199999999,0.0003888000000001,0,sub_18
-0.0051760000000002,0.0334402000000012,0.00975,0.0059954000000004,-0.012983999999999,0.000414,0,sub_18
-0.0049524000000002,0.0337164000000012,0.0101356,0.0089480000000004,-0.017666599999999,0.000652,0,sub_18
-0.0056160000000002,0.0325766000000012,0.0092348,0.0116874000000004,-0.022560599999999,0.000675,0,sub_18
-0.0069012000000002,0.0312856000000012,0.008569,0.0135780000000004,-0.027234999999999,-0.0001625999999998,0,sub_18
-0.0073152000000002,0.0304666000000012,0.0085542,0.0154830000000004,-0.029986999999999,-0.0022845999999998,0,sub_18
-0.0082120000000001,0.0301912000000012,0.0081706,0.0165624000000004,-0.029130799999999,-0.0042009999999998,0,sub_18
-0.0111180000000001,0.0289608000000012,0.0078278,0.0172016000000004,-0.027191199999999,-0.0054845999999998,0,sub_18
-0.0139520000000001,0.0292212000000012,0.007223,0.0159194000000004,-0.024396999999999,-0.0057143999999998,0,sub_18
-0.0156534000000001,0.0297836000000012,0.0068008,0.0139990000000004,-0.018840399999999,-0.0036023999999999,0,sub_18
-0.0170650000000001,0.0291848000000011,0.0064752,0.0110186000000004,-0.010939599999999,-0.0006459999999999,0,sub_18
-0.0170114000000002,0.0289110000000012,0.0056782,0.0063366000000004,-0.002815799999999,0.00123,0,sub_18
-0.0143732000000002,0.0296314000000012,0.0054174,0.0014578000000004,0.0048662000000009,0.0024678,0,sub_18
-0.0120814000000002,0.0306618000000012,0.0075894,-0.0008729999999995,0.0095572000000009,0.0035138,0,sub_18
-0.0103586000000001,0.0308932000000012,0.0105202,-4.159999999953159e-05,0.0046540000000009,0.003526,0,sub_18
-0.0080344000000001,0.0309206000000012,0.0116352,0.0020480000000004,-0.005366199999999,0.0033398,0,sub_18
-0.0057902000000002,0.0317424000000012,0.0108356,0.0051892000000004,-0.016221599999999,0.0025182000000001,0,sub_18
-0.0044684000000002,0.0316462000000012,0.0095814,0.0077064000000004,-0.023028599999999,0.0021144000000001,0,sub_18
-0.0037138000000002,0.0306358000000012,0.0083748,0.0068452000000004,-0.022789399999999,0.0008232000000001,0,sub_18
-0.0034936000000002,0.0303990000000012,0.0073258,0.0028218000000004,-0.015077999999999,-0.0015677999999998,0,sub_18
-0.0053998000000002,0.0316294000000012,0.0072042,-0.0003481999999995,-0.007157399999999,-0.0037393999999998,0,sub_18
-0.0089318000000001,0.0318182000000012,0.0100558,-0.0003281999999995,-0.003107799999999,-0.0041717999999998,0,sub_18
-0.0122956000000001,0.0321610000000012,0.0121944,0.0018026000000004,-0.003754399999999,-0.0041561999999998,0,sub_18
-0.0153960000000001,0.0317112000000011,0.0115886,0.0047668000000004,-0.007604999999999,-0.0028485999999998,0,sub_18
-0.0179462000000001,0.0306072000000011,0.0092958,0.0066666000000004,-0.007830799999999,-0.0004879999999998,0,sub_18
-0.0186876000000001,0.0288972000000012,0.0077624,0.0060338000000004,-0.001869199999999,0.0018470000000001,0,sub_18
-0.0174094000000001,0.0276880000000011,0.0064156,0.0017900000000004,0.0070904000000009,0.0035120000000001,0,sub_18
-0.0148474000000001,0.0271064000000011,0.0062596,-0.0030871999999995,0.0158460000000009,0.0034638000000001,0,sub_18
-0.0114796000000001,0.0282616000000011,0.007265,-0.0064765999999995,0.0216206000000008,0.0017204000000001,0,sub_18
-0.0079148000000001,0.0303574000000012,0.008923,-0.0079613999999995,0.0222702000000008,0.0004274000000001,0,sub_18
-0.0047080000000001,0.0323000000000012,0.0103936,-0.0077605999999995,0.0186510000000009,-0.0004211999999998,0,sub_18
-0.0029266000000001,0.0329886000000012,0.0119114,-0.0050165999999995,0.0133122000000009,-0.0010421999999998,0,sub_18
-0.0030028000000002,0.0335614000000012,0.0121844,-0.0016479999999995,0.0056232000000009,-0.0005877999999998,0,sub_18
-0.0034676000000002,0.0331668000000012,0.011874,0.0017092000000004,-0.003985799999999,0.0005100000000001,0,sub_18
-0.0055628000000002,0.0319316000000012,0.0115362,0.0057170000000004,-0.012314599999999,0.0005424000000001,0,sub_18
-0.0096458000000001,0.0298794000000012,0.011238,0.0093010000000004,-0.021063599999999,-0.0004957999999998,0,sub_18
-0.0135060000000001,0.0291150000000012,0.0101072,0.0107648000000004,-0.028522199999999,-0.0013305999999998,0,sub_18
-0.0157250000000001,0.0290244000000012,0.0085792,0.0109686000000004,-0.031077799999999,-0.0017531999999998,0,sub_18
-0.0167058000000001,0.0297696000000012,0.0086644,0.0114106000000004,-0.026821599999999,-0.0009009999999998,0,sub_18
-0.0164554000000001,0.0294270000000012,0.0093446,0.0112164000000004,-0.021074399999999,0.0005858000000001,0,sub_18
-0.0135892000000001,0.0301724000000012,0.0092402,0.0103488000000004,-0.014856799999999,0.0024950000000001,0,sub_18
