userAcceleration.x,userAcceleration.y,userAcceleration.z,rotationRate.x,rotationRate.y,rotationRate.z,label,subject
-0.0073850000000001,-0.0042917999999987,0.0036062,0.0121184000000003,-0.006020399999999,-0.0023523999999999,0,sub_2
-0.0086370000000001,0.0001046000000012,-0.0005013999999999,0.0127148000000003,-0.010213599999999,-0.0036885999999999,0,sub_2
-0.0095932000000001,0.0053262000000012,-0.0041683999999999,0.0128962000000004,-0.012697399999999,-0.0058843999999999,0,sub_2
-0.0109424000000001,0.0069414000000012,-0.0046653999999999,0.0107846000000004,-0.009275199999999,-0.0073989999999999,0,sub_2
-0.0109584000000001,0.0085356000000012,-0.0049867999999998,0.0078194000000004,-0.005425599999999,-0.0084927999999999,0,sub_2
-0.0107072000000002,0.0102976000000012,-0.0050687999999998,0.0057032000000004,-0.001795999999999,-0.0087253999999998,0,sub_2
-0.0099904000000002,0.0118326000000012,-0.0041413999999998,0.0055036000000004,0.0016112000000009,-0.0083033999999998,0,sub_2
-0.0087642000000001,0.0126326000000012,-0.0033269999999998,0.0065706000000004,0.0030922000000009,-0.0068019999999998,0,sub_2
-0.0067822000000001,0.0127420000000012,-0.0025259999999998,0.0080586000000004,0.0032936000000009,-0.0052959999999998,0,sub_2
-0.0053142000000001,0.0125396000000012,-0.0023415999999999,0.0093390000000004,0.0045618000000009,-0.0040063999999998,0,sub_2
-0.0037280000000001,0.0130720000000012,-0.0022393999999999,0.0106184000000004,0.0051930000000009,-0.0031437999999998,0,sub_2
-0.0020648000000001,0.0122502000000012,-0.0022855999999999,0.0123206000000004,0.0053950000000008,-0.0018501999999998,0,sub_2
-0.0018102000000001,0.0111076000000012,-0.0023777999999999,0.0131694000000004,0.0058122000000008,-0.0003491999999998,0,sub_2
-0.0023132000000001,0.0095478000000012,-0.0027353999999999,0.0133770000000004,0.0058062000000008,0.0009342000000001,0,sub_2
-0.0028680000000002,0.0086928000000012,-0.0022847999999999,0.0137952000000004,0.0047360000000008,0.0017930000000001,0,sub_2
-0.0042156000000002,0.0072454000000012,-0.0021907999999999,0.0133636000000004,0.0043088000000008,0.0024316,0,sub_2
-0.0059362000000002,0.0070958000000011,-0.0022265999999999,0.0125146000000004,0.0043094000000008,0.002427,0,sub_2
-0.0069272000000002,0.0065406000000011,-0.0019825999999999,0.0114494000000004,0.0034592000000008,0.0022084,0,sub_2
-0.0071646000000002,0.0067080000000011,-0.0021203999999999,0.0093156000000004,0.0017624000000008,0.0015562,0,sub_2
-0.0074660000000002,0.0063272000000011,-0.0028603999999999,0.0065444000000004,0.0009190000000008,0.001112,0,sub_2
-0.0072932000000001,0.0069774000000012,-0.0028273999999999,0.0054850000000004,0.0011350000000008,0.0006784,0,sub_2
-0.0074266000000001,0.0075746000000012,-0.0025707999999999,0.0037762000000004,0.0007148000000009,0.000667,0,sub_2
-0.0077510000000001,0.0089364000000012,-0.0025193999999999,0.0018538000000004,-0.000341199999999,1.4000000000095925e-05,0,sub_2
-0.0079142000000001,0.0095026000000012,-0.0024833999999998,0.0016432000000004,-0.000762399999999,-0.0010551999999999,0,sub_2
-0.0075810000000001,0.0106438000000012,-0.0016521999999998,0.0031518000000004,-0.001416599999999,-0.0018849999999998,0,sub_2
-0.0068458000000001,0.0106452000000012,-0.0015753999999998,0.0033754000000004,-0.002919399999999,-0.0025091999999998,0,sub_2
-0.0054948000000001,0.0106904000000012,-0.0019827999999998,0.0027492000000004,-0.003566999999999,-0.0031403999999998,0,sub_2
-0.0045692000000001,0.0102260000000012,-0.0024089999999998,0.0025548000000004,-0.002726599999999,-0.0033431999999998,0,sub_2
-0.0041472000000001,0.0106114000000012,-0.0025931999999998,0.0025726000000004,-0.001463199999999,-0.0029041999999998,0,sub_2
-0.0038888000000001,0.0108418000000012,-0.0024863999999998,0.0023610000000004,-0.000824199999999,-0.0026927999999999,0,sub_2
-0.0044972000000002,0.0112526000000012,-0.0025279999999998,0.0023618000000004,2.540000000092451e-05,-0.0020529999999999,0,sub_2
-0.0056684000000002,0.0114442000000012,-0.0021641999999998,0.0034278000000004,0.0008696000000009,-0.0009783999999999,0,sub_2
-0.0062546000000001,0.0117372000000012,-0.0020535999999999,0.0049074000000004,0.0008636000000009,0.0001082,0,sub_2
-0.0065066000000001,0.0118616000000012,-0.0021355999999999,0.0057462000000004,0.0002222000000009,0.000764,0,sub_2
-0.0072464000000001,0.0121660000000012,-0.0032637999999999,0.0050990000000004,0.0017148000000009,0.0018338,0,sub_2
-0.0070388000000001,0.0122190000000012,-0.0038889999999999,0.0044546000000004,0.0032100000000009,0.0022628,0,sub_2
-0.0066810000000001,0.0116666000000012,-0.0035495999999999,0.0053056000000004,0.0040650000000009,0.0016348,0,sub_2
-0.0064724000000001,0.0111334000000012,-0.0022889999999999,0.0061630000000004,0.0040654000000009,0.0007864000000001,0,sub_2
-0.0061508000000001,0.0102492000000012,-0.0015379999999999,0.0063792000000004,0.0042794000000008,0.0003604000000001,0,sub_2
-0.0063388000000001,0.0099998000000012,-0.0004191999999999,0.0072326000000004,0.0032154000000009,-0.0007003999999998,0,sub_2
-0.0065494000000001,0.0100548000000012,0.0005198,0.0082736000000004,0.0019420000000009,-0.0015275999999998,0,sub_2
-0.0069508000000001,0.0109104000000012,2.7200000000083237e-05,0.0082438000000004,0.0008812000000008,-0.0012941999999998,0,sub_2
-0.0067584000000001,0.0112814000000012,-0.0012619999999998,0.0079986000000004,0.0002438000000008,-0.0002085999999999,0,sub_2
-0.0071084000000002,0.0122466000000012,-0.0018623999999998,0.0079688000000004,-0.0001803999999991,0.0006648,0,sub_2
-0.0060754000000002,0.0115644000000012,-0.0022879999999998,0.0079352000000004,-0.0010323999999991,0.001966,0,sub_2
-0.0054440000000002,0.0107674000000012,-0.0023129999999998,0.0075008000000004,-0.001674199999999,0.003032,0,sub_2
-0.0043272000000002,0.0101638000000012,-0.0024589999999998,0.0055806000000004,-0.001030799999999,0.0036586,0,sub_2
-0.0046070000000002,0.0109550000000012,-0.0030265999999998,0.0017514000000004,0.0013270000000009,0.0034152,0,sub_2
-0.0047576000000001,0.0113324000000012,-0.0026045999999998,-0.0004129999999995,0.0030364000000009,0.002554,0,sub_2
-0.0051146000000001,0.0120410000000012,-0.0025039999999998,-0.0008693999999995,0.0047408000000009,0.0014912,0,sub_2
-0.0058436000000001,0.0121978000000012,-0.0027447999999999,-0.0009039999999995,0.0058026000000009,0.0008596,0,sub_2
-0.0065180000000001,0.0119604000000012,-0.0024711999999999,-0.0007309999999995,0.0049488000000009,-0.0004089999999999,0,sub_2
-0.0063662000000001,0.0114732000000012,-0.0024373999999999,8.220000000042741e-05,0.0034562000000009,-0.0023131999999999,0,sub_2
-0.0060068000000001,0.0119144000000012,-0.0026111999999999,0.0005108000000004,0.0028198000000009,-0.0033775999999999,0,sub_2
-0.0065842000000001,0.0126296000000012,-0.0031879999999999,0.0005108000000004,0.0030320000000008,-0.0031641999999999,0,sub_2
-0.0066840000000002,0.0136660000000012,-0.0031727999999999,0.0007232000000004,0.0036670000000008,-0.0023089999999999,0,sub_2
-0.0068360000000002,0.0135826000000012,-0.0035523999999998,0.0004802000000004,0.0062172000000008,-0.0014509999999999,0,sub_2
-0.0066468000000002,0.0132524000000012,-0.0026393999999998,-0.0004027999999995,0.0091942000000008,-0.0001707999999999,0,sub_2
-0.0064182000000002,0.0115662000000012,-0.0021039999999998,-0.0006447999999995,0.0117452000000008,0.0004736,0,sub_2
-0.0059118000000002,0.0103190000000012,-0.0018903999999998,-0.0008869999999995,0.0136596000000008,0.0004778,0,sub_2
-0.0052984000000002,0.0094860000000012,-0.0019693999999998,-0.0021987999999995,0.0143022000000008,-0.0001645999999999,0,sub_2
-0.0044956000000002,0.0100720000000012,-0.0021507999999999,-0.0026275999999995,0.0134532000000009,-0.0005937999999999,0,sub_2
-0.0039406000000002,0.0106874000000012,-0.0019703999999999,-0.0015655999999995,0.0119598000000008,-0.0010117999999998,0,sub_2
-0.0040686000000002,0.0112516000000012,-0.0019825999999999,-0.0002921999999995,0.0106762000000008,-0.0007875999999998,0,sub_2
-0.0044026000000002,0.0116582000000012,-0.0013065999999999,0.0003336000000004,0.0074782000000008,-0.0007789999999998,0,sub_2
-0.0050024000000002,0.0119422000000012,-0.0008435999999999,0.0013534000000004,0.0036412000000008,-0.0013989999999998,0,sub_2
-0.0057750000000002,0.0124784000000011,-0.0009591999999998,0.0023780000000004,0.0008696000000008,-0.0020203999999998,0,sub_2
-0.0068670000000002,0.0134424000000012,-0.0017917999999998,0.0044722000000004,-0.000417799999999,-0.0017815999999998,0,sub_2
-0.0068442000000002,0.0144196000000012,-0.0026881999999998,0.0059244000000004,-0.0019167999999991,-0.0013333999999998,0,sub_2
-0.0068264000000001,0.0147748000000012,-0.0019723999999998,0.0080206000000004,-0.0027781999999991,-0.0010951999999999,0,sub_2
-0.0069026000000001,0.0150770000000012,-0.0014857999999998,0.0103686000000004,-0.0021489999999991,-0.0006523999999999,0,sub_2
-0.0070926000000001,0.0141120000000012,-0.0008559999999999,0.0125014000000004,-0.0017329999999991,2.8000000000955863e-06,0,sub_2
-0.0069750000000001,0.0122944000000012,-0.0004919999999999,0.0122506000000004,-0.0023763999999991,-0.0002057999999999,0,sub_2
-0.0069580000000001,0.0110766000000012,-0.0005785999999999,0.0105168000000004,-0.001731999999999,-0.0014945999999999,0,sub_2
-0.0064906000000001,0.0102970000000012,-0.0020597999999999,0.0083668000000004,0.0014698000000008,-0.0025761999999999,0,sub_2
-0.0052342000000001,0.0097076000000012,-0.0029031999999999,0.0057920000000004,0.0053114000000008,-0.0034477999999999,0,sub_2
-0.0043948000000001,0.0091918000000012,-0.0023423999999999,0.0027914000000004,0.0102162000000008,-0.0034691999999999,0,sub_2
-0.0037136000000001,0.0088758000000012,-0.0032645999999999,-0.0005965999999995,0.0166170000000008,-0.0028601999999999,0,sub_2
-0.0032864000000001,0.0109242000000012,-0.0042281999999999,-0.0054695999999995,0.0251528000000008,-0.0020505999999999,0,sub_2
-0.0030278000000001,0.0133406000000012,-0.0053085999999999,-0.0116247999999995,0.0328426000000009,-0.0016759999999999,0,sub_2
-0.0054094000000001,0.0158874000000012,-0.0033053999999999,-0.0139757999999995,0.0405088000000009,-0.0004205999999999,0,sub_2
-0.0069820000000001,0.0174158000000012,-0.0014761999999999,-0.0103705999999995,0.0445306000000009,0.0013084,0,sub_2
-0.0079412000000001,0.0186152000000012,0.0019606,-0.0036067999999995,0.0387424000000009,0.0026446,0,sub_2
-0.0082250000000001,0.0155788000000012,0.0025666,0.0046074000000004,0.0231494000000009,0.0037898,0,sub_2
-0.0081118000000001,0.0114616000000012,0.0027966,0.0123862000000004,0.0050038000000009,0.0042944,0,sub_2
-0.0057272000000001,0.0084246000000012,-0.0008133999999999,0.0146730000000004,-0.009275599999999,0.003474,0,sub_2
-0.0038920000000001,0.0089494000000012,-0.0029735999999999,0.0105940000000004,-0.0173471999999991,0.0008922,0,sub_2
-0.0039388000000001,0.0112888000000012,-0.0043029999999999,0.0059094000000004,-0.0166855999999991,-0.0006367999999999,0,sub_2
-0.0063816000000001,0.0164896000000012,-0.0014673999999999,0.0069774000000004,-0.0109587999999991,0.0004334,0,sub_2
-0.0092598000000001,0.0192084000000012,-0.0004259999999999,0.0125080000000004,-0.0071737999999991,0.0036736,0,sub_2
-0.0080414000000002,0.0170152000000012,-0.0007473999999999,0.0169344000000004,-0.0129671999999991,0.0056366,0,sub_2
-0.0049698000000002,0.0109396000000012,-0.0031181999999999,0.0172886000000004,-0.0257653999999991,0.004589,0,sub_2
-0.0008490000000002,0.0046440000000012,-0.0047041999999999,0.0134068000000004,-0.035973999999999,-0.0009779999999999,0,sub_2
0.0042515999999997,0.0022198000000012,-0.0064863999999998,0.0042452000000004,-0.039961999999999,-0.0080869999999999,0,sub_2
0.0070917999999997,0.0067656000000012,-0.0054167999999998,-0.0076623999999995,-0.036488399999999,-0.0139429999999999,0,sub_2
0.0031863999999997,0.0169228000000012,-0.0014617999999998,-0.0120953999999995,-0.027517799999999,-0.0156945999999999,0,sub_2
-0.0040668000000002,0.0274864000000012,0.0021976000000001,-0.0029003999999995,-0.019255999999999,-0.0117951999999999,0,sub_2
-0.0108380000000001,0.0325798000000012,0.0030228000000001,0.0141302000000004,-0.016612799999999,-0.0029173999999999,0,sub_2
-0.0155200000000001,0.0306840000000012,0.0014944000000001,0.0294482000000003,-0.016090599999999,0.0050964,0,sub_2
-0.0163114000000001,0.0225126000000012,-0.0014685999999998,0.0394432000000003,-0.016176199999999,0.0098692,0,sub_2
-0.0129818000000001,0.0122024000000012,-0.0039893999999998,0.0409246000000004,-0.014091199999999,0.012016,0,sub_2
-0.0091740000000001,0.0048426000000012,-0.0052835999999998,0.0334732000000004,-0.0064321999999991,0.0132386,0,sub_2
-0.0072508000000001,0.0035336000000012,-0.0044501999999999,0.0232746000000004,0.0046764000000008,0.0146486,0,sub_2
-0.0074222000000001,0.0041876000000012,-0.0014953999999999,0.0168926000000004,0.0108696000000008,0.0165188,0,sub_2
-0.0067722000000001,0.0060778000000012,0.0018556,0.0147358000000004,0.0106454000000009,0.0160822,0,sub_2
-0.0058128000000002,0.0062088000000012,0.0010684,0.0147078000000004,0.0055288000000009,0.0118212,0,sub_2
-0.0026030000000002,0.0052066000000012,-0.0016509999999999,0.0119058000000004,-0.003397799999999,0.0037,0,sub_2
0.0017437999999997,0.0051506000000012,-0.0037007999999999,0.0037754000000004,-0.012512799999999,-0.0059537999999999,0,sub_2
0.0046105999999997,0.0078434000000012,-0.0048119999999999,-0.0071087999999995,-0.015021999999999,-0.0134985999999999,0,sub_2
0.0036881999999997,0.0139302000000012,-0.0049773999999999,-0.0149757999999995,-0.010301399999999,-0.0150551999999999,0,sub_2
-0.0008224000000002,0.0221048000000012,-0.0018073999999999,-0.0156015999999995,-0.002859399999999,-0.0107963999999999,0,sub_2
-0.0073454000000002,0.0281252000000012,0.0025968,-0.0081391999999995,0.0032632000000009,-0.0032745999999999,0,sub_2
-0.0114674000000002,0.0285276000000012,0.004139,0.0042142000000004,0.0046858000000009,0.0032192,0,sub_2
-0.0108418000000002,0.0223166000000012,0.0015366,0.0165446000000004,9.90000000008852e-05,0.0058806,0,sub_2
-0.0083508000000002,0.0143416000000012,-0.0019041999999999,0.0224700000000004,-0.0087127999999991,0.0050844000000001,0,sub_2
-0.0038020000000002,0.0066982000000012,-0.0054603999999999,0.0203142000000004,-0.014077199999999,0.0016636000000001,0,sub_2
-0.0004182000000002,0.0044468000000012,-0.0064167999999999,0.0124288000000004,-0.011966399999999,-0.0013795999999998,0,sub_2
6.239999999981746e-05,0.0060834000000012,-0.0048343999999999,0.0032796000000004,-0.004319599999999,-0.0025157999999998,0,sub_2
-0.0040554000000001,0.0112968000000012,-0.0012867999999999,-0.0026629999999995,0.0044296000000009,-0.0008593999999998,0,sub_2
-0.0079414000000001,0.0140944000000012,0.0002814,-0.0028543999999995,0.0112404000000009,0.0010534000000001,0,sub_2
-0.0114706000000001,0.0153322000000011,0.0005354,-0.0003125999999995,0.0133262000000009,0.001281,0,sub_2
-0.0112044000000001,0.0143768000000011,-0.0018133999999999,0.0020112000000004,0.0109524000000009,-0.0019053999999999,0,sub_2
-0.0107054000000002,0.0137296000000011,-0.0050205999999999,0.0020080000000004,0.0115756000000009,-0.0066075999999999,0,sub_2
-0.0072230000000002,0.0140134000000011,-0.0057801999999999,-0.0015957999999995,0.0183890000000008,-0.0111291999999999,0,sub_2
-0.0044206000000002,0.0168918000000012,-0.0032773999999999,-0.0056175999999995,0.0288188000000008,-0.0139491999999999,0,sub_2
-0.0027094000000002,0.0214482000000012,4.7400000000063365e-05,-0.0064287999999995,0.0398936000000008,-0.0122597999999999,0,sub_2
-0.0042476000000002,0.0237592000000012,0.0023302,-0.0027889999999995,0.0475312000000008,-0.0073303999999999,0,sub_2
-0.0049998000000002,0.0218100000000012,0.0038654,0.0063610000000004,0.0466282000000008,-0.0025649999999999,0,sub_2
-0.0055538000000001,0.0168238000000012,0.0028948,0.0169546000000004,0.0385244000000008,-0.0016175999999999,0,sub_2
-0.0050068000000001,0.0106008000000012,-0.0002591999999999,0.0215930000000004,0.0310952000000008,-0.0043445999999999,0,sub_2
-0.0043522000000001,0.0050116000000012,-0.0030527999999998,0.0181480000000004,0.0266872000000008,-0.0096955999999998,0,sub_2
-0.0014292000000001,0.0015682000000012,-0.0047071999999998,0.0095984000000004,0.0269800000000008,-0.0140199999999998,0,sub_2
0.0007103999999998,0.0013006000000012,-0.0059821999999998,-0.0034117999999995,0.0340966000000008,-0.0160343999999998,0,sub_2
-0.0002250000000002,0.0063014000000012,-0.0049971999999999,-0.0163939999999995,0.0432964000000009,-0.0144275999999998,0,sub_2
-0.0029488000000002,0.0143366000000012,-0.0021031999999999,-0.0202347999999995,0.0477660000000009,-0.0099735999999998,0,sub_2
-0.0057458000000002,0.0210748000000012,0.0009478,-0.0145091999999995,0.0445314000000009,-0.0052293999999999,0,sub_2
-0.0098398000000002,0.0273906000000012,0.0032724,-0.0047543999999995,0.0346820000000009,-0.0015167999999999,0,sub_2
-0.0123488000000002,0.0311524000000012,0.0036632,0.0072490000000004,0.0178282000000009,0.0015666,0,sub_2
-0.0128286000000001,0.0306852000000011,0.0010386,0.0192590000000004,0.0022536000000009,0.0044346,0,sub_2
-0.0115498000000001,0.0263750000000011,-0.0013497999999999,0.0242490000000004,-0.007548399999999,0.0083146,0,sub_2
-0.0095572000000001,0.0210098000000011,-0.0035597999999999,0.0232980000000004,-0.008811599999999,0.0132104,0,sub_2
-0.0068090000000001,0.0154266000000011,-0.0051155999999998,0.0202574000000004,-0.0013277999999991,0.0170122,0,sub_2
-0.0050018000000001,0.0118394000000011,-0.0034749999999998,0.0166772000000004,0.0116708000000008,0.0195344,0,sub_2
-0.0031650000000002,0.0094764000000012,-0.0003121999999998,0.0122358000000004,0.0208460000000008,0.019919,0,sub_2
-6.300000000020283e-05,0.0071714000000012,0.0005872000000001,0.0077296000000004,0.0217638000000008,0.015398,0,sub_2
0.0032359999999997,0.0051164000000012,0.0006718000000001,0.0025536000000004,0.0137448000000008,0.0085336,0,sub_2
0.0057847999999997,0.0027238000000012,0.0005004,-0.0034921999999995,0.0014704000000009,0.0010276000000001,0,sub_2
0.0068845999999997,0.0041970000000012,-0.0014213999999999,-0.0097513999999995,-0.010803199999999,-0.0064797999999998,0,sub_2
0.0066497999999997,0.0084658000000012,-0.0014671999999999,-0.0145129999999995,-0.019683399999999,-0.0114173999999998,0,sub_2
0.0023715999999997,0.0167884000000011,0.0001928,-0.0132451999999995,-0.022457599999999,-0.0114049999999998,0,sub_2
-0.0045248000000002,0.0260826000000011,0.0024764,-0.0042949999999995,-0.021013599999999,-0.0072849999999998,0,sub_2
-0.0117814000000002,0.0319366000000011,0.003371,0.0093254000000004,-0.022365999999999,-0.0005649999999999,0,sub_2
-0.0161730000000002,0.0314308000000011,0.0027648,0.0211726000000004,-0.028175599999999,0.00679,0,sub_2
-0.0181180000000002,0.0245908000000011,0.0003506,0.0285322000000004,-0.037158399999999,0.0124088,0,sub_2
-0.0168434000000002,0.0139882000000012,-0.0030273999999998,0.0290956000000004,-0.042906199999999,0.0141302,0,sub_2
-0.0121136000000002,0.0041526000000012,-0.0059535999999998,0.0205462000000004,-0.039229799999999,0.0112894,0,sub_2
-0.0066808000000002,0.0015754000000012,-0.0062035999999998,0.0064932000000004,-0.028067799999999,0.0060504,0,sub_2
-0.0023022000000002,0.0046798000000012,-0.0031825999999998,-0.0038901999999995,-0.017144999999999,0.0008364,0,sub_2
-0.0002828000000002,0.0124272000000012,-0.0008907999999998,-0.0068121999999995,-0.006678799999999,-0.0032567999999999,0,sub_2
-0.0006076000000002,0.0213374000000012,0.0010934,-0.0031513999999995,-0.000507799999999,-0.0045209999999998,0,sub_2
-0.0029350000000002,0.0268074000000012,0.0018724000000001,0.0062150000000004,-0.004591999999999,-0.0035957999999999,0,sub_2
-0.0051170000000001,0.0265250000000012,0.0007936000000001,0.0163694000000004,-0.014920999999999,-0.0024253999999999,0,sub_2
-0.0069532000000001,0.0226400000000012,-0.0019609999999998,0.0201542000000004,-0.018621399999999,-0.0017351999999998,0,sub_2
-0.0075894000000001,0.0175870000000012,-0.0046613999999998,0.0175626000000004,-0.016759999999999,-0.0010967999999998,0,sub_2
-0.0066730000000001,0.0124266000000012,-0.0054723999999998,0.0119888000000004,-0.014247399999999,-0.0009073999999998,0,sub_2
-0.0046306000000001,0.0096626000000012,-0.0048679999999998,0.0042984000000004,-0.008316799999999,-0.0011643999999998,0,sub_2
-0.0037682000000002,0.0110008000000012,-0.0031393999999998,-0.0024959999999995,-0.000411799999999,-0.0007947999999998,0,sub_2
-0.0033766000000002,0.0132412000000012,-0.0015885999999998,-0.0041875999999995,0.0032152000000009,-0.0005977999999999,0,sub_2
-0.0035432000000002,0.0160548000000011,0.0005068000000001,-0.0035661999999995,0.0033200000000009,-0.0014235999999999,0,sub_2
-0.0060640000000002,0.0186320000000011,0.0008458,-0.0018837999999995,0.0021428000000009,-0.0022403999999999,0,sub_2
-0.0066660000000002,0.0210312000000012,-0.0001759999999999,0.0006762000000004,0.0060768000000009,-0.0032713999999999,0,sub_2
-0.0063580000000001,0.0202758000000012,-0.0013565999999999,0.0032486000000004,0.0127806000000009,-0.0043057999999999,0,sub_2
-0.0048436000000001,0.0182622000000012,-0.0011861999999999,0.0028404000000004,0.0216226000000009,-0.0047225999999999,0,sub_2
-0.0038202000000001,0.0158568000000012,-0.0010947999999999,0.0013832000000004,0.0299360000000009,-0.0045297999999999,0,sub_2
-0.0018892000000001,0.0135236000000012,-0.0002123999999999,-8.739999999957393e-05,0.0352668000000009,-0.0043331999999999,0,sub_2
-0.0032200000000001,0.0127602000000012,0.0008802,-0.0005419999999995,0.0295142000000009,-0.0039015999999999,0,sub_2
-0.0031314000000001,0.0135346000000012,0.0016436,-0.0006251999999995,0.0196242000000009,-0.0038961999999998,0,sub_2
-0.0047008000000001,0.0150856000000012,0.0008376,-7.219999999957421e-05,0.0082434000000009,-0.0045253999999998,0,sub_2
-0.0070864000000001,0.0163552000000012,-0.0003511999999999,0.0019830000000004,-0.001012999999999,-0.0049331999999998,0,sub_2
-0.0080304000000001,0.0187792000000012,-0.0019583999999999,0.0021506000000004,-0.002382399999999,-0.0047233999999998,0,sub_2
-0.0080520000000001,0.0199280000000012,-0.0031085999999998,-0.0002173999999995,0.0039186000000009,-0.0024045999999998,0,sub_2
-0.0093166000000001,0.0206218000000012,-0.0034899999999999,-0.0016841999999995,0.0128602000000009,0.0005648000000001,0,sub_2
-0.0095998000000001,0.0217200000000012,-0.0031911999999999,-0.0010267999999995,0.0205126000000009,0.0044052,0,sub_2
-0.0078930000000001,0.0225842000000012,-0.0014133999999999,-0.0008123999999995,0.0241202000000008,0.0078204,0,sub_2
-0.0057606000000001,0.0218910000000012,0.0013622,-0.0002309999999995,0.0213240000000008,0.0101732,0,sub_2
-0.0037958000000001,0.0200046000000012,0.0030128,0.0022554000000004,0.0136268000000008,0.01105,0,sub_2
-0.0020486000000002,0.0176500000000012,0.0031718,0.0045102000000004,0.0023068000000008,0.0123572,0,sub_2
-0.0012144000000002,0.0145110000000012,0.00338,0.0065614000000004,-0.0090039999999991,0.0115264,0,sub_2
-0.0010610000000002,0.0094126000000012,0.00252,0.0088412000000004,-0.019240999999999,0.0083458,0,sub_2
-0.0006458000000002,0.0056236000000012,-3.3399999999917e-05,0.0079838000000004,-0.025819599999999,0.0025798,0,sub_2
-9.120000000020275e-05,0.0037758000000012,-0.0021231999999999,0.0033070000000004,-0.028970799999999,-0.0044989999999999,0,sub_2
-0.0001464000000002,0.0034070000000012,-0.0030009999999999,-0.0030519999999995,-0.027425599999999,-0.0124501999999999,0,sub_2
-0.0011296000000002,0.0077216000000012,-0.0028727999999999,-0.0098771999999995,-0.023725199999999,-0.0187049999999998,0,sub_2
-0.0027918000000002,0.0155752000000012,-0.0019637999999999,-0.0165013999999995,-0.019187599999999,-0.0213275999999998,0,sub_2
-0.0062514000000002,0.0236764000000012,-0.0003745999999999,-0.0165377999999995,-0.017031399999999,-0.0202691999999998,0,sub_2
-0.0110916000000002,0.0318768000000012,0.0009456,-0.0082815999999995,-0.018961599999999,-0.0167975999999998,0,sub_2
-0.0140436000000002,0.0378668000000012,0.0013972,0.0037886000000004,-0.026021799999999,-0.0124381999999999,0,sub_2
-0.0147954000000002,0.0365550000000012,0.000546,0.0169534000000004,-0.035461799999999,-0.0074203999999999,0,sub_2
-0.0119558000000002,0.0301172000000012,-0.0015735999999999,0.0288696000000004,-0.039139999999999,-0.0037003999999999,0,sub_2
-0.0084520000000002,0.0215204000000012,-0.0033113999999998,0.0344268000000004,-0.034270199999999,-0.0008903999999999,0,sub_2
