userAcceleration.x,userAcceleration.y,userAcceleration.z,rotationRate.x,rotationRate.y,rotationRate.z,label,subject
-0.0049702000000002,0.0026374000000012,-0.0076973999999998,0.0035920000000004,0.0073866000000009,-0.0029775999999999,0,sub_6
-0.0039482000000002,0.0019446000000012,-0.0064629999999998,0.0027062000000004,0.0069678000000009,-0.0015839999999999,0,sub_6
-0.0026310000000002,0.0020926000000012,-0.0059317999999998,0.0016090000000004,0.0069760000000009,-0.0001923999999999,0,sub_6
-0.0019526000000002,0.0026750000000012,-0.0057635999999998,0.0005392000000004,0.0069770000000009,0.000441,0,sub_6
-0.0009866000000002,0.0032746000000012,-0.0053873999999998,0.0001076000000004,0.0061254000000009,0.0006526,0,sub_6
-0.0010472000000002,0.0038898000000012,-0.0048265999999998,0.0005138000000004,0.0050406000000009,0.0006164,0,sub_6
-0.0021168000000001,0.0043126000000012,-0.0057447999999998,0.0015632000000004,0.0041684000000009,0.0001572,0,sub_6
-0.0035944000000001,0.0038392000000012,-0.0066667999999998,0.0015468000000004,0.0035130000000009,-0.0003097999999999,0,sub_6
-0.0044026000000001,0.0032582000000012,-0.0084483999999998,0.0008910000000004,0.0032852000000009,-0.0005681999999999,0,sub_6
-0.0049222000000001,0.0030258000000012,-0.0099487999999999,0.0002420000000004,0.0039120000000009,-0.0014683999999999,0,sub_6
-0.0058418000000001,0.0026838000000012,-0.0103481999999999,-0.0006017999999995,0.0051968000000009,-0.0023305999999999,0,sub_6
-0.0063094000000002,0.0018868000000012,-0.0106247999999999,-0.0016627999999995,0.0060546000000009,-0.0027663999999999,0,sub_6
-0.0057558000000002,0.0011742000000012,-0.0112547999999999,-0.0014417999999995,0.0071216000000009,-0.0034071999999999,0,sub_6
-0.0052924000000002,0.0013842000000012,-0.0103325999999999,-0.0012359999999995,0.0083820000000009,-0.0036469999999999,0,sub_6
-0.0052508000000001,0.0012962000000012,-0.0095207999999999,-0.0023209999999995,0.0087888000000009,-0.0023993999999999,0,sub_6
-0.0043914000000001,0.0020876000000012,-0.0086443999999999,-0.0029839999999995,0.0085532000000009,-0.0007205999999999,0,sub_6
-0.0035476000000001,0.0029788000000012,-0.0080475999999999,-0.0034317999999995,0.0085308000000009,0.0007456,0,sub_6
-0.0035698000000001,0.0035448000000011,-0.0071239999999999,-0.0038833999999995,0.0074440000000009,0.0019996,0,sub_6
-0.0034146000000001,0.0036082000000011,-0.0070073999999999,-0.0043147999999995,0.0063804000000009,0.0019978,0,sub_6
-0.0034096000000001,0.0034472000000012,-0.0068031999999998,-0.0032411999999995,0.0068070000000009,0.0009366,0,sub_6
-0.0036214000000001,0.0030648000000012,-0.0072309999999998,-0.0015293999999995,0.0065932000000009,-0.0003329999999999,0,sub_6
-0.0029374000000001,0.0021806000000012,-0.0071267999999998,0.0010222000000003,0.0059276000000009,-0.0016067999999999,0,sub_6
-0.0027570000000001,0.0022916000000012,-0.0070071999999998,0.0025108000000003,0.0061180000000009,-0.0028891999999998,0,sub_6
-0.0035372000000001,0.0017518000000012,-0.0071087999999998,0.0031382000000003,0.0058800000000009,-0.0028951999999998,0,sub_6
-0.0042214000000002,0.0015546000000012,-0.0075301999999998,0.0031208000000003,0.0047914000000009,-0.0026909999999999,0,sub_6
-0.0046716000000001,0.0006984000000012,-0.0081385999999998,0.0022536000000003,0.0047700000000009,-0.0022803999999998,0,sub_6
-0.0060176000000001,0.0008652000000012,-0.0088485999999998,0.0005476000000003,0.0052012000000009,-0.0020791999999998,0,sub_6
-0.0068146000000001,0.0008042000000012,-0.0099237999999998,-0.0007363999999995,0.0049900000000009,-0.0014467999999998,0,sub_6
-0.0070200000000001,0.0015688000000012,-0.0101117999999999,-0.0013793999999995,0.0049898000000009,-0.0008101999999998,0,sub_6
-0.0065944000000001,0.0017236000000012,-0.0097995999999999,-0.0016037999999995,0.0049596000000009,-0.0003835999999998,0,sub_6
-0.0064912000000001,0.0025040000000012,-0.0094609999999999,-0.0016137999999995,0.0047172000000009,-0.0003825999999999,0,sub_6
-0.0050614000000001,0.0028572000000012,-0.0089637999999999,-0.0009817999999995,0.0046866000000009,-0.0005909999999999,0,sub_6
-0.0046204000000001,0.0027282000000012,-0.0080005999999998,-0.0003451999999996,0.0055090000000009,-0.0010139999999999,0,sub_6
-0.0043902000000001,0.0021590000000012,-0.0072587999999998,7.620000000039787e-05,0.0059060000000008,-0.0014379999999999,0,sub_6
-0.0044334000000001,0.0019358000000012,-0.0068927999999998,0.0007182000000003,0.0059054000000008,-0.0018607999999999,0,sub_6
-0.0042356000000001,0.0018016000000012,-0.0072171999999998,0.0011438000000003,0.0054788000000009,-0.0020707999999999,0,sub_6
-0.0047670000000001,0.0017164000000012,-0.0071551999999998,7.200000000041791e-05,0.0046294000000009,-0.0018633999999999,0,sub_6
-0.0048630000000001,0.0022500000000012,-0.0073117999999999,-0.0007909999999995,0.0035628000000009,-0.0007999999999999,0,sub_6
-0.0048394000000001,0.0018918000000012,-0.0079945999999999,-0.0003801999999995,0.0024604000000009,-0.0001513999999999,0,sub_6
-0.0051040000000001,0.0018828000000012,-0.0088065999999999,-0.0006075999999995,0.0013620000000009,6.540000000007811e-05,0,sub_6
-0.0054268000000002,0.0011726000000012,-0.0086581999999999,-0.0006185999999995,0.0011140000000009,0.0004962,0,sub_6
-0.0057466000000002,0.0007414000000012,-0.0096287999999999,0.0002220000000004,0.0008614000000009,0.0013602,0,sub_6
-0.0058570000000002,-5.399999999875864e-05,-0.0100269999999999,0.0006406000000004,0.0006146000000009,0.0011532,0,sub_6
-0.0056568000000002,5.700000000122135e-05,-0.0104919999999999,-0.0002127999999995,0.0008298000000009,0.0013606,0,sub_6
-0.0049078000000002,-0.0003283999999987,-0.0104135999999999,-0.0014899999999995,0.0018978000000009,0.0017776,0,sub_6
-0.0038766000000001,-9.039999999877863e-05,-0.0105885999999999,-0.0027615999999995,0.0031832000000009,0.0011262,0,sub_6
-0.0035150000000001,0.0004162000000012,-0.0101347999999998,-0.0040291999999995,0.0050758000000009,-0.0003739999999999,0,sub_6
-0.0031212000000001,0.0009264000000012,-0.0093309999999998,-0.0044453999999995,0.0069638000000009,-0.0014409999999999,0,sub_6
-0.0023090000000001,0.0014036000000012,-0.0084479999999998,-0.0035849999999995,0.0077828000000009,-0.0027113999999999,0,sub_6
-0.0024808000000001,0.0022548000000012,-0.0076357999999998,-0.0018769999999996,0.0079572000000009,-0.0033339999999999,0,sub_6
-0.0027814000000001,0.0022636000000012,-0.0070761999999998,-0.0008147999999996,0.0077042000000009,-0.0031061999999999,0,sub_6
-0.0026544000000001,0.0017532000000012,-0.0074625999999998,-0.0001861999999995,0.0059942000000009,-0.0022449999999999,0,sub_6
-0.0030418000000001,0.0012278000000012,-0.0077313999999998,1.960000000041789e-05,0.0045012000000009,-0.0020279999999999,0,sub_6
-0.0042982000000002,0.0003462000000012,-0.0079525999999999,-0.0004077999999995,0.0042514000000009,-0.0020245999999999,0,sub_6
-0.0052450000000001,-0.0002763999999987,-0.0092795999999999,-0.0006255999999995,0.0035730000000009,-0.0015919999999999,0,sub_6
-0.0061284000000001,-7.599999999877865e-05,-0.0103807999999999,-0.0006299999999995,0.0024696000000009,-0.0015843999999999,0,sub_6
-0.0072360000000001,2.6000000001221345e-05,-0.0098245999999999,-0.0006267999999995,0.0028584000000009,-0.0017925999999999,0,sub_6
-0.0076190000000001,-0.0001351999999987,-0.0104855999999999,-0.0006245999999995,0.0032464000000009,-0.0017869999999999,0,sub_6
-0.0075036000000001,0.0004600000000012,-0.0108501999999999,-0.0006245999999995,0.0030342000000008,-0.0020003999999999,0,sub_6
-0.0069510000000001,0.0005538000000012,-0.0105503999999999,-0.0010455999999995,0.0036774000000008,-0.0026449999999999,0,sub_6
-0.0062234000000001,0.0003954000000012,-0.0100749999999999,-0.0018933999999995,0.0045344000000008,-0.0030793999999999,0,sub_6
-0.0050616000000001,0.0004620000000012,-0.0102361999999999,-0.0016743999999995,0.0049264000000009,-0.0039257999999999,0,sub_6
-0.0047810000000002,0.0009822000000012,-0.0094105999999999,-0.0014543999999995,0.0053194000000009,-0.0049859999999999,0,sub_6
-0.0045168000000002,0.0007168000000012,-0.0089881999999998,-0.0010249999999995,0.0057082000000009,-0.0051901999999999,0,sub_6
-0.0040638000000002,0.0013452000000012,-0.0088011999999998,-0.0010231999999995,0.0056732000000009,-0.0056103999999999,0,sub_6
-0.0038566000000002,0.0022070000000012,-0.0086091999999998,-0.0001727999999995,0.0052064000000009,-0.0053831999999999,0,sub_6
-0.0039720000000002,0.0020304000000012,-0.0082893999999998,0.0004586000000004,0.0043478000000009,-0.0043093999999999,0,sub_6
-0.0037320000000002,0.0012650000000012,-0.0088919999999998,0.0004480000000004,0.0030652000000009,-0.0032395999999999,0,sub_6
-0.0037834000000002,0.0010204000000012,-0.0097803999999999,-0.0001977999999995,0.0024258000000009,-0.0026021999999999,0,sub_6
-0.0046088000000002,0.0001754000000012,-0.0098331999999999,-0.0006271999999995,0.0019656000000009,-0.0023837999999999,0,sub_6
-0.0052306000000002,-0.0007387999999987,-0.0096669999999999,-0.0008429999999995,0.0012926000000009,-0.0023771999999999,0,sub_6
-0.0054222000000002,-0.0008657999999987,-0.0097927999999999,-0.0006273999999995,0.0010466000000009,-0.0030091999999999,0,sub_6
-0.0052038000000002,-0.0008253999999987,-0.0100371999999999,-0.0001993999999995,0.0010112000000009,-0.0032123999999999,0,sub_6
-0.0054106000000002,-0.0005677999999987,-0.0097479999999999,-0.0001979999999995,0.0009772000000009,-0.0034187999999999,0,sub_6
-0.0053550000000002,8.720000000124115e-05,-0.0091213999999999,-0.0004103999999995,0.0014032000000009,-0.0032069999999999,0,sub_6
-0.0054864000000002,0.0003266000000012,-0.0096713999999999,-0.0001941999999995,0.0018294000000009,-0.0034195999999998,0,sub_6
-0.0058958000000002,0.0008058000000012,-0.0097543999999999,-0.0008331999999995,0.0022568000000009,-0.0032107999999998,0,sub_6
-0.0064424000000002,0.0014756000000012,-0.0096153999999999,-0.0014685999999995,0.0028682000000009,-0.0029993999999998,0,sub_6
-0.0060286000000002,0.0017662000000012,-0.0096409999999999,-0.0012535999999995,0.0028376000000009,-0.0027811999999998,0,sub_6
-0.0058208000000002,0.0010804000000012,-0.0098473999999999,-0.0001857999999995,0.0021666000000009,-0.0029835999999999,0,sub_6
-0.0055006000000002,0.0005088000000012,-0.0094123999999999,-0.0001839999999995,0.0019244000000009,-0.0029803999999999,0,sub_6
-0.0049398000000002,-0.0001285999999987,-0.0098469999999998,-0.0006099999999995,0.0014708000000009,-0.0029799999999999,0,sub_6
-0.0043984000000002,2.1400000001221132e-05,-0.0091883999999998,-0.0006031999999995,0.0023256000000009,-0.0036219999999999,0,sub_6
-0.0050978000000001,-0.0003735999999987,-0.0093839999999998,-0.0010241999999995,0.0031810000000009,-0.0040533999999999,0,sub_6
-0.0051138000000001,-0.0005119999999987,-0.0101903999999998,-0.0014471999999995,0.0038224000000009,-0.0042707999999999,0,sub_6
-0.0050600000000001,-0.0003085999999987,-0.0101463999999998,-0.0005831999999995,0.0042178000000009,-0.0049005999999999,0,sub_6
-0.0056524000000001,1.460000000124117e-05,-0.0088063999999999,0.0009218000000004,0.0048240000000009,-0.0055261999999999,0,sub_6
-0.0056404000000001,-0.0009423999999987,-0.0091719999999999,0.0024172000000004,0.0037242000000009,-0.0057225999999999,0,sub_6
-0.0045776000000002,-0.0014817999999987,-0.0091453999999999,0.0039270000000004,0.0041224000000009,-0.0076297999999999,0,sub_6
-0.0055710000000002,-0.0007377999999987,-0.0088433999999999,0.0060828000000004,0.0053724000000009,-0.0099609999999999,0,sub_6
-0.0068336000000002,-0.0002079999999987,-0.0089207999999999,0.0080098000000004,0.0055840000000009,-0.0112297999999999,0,sub_6
-0.0069634000000002,0.0008240000000012,-0.0106417999999999,0.0092920000000004,0.0053690000000009,-0.0118615999999999,0,sub_6
-0.0071388000000002,0.0016460000000012,-0.0110091999999999,0.0088594000000004,0.0049408000000009,-0.0110093999999999,0,sub_6
-0.0078990000000001,0.0018500000000012,-0.0095635999999999,0.0084106000000004,0.0032252000000009,-0.0078057999999999,0,sub_6
-0.0066672000000001,0.0008532000000012,-0.0089633999999998,0.0068946000000004,0.0008420000000009,-0.0037445999999999,0,sub_6
-0.0049804000000001,-0.0002235999999987,-0.0089859999999998,0.0036814000000004,-0.000465799999999,-0.0007647999999999,0,sub_6
-0.0035552000000001,-0.0016667999999987,-0.0086089999999998,0.0002634000000004,-0.000491799999999,0.001571,0,sub_6
-0.0034396000000001,-0.0019329999999987,-0.0080583999999998,-0.0016541999999995,-9.25999999990549e-05,0.0028484,0,sub_6
-0.0031834000000001,-0.0014173999999987,-0.0082931999999998,-0.0033517999999995,0.0005238000000009,0.0028452,0,sub_6
-0.0036172000000001,-0.0006533999999987,-0.0085723999999999,-0.0042013999999995,0.0011668000000009,0.0026248,0,sub_6
-0.0047842000000001,0.0002568000000012,-0.0087131999999999,-0.0037709999999995,0.0015930000000009,0.0022,0,sub_6
-0.0060334000000001,0.0004320000000012,-0.0084737999999999,-0.0024843999999996,0.0011390000000009,0.0015826,0,sub_6
-0.0066794000000001,0.0002260000000012,-0.0095545999999999,-0.0011947999999996,0.0008998000000009,0.0005378,0,sub_6
-0.0069346000000001,0.0002504000000012,-0.0105993999999999,0.0003044000000003,0.0002322000000009,-7.759999999992152e-05,0,sub_6
-0.0070548000000002,-0.0002465999999987,-0.0113111999999999,0.0007366000000003,-0.000219599999999,-0.0004871999999999,0,sub_6
-0.0066820000000002,-0.0007079999999987,-0.0117789999999999,0.0005270000000003,-0.000458399999999,-0.0002605999999999,0,sub_6
-0.0064324000000002,-0.0008477999999987,-0.0120469999999999,0.0001042000000004,0.0006076000000009,-5.1199999999941525e-05,0,sub_6
-0.0058576000000002,-0.0007785999999987,-0.0111815999999999,-0.0005369999999995,0.0008212000000009,0.0003712,0,sub_6
-0.0053676000000002,-0.0008681999999987,-0.0104209999999998,-0.0011799999999995,0.0006086000000009,0.0007942,0,sub_6
-0.0047496000000002,-0.0004559999999987,-0.0102017999999998,-0.0016047999999995,0.0008240000000009,0.0005772,0,sub_6
-0.0047058000000001,-8.5399999998799e-05,-0.0097133999999998,-0.0018083999999995,0.0016562000000009,0.0003774,0,sub_6
-0.0051222000000001,0.0001066000000012,-0.0095151999999998,-0.0018043999999995,0.0012094000000009,0.0001808,0,sub_6
-0.0053078000000001,4.6600000001240986e-05,-0.0096793999999998,-0.0020117999999995,0.0011896000000009,-1.7799999999921557e-05,0,sub_6
-0.0054344000000001,-3.939999999875902e-05,-0.0103329999999998,-0.0020019999999995,0.0018090000000009,-0.0004293999999999,0,sub_6
-0.0059416000000001,-0.0002499999999987,-0.0100305999999998,-0.0022065999999995,0.0026406000000009,-0.0004153999999999,0,sub_6
-0.0056606000000001,-0.0007485999999987,-0.0100049999999999,-0.0017789999999995,0.0024278000000009,-0.0008393999999999,0,sub_6
-0.0049524000000001,-0.0004173999999987,-0.0100057999999999,-0.0017771999999995,0.0024296000000009,-0.0012665999999999,0,sub_6
-0.0045752000000001,-4.439999999875902e-05,-0.0103233999999999,-0.0013437999999995,0.0026234000000009,-0.0018853999999999,0,sub_6
-0.0050040000000001,-0.0002715999999987,-0.0096797999999998,-0.0011247999999995,0.0028172000000009,-0.0022919999999999,0,sub_6
-0.0047994000000001,-4.019999999875898e-05,-0.0094219999999998,-0.0009085999999995,0.0021594000000009,-0.0029111999999999,0,sub_6
-0.0049742000000001,0.0003016000000012,-0.0093443999999998,-0.0009057999999995,0.0021390000000009,-0.0028917999999999,0,sub_6
-0.0053944000000001,-0.0004125999999987,-0.0092221999999998,-0.0009057999999995,0.0014794000000009,-0.0028717999999999,0,sub_6
-0.0052190000000001,-0.0009607999999987,-0.0099535999999998,-0.0011249999999995,0.0006262000000009,-0.0024449999999999,0,sub_6
-0.0043872000000001,-0.0004625999999987,-0.0108407999999998,-0.0019775999999995,0.0006300000000009,-0.0026645999999999,0,sub_6
-0.0045882000000001,-0.0011537999999987,-0.0113473999999998,-0.0030425999999995,0.0008478000000009,-0.0028859999999999,0,sub_6
-0.0049928000000001,-0.0013489999999987,-0.0113713999999998,-0.0039013999999995,0.0014698000000009,-0.0035045999999999,0,sub_6
-0.0054378000000001,-0.0013625999999987,-0.0112241999999998,-0.0039075999999995,0.0018758000000009,-0.0041169999999999,0,sub_6
-0.0060276000000001,-0.0008297999999987,-0.0100583999999999,-0.0030659999999995,0.0016370000000009,-0.0040815999999999,0,sub_6
-0.0065720000000001,-0.0009799999999987,-0.0099687999999999,-0.0026569999999995,0.0009702000000009,-0.0031941999999999,0,sub_6
-0.0063552000000001,-7.659999999877913e-05,-0.0099525999999999,-0.0024611999999995,0.0009406000000009,-0.0016681999999999,0,sub_6
-0.0063194000000001,3.440000000122087e-05,-0.0103049999999999,-0.0028963999999995,0.0005100000000009,-0.0001751999999999,0,sub_6
-0.0054846000000001,0.0006942000000012,-0.0104515999999999,-0.0033251999999996,0.0009342000000009,0.000676,0,sub_6
-0.0057450000000001,0.0007824000000012,-0.0104239999999998,-0.0041709999999995,0.0020050000000009,2.7800000000078457e-05,0,sub_6
-0.0058912000000001,0.0008488000000012,-0.0097891999999998,-0.0033125999999995,0.0020062000000009,-0.0010343999999999,0,sub_6
-0.0064650000000001,0.0003098000000012,-0.0087529999999998,-0.0013947999999995,0.0015620000000009,-0.0020713999999999,0,sub_6
-0.0058052000000002,-0.0003863999999987,-0.0085283999999998,0.0009448000000004,0.0004754000000009,-0.0026773999999999,0,sub_6
-0.0056542000000002,-0.0009845999999987,-0.0091629999999998,0.0019986000000004,-0.001248599999999,-0.0026505999999999,0,sub_6
-0.0051310000000002,-0.0019381999999987,-0.0095775999999998,0.0019874000000004,-0.002330599999999,-0.0024185999999999,0,sub_6
-0.0053208000000002,-0.0025841999999987,-0.0102577999999998,0.0011274000000004,-0.002556399999999,-0.0024071999999999,0,sub_6
-0.0050546000000001,-0.0027325999999987,-0.0107887999999998,0.0002728000000004,-0.003403199999999,-0.0030529999999999,0,sub_6
-0.0059442000000001,-0.0019917999999987,-0.0110443999999998,-0.0001567999999995,-0.004889799999999,-0.0039085999999999,0,sub_6
-0.0063872000000001,-0.0017427999999987,-0.0104897999999998,-0.0003709999999995,-0.005526399999999,-0.0043365999999999,0,sub_6
-0.0066466000000001,-0.0008453999999987,-0.0106195999999999,-0.0003707999999995,-0.005110999999999,-0.0043265999999999,0,sub_6
-0.0062128000000001,-0.0003547999999987,-0.0105689999999999,-0.0005809999999995,-0.003631399999999,-0.0038921999999999,0,sub_6
-0.0054616000000002,-4.419999999877922e-05,-0.0110755999999999,-0.0005787999999995,-0.002577799999999,-0.0036695999999999,0,sub_6
-0.0043502000000002,4.500000000122078e-05,-0.0110069999999998,-0.0014281999999995,-0.001094999999999,-0.0034533999999999,0,sub_6
-0.0049004000000002,0.0001768000000012,-0.0105377999999998,-0.0018451999999995,0.0008156000000009,-0.0040893999999999,0,sub_6
-0.0049806000000002,-0.0006329999999987,-0.0103697999999998,-0.0007773999999995,0.0008128000000009,-0.0042955999999999,0,sub_6
-0.0051490000000002,-0.0013455999999987,-0.0103201999999998,0.0009220000000004,-0.000685399999999,-0.0040681999999999,0,sub_6
-0.0056970000000002,-0.0021321999999987,-0.0105315999999998,0.0013450000000004,-0.000690199999999,-0.0032105999999999,0,sub_6
-0.0061286000000002,-0.0027647999999987,-0.0100421999999999,0.0013472000000004,0.0001474000000009,-0.0021343999999999,0,sub_6
-0.0057662000000002,-0.0029427999999987,-0.0103185999999999,0.0011284000000004,-8.19999999990749e-05,-0.0004173999999999,0,sub_6
-0.0059342000000002,-0.0021603999999987,-0.0101961999999998,-0.0003667999999995,0.0001208000000009,0.0008628,0,sub_6
-0.0065332000000002,-0.0011921999999987,-0.0100011999999998,-0.0022839999999995,0.0009660000000009,0.001712,0,sub_6
-0.0065770000000001,-0.0002877999999987,-0.0102747999999998,-0.0029229999999995,0.0009562000000009,0.0021438,0,sub_6
-0.0065276000000001,0.0002390000000012,-0.0113435999999998,-0.0029191999999995,0.0013840000000009,0.001716,0,sub_6
-0.0064092000000001,0.0003288000000012,-0.0113035999999998,-0.0022713999999995,0.0026618000000009,0.0012916,0,sub_6
-0.0065382000000001,-0.0001741999999987,-0.0114061999999998,-0.0003443999999995,0.0035098000000009,0.000663,0,sub_6
-0.0061802000000001,-0.0001341999999987,-0.0112389999999998,0.0013786000000004,0.0047770000000009,-0.0001687999999999,0,sub_6
-0.0058844000000002,-0.0007007999999987,-0.0110435999999998,0.0013928000000004,0.0064728000000009,-0.0001583999999999,0,sub_6
-0.0056242000000001,-0.0008685999999987,-0.0107165999999999,0.0001210000000004,0.0071070000000009,5.8000000000098405e-05,0,sub_6
-0.0060208000000001,-0.0007803999999987,-0.0108227999999999,-0.0009393999999995,0.0071022000000009,6.30000000000984e-05,0,sub_6
-0.0065330000000001,-0.0010175999999987,-0.0106209999999999,-0.0030693999999995,0.0068864000000009,0.0004882,0,sub_6
-0.0064712000000001,-0.0019203999999987,-0.0106541999999999,-0.0039285999999995,0.0064600000000009,0.0013374,0,sub_6
-0.0064628000000001,-0.0019429999999987,-0.0100029999999999,-0.0037209999999995,0.0058176000000009,0.0019806,0,sub_6
-0.0068684000000002,-0.0017991999999987,-0.0100047999999999,-0.0030835999999995,0.0060250000000009,0.0028394,0,sub_6
-0.0063660000000002,-0.0015163999999987,-0.0100307999999999,-0.0039271999999995,0.0066560000000009,0.003699,0,sub_6
-0.0061444000000002,-0.0010253999999987,-0.0098977999999999,-0.0039183999999995,0.0068588000000009,0.0043512,0,sub_6
-0.0065214000000002,-0.0004875999999987,-0.0105597999999998,-0.0041257999999995,0.0059986000000009,0.004576,0,sub_6
-0.0068102000000001,-0.0005259999999987,-0.0112971999999998,-0.0039015999999995,0.0055656000000009,0.0041624,0,sub_6
-0.0067092000000001,-0.0008741999999987,-0.0106957999999998,-0.0032459999999995,0.0057722000000009,0.0033236,0,sub_6
-0.0065332000000001,-0.0015407999999987,-0.0106055999999998,-0.0011093999999995,0.0051306000000009,0.0020574,0,sub_6
-0.0055578000000001,-0.0020747999999987,-0.0106501999999998,0.0003900000000004,0.0053426000000009,0.0009994,0,sub_6
-0.0043372000000001,-0.0022967999999987,-0.0098119999999998,0.0006192000000004,0.0057752000000009,-0.0002683999999999,0,sub_6
-0.0038208000000002,-0.0022377999999987,-0.0088585999999998,0.0006284000000003,0.0049294000000009,-0.0013223999999999,0,sub_6
-0.0038046000000002,-0.0017773999999987,-0.0089667999999999,0.0006318000000003,0.0034418000000009,-0.0017345999999999,0,sub_6
-0.0044004000000002,-0.0012915999999987,-0.0090763999999999,-0.0004279999999996,0.0032346000000009,-0.0017285999999999,0,sub_6
-0.0056556000000002,-0.0012921999999987,-0.0097393999999999,-0.0010647999999996,0.0023858000000009,-0.0015051999999999,0,sub_6
-0.0066204000000002,-0.0012735999999987,-0.0107047999999999,-0.0010715999999996,0.0015310000000009,-0.0008631999999999,0,sub_6
-0.0069906000000002,-0.0007421999999987,-0.0111945999999999,-0.0014973999999995,0.0019576000000009,-0.0006529999999999,0,sub_6
-0.0073224000000002,-0.0007819999999987,-0.0113479999999999,-0.0012821999999995,0.0025950000000009,-0.0004387999999999,0,sub_6
-0.0073586000000002,-0.0012349999999987,-0.0120573999999999,-0.0004271999999995,0.0017420000000009,1.0400000000078402e-05,0,sub_6
-0.0063778000000001,-0.0013031999999987,-0.0119517999999999,-0.0002037999999995,0.0021720000000009,-0.0001871999999999,0,sub_6
-0.0060928000000001,-0.0018189999999987,-0.0105975999999999,-0.0004031999999995,0.0034558000000009,-0.0003887999999999,0,sub_6
-0.0062190000000001,-0.0028685999999987,-0.0105765999999998,-0.0001827999999995,0.0036712000000009,-0.0001589999999999,0,sub_6
-0.0059306000000001,-0.0032873999999987,-0.0104549999999998,-0.0001785999999995,0.0030360000000009,-0.0001431999999999,0,sub_6
-0.0054846000000001,-0.0031625999999987,-0.0097005999999998,-0.0006035999999995,0.0034636000000009,-0.0001465999999999,0,sub_6
-0.0052780000000002,-0.0026307999999987,-0.0094941999999998,-0.0008197999999995,0.0032496000000009,0.0002794,0,sub_6
-0.0053090000000002,-0.0021013999999987,-0.0098165999999998,-0.0008265999999995,0.0021826000000009,0.000708,0,sub_6
-0.0053752000000002,-0.0014595999999987,-0.0101107999999998,-0.0016751999999995,0.0021816000000009,0.0009234,0,sub_6
-0.0055420000000002,-0.0009951999999987,-0.0103175999999998,-0.0027351999999995,0.0023952000000009,0.0009236,0,sub_6
-0.0059048000000002,-0.0009437999999987,-0.0105655999999998,-0.0031539999999995,0.0023952000000009,0.000501,0,sub_6
-0.0062758000000001,-0.0009655999999987,-0.0106965999999999,-0.0027147999999995,0.0026088000000009,-0.0007703999999999,0,sub_6
-0.0060324000000001,-0.0012963999999987,-0.0112855999999999,-0.0027031999999995,0.0030352000000009,-0.0016177999999999,0,sub_6
-0.0058892000000001,-0.0016359999999987,-0.0111387999999999,-0.0020581999999995,0.0034618000000009,-0.0022545999999999,0,sub_6
-0.0054064000000001,-0.0019957999999987,-0.0113875999999998,-0.0014131999999995,0.0041006000000009,-0.0026781999999999,0,sub_6
-0.0056288000000001,-0.0015695999999987,-0.0110415999999998,-0.0011949999999995,0.0047408000000009,-0.0031047999999999,0,sub_6
-0.0058386000000001,-0.0015991999999987,-0.0104881999999998,-0.0016263999999995,0.0041016000000009,-0.0026795999999999,0,sub_6
-0.0057738000000001,-0.0009119999999987,-0.0108919999999998,-0.0016191999999995,0.0034484000000009,-0.0028911999999999,0,sub_6
-0.0052656000000001,-0.0003725999999987,-0.0112749999999998,-0.0018245999999995,0.0027968000000009,-0.0033179999999999,0,sub_6
