userAcceleration.x,userAcceleration.y,userAcceleration.z,rotationRate.x,rotationRate.y,rotationRate.z,label,subject
-0.0066036000000002,0.0083382000000012,-0.0106385999999998,-0.0003361999999995,-0.013825399999999,0.0040836,0,sub_14
-0.0033756000000002,0.0086644000000012,-0.0076941999999998,0.0067918000000004,-0.008937999999999,-0.0009959999999999,0,sub_14
-0.0007722000000002,0.0097758000000012,-0.0060541999999998,0.0120012000000004,-0.003829999999999,-0.0063029999999999,0,sub_14
0.0030851999999997,0.0102552000000012,-0.0050927999999998,0.0137824000000004,-0.001057199999999,-0.0107761999999999,0,sub_14
0.0055237999999997,0.0106158000000012,-0.0050773999999998,0.0129898000000004,-0.000197199999999,-0.0141967999999999,0,sub_14
0.0078435999999997,0.0094976000000011,-0.0047117999999998,0.0110820000000004,-0.000179399999999,-0.0169873999999999,0,sub_14
0.0093021999999997,0.0079628000000012,-0.0040403999999998,0.0089520000000004,-0.000805199999999,-0.0184969999999999,0,sub_14
0.0100651999999997,0.0054246000000012,-0.0036465999999998,0.0074612000000004,0.0009002000000009,-0.0174413999999999,0,sub_14
0.0083439999999997,0.0040980000000012,-0.0030909999999998,0.0060100000000004,0.0038586000000009,-0.0142341999999999,0,sub_14
0.0056103999999997,0.0044038000000012,-0.0040785999999998,0.0039108000000004,0.0070246000000009,-0.0091087999999999,0,sub_14
0.0016305999999998,0.0059836000000012,-0.0065623999999998,0.0003036000000004,0.0084854000000009,-0.0024963999999999,0,sub_14
-0.0015412000000001,0.0085106000000011,-0.0100345999999998,-0.0050169999999995,0.0071876000000009,0.0028258,0,sub_14
-0.0034898000000001,0.0096864000000011,-0.0131923999999998,-0.0114139999999995,0.0014286000000009,0.0057962,0,sub_14
-0.0025210000000002,0.0089128000000011,-0.0143785999999998,-0.0165627999999995,-0.004731999999999,0.0057682,0,sub_14
-0.0002310000000002,0.0063262000000012,-0.0131349999999998,-0.0176371999999995,-0.008979199999999,0.0032024,0,sub_14
0.0019213999999997,0.0039594000000012,-0.0108595999999998,-0.0142039999999995,-0.008761999999999,-0.0008329999999999,0,sub_14
0.0030491999999997,0.0017894000000012,-0.0082827999999998,-0.0077215999999995,-0.004938399999999,-0.0044553999999999,0,sub_14
0.0035981999999997,0.0013994000000012,-0.0060335999999998,0.0011204000000004,0.0022834000000009,-0.0074249999999999,0,sub_14
0.0030961999999997,0.0026942000000012,-0.0058061999999998,0.0090984000000004,0.0090744000000009,-0.0084771999999999,0,sub_14
0.0023403999999997,0.0045546000000011,-0.0064625999999998,0.0140710000000004,0.0137376000000009,-0.0076247999999999,0,sub_14
0.0016585999999997,0.0065136000000011,-0.0073971999999998,0.0141160000000004,0.0152170000000009,-0.0055209999999999,0,sub_14
0.0011337999999997,0.0079504000000011,-0.0078755999999999,0.0113230000000004,0.0145732000000009,-0.0019077999999999,0,sub_14
0.0008597999999997,0.0090888000000011,-0.0081173999999999,0.0059600000000004,0.0113834000000009,0.0012636,0,sub_14
8.799999999979148e-05,0.0097220000000012,-0.0080665999999999,0.0003864000000004,0.0079844000000009,0.0035792,0,sub_14
-0.0005476000000002,0.0100580000000012,-0.0082741999999999,-0.0047097999999995,0.0054160000000009,0.0043566,0,sub_14
-0.0016888000000001,0.0094608000000012,-0.0077671999999999,-0.0076645999999995,0.0032714000000009,0.0038668,0,sub_14
-0.0005518000000001,0.0087286000000012,-0.0071557999999999,-0.0091075999999995,0.0030474000000009,0.0012486,0,sub_14
-0.0001518000000001,0.0082168000000012,-0.0073385999999999,-0.0090513999999995,0.0045210000000009,-0.0009339999999999,0,sub_14
-0.0009486000000001,0.0074356000000011,-0.0079615999999999,-0.0079289999999995,0.0057780000000009,-0.0031089999999999,0,sub_14
-0.0022878000000001,0.0076510000000012,-0.0088467999999999,-0.0066373999999995,0.0066326000000009,-0.0048101999999999,0,sub_14
-0.0028566000000002,0.0076148000000012,-0.0100013999999999,-0.0047133999999995,0.0062050000000009,-0.0060781999999999,0,sub_14
-0.0051938000000002,0.0073528000000011,-0.0110627999999999,-0.0023719999999995,0.0044942000000009,-0.0064869999999999,0,sub_14
-0.0067432000000002,0.0071112000000011,-0.0111351999999999,8.800000000444042e-06,0.0027844000000009,-0.0069453999999999,0,sub_14
-0.0066910000000002,0.0078444000000011,-0.0105885999999999,0.0013216000000004,0.0012896000000009,-0.0069841999999999,0,sub_14
-0.0057302000000002,0.0077526000000011,-0.0096329999999999,0.0024212000000004,-0.000204399999999,-0.0070243999999999,0,sub_14
-0.0046544000000002,0.0080878000000011,-0.0088289999999999,0.0026694000000004,-0.001057199999999,-0.0068575999999999,0,sub_14
-0.0027780000000002,0.0083714000000012,-0.0090987999999999,0.0018516000000004,-0.0021175999999989,-0.0071253999999999,0,sub_14
-0.0010856000000002,0.0082894000000012,-0.0091349999999999,0.0003494000000004,-0.0040299999999989,-0.0071333999999999,0,sub_14
0.0002121999999997,0.0065194000000011,-0.0090013999999999,-8.599999999953599e-05,-0.0055215999999989,-0.0067071999999999,0,sub_14
0.0010167999999997,0.0046302000000011,-0.0086009999999999,0.0001160000000004,-0.006381399999999,-0.0049955999999999,0,sub_14
0.0018501999999997,0.0029394000000011,-0.0080699999999999,0.0013884000000004,-0.005755999999999,-0.0026375999999999,0,sub_14
0.0023911999999997,0.0022114000000011,-0.0073155999999998,0.0028872000000004,-0.004493599999999,-7.59999999999832e-05,0,sub_14
0.0024041999999997,0.0024600000000011,-0.0069407999999998,0.0043870000000004,-0.002805999999999,0.0026985999999999,0,sub_14
0.0025075999999997,0.0042008000000011,-0.0068467999999998,0.0052488000000004,-0.001326599999999,0.0048281999999999,0,sub_14
0.0025047999999997,0.0055842000000011,-0.0068999999999998,0.0048320000000004,-0.000477599999999,0.0058814,0,sub_14
0.0022415999999997,0.0074306000000011,-0.0073145999999998,0.0037792000000004,-0.000259599999999,0.0054356,0,sub_14
0.0016543999999997,0.0081612000000011,-0.0076227999999999,0.0024970000000004,-0.000893399999999,0.0052138,0,sub_14
0.0005583999999997,0.0079378000000011,-0.0078127999999999,0.0007910000000004,-0.001310799999999,0.0045616,0,sub_14
-0.0011812000000002,0.0071326000000011,-0.0084097999999999,-0.0004695999999995,-0.001732799999999,0.0041218,0,sub_14
-0.0032896000000002,0.0068878000000011,-0.0093979999999998,-0.0010889999999995,-0.001519599999999,0.004113,0,sub_14
-0.0050522000000002,0.0062848000000011,-0.0101511999999998,-0.0010731999999995,-0.001737199999999,0.00475,0,sub_14
-0.0064980000000002,0.0058804000000011,-0.0107197999999998,-0.0008429999999995,-0.001954799999999,0.0051748,0,sub_14
-0.0071628000000002,0.0059178000000011,-0.0113095999999998,-0.0001879999999995,-0.002599999999999,0.005603,0,sub_14
-0.0073044000000001,0.0061606000000011,-0.0115645999999998,0.0010912000000004,-0.003029599999999,0.0053988,0,sub_14
-0.0056824000000001,0.0060226000000011,-0.0109003999999998,0.0030066000000004,-0.004525999999999,0.0049868,0,sub_14
-0.0035928000000001,0.0059626000000011,-0.0108907999999998,0.0042868000000004,-0.005591599999999,0.0039288,0,sub_14
-0.0012906000000001,0.0057046000000011,-0.0100019999999998,0.0059956000000004,-0.006232399999999,0.0028734,0,sub_14
0.0005477999999998,0.0048582000000012,-0.0087503999999998,0.0077160000000004,-0.006040999999999,0.0018178,0,sub_14
0.0016537999999997,0.0053028000000011,-0.0075313999999998,0.0085792000000004,-0.005213399999999,0.0022508,0,sub_14
0.0013025999999997,0.0062424000000012,-0.0068663999999998,0.0085928000000004,-0.003106199999999,0.0031036,0,sub_14
0.0011651999999997,0.0060422000000012,-0.0066103999999998,0.0075326000000004,-0.001849999999999,0.004591,0,sub_14
0.0010583999999997,0.0063710000000012,-0.0072865999999998,0.0058316000000004,-0.001016799999999,0.0058605999999999,0,sub_14
0.0022507999999997,0.0067304000000012,-0.0073661999999999,0.0039114000000004,-0.000373399999999,0.0064873999999999,0,sub_14
0.0033501999999997,0.0058914000000012,-0.0066539999999999,0.0022102000000004,0.0002742000000009,0.0058337999999999,0,sub_14
0.0045001999999997,0.0046898000000011,-0.0062097999999999,0.0013644000000004,0.0007084000000009,0.0045453999999999,0,sub_14
0.0036511999999997,0.0052192000000011,-0.0062063999999999,0.0024580000000004,0.0026044000000009,0.0034925999999999,0,sub_14
0.0019037999999997,0.0059782000000011,-0.0059731999999999,0.0031238000000004,0.0045010000000009,0.0026506,0,sub_14
-0.0008314000000002,0.0070688000000011,-0.0068773999999998,0.0031428000000004,0.0053328000000009,0.0022326,0,sub_14
-0.0027602000000002,0.0074848000000011,-0.0088883999999998,0.0029416000000004,0.0048862000000009,0.0020284,0,sub_14
-0.0045248000000002,0.0078726000000011,-0.0101935999999998,0.0025224000000004,0.0035874000000009,0.0020376,0,sub_14
-0.0048794000000002,0.0069222000000012,-0.0103995999999998,0.0016584000000004,0.0014590000000009,0.002248,0,sub_14
-0.0043874000000002,0.0062810000000011,-0.0104429999999998,0.0014344000000004,-0.000671799999999,0.002463,0,sub_14
-0.0038540000000002,0.0056936000000011,-0.0105797999999999,0.0022872000000004,-0.0017477999999989,0.0026994,0,sub_14
-0.0038384000000002,0.0054684000000011,-0.0100777999999999,0.0031450000000004,-0.0021829999999989,0.0025078,0,sub_14
-0.0030420000000001,0.0056906000000011,-0.0100533999999998,0.0040026000000004,-0.0028303999999989,0.0021026,0,sub_14
-0.0019152000000001,0.0061454000000011,-0.0090465999999998,0.0048660000000004,-0.0026239999999989,0.0012692,0,sub_14
-0.0007722000000002,0.0058002000000012,-0.0084313999999998,0.0059456000000004,-0.0017789999999989,0.0004364,0,sub_14
0.0004083999999997,0.0051872000000012,-0.0079223999999998,0.0065886000000004,-0.001354399999999,0.0002268,0,sub_14
0.0018061999999997,0.0052226000000012,-0.0067327999999998,0.0065894000000004,-0.000929199999999,0.0004398,0,sub_14
0.0022397999999997,0.0055058000000012,-0.0058685999999998,0.0063788000000004,0.0003472000000009,0.0010776,0,sub_14
0.0025695999999997,0.0058946000000012,-0.0060613999999998,0.0050976000000004,0.0005630000000009,0.0014956,0,sub_14
0.0028875999999997,0.0061006000000012,-0.0056241999999998,0.0033880000000004,0.0003538000000009,0.001698,0,sub_14
0.0028461999999997,0.0064128000000012,-0.0053733999999999,0.0016794000000004,0.0001454000000009,0.0016868,0,sub_14
0.0023731999999997,0.0066166000000012,-0.0062385999999999,0.0006138000000004,0.0001496000000009,0.0012526,0,sub_14
0.0015609999999997,0.0063556000000012,-0.0068277999999999,-0.0002373999999995,0.0003660000000009,0.0008196,0,sub_14
3.639999999979198e-05,0.0062242000000011,-0.0074311999999999,-0.0002333999999995,0.0012178000000009,0.0006054,0,sub_14
-0.0017864000000002,0.0064496000000011,-0.0090977999999998,-0.0002313999999995,0.0016438000000009,0.0006048,0,sub_14
-0.0028042000000001,0.0067692000000011,-0.0098283999999998,-1.419999999955593e-05,0.0014342000000009,-0.0004617999999999,0,sub_14
-0.0030452000000001,0.0070428000000011,-0.0100123999999998,-1.2199999999555926e-05,0.0005870000000009,-0.0017425999999999,0,sub_14
-0.0024186000000002,0.0065002000000011,-0.0096979999999998,0.0004092000000004,-0.000465999999999,-0.0032433999999999,0,sub_14
-0.0018258000000002,0.0065484000000011,-0.0094269999999998,0.0012584000000004,-0.001307599999999,-0.0047415999999999,0,sub_14
-0.0010304000000002,0.0061838000000011,-0.0082097999999999,0.0021094000000004,-0.001722999999999,-0.0062401999999999,0,sub_14
-0.0007840000000002,0.0058448000000011,-0.0075727999999999,0.0027432000000004,-0.001928799999999,-0.0066723999999999,0,sub_14
-0.0003816000000002,0.0056100000000011,-0.0075983999999999,0.0031598000000004,-0.002349599999999,-0.0064649999999999,0,sub_14
-0.0003602000000002,0.0059850000000011,-0.0074343999999999,0.0025176000000004,-0.002985799999999,-0.0066823999999999,0,sub_14
9.7999999999792e-05,0.0056300000000012,-0.0072991999999999,0.0008076000000004,-0.003831199999999,-0.0069067999999999,0,sub_14
0.0002135999999997,0.0061070000000012,-0.0074935999999999,-0.0007011999999995,-0.004032799999999,-0.0071473999999999,0,sub_14
-0.0002336000000002,0.0065934000000012,-0.0071937999999999,-0.0015697999999995,-0.004024399999999,-0.0071699999999999,0,sub_14
-0.0012548000000002,0.0056348000000012,-0.0064019999999999,-0.0011495999999995,-0.002527399999999,-0.0076127999999999,0,sub_14
-0.0010188000000002,0.0051318000000012,-0.0066793999999999,-9.4799999999556e-05,-0.001674399999999,-0.0074093999999999,0,sub_14
-0.0007066000000002,0.0050442000000011,-0.0069533999999999,0.0016086000000004,0.0006694000000009,-0.0076307999999999,0,sub_14
0.0001483999999997,0.0043628000000011,-0.0069033999999999,0.0028946000000004,0.0019432000000009,-0.0076233999999999,0,sub_14
0.0004443999999997,0.0040252000000011,-0.0076929999999999,0.0031128000000004,0.0030076000000009,-0.0076231999999999,0,sub_14
0.0009329999999997,0.0048042000000011,-0.0084991999999999,0.0018326000000004,0.0034366000000009,-0.0072053999999999,0,sub_14
-0.0003562000000002,0.0050712000000011,-0.0083933999999999,-0.0003039999999995,0.0034416000000009,-0.0065793999999999,0,sub_14
-0.0012842000000002,0.0053502000000012,-0.0087495999999999,-0.0028943999999995,0.0015280000000009,-0.0053293999999999,0,sub_14
-0.0030024000000002,0.0050520000000012,-0.0095735999999999,-0.0050551999999995,-0.000172399999999,-0.0045039999999999,0,sub_14
-0.0030958000000002,0.0046908000000012,-0.0098815999999999,-0.0052843999999995,-0.000808399999999,-0.0051619999999999,0,sub_14
-0.0035012000000002,0.0039940000000012,-0.0100833999999999,-0.0059537999999995,-0.002515799999999,-0.0038987999999999,0,sub_14
-0.0028050000000002,0.0034720000000012,-0.0107719999999999,-0.0055495999999995,-0.003372199999999,-0.0032701999999999,0,sub_14
-0.0031560000000002,0.0026370000000012,-0.0104901999999999,-0.0046999999999995,-0.004015199999999,-0.0030497999999999,0,sub_14
-0.0023960000000002,0.0028676000000011,-0.0096709999999999,-0.0032083999999995,-0.004022199999999,-0.0026119999999999,0,sub_14
-0.0028674000000002,0.0025808000000011,-0.0091699999999999,-0.0021463999999995,-0.004242199999999,-0.0017497999999999,0,sub_14
-0.0018242000000002,0.0027148000000011,-0.0082581999999999,0.0001880000000004,-0.003392599999999,-0.0026025999999999,0,sub_14
-0.0013838000000002,0.0031424000000011,-0.0074273999999999,0.0023098000000004,-0.002328999999999,-0.0034571999999999,0,sub_14
-0.0002752000000002,0.0031152000000011,-0.0072043999999999,0.0042154000000004,-0.001267399999999,-0.0036721999999999,0,sub_14
0.0001511999999997,0.0030442000000012,-0.0073495999999999,0.0048378000000004,-0.000628199999999,-0.0036819999999999,0,sub_14
0.0011253999999997,0.0033252000000012,-0.0068643999999999,0.0041754000000004,-0.000201199999999,-0.0028459999999999,0,sub_14
0.0011679999999997,0.0034122000000012,-0.0066547999999999,0.0033180000000004,-0.000201599999999,-0.0019973999999999,0,sub_14
0.0005685999999997,0.0033626000000012,-0.0068007999999999,0.0020350000000004,0.0002246000000009,-0.0009385999999999,0,sub_14
7.239999999977195e-05,0.0037524000000012,-0.0065505999999999,0.0007548000000004,0.0008656000000009,-0.0003073999999999,0,sub_14
-0.0004334000000002,0.0039658000000012,-0.0066613999999998,0.0003120000000004,0.0010796000000009,-0.0001029999999999,0,sub_14
-0.0008684000000002,0.0040132000000012,-0.0072911999999998,-0.0001319999999995,0.0006562000000009,-0.0003249999999999,0,sub_14
-0.0013700000000002,0.0042298000000012,-0.0080235999999998,-0.0003605999999995,0.0004460000000009,-0.0007593999999999,0,sub_14
-0.0019636000000002,0.0042054000000012,-0.0089829999999998,-0.0001643999999995,-0.000191799999999,-0.0011903999999999,0,sub_14
-0.0026448000000001,0.0047500000000012,-0.0095485999999998,3.18000000004441e-05,-0.000617399999999,-0.0014079999999999,0,sub_14
-0.0032324000000001,0.0045210000000012,-0.0097739999999999,0.0006738000000004,-0.000405799999999,-0.0016173999999999,0,sub_14
-0.0035752000000001,0.0044622000000012,-0.0103923999999999,0.0019590000000004,0.0004428000000009,-0.0018229999999999,0,sub_14
-0.0035464000000001,0.0041050000000012,-0.0105259999999999,0.0032480000000004,0.0017192000000009,-0.0024565999999999,0,sub_14
-0.0015644000000001,0.0045346000000012,-0.0095793999999999,0.0040966000000004,0.0025772000000009,-0.0032951999999999,0,sub_14
0.0003597999999998,0.0044202000000012,-0.0091405999999999,0.0043032000000003,0.0023748000000009,-0.0047779999999999,0,sub_14
0.0030647999999997,0.0048704000000011,-0.0084751999999998,0.0045174000000003,0.0034526000000009,-0.0066895999999999,0,sub_14
0.0055643999999997,0.0037896000000011,-0.0059817999999998,0.0049440000000004,0.0051652000000009,-0.0077459999999999,0,sub_14
0.0066669999999997,0.0029096000000011,-0.0045787999999998,0.0057944000000004,0.0072982000000009,-0.0077315999999999,0,sub_14
0.0054797999999998,0.0023334000000011,-0.0041155999999998,0.0066528000000004,0.0098460000000009,-0.0062333999999999,0,sub_14
0.0047353999999998,0.0022736000000011,-0.0038123999999998,0.0085770000000004,0.0121770000000009,-0.0047273999999999,0,sub_14
0.0025337999999998,0.0015264000000011,-0.0048977999999999,0.0087818000000004,0.0125930000000009,-0.0023763999999999,0,sub_14
6.079999999981187e-05,0.0029654000000011,-0.0071603999999999,0.0074742000000004,0.0100348000000009,-0.0004367999999999,0,sub_14
-0.0016338000000001,0.0043462000000011,-0.0083229999999999,0.0053066000000004,0.0055636000000009,0.0010718,0,sub_14
-0.0028734000000001,0.0046286000000011,-0.0090381999999999,0.0035664000000004,0.0004552000000009,0.0017298,0,sub_14
-0.0047130000000001,0.0047062000000011,-0.0103381999999999,0.0014014000000004,-0.003801199999999,0.002811,0,sub_14
-0.0063310000000001,0.0055010000000012,-0.0101199999999999,0.0011568000000004,-0.007851999999999,0.0041188,0,sub_14
-0.0078750000000001,0.0058210000000012,-0.0103997999999999,0.0020008000000004,-0.009560999999999,0.0045542,0,sub_14
-0.0088566000000002,0.0062632000000012,-0.0117395999999999,0.0030608000000004,-0.011480399999999,0.0041368,0,sub_14
-0.0087370000000002,0.0065770000000012,-0.0134257999999999,0.0022010000000004,-0.015085399999999,0.0024498,0,sub_14
-0.0078568000000002,0.0057424000000012,-0.0136151999999999,0.0004808000000004,-0.020178799999999,0.0007586,0,sub_14
-0.0064564000000002,0.0047820000000012,-0.0132885999999998,-0.0018803999999995,-0.025695399999999,-0.0011499999999999,0,sub_14
-0.0041446000000002,0.0030032000000012,-0.0120457999999998,-0.0029585999999995,-0.030152999999999,-0.0026239999999999,0,sub_14
-0.0018178000000002,0.0018760000000012,-0.0094033999999998,-0.0025333999999995,-0.032060799999999,-0.0036633999999999,0,sub_14
0.0016359999999997,0.0010668000000012,-0.0067353999999998,0.0011102000000004,-0.029512599999999,-0.0047093999999999,0,sub_14
0.0049079999999997,0.0013068000000012,-0.0038481999999998,0.0062668000000004,-0.023345199999999,-0.0063903999999999,0,sub_14
0.0078165999999997,0.0016492000000012,-0.0021537999999998,0.0112194000000003,-0.015046399999999,-0.0080755999999999,0,sub_14
0.0097195999999997,0.0027984000000012,-0.0014011999999998,0.0142464000000003,-0.006949999999999,-0.0095407999999999,0,sub_14
0.0104889999999997,0.0038258000000012,-0.0024915999999998,0.0149224000000004,0.0009390000000009,-0.0103811999999999,0,sub_14
0.0092411999999997,0.0045526000000012,-0.0032393999999999,0.0132330000000004,0.0064856000000009,-0.0095259999999999,0,sub_14
0.0072377999999997,0.0050940000000012,-0.0055429999999999,0.0091802000000004,0.0092674000000009,-0.0078291999999999,0,sub_14
0.0048855999999997,0.0058652000000012,-0.0070301999999999,0.0040502000000004,0.0097092000000009,-0.0061369999999999,0,sub_14
0.0031265999999997,0.0062694000000012,-0.0085095999999999,-0.0015099999999995,0.0088686000000009,-0.0042517999999999,0,sub_14
0.0011729999999997,0.0054432000000012,-0.0091533999999999,-0.0060041999999995,0.0071746000000009,-0.0029991999999999,0,sub_14
-0.0002906000000001,0.0041382000000012,-0.0096439999999999,-0.0087875999999995,0.0052660000000009,-0.0028025999999999,0,sub_14
-0.0018460000000001,0.0028252000000012,-0.0096943999999999,-0.0087931999999995,0.0039876000000009,-0.0028009999999999,0,sub_14
-0.0032612000000001,0.0017082000000011,-0.0099497999999999,-0.0068761999999995,0.0041948000000009,-0.0029835999999999,0,sub_14
-0.0041554000000001,0.0007236000000011,-0.0104105999999999,-0.0028225999999995,0.0043970000000009,-0.0037923999999999,0,sub_14
-0.0042338000000001,0.0004716000000011,-0.0105323999999999,0.0010118000000003,0.0037460000000009,-0.0041741999999999,0,sub_14
-0.0048714000000002,0.0012980000000011,-0.0107083999999999,0.0033526000000003,0.0031002000000009,-0.0045663999999999,0,sub_14
-0.0049840000000002,0.0021856000000011,-0.0108791999999999,0.0046226000000003,0.0020304000000009,-0.0045381999999999,0,sub_14
-0.0040548000000002,0.0028804000000012,-0.0105433999999999,0.0048272000000004,0.0001120000000009,-0.0045343999999999,0,sub_14
-0.0036674000000002,0.0035688000000012,-0.0096891999999998,0.0037498000000004,-0.001591199999999,-0.0038987999999999,0,sub_14
-0.0028648000000002,0.0043788000000011,-0.0088409999999998,0.0024450000000004,-0.002670599999999,-0.0032437999999999,0,sub_14
-0.0016018000000002,0.0049710000000011,-0.0081911999999998,0.0017834000000004,-0.003112999999999,-0.0025853999999999,0,sub_14
-0.0002316000000002,0.0046756000000011,-0.0075213999999998,0.0009102000000004,-0.003340799999999,-0.0021423999999999,0,sub_14
0.0005835999999997,0.0047222000000011,-0.0066607999999998,-0.0001781999999995,-0.003781799999999,-0.0014867999999999,0,sub_14
0.0007499999999997,0.0044410000000011,-0.0061431999999998,-0.0008361999999995,-0.003159799999999,-0.0006157999999999,0,sub_14
0.0007295999999997,0.0042532000000012,-0.0056917999999998,-0.0010465999999995,-0.002519799999999,-0.0006181999999999,0,sub_14
0.0010959999999997,0.0033712000000012,-0.0056439999999998,-0.0010447999999995,-0.002305999999999,-0.0008319999999999,0,sub_14
0.0011143999999997,0.0038392000000012,-0.0058341999999998,-0.0003979999999995,-0.001453599999999,-0.0014693999999999,0,sub_14
0.0010891999999997,0.0031826000000012,-0.0061357999999998,0.0002508000000004,-0.000174799999999,-0.0021073999999999,0,sub_14
0.0010833999999997,0.0028656000000012,-0.0063091999999998,0.0004530000000004,0.0002634000000009,-0.0027377999999999,0,sub_14
0.0007463999999998,0.0024228000000011,-0.0064803999999999,0.0002264000000004,0.0007014000000009,-0.0029435999999999,0,sub_14
-0.0004024000000001,0.0031802000000011,-0.0062725999999999,-0.0004297999999995,0.0009262000000009,-0.0027249999999999,0,sub_14
-0.0012938000000001,0.0028786000000011,-0.0061267999999999,-0.0013011999999995,0.0009380000000009,-0.0022939999999999,0,sub_14
-0.0022934000000001,0.0033496000000011,-0.0073551999999999,-0.0011087999999995,0.0005190000000009,-0.0016413999999999,0,sub_14
-0.0029780000000001,0.0034442000000011,-0.0080617999999999,-0.0006859999999995,-0.000334599999999,-0.0016373999999999,0,sub_14
-0.0030530000000001,0.0032098000000012,-0.0086277999999999,0.0001606000000004,-0.0014045999999989,-0.0012029999999999,0,sub_14
-0.0023498000000001,0.0025600000000012,-0.0091671999999999,0.0010094000000004,-0.0020483999999989,-0.0007689999999999,0,sub_14
-0.0022016000000001,0.0026824000000011,-0.0092477999999999,0.0014064000000004,-0.0028607999999989,-0.0003191999999999,0,sub_14
-0.0014864000000002,0.0028766000000011,-0.0082493999999999,0.0015930000000004,-0.0034577999999989,-0.0002981999999999,0,sub_14
-0.0006892000000002,0.0029808000000011,-0.0077267999999999,0.0013548000000004,-0.003627199999999,-0.0002807999999999,0,sub_14
-8.800000000020818e-05,0.0029354000000011,-0.0074671999999999,0.0009042000000003,-0.003370399999999,-5.179999999996251e-05,0,sub_14
0.0003543999999997,0.0026786000000011,-0.0073959999999998,0.0006668000000003,-0.003114399999999,0.0001786,0,sub_14
0.0010969999999997,0.0022580000000012,-0.0070963999999998,0.0006650000000004,-0.002691799999999,0.0010326,0,sub_14
0.0011591999999997,0.0014042000000011,-0.0069563999999998,0.0004506000000004,-0.001843199999999,0.0020982,0,sub_14
0.0008663999999997,0.0016268000000011,-0.0069123999999998,0.0006470000000004,-0.000979599999999,0.0034038,0,sub_14
0.0004393999999997,0.0022552000000011,-0.0070237999999998,0.0008464000000004,-0.000113399999999,0.0040686,0,sub_14
0.0002391999999997,0.0028620000000011,-0.0068941999999999,0.0010458000000004,0.0007528000000009,0.0047334,0,sub_14
-6.300000000020815e-05,0.0034718000000011,-0.0069433999999998,0.0012470000000003,0.0011964000000009,0.0045442,0,sub_14
-3.5600000000228134e-05,0.0041244000000012,-0.0077063999999998,0.0012358000000003,0.0012172000000009,0.003713,0,sub_14
-0.0002596000000002,0.0039374000000012,-0.0080575999999998,0.0012358000000003,0.0007928000000009,0.0032864,0,sub_14
-0.0007318000000002,0.0038274000000012,-0.0079749999999998,0.0012376000000004,0.0007944000000009,0.002859,0,sub_14
-0.0016820000000002,0.0038646000000012,-0.0078047999999998,0.0012376000000004,0.0010066000000009,0.0030724,0,sub_14
