userAcceleration.x,userAcceleration.y,userAcceleration.z,rotationRate.x,rotationRate.y,rotationRate.z,label,subject
-0.0082528000000002,0.0345014000000011,0.0092916,0.0033622000000004,-0.040287799999999,0.0101542000000001,0,sub_7
-0.0098886000000002,0.0311686000000011,0.0097728,0.0286896000000004,-0.023054599999999,-0.0057143999999999,0,sub_7
-0.0104538000000002,0.0286614000000011,0.0087138,0.0447950000000004,-0.008589799999999,-0.0139525999999999,0,sub_7
-0.0105570000000002,0.0258814000000011,0.0086082,0.0493496000000004,0.0077996000000009,-0.0139417999999998,0,sub_7
-0.0108730000000002,0.0250284000000012,0.0076194,0.0474694000000004,0.0163302000000009,-0.0143931999999998,0,sub_7
-0.0095080000000002,0.0253172000000012,0.0075564,0.0391594000000004,0.0161574000000009,-0.0172283999999998,0,sub_7
-0.0073928000000002,0.0273698000000012,0.0086166,0.0280584000000004,0.0134324000000009,-0.0187979999999998,0,sub_7
-0.0054498000000002,0.0304196000000012,0.0100976,0.0169516000000004,0.0109146000000009,-0.0188723999999998,0,sub_7
-0.0021850000000002,0.0342444000000012,0.0118178,0.0039034000000004,0.003292000000001,-0.0193809999999999,0,sub_7
0.0010457999999997,0.0372678000000012,0.0139552,-0.0095763999999995,-0.0060311999999989,-0.0205313999999999,0,sub_7
0.0042625999999997,0.0398480000000012,0.0153926,-0.0185831999999995,-0.0162255999999989,-0.0207947999999999,0,sub_7
0.0070467999999997,0.0431688000000012,0.0161404,-0.0237501999999995,-0.0245243999999989,-0.0188973999999999,0,sub_7
0.0090449999999997,0.0448004000000012,0.0161898,-0.0257311999999995,-0.031590399999999,-0.0142299999999999,0,sub_7
0.0094245999999997,0.0445272000000012,0.016259,-0.0236523999999995,-0.035906799999999,-0.0080423999999999,0,sub_7
0.0093315999999997,0.0424468000000012,0.0155928,-0.0179403999999995,-0.037471999999999,-0.0003373999999999,0,sub_7
0.0077209999999997,0.0403034000000012,0.014215,-0.0117891999999995,-0.035632599999999,0.0080072,0,sub_7
0.0050293999999997,0.0362226000000012,0.0125312,-0.0064799999999995,-0.032931199999999,0.0146356,0,sub_7
0.0018097999999998,0.0330506000000012,0.0104578,-0.0037079999999995,-0.029335199999999,0.0187094,0,sub_7
-0.0009064000000001,0.0309822000000011,0.0083988,-0.0047671999999995,-0.0259295999999989,0.0204068,0,sub_7
-0.0039558000000001,0.0317534000000011,0.006777,-0.0086011999999995,-0.024000399999999,0.0208048,0,sub_7
-0.0068914000000001,0.0321454000000011,0.0057072,-0.0137077999999995,-0.021211199999999,0.0203382,0,sub_7
-0.0087668000000001,0.0331224000000011,0.0059776,-0.0173045999999995,-0.016502799999999,0.0181706,0,sub_7
-0.0088212000000002,0.0325176000000011,0.0070938,-0.0168337999999995,-0.010947799999999,0.013894,0,sub_7
-0.0100428000000002,0.0305966000000012,0.0092688,-0.0086403999999995,-0.002624399999999,0.0032584,0,sub_7
-0.0123912000000002,0.0265794000000012,0.0094958,-0.0031871999999995,0.0080726000000009,-0.0125267999999999,0,sub_7
-0.0105032000000002,0.0273910000000011,0.004644,0.0016364000000004,0.0192058000000009,-0.0302397999999999,0,sub_7
-0.0084892000000002,0.0303446000000011,-0.0020517999999999,0.0111448000000004,0.0307384000000009,-0.0453567999999999,0,sub_7
-0.0029128000000002,0.0355928000000011,-0.0118433999999999,0.0158764000000004,0.0398798000000009,-0.0444809999999998,0,sub_7
-0.0083228000000002,0.0378130000000011,-0.0142047999999999,0.0057698000000004,0.0746244000000009,-0.0398959999999999,0,sub_7
-0.0097388000000002,0.0408644000000011,-0.0157951999999999,-0.0084993999999995,0.0986768000000009,-0.0218667999999999,0,sub_7
-0.0091680000000002,0.0415448000000011,-0.0082335999999999,-0.0181461999999995,0.1107656000000009,0.0002692,0,sub_7
-0.0140608000000002,0.0482898000000011,0.0078762,-0.0215583999999995,0.1237234000000009,0.0128338,0,sub_7
-0.0284854000000002,0.0466860000000012,0.0322078,-0.0195411999999995,0.1318664000000009,-0.0006219999999999,0,sub_7
-0.0326040000000002,0.0418584000000012,0.0481812,-0.0013823999999995,0.1129368000000009,-0.0243989999999999,0,sub_7
-0.0318678000000001,0.0400378000000012,0.0667612,0.0325078000000004,0.1059740000000009,-0.0707277999999998,0,sub_7
-0.0321986000000001,0.0402158000000012,0.0807212,0.0621342000000004,0.0916566000000009,-0.1282217999999998,0,sub_7
-0.0148668000000001,0.0404598000000012,0.0819336,0.0678470000000004,0.0411442000000009,-0.1710951999999999,0,sub_7
0.0056041999999998,0.0513722000000012,0.0665490000000001,0.0542100000000004,0.0155868000000009,-0.2040943999999998,0,sub_7
0.0225075999999997,0.0671946000000012,0.0468544,0.0352090000000004,-0.000853799999999,-0.2213329999999999,0,sub_7
0.0335291999999997,0.0718736000000012,0.0249436000000001,0.0069890000000004,-0.008388999999999,-0.2198465999999999,0,sub_7
0.0361087999999997,0.0697010000000012,0.0039402,-0.0162925999999995,0.0063128000000009,-0.1999455999999998,0,sub_7
0.0254549999999997,0.0612012000000012,-0.0117891999999999,-0.0105961999999995,0.0605366000000009,-0.1786107999999999,0,sub_7
0.0177387999999997,0.0507750000000012,-0.0133123999999999,0.0110628000000004,0.1206102000000009,-0.1422169999999998,0,sub_7
0.0045747999999997,0.0409312000000012,-0.0153451999999999,0.0394276000000004,0.1671930000000009,-0.1047409999999998,0,sub_7
-0.0106458000000002,0.0337274000000012,-0.0091475999999999,0.0806940000000004,0.170340000000001,-0.0852789999999998,0,sub_7
-0.0245242000000001,0.0289640000000012,0.0002122,0.1144934000000004,0.157599000000001,-0.0820855999999998,0,sub_7
-0.0221346000000001,0.0196510000000012,0.0133752,0.1257070000000004,0.1498456000000009,-0.0811929999999998,0,sub_7
-0.0156028000000001,0.0051038000000012,0.0181310000000001,0.1282754000000004,0.1106184000000009,-0.0873705999999999,0,sub_7
0.0009921999999997,-0.0075039999999987,0.0277994,0.1097806000000004,0.0695992000000009,-0.0964201999999998,0,sub_7
0.0230259999999997,0.0028418000000012,0.0370312000000001,0.0763444000000004,0.0903560000000009,-0.0900573999999999,0,sub_7
0.0279305999999997,0.0037770000000012,0.0303486,0.0432034000000004,0.1939212000000009,-0.0664933999999999,0,sub_7
0.0171401999999997,0.0034824000000011,0.0130264000000001,0.0069690000000004,0.2744610000000009,-0.0449011999999999,0,sub_7
0.0015769999999997,0.0068184000000011,-0.0022477999999999,-0.0029029999999995,0.316839200000001,-0.0399539999999999,0,sub_7
-0.0074902000000002,0.0224182000000011,-0.0096745999999999,0.0054714000000004,0.326806600000001,-0.0442381999999999,0,sub_7
-0.0209660000000002,0.0209760000000012,-0.0238549999999999,0.0129374000000004,0.280941000000001,-0.0446115999999999,0,sub_7
-0.0146676000000002,0.0349246000000012,-0.0291097999999998,0.0241382000000004,0.1575366000000009,-0.0514825999999999,0,sub_7
-0.0132950000000002,0.0451618000000012,-0.0196667999999999,0.0434652000000004,0.0303242000000009,-0.0635759999999999,0,sub_7
-0.0119908000000002,0.0545018000000012,-0.0039611999999999,0.0434720000000004,-0.065965199999999,-0.0664435999999999,0,sub_7
-0.0152380000000002,0.0522110000000012,0.0064024,0.0400078000000004,-0.126241199999999,-0.0680997999999999,0,sub_7
-0.0106166000000002,0.0498242000000012,0.0163626,0.0379426000000004,-0.1749571999999989,-0.0847159999999999,0,sub_7
-0.0032474000000002,0.0417838000000012,0.0313,0.0247840000000004,-0.2274523999999989,-0.1056777999999999,0,sub_7
0.0112199999999997,0.0418338000000012,0.0358752,0.0066242000000004,-0.250114999999999,-0.1235079999999999,0,sub_7
0.0211707999999997,0.0454390000000012,0.0348428,-0.0044163999999995,-0.2540595999999989,-0.1398169999999999,0,sub_7
0.0302933999999997,0.0485960000000012,0.0289176000000001,-0.0122947999999995,-0.258261399999999,-0.1477713999999999,0,sub_7
0.0330507999999997,0.0494964000000012,0.0253974,-0.0114067999999995,-0.2488189999999989,-0.1460873999999999,0,sub_7
0.0298011999999997,0.0486532000000012,0.0179304,-0.0051797999999995,-0.232812799999999,-0.1388195999999999,0,sub_7
0.0286565999999997,0.0475040000000012,0.013482,0.0040288000000004,-0.217883399999999,-0.1313161999999999,0,sub_7
0.0258175999999997,0.0462404000000012,0.0124404,0.0204572000000004,-0.210648999999999,-0.1237523999999999,0,sub_7
0.0220793999999997,0.0444882000000012,0.0140942,0.0460646000000004,-0.195379799999999,-0.1088707999999999,0,sub_7
0.0179861999999997,0.0446570000000012,0.0174726,0.0616350000000004,-0.172309599999999,-0.0842223999999999,0,sub_7
0.0157873999999997,0.0394154000000012,0.0179596,0.0610534000000004,-0.138090999999999,-0.0629059999999999,0,sub_7
0.0075961999999997,0.0309046000000012,0.0157254,0.0544934000000004,-0.116162599999999,-0.0531521999999999,0,sub_7
0.0025221999999997,0.0230784000000012,0.0146766,0.0355504000000004,-0.101200399999999,-0.0488171999999999,0,sub_7
-0.0044366000000002,0.0234542000000012,0.013656,0.0022854000000004,-0.0953359999999989,-0.0479889999999999,0,sub_7
-0.0113258000000002,0.0250634000000012,0.00954,-0.0458849999999995,-0.0802673999999989,-0.0449265999999998,0,sub_7
-0.0154502000000002,0.0279330000000012,0.0060134,-0.0974519999999995,-0.054561599999999,-0.0350647999999998,0,sub_7
-0.0139338000000002,0.0281246000000012,0.0050808,-0.1522839999999995,-0.025718599999999,-0.0077109999999998,0,sub_7
-0.0094912000000002,0.0255440000000012,0.0047252,-0.2098993999999995,0.0173430000000009,0.0360558,0,sub_7
-0.0089462000000002,0.0152026000000012,0.0076044,-0.2739101999999995,0.0589468000000009,0.0770024000000001,0,sub_7
-0.0155082000000001,0.0013456000000012,0.009879,-0.3511453999999995,0.0810786000000009,0.0971582,0,sub_7
-0.0229712000000001,-0.0152661999999987,0.0102724,-0.4326537999999996,0.0688436000000009,0.0839996,0,sub_7
-0.0351014000000001,-0.0212485999999987,0.0122398,-0.4974633999999995,0.0502340000000009,0.052165,0,sub_7
-0.0490594000000001,-0.0142675999999987,0.016077,-0.5570313999999996,0.0281062000000009,-0.0101795999999998,0,sub_7
-0.0558350000000001,-0.0038935999999987,0.0147994,-0.6220367999999996,0.0077934000000009,-0.0954243999999998,0,sub_7
-0.0559362000000001,0.0133144000000012,0.0097228,-0.6593855999999996,0.0006576000000009,-0.1965163999999998,0,sub_7
-0.0531662000000001,0.0408746000000012,0.0059826,-0.6532961999999995,0.0263716000000009,-0.2917921999999999,0,sub_7
-0.0458634000000001,0.0800990000000012,-0.0029905999999999,-0.5940559999999996,0.0500088000000009,-0.3933169999999998,0,sub_7
-0.0314018000000001,0.1110480000000012,-0.0114789999999999,-0.4772137999999994,0.0817130000000009,-0.4841947999999998,0,sub_7
-0.0113064000000001,0.1203374000000011,-0.0138097999999999,-0.3319541999999996,0.1142232000000009,-0.5349237999999998,0,sub_7
0.0049043999999997,0.1049826000000011,0.0006078,-0.2044835999999995,0.1234046000000009,-0.5438727999999999,0,sub_7
0.0137899999999997,0.0753522000000011,0.0241692,-0.1119969999999996,0.1132158000000009,-0.5269767999999999,0,sub_7
0.0159271999999997,0.0312630000000011,0.0381486,-0.0705599999999995,0.1044306000000009,-0.4971931999999999,0,sub_7
0.0184941999999997,0.0040682000000011,0.0377368,-0.0611691999999995,0.0946604000000009,-0.4597273999999999,0,sub_7
0.0063747999999997,-0.0005125999999987,0.0339062,-0.0483897999999995,0.1058418000000009,-0.4432017999999999,0,sub_7
-0.0130790000000002,0.0156074000000012,0.0198682,-0.0167541999999995,0.1127844000000009,-0.4485443999999999,0,sub_7
-0.0213304000000002,0.0592748000000012,0.0073532,0.0225180000000004,0.0973790000000009,-0.4661963999999999,0,sub_7
-0.0171800000000002,0.1016114000000012,0.0074848,0.0545748000000004,0.1004954000000009,-0.4740949999999999,0,sub_7
-0.0119490000000002,0.1192808000000012,0.0172206,0.0561922000000004,0.131581400000001,-0.4704915999999999,0,sub_7
-0.0031720000000002,0.1143944000000012,0.028345,0.0345966000000004,0.133102000000001,-0.4591075999999999,0,sub_7
0.0152015999999997,0.1051578000000012,0.040824,0.0001008000000004,0.1137848000000009,-0.4469323999999998,0,sub_7
0.0240667999999997,0.0727198000000012,0.052858,-0.0528151999999995,0.0914986000000009,-0.4222771999999999,0,sub_7
0.0182989999999997,0.0369272000000012,0.0559012,-0.1137695999999995,0.0527728000000009,-0.3820609999999999,0,sub_7
0.0098763999999997,0.0106536000000012,0.0550002,-0.1575481999999995,-0.002448199999999,-0.3342259999999999,0,sub_7
0.0040631999999997,0.0016060000000011,0.0440728,-0.1955849999999995,-0.055372199999999,-0.2797309999999999,0,sub_7
0.0064405999999997,0.0012026000000011,0.0276368000000001,-0.2231845999999995,-0.100073199999999,-0.2127821999999998,0,sub_7
0.0070285999999997,0.0157238000000011,0.0037100000000001,-0.2340663999999995,-0.127153199999999,-0.1446707999999999,0,sub_7
0.0138315999999997,0.0282854000000011,-0.0009795999999999,-0.2295557999999995,-0.159565399999999,-0.0884091999999999,0,sub_7
0.0141631999999997,0.0279166000000011,-0.0011817999999999,-0.2436009999999995,-0.215884599999999,-0.0580975999999999,0,sub_7
0.0120095999999997,0.0316664000000011,0.0068236,-0.2509385999999994,-0.260473199999999,-0.0367271999999999,0,sub_7
0.0005515999999997,0.0394330000000011,0.0170504,-0.2424871999999995,-0.269065199999999,-0.0266159999999999,0,sub_7
-0.0090130000000002,0.0400330000000011,0.0298552,-0.2233287999999995,-0.281055599999999,-0.0283895999999999,0,sub_7
-0.0091724000000002,0.0389380000000011,0.026986,-0.2186901999999995,-0.298097599999999,-0.0330355999999999,0,sub_7
0.0023477999999997,0.0388166000000011,0.0223804000000001,-0.2168099999999995,-0.304930599999999,-0.0308773999999999,0,sub_7
0.0069173999999997,0.0464864000000011,0.0112070000000001,-0.2361837999999995,-0.299519399999999,-0.0352925999999999,0,sub_7
0.0105615999999997,0.0648256000000011,-0.0036579999999999,-0.2193039999999995,-0.281500799999999,-0.0217841999999999,0,sub_7
0.0254543999999997,0.0818306000000012,0.0036568,-0.1702689999999995,-0.266410599999999,0.0034892,0,sub_7
0.0298713999999997,0.0852810000000012,0.0186326000000001,-0.1255643999999995,-0.239287599999999,0.007139,0,sub_7
0.0171231999999997,0.0994238000000012,0.0275562,-0.0787203999999995,-0.2232013999999989,-0.0015733999999999,0,sub_7
0.0221445999999997,0.1151172000000012,0.0487398000000001,-0.0034357999999995,-0.238331199999999,-0.0074833999999999,0,sub_7
0.0367653999999997,0.1110262000000012,0.0723364000000001,0.0356752000000004,-0.2854977999999989,-0.0210365999999998,0,sub_7
0.0418695999999998,0.1024120000000012,0.0806854000000001,0.0372978000000004,-0.333323799999999,-0.0502331999999998,0,sub_7
0.0476935999999997,0.1014742000000012,0.0893184000000001,0.0572300000000004,-0.382523199999999,-0.0716089999999999,0,sub_7
0.0627927999999997,0.0969426000000012,0.0985232000000001,0.0806976000000004,-0.433090199999999,-0.0737303999999998,0,sub_7
0.0693075999999997,0.0853028000000012,0.0925028000000001,0.0915772000000004,-0.473002199999999,-0.0654847999999999,0,sub_7
0.0679179999999997,0.0744066000000012,0.0829992,0.0926666000000004,-0.5071283999999989,-0.0571013999999999,0,sub_7
0.0599277999999997,0.0634768000000012,0.0665982000000001,0.0980032000000004,-0.533011599999999,-0.0358801999999999,0,sub_7
0.0364201999999997,0.0585618000000012,0.0427434000000001,0.0856032000000004,-0.551429599999999,-0.0013327999999999,0,sub_7
-0.0017470000000002,0.0457014000000012,0.0346518000000001,0.0628794000000004,-0.543169399999999,0.0305446,0,sub_7
-0.0450606000000002,0.0167432000000012,0.0432946000000001,0.0316670000000004,-0.491358799999999,0.0479926,0,sub_7
-0.0926270000000001,-0.0103661999999987,0.0421498,-0.0022429999999995,-0.376680999999999,0.0638458,0,sub_7
-0.1300594000000001,-0.0189715999999987,0.036268,-0.0278539999999995,-0.220482799999999,0.0788492,0,sub_7
-0.1387028000000001,-0.0161185999999987,0.0347068,-0.0419553999999995,-0.071550799999999,0.0894558,0,sub_7
-0.1281296000000002,-0.0056697999999987,0.0181114000000001,-0.0461319999999995,0.0532754000000009,0.0990942,0,sub_7
-0.1144644000000001,0.0082226000000012,0.001795,-0.0384883999999995,0.1100628000000009,0.117021,0,sub_7
-0.0912556000000001,0.0020192000000012,0.0052356000000001,-0.0298685999999995,0.0961250000000009,0.1318406,0,sub_7
-0.0766500000000002,-0.0150467999999987,0.0114698000000001,-0.0312047999999995,0.0570564000000009,0.1528184,0,sub_7
-0.0780532000000002,-0.0349697999999987,0.013437,-0.0406223999999995,0.0314088000000009,0.1812002000000001,0,sub_7
-0.0790690000000002,-0.0379493999999988,0.0059944,-0.0467645999999995,0.0291586000000009,0.2164116000000001,0,sub_7
-0.0771532000000001,-0.0338103999999988,-0.0105849999999999,-0.0600119999999995,0.0591090000000009,0.2504638,0,sub_7
-0.0890130000000001,-0.0094337999999988,-0.0353777999999999,-0.0838693999999995,0.0876632000000009,0.2699158,0,sub_7
-0.1031344000000002,0.0101976000000011,-0.0492759999999998,-0.1033941999999995,0.1035284000000009,0.2620680000000001,0,sub_7
-0.1149118000000001,0.0298510000000011,-0.0544591999999998,-0.1162151999999995,0.1219960000000009,0.2369582,0,sub_7
-0.1319780000000002,0.0362114000000011,-0.0411015999999999,-0.1270563999999995,0.1343560000000009,0.1924286000000001,0,sub_7
-0.1376156000000002,0.0454596000000011,-0.0158237999999999,-0.1356661999999995,0.1482810000000009,0.1276164000000001,0,sub_7
-0.1342348000000002,0.0568218000000011,0.0104342000000001,-0.1285885999999995,0.1802874000000009,0.0562676,0,sub_7
-0.1227904000000002,0.0719296000000011,0.0290490000000001,-0.1093707999999995,0.217961200000001,-0.0043213999999999,0,sub_7
-0.0964300000000002,0.0789982000000011,0.0481626000000001,-0.0838553999999995,0.2370590000000009,-0.0603559999999999,0,sub_7
-0.0686168000000002,0.0827402000000011,0.0633154000000001,-0.0500903999999995,0.246090400000001,-0.1103381999999999,0,sub_7
-0.0454758000000002,0.0861672000000011,0.0636262000000001,-0.0063561999999995,0.2647950000000009,-0.1371895999999999,0,sub_7
-0.0133992000000002,0.0882418000000011,0.0638700000000001,0.0456102000000004,0.293577000000001,-0.1338723999999999,0,sub_7
0.0243965999999997,0.0852540000000011,0.0616794,0.0945500000000004,0.3320958000000009,-0.1120019999999999,0,sub_7
0.0502385999999997,0.0815914000000011,0.0483672,0.1391900000000004,0.3822716000000009,-0.0711619999999999,0,sub_7
0.0670333999999997,0.0692124000000011,0.0393522000000001,0.1815628000000004,0.422575200000001,-0.0104561999999999,0,sub_7
0.0860105999999997,0.0625854000000011,0.0285178,0.1952374000000004,0.441027400000001,0.0517862,0,sub_7
0.0954501999999997,0.0612372000000011,0.016255,0.2031750000000004,0.4692824000000009,0.1184624,0,sub_7
0.0857107999999997,0.0562452000000011,0.0042466,0.2208568000000004,0.4687928000000009,0.1722114,0,sub_7
0.0709919999999997,0.0589012000000012,0.0048386,0.2282936000000003,0.4566654000000009,0.214794,0,sub_7
0.0681337999999997,0.0564594000000012,0.0127316,0.2212856000000004,0.4404018000000009,0.2386940000000001,0,sub_7
0.0545025999999997,0.0468992000000011,0.029744,0.2195618000000004,0.3983990000000009,0.2479226,0,sub_7
0.0306325999999997,0.0414216000000011,0.0513128,0.2130596000000004,0.3124120000000009,0.2317504,0,sub_7
0.0215793999999997,0.0470212000000011,0.0649052,0.2010988000000004,0.2358604000000009,0.2050594000000001,0,sub_7
0.0189317999999997,0.0444852000000011,0.0705572,0.1968328000000004,0.1514426000000009,0.1675364,0,sub_7
0.0212963999999997,0.0359110000000011,0.064436,0.1885136000000004,0.0727692000000009,0.1355324,0,sub_7
0.0227013999999997,0.0309094000000011,0.0582518000000001,0.1695710000000004,0.0083906000000009,0.1077088000000001,0,sub_7
0.0266011999999997,0.0228982000000012,0.0459574000000001,0.1299686000000004,-0.037633199999999,0.0897586,0,sub_7
0.0365263999999997,0.0274384000000012,0.0397778000000001,0.0897570000000004,-0.079789199999999,0.0691920000000001,0,sub_7
0.0317047999999997,0.0317070000000012,0.0400032000000001,0.0692592000000004,-0.083319199999999,0.0690098000000001,0,sub_7
0.0135131999999997,0.0530984000000012,0.0401832000000001,0.0388994000000004,-0.092586199999999,0.0734662000000001,0,sub_7
-0.0014434000000002,0.0719044000000012,0.0274956000000001,0.0279966000000004,-0.101672999999999,0.0692988000000001,0,sub_7
-0.0004720000000002,0.0800338000000012,0.0152614000000001,0.0354170000000004,-0.115303999999999,0.0667610000000001,0,sub_7
-0.0111760000000002,0.0621524000000012,0.0095958000000001,0.0308568000000004,-0.118542199999999,0.0812610000000001,0,sub_7
-0.0202908000000002,0.0447270000000012,0.0026122000000001,-0.0008315999999995,-0.144841999999999,0.0789370000000001,0,sub_7
-0.0287602000000002,0.0284904000000012,0.0005972000000001,-0.0151045999999995,-0.1547449999999989,0.0636814000000001,0,sub_7
-0.0349962000000002,0.0120376000000012,0.0058242000000001,-0.0295025999999995,-0.1365583999999989,0.0569346,0,sub_7
-0.0377660000000002,0.0019146000000011,0.0102152000000001,-0.0497725999999995,-0.1029813999999989,0.0426494000000001,0,sub_7
-0.0379044000000002,0.0112912000000011,0.0128466000000001,-0.0694207999999995,-0.0757885999999989,0.0260268000000001,0,sub_7
-0.0348540000000002,0.0297664000000011,0.0151520000000001,-0.0861947999999995,-0.0601655999999989,0.0231122000000001,0,sub_7
-0.0304766000000002,0.0518952000000011,0.0104928000000001,-0.1008809999999995,-0.049047399999999,0.0259862,0,sub_7
-0.0159050000000002,0.0647512000000011,0.0063052000000001,-0.0943945999999995,-0.027561599999999,0.0285678,0,sub_7
-0.0113302000000002,0.0583100000000012,0.0202944000000001,-0.0751555999999995,-0.014440599999999,0.0340264,0,sub_7
-0.0122420000000002,0.0424374000000012,0.0299128000000001,-0.0631395999999995,-0.005722599999999,0.0279034000000001,0,sub_7
-0.0096080000000001,0.0478094000000012,0.0282334000000001,-0.0326747999999995,0.0110828000000009,0.008012,0,sub_7
0.0018463999999998,0.0521838000000012,0.0299738000000001,0.0078328000000004,0.0293514000000009,-0.0135199999999998,0,sub_7
0.0005135999999998,0.0551730000000012,0.0350562,0.0369684000000004,0.0365688000000009,-0.0321265999999999,0,sub_7
-0.0026274000000001,0.0631138000000012,0.029264,0.0586456000000004,0.0478526000000009,-0.0488673999999998,0,sub_7
0.0030203999999997,0.0672922000000012,0.0247126000000001,0.0832976000000004,0.0616614000000009,-0.0602495999999999,0,sub_7
0.0114023999999997,0.0552456000000012,0.0281496,0.0949080000000004,0.0748558000000009,-0.0665945999999999,0,sub_7
0.0136429999999997,0.0450988000000012,0.0294836,0.0897812000000004,0.0786882000000009,-0.0615079999999999,0,sub_7
0.0140161999999997,0.0437144000000012,0.02802,0.0695690000000004,0.0576124000000009,-0.0481625999999999,0,sub_7
0.0071479999999997,0.0452012000000011,0.0239062,0.0520672000000004,0.0235264000000009,-0.0337133999999999,0,sub_7
-0.0038744000000002,0.0498804000000011,0.0237446,0.0501368000000004,-0.001281599999999,-0.0086987999999998,0,sub_7
-0.0184522000000002,0.0532456000000011,0.028658,0.0454526000000004,-0.022878799999999,0.0150106000000001,0,sub_7
-0.0342440000000002,0.0521178000000011,0.0332116,0.0412816000000004,-0.040368999999999,0.0235498000000001,0,sub_7
-0.0458578000000002,0.0515758000000011,0.0354540000000001,0.0538810000000004,-0.044223399999999,0.0174472000000001,0,sub_7
-0.0378390000000002,0.0552916000000012,0.0369190000000001,0.0748644000000004,-0.038714599999999,0.0069044000000001,0,sub_7
-0.0258558000000002,0.0602346000000012,0.0359570000000001,0.0800342000000004,-0.042720799999999,-0.0080093999999999,0,sub_7
-0.0108704000000002,0.0584954000000011,0.0311940000000001,0.0793722000000004,-0.059077599999999,-0.0195297999999999,0,sub_7
-0.0019748000000002,0.0542874000000011,0.0260372,0.0872402000000004,-0.069102599999999,-0.0235213999999998,0,sub_7
0.0067165999999998,0.0494886000000011,0.024641,0.0918808000000004,-0.076169199999999,-0.0185661999999999,0,sub_7
0.0053085999999998,0.0471394000000011,0.0241644,0.0892140000000004,-0.088986799999999,-0.0076723999999999,0,sub_7
