userAcceleration.x,userAcceleration.y,userAcceleration.z,rotationRate.x,rotationRate.y,rotationRate.z,label,subject
0.0026383999999998,0.0071858000000012,-0.0042375999999999,-0.0198589999999994,0.0031302000000009,0.0197922000000001,0,sub_1
0.0042501999999998,0.0057012000000012,-0.0034899999999999,-0.0204985999999994,0.0052556000000009,0.0217080000000001,0,sub_1
0.0044673999999998,0.0044270000000012,-0.0045717999999999,-0.0187793999999994,0.0084444000000009,0.0221434000000001,0,sub_1
0.0046381999999998,0.0014750000000012,-0.0060603999999998,-0.0185593999999994,0.0086624000000009,0.0208630000000001,0,sub_1
0.0062671999999998,-0.0001269999999987,-0.0077901999999998,-0.0170653999999994,0.0067480000000009,0.0189534000000001,0,sub_1
0.0095497999999998,-0.0006897999999987,-0.0113735999999998,-0.0108857999999994,0.0062952000000009,0.0204930000000001,0,sub_1
0.0083863999999998,-0.0003231999999987,-0.0146223999999998,-0.0064021999999994,0.0098896000000009,0.0237248000000001,0,sub_1
0.0070085999999998,0.0004272000000012,-0.0150133999999998,-0.0072577999999994,0.0111638000000009,0.0256404000000001,0,sub_1
0.0049009999999998,0.0030792000000012,-0.0151641999999998,-0.0053463999999994,0.0111488000000009,0.0277904000000001,0,sub_1
0.0031263999999998,0.0054304000000012,-0.0125009999999999,-0.0030059999999994,0.0113470000000009,0.0295158000000001,0,sub_1
-0.0006960000000001,0.0099516000000012,-0.0069927999999999,-0.0055823999999994,0.0062494000000009,0.0277950000000001,0,sub_1
-0.0044356000000001,0.0130962000000012,-0.0028887999999999,-0.0069079999999994,-0.007366599999999,0.0239572000000001,0,sub_1
-0.0080602000000001,0.0144664000000012,-0.0014219999999999,-0.0009735999999994,-0.022913199999999,0.0169674000000001,0,sub_1
-0.0079046000000001,0.0133454000000012,-0.0023497999999999,0.0067024000000005,-0.033130199999999,0.0076328000000001,0,sub_1
-0.0071026000000001,0.0115990000000012,-0.0053043999999998,0.0159032000000005,-0.036110399999999,-0.0012731999999998,0,sub_1
-0.0043886000000001,0.0065412000000012,-0.0089101999999998,0.0264156000000005,-0.030791799999999,-0.0086847999999998,0,sub_1
8.399999999860603e-06,0.0027352000000012,-0.0111581999999998,0.0367392000000005,-0.019933599999999,-0.0158909999999998,0,sub_1
0.0044633999999998,0.0003800000000012,-0.0125067999999998,0.0438552000000005,-0.007584799999999,-0.0199161999999998,0,sub_1
0.0061955999999998,-9.199999999875454e-05,-0.0120103999999998,0.0464440000000005,0.0009330000000009,-0.0209575999999998,0,sub_1
0.0058565999999998,0.0008848000000012,-0.0105723999999998,0.0438838000000005,0.0052002000000009,-0.0201067999999998,0,sub_1
0.0038831999999998,0.0020212000000012,-0.0091531999999998,0.0368138000000005,0.0058498000000009,-0.0165055999999998,0,sub_1
0.0023905999999998,0.0026818000000012,-0.0081779999999998,0.0260922000000005,0.0035198000000009,-0.0105759999999998,0,sub_1
0.0020663999999998,0.0031042000000012,-0.0078699999999998,0.0134452000000005,0.0020408000000009,-0.0027383999999998,0,sub_1
0.0016217999999998,0.0040960000000012,-0.0089347999999998,0.0044538000000005,0.0024702000000009,0.0042484000000001,0,sub_1
0.0018143999999998,0.0048386000000012,-0.0100675999999999,0.0018610000000005,0.0013950000000009,0.0089400000000001,0,sub_1
0.0020665999999998,0.0063626000000012,-0.0100103999999999,0.0054770000000005,0.0028636000000009,0.0115352000000001,0,sub_1
0.0014993999999998,0.0071764000000012,-0.0096091999999999,0.0110344000000005,0.0077394000000009,0.0128576000000001,0,sub_1
0.0022601999999998,0.0066860000000012,-0.0087717999999999,0.0163832000000005,0.0128326000000009,0.0133238000000001,0,sub_1
0.0054629999999998,0.0024944000000012,-0.0064925999999999,0.0183164000000005,0.0194218000000009,0.0156874000000001,0,sub_1
0.0083501999999998,0.0005124000000012,-0.0066163999999998,0.0143106000000005,0.0353948000000009,0.0209806000000001,0,sub_1
0.0071117999999998,0.0006882000000012,-0.0077307999999998,-0.0005569999999994,0.0546068000000009,0.0249120000000001,0,sub_1
0.0035617999999998,0.0012136000000012,-0.0093319999999998,-0.0143797999999994,0.0633970000000009,0.0233090000000001,0,sub_1
0.0004033999999998,0.0024394000000012,-0.0083175999999998,-0.0203251999999994,0.0636556000000009,0.0170714000000001,0,sub_1
-0.0020776000000001,0.0058162000000012,-0.0072217999999998,-0.0218103999999994,0.0558166000000009,0.0072432000000001,0,sub_1
-0.0035030000000001,0.0092456000000012,-0.0050923999999999,-0.0152329999999994,0.0362380000000009,-0.0042229999999998,0,sub_1
-0.0011562000000001,0.0093644000000012,-0.0044993999999998,-0.0029611999999994,0.0083050000000009,-0.0092293999999998,0,sub_1
0.0042347999999998,0.0099728000000012,-0.0055217999999999,0.0086476000000005,-0.011157599999999,-0.0005777999999998,0,sub_1
0.0066175999999998,0.0080072000000012,-0.0112127999999999,0.0177106000000005,-0.018502599999999,0.0170140000000001,0,sub_1
0.0053051999999998,0.0072520000000012,-0.0150369999999999,0.0264038000000005,-0.013488199999999,0.0343736000000001,0,sub_1
-0.0009348000000001,0.0062806000000012,-0.0123397999999998,0.0178866000000005,-0.001346399999999,0.0424168000000001,0,sub_1
-0.0015166000000001,0.0051334000000012,-0.0096071999999999,0.0031906000000005,0.0033968000000009,0.0410258000000001,0,sub_1
5.039999999986097e-05,0.0040532000000012,-0.0060331999999999,-0.0161759999999994,0.0077536000000009,0.0338346000000001,0,sub_1
0.0060127999999998,0.0041190000000012,-0.0035737999999998,-0.0342325999999994,0.0216820000000009,0.0296314000000001,0,sub_1
0.0075557999999998,0.0106930000000012,-0.0037115999999998,-0.0561705999999994,0.0330420000000009,0.0318138000000001,0,sub_1
0.0094851999999998,0.0126082000000012,-0.0073195999999998,-0.0696895999999994,0.0266564000000009,0.0421964000000001,0,sub_1
0.0003149999999998,0.0061716000000012,-0.0098817999999998,-0.0673419999999994,0.0258014000000009,0.0411462000000001,0,sub_1
-0.0026400000000001,0.0043252000000012,-0.0166877999999998,-0.0544175999999994,0.0301092000000009,0.0183710000000001,0,sub_1
-0.0052660000000001,0.0062540000000012,-0.0186787999999998,-0.0319145999999994,0.0201450000000009,-0.0135059999999998,0,sub_1
-0.0015612000000001,0.0021390000000012,-0.0174947999999998,0.0016398000000005,0.0067074000000009,-0.0388919999999998,0,sub_1
0.0024497999999998,6.220000000120469e-05,-0.0171729999999999,0.0448346000000005,0.0072756000000009,-0.0586737999999998,0,sub_1
0.0121419999999998,0.0060948000000012,-0.0139257999999999,0.0728154000000005,0.0055056000000009,-0.0665947999999998,0,sub_1
0.0158813999999998,0.0072820000000012,-0.0036031999999998,0.0816666000000005,-0.007567599999999,-0.0549793999999998,0,sub_1
0.0198249999999998,0.0073426000000012,0.003148,0.0680734000000005,-0.017202999999999,-0.0311335999999998,0,sub_1
0.0197279999999998,0.0081370000000012,0.002421,0.0408590000000005,-0.016574599999999,-0.0048325999999998,0,sub_1
0.0155703999999998,0.0085516000000012,-0.0006067999999999,0.0034294000000005,-0.011005799999999,0.0203226000000001,0,sub_1
0.0100631999999998,0.0082574000000012,-0.0042747999999999,-0.0284435999999994,-0.003538999999999,0.0455142000000001,0,sub_1
0.0037949999999998,0.0077236000000012,-0.0080837999999999,-0.0457793999999994,0.0058112000000009,0.0665320000000001,0,sub_1
-0.0032734000000001,0.0057464000000012,-0.0109497999999998,-0.0526137999999994,0.0119826000000009,0.0741674000000001,0,sub_1
-0.0090746000000001,0.0011714000000012,-0.0105209999999998,-0.0529909999999994,0.0122394000000009,0.0634822000000001,0,sub_1
-0.0095924000000001,-0.0012517999999987,-0.0094001999999998,-0.0447869999999994,0.0120826000000009,0.0421752000000001,0,sub_1
-0.0084596000000001,-0.0003905999999987,-0.0103265999999998,-0.0314409999999994,0.0165942000000009,0.0208976000000001,0,sub_1
-0.0078080000000001,0.0014380000000012,-0.0112511999999998,-0.0140583999999994,0.0198030000000009,0.0022134000000001,0,sub_1
-0.0082528000000001,0.0046890000000012,-0.0106651999999998,0.0039310000000005,0.0197976000000009,-0.0124033999999998,0,sub_1
-0.0074972000000001,0.0085220000000012,-0.0083871999999998,0.0201648000000005,0.0152994000000009,-0.0208309999999998,0,sub_1
-0.0042576000000001,0.0113952000000012,-0.0061879999999998,0.0303670000000005,0.0067402000000009,-0.0207497999999998,0,sub_1
-0.0001462000000001,0.0121618000000012,-0.0049781999999998,0.0337112000000005,-0.002669399999999,-0.0149465999999998,0,sub_1
0.0018519999999998,0.0122424000000012,-0.0057107999999998,0.0287386000000005,-0.007588999999999,-0.0057885999999998,0,sub_1
0.0012925999999998,0.0109564000000012,-0.0065167999999998,0.0199460000000005,-0.009082199999999,0.0022702000000001,0,sub_1
-0.0003392000000001,0.0101088000000012,-0.0073393999999998,0.0092274000000005,-0.013322599999999,0.0062756000000001,0,sub_1
0.0006629999999998,0.0053614000000012,-0.0065061999999998,-0.0034031999999994,-0.020095599999999,0.0059980000000001,0,sub_1
0.0033401999999998,0.0008894000000012,-0.0068173999999998,-0.0108773999999994,-0.020913999999999,0.0040400000000001,0,sub_1
0.0039393999999998,-0.0010619999999987,-0.0094839999999998,-0.0091527999999994,-0.017075199999999,0.0017134000000001,0,sub_1
0.0045229999999998,-0.0023331999999987,-0.0111759999999998,-0.0068013999999994,-0.014099199999999,0.0015288000000001,0,sub_1
0.0060791999999998,-0.0033455999999987,-0.0103497999999998,-0.0076579999999994,-0.010704199999999,0.0060056000000001,0,sub_1
0.0065625999999998,-0.0004803999999987,-0.0096483999999998,-0.0108715999999994,-0.008582599999999,0.0113224000000001,0,sub_1
0.0062577999999998,0.0021364000000012,-0.0085443999999998,-0.0186001999999994,-0.017721999999999,0.0127762000000001,0,sub_1
0.0090781999999998,0.0028560000000012,-0.0061253999999998,-0.0291059999999994,-0.031310399999999,0.0103706000000001,0,sub_1
0.0058773999999998,0.0061050000000012,-0.0053501999999998,-0.0374301999999994,-0.040831799999999,0.0013522000000001,0,sub_1
0.0036125999999998,0.0066434000000012,-0.0054169999999998,-0.0478547999999994,-0.051164999999999,-0.0160121999999998,0,sub_1
0.0024409999999998,0.0027990000000012,-0.0075329999999998,-0.0550331999999994,-0.051920799999999,-0.0337935999999998,0,sub_1
0.0046411999999998,0.0035556000000012,-0.0097761999999998,-0.0516907999999994,-0.032707399999999,-0.0459717999999998,0,sub_1
0.0060461999999998,0.0045882000000012,-0.0110731999999998,-0.0481091999999994,-0.004126599999999,-0.0568647999999998,0,sub_1
0.0117555999999998,0.0005432000000012,-0.0099271999999998,-0.0450099999999994,0.0167676000000009,-0.0630507999999998,0,sub_1
0.0162231999999998,-0.0018037999999987,-0.0104483999999998,-0.0327777999999994,0.0341976000000009,-0.0631861999999998,0,sub_1
0.0156993999999998,0.0028386000000012,-0.0132467999999998,-0.0171797999999994,0.0441462000000009,-0.0600837999999998,0,sub_1
0.0087109999999998,0.0062750000000012,-0.0134247999999998,-0.0110253999999994,0.0392236000000009,-0.0598063999999998,0,sub_1
0.0036325999999998,0.0055878000000012,-0.0121737999999998,-0.0126073999999994,0.0236604000000009,-0.0557379999999998,0,sub_1
0.0004887999999998,0.0058640000000012,-0.0131041999999999,-0.0158847999999994,0.0129932000000009,-0.0493379999999998,0,sub_1
-0.0016978000000001,0.0086738000000012,-0.0121927999999998,-0.0191459999999994,0.0097674000000009,-0.0391019999999998,0,sub_1
-0.0056236000000001,0.0115134000000012,-0.0080429999999998,-0.0211185999999994,0.0105762000000009,-0.0273625999999998,0,sub_1
-0.0088142000000001,0.0113210000000012,-0.0039859999999999,-0.0235229999999994,0.0122308000000009,-0.0137045999999998,0,sub_1
-0.0116108000000001,0.0117310000000012,-0.0031455999999999,-0.0167511999999994,0.0142782000000009,0.0002304000000001,0,sub_1
-0.0141508000000001,0.0153506000000012,-0.0016011999999998,-0.0076289999999994,0.0144108000000009,0.0114066000000001,0,sub_1
-0.0166552000000001,0.0163164000000012,-0.0016319999999998,-0.0066207999999994,0.0077758000000009,0.0169800000000001,0,sub_1
-0.0124886000000001,0.0127288000000012,-0.0040435999999998,-0.0064871999999994,-0.008423599999999,0.0182826000000001,0,sub_1
-0.0050290000000001,0.0095350000000012,-0.0079723999999998,-0.0014359999999994,-0.028874799999999,0.0132160000000001,0,sub_1
0.0022923999999998,0.0077760000000012,-0.0115383999999998,0.0100588000000005,-0.047188199999999,0.0009282000000001,0,sub_1
0.0119587999999998,0.0105418000000012,-0.0253255999999999,0.0438064000000005,-0.053216399999999,-0.0125013999999998,0,sub_1
0.0252707999999998,0.0211980000000012,-0.0530883999999999,0.1154634000000005,-0.066230599999999,-0.0166839999999998,0,sub_1
0.0424251999999998,0.0350816000000012,-0.0674635999999999,0.1589304000000005,-0.052218999999999,0.0115894000000001,0,sub_1
0.0421243999999998,0.0419472000000012,-0.0424537999999999,0.1683120000000005,0.0368448000000009,0.0551246000000001,0,sub_1
0.0075913999999998,0.0451342000000012,-0.0271203999999999,0.1866580000000005,0.0978692000000009,0.0699162000000001,0,sub_1
-0.0312970000000001,0.0392358000000012,-0.0063703999999999,0.1986692000000005,0.0815436000000009,0.0396836000000001,0,sub_1
-0.0527292000000001,0.0243710000000012,0.020682,0.1720360000000005,0.0279844000000009,-0.0230315999999998,0,sub_1
-0.0638994000000001,0.0053470000000012,0.039528,0.1683324000000005,-0.025566799999999,-0.1075919999999998,0,sub_1
-0.0575130000000001,-0.0009005999999987,0.00874,0.1846364000000005,-0.128440799999999,-0.1827627999999998,0,sub_1
-0.0225484000000001,-0.0044961999999987,-0.0034923999999999,0.1546022000000005,-0.205933599999999,-0.2247475999999998,0,sub_1
0.0111311999999998,-0.0139431999999987,-0.0094941999999999,0.0901272000000005,-0.211469999999999,-0.2228407999999998,0,sub_1
0.0277739999999998,-0.0298245999999987,-0.0045855999999999,0.0251790000000005,-0.153620199999999,-0.1945263999999998,0,sub_1
0.0236021999999998,-0.0391081999999987,-0.0074301999999998,-0.0276643999999994,-0.111142399999999,-0.1686715999999998,0,sub_1
0.0158969999999998,-0.0464667999999987,0.0037568000000001,-0.0613377999999994,-0.088708399999999,-0.1552623999999998,0,sub_1
0.0127629999999998,-0.0503731999999987,0.0052528000000001,-0.0606459999999994,-0.057895399999999,-0.1358553999999998,0,sub_1
0.0145305999999998,-0.0488917999999987,0.0010716000000001,-0.0376343999999994,-0.036572599999999,-0.1068799999999998,0,sub_1
0.0123719999999998,-0.0291197999999987,-0.0065619999999998,-0.0112825999999994,-0.023178599999999,-0.0693253999999998,0,sub_1
0.0143813999999998,-0.0128829999999987,-0.0083795999999998,0.0005472000000005,-0.015050199999999,-0.0344291999999998,0,sub_1
0.0192203999999998,-0.0047191999999987,-0.0142549999999998,-0.0036153999999994,-0.006431999999999,-0.0015679999999998,0,sub_1
0.0227803999999998,0.0063706000000012,-0.0171289999999999,-0.0171671999999994,0.0024304000000009,0.0316546000000001,0,sub_1
0.0199877999999998,0.0209086000000012,-0.0097401999999998,-0.0405119999999994,0.0149542000000009,0.0635222000000001,0,sub_1
0.0199161999999998,0.0169716000000012,-0.0036929999999998,-0.0617335999999994,0.0176998000000009,0.0879396000000001,0,sub_1
0.0225437999999998,0.0161038000000012,-0.0061973999999999,-0.0818711999999994,0.0160006000000009,0.1025466000000001,0,sub_1
0.0240519999999998,0.0193426000000012,-0.0073939999999998,-0.1053813999999994,0.0143498000000009,0.1079432000000001,0,sub_1
0.0212477999999998,0.0195218000000012,-0.0034089999999999,-0.1459605999999994,0.0110638000000009,0.1110864000000001,0,sub_1
0.0132153999999998,0.0138004000000012,-0.0032915999999999,-0.2028035999999994,0.0007890000000009,0.1175428000000001,0,sub_1
0.0023547999999998,0.0168248000000012,-0.0005929999999999,-0.2645791999999994,-0.015432199999999,0.1235450000000001,0,sub_1
-0.0080746000000001,0.0165362000000012,0.0064996,-0.3105093999999995,-0.024868599999999,0.1255860000000001,0,sub_1
-0.0158922000000001,0.0113256000000012,0.0072958,-0.3262795999999995,-0.024794799999999,0.1207750000000001,0,sub_1
-0.0205574000000001,0.0067120000000012,-0.0014381999999998,-0.2937651999999994,-0.024411599999999,0.1030548000000001,0,sub_1
-0.0236658000000001,0.0069416000000012,-0.0100253999999998,-0.2097439999999995,-0.021799599999999,0.0694546000000001,0,sub_1
-0.0278994000000001,0.0085922000000012,-0.0167469999999999,-0.1073027999999994,-0.007518599999999,0.0321226000000001,0,sub_1
-0.0327620000000001,0.0023622000000012,-0.0159301999999999,-0.0161855999999994,0.0076372000000009,-0.0010167999999998,0,sub_1
-0.0342446000000001,0.0028666000000012,-0.0079539999999998,0.0463360000000005,0.0180092000000009,-0.0384087999999998,0,sub_1
-0.0310700000000001,0.0009320000000012,0.0030262000000001,0.0702628000000005,0.0257808000000009,-0.0846127999999998,0,sub_1
-0.0253896000000001,0.0006334000000012,0.0080366000000001,0.0649392000000005,0.0310928000000009,-0.1295219999999998,0,sub_1
-0.0143938000000001,0.0024772000000012,0.0059410000000001,0.0500120000000005,0.0338902000000009,-0.1766315999999998,0,sub_1
0.0002335999999998,0.0163108000000012,-0.0006459999999998,0.0316910000000005,0.0483898000000009,-0.2167293999999998,0,sub_1
0.0062943999999998,0.0188028000000012,-0.0103493999999999,0.0234394000000005,0.0561220000000009,-0.2249151999999998,0,sub_1
0.0029471999999998,0.0151974000000012,-0.0222367999999999,0.0154690000000005,0.0556592000000009,-0.2087331999999998,0,sub_1
0.0057873999999998,0.0100086000000012,-0.0301139999999998,0.0095834000000005,0.0502650000000009,-0.1865481999999998,0,sub_1
0.0102559999999998,0.0001380000000012,-0.0319963999999998,0.0130114000000005,0.0403152000000009,-0.1521145999999998,0,sub_1
0.0148759999999998,-0.0083403999999987,-0.0322309999999998,0.0235630000000005,0.0162184000000009,-0.1022301999999998,0,sub_1
0.0270721999999998,-0.0103853999999987,-0.0267937999999998,0.0173462000000005,0.0071130000000009,-0.0571821999999998,0,sub_1
0.0442297999999998,-0.0060869999999987,-0.0155739999999998,0.0084582000000005,0.0176310000000009,-0.0153825999999998,0,sub_1
0.0497857999999998,-0.0030957999999987,-0.0043809999999998,0.0019806000000005,0.0409290000000009,0.0251356000000001,0,sub_1
0.0428661999999998,0.0057166000000012,0.0010958000000001,-0.0131857999999994,0.0670690000000009,0.0551208000000001,0,sub_1
0.0280991999999998,0.0085348000000012,0.0033770000000001,-0.0265593999999994,0.0883976000000009,0.0609822000000001,0,sub_1
0.0119967999999998,0.0033902000000012,-0.0028979999999998,-0.0158447999999994,0.0879768000000009,0.0503754000000001,0,sub_1
-0.0028862000000001,0.0007824000000012,-0.0118455999999998,0.0029100000000005,0.0683682000000009,0.0360038000000001,0,sub_1
-0.0077782000000001,0.0019264000000012,-0.0194795999999998,0.0167466000000005,0.0472818000000009,0.0224542000000001,0,sub_1
-0.0047978000000001,-0.0007393999999987,-0.0173851999999999,0.0305842000000005,0.0321382000000009,0.0146656000000001,0,sub_1
-0.0053118,-0.0014757999999987,-0.0121663999999999,0.0358996000000005,0.0293436000000009,0.0162018000000001,0,sub_1
-0.0060488,0.0004348000000012,-0.0040617999999999,0.0247940000000005,0.0355268000000009,0.0246620000000001,0,sub_1
-0.002497,0.0028064000000012,-0.0061805999999999,0.0079452000000005,0.0447176000000009,0.0320102000000001,0,sub_1
0.0030587999999998,0.0061072000000012,-0.0023725999999999,-0.0091179999999994,0.0566670000000009,0.0423444000000001,0,sub_1
0.0047909999999998,0.0040406000000012,-0.0081875999999999,-0.0214911999999994,0.0603198000000009,0.0454582000000001,0,sub_1
0.0044157999999998,0.0053130000000012,-0.0163483999999999,-0.0178903999999994,0.0458534000000009,0.0371702000000001,0,sub_1
0.0003309999999998,0.0113652000000012,-0.0251663999999999,0.0032048000000005,0.0279278000000009,0.0260174000000001,0,sub_1
-0.0048272000000001,0.0095856000000012,-0.0235663999999998,0.0379562000000005,0.0180188000000009,0.0228542000000001,0,sub_1
-0.0131334000000001,0.0063076000000012,-0.0226709999999999,0.0646274000000005,0.0160134000000009,0.0213332000000001,0,sub_1
-0.0239542000000001,0.0070628000000012,-0.0146059999999999,0.0699654000000005,0.0136624000000009,0.0181680000000001,0,sub_1
-0.024399,0.0015926000000012,-0.0076635999999999,0.0609806000000004,0.0053952000000009,0.0149098000000001,0,sub_1
-0.0193694000000001,-0.0029605999999987,-0.0005235999999999,0.0481428000000004,-0.006263799999999,0.0109886000000001,0,sub_1
-0.0127206000000001,-0.0011141999999987,0.0064298,0.0306490000000004,-0.011081399999999,0.0053174000000001,0,sub_1
-0.0017658000000001,0.0001412000000012,0.0050374,0.0144680000000004,-0.002716999999999,0.0056210000000001,0,sub_1
0.0098775999999998,0.0029414000000012,-0.0019867999999999,-0.0002125999999994,0.0162580000000009,0.0151082000000001,0,sub_1
0.0171773999999998,0.0034096000000012,-0.0064447999999999,-0.0148959999999994,0.0386266000000009,0.0286508000000001,0,sub_1
0.0207347999999998,0.0047976000000012,-0.0087623999999999,-0.0257271999999994,0.0616286000000009,0.0402966000000001,0,sub_1
0.0174471999999998,0.0085708000000012,-0.0093201999999999,-0.0355091999999994,0.0750624000000009,0.0461934000000001,0,sub_1
0.0107633999999998,0.0079166000000012,-0.0117297999999999,-0.0387415999999994,0.0646482000000009,0.0427662000000001,0,sub_1
0.0078567999999998,0.0047806000000012,-0.0119435999999999,-0.0283303999999994,0.0478092000000009,0.0358104000000001,0,sub_1
0.0035289999999998,0.0077592000000012,-0.0121477999999999,-0.0174637999999994,0.0371468000000009,0.0286356000000001,0,sub_1
-0.0016434000000001,0.0063086000000012,-0.0145471999999999,-0.0093653999999994,0.0264958000000009,0.0193084000000001,0,sub_1
-0.0023058000000001,0.0014708000000012,-0.0189123999999999,-0.0021243999999994,0.0139332000000009,0.0091228000000001,0,sub_1
-0.0012038000000001,0.0012588000000012,-0.0176661999999998,0.0004626000000005,0.0088502000000009,-0.0026003999999998,0,sub_1
0.0010979999999998,0.0034182000000012,-0.0159853999999998,0.0019856000000005,0.0065328000000009,-0.0121975999999998,0,sub_1
0.0042613999999998,0.0045548000000012,-0.0153181999999998,0.0058536000000005,0.0116336000000009,-0.0138825999999998,0,sub_1
0.0044679999999998,0.0079910000000012,-0.0123561999999998,0.0026702000000005,0.0190878000000009,-0.0102821999999998,0,sub_1
0.0023399999999998,0.0111804000000012,-0.0086803999999998,-0.0022425999999994,0.0210112000000009,-0.0073275999999998,0,sub_1
0.0002711999999998,0.0140270000000012,-0.0064353999999999,-0.0024973999999994,0.0156716000000009,-0.0036905999999998,0,sub_1
-0.0030666000000001,0.0157338000000012,-0.0064667999999999,-0.0002031999999994,0.0073418000000009,-0.0006735999999998,0,sub_1
-0.0051916000000001,0.0151140000000012,-0.0061661999999999,0.0025190000000005,-0.002473999999999,0.0006392000000001,0,sub_1
-0.0047772000000001,0.0126100000000012,-0.0062741999999999,0.0065412000000005,-0.010367399999999,-0.0003913999999998,0,sub_1
-0.0021690000000001,0.0103274000000012,-0.0059247999999999,0.0114312000000005,-0.014006999999999,-0.0003531999999998,0,sub_1
0.0009387999999998,0.0081904000000012,-0.0072755999999999,0.0150522000000005,-0.015510399999999,-0.0005397999999998,0,sub_1
0.0047139999999998,0.0048076000000012,-0.0075777999999999,0.0154850000000004,-0.015081599999999,-0.0013915999999998,0,sub_1
0.0084939999999998,0.0019880000000012,-0.0082241999999998,0.0152892000000004,-0.012305799999999,-0.0024641999999998,0,sub_1
0.0110125999999998,0.0010612000000012,-0.0084055999999998,0.0150944000000004,-0.008255599999999,-0.0024701999999998,0,sub_1
0.0098991999999998,0.0002720000000012,-0.0091517999999998,0.0136274000000004,-0.003133199999999,-0.0031271999999998,0,sub_1
0.0080979999999998,-0.0006329999999987,-0.0091053999999998,0.0108754000000004,-0.000557199999999,-0.0052855999999998,0,sub_1
0.0057097999999998,-0.0009637999999987,-0.0095359999999998,0.0064096000000005,0.0007450000000009,-0.0072409999999998,0,sub_1
0.0022415999999998,7.800000001263394e-06,-0.0104349999999998,0.0015094000000005,0.0001316000000009,-0.0094107999999998,0,sub_1
-0.0017306000000001,0.0005226000000012,-0.0106043999999998,-0.0042547999999994,-0.003035199999999,-0.0117971999999998,0,sub_1
-0.0025986000000001,0.0014866000000012,-0.0104575999999998,-0.0074683999999994,-0.006855999999999,-0.0126695999999998,0,sub_1
-0.0030668000000001,0.0041440000000012,-0.0102401999999998,-0.0093809999999994,-0.002811199999999,-0.0103383999999998,0,sub_1
-0.0003796000000001,0.0034564000000012,-0.0084475999999999,-0.0057503999999994,0.0033326000000009,-0.0047659999999998,0,sub_1
0.0042467999999998,0.0036672000000012,-0.0083257999999999,-0.0006221999999994,0.0101118000000009,0.0006028000000001,0,sub_1
0.0095735999999998,0.0067348000000012,-0.0072241999999999,0.0034552000000005,0.0194564000000009,0.0048930000000001,0,sub_1
0.0089415999999998,0.0071202000000012,-0.0032733999999999,0.0071074000000005,0.0232872000000009,0.0032052000000001,0,sub_1
0.0058047999999998,0.0075776000000012,-0.0057363999999999,0.0075414000000005,0.0143810000000009,-0.0074621999999998,0,sub_1
0.0031353999999998,0.0115378000000012,-0.0110491999999999,0.0051982000000005,0.0012374000000009,-0.0217759999999998,0,sub_1
0.0021407999999998,0.0149432000000012,-0.0123945999999999,0.0017886000000005,-0.005323799999999,-0.0296967999999998,0,sub_1
