userAcceleration.x,userAcceleration.y,userAcceleration.z,rotationRate.x,rotationRate.y,rotationRate.z,label,subject
0.0031739999999998,-0.0005525999999987,-0.0009977999999999,-0.0011461999999996,-0.004339999999999,0.0049182000000001,0,sub_13
0.0027253999999998,0.0002674000000012,-0.0008999999999999,-0.0013633999999996,-0.004766999999999,0.0053446000000001,0,sub_13
0.0022419999999998,0.0010044000000012,-0.0011041999999999,-0.0026365999999996,-0.003274199999999,0.0055482000000001,0,sub_13
0.0023053999999998,0.0002442000000012,-0.0007763999999999,-0.0030553999999996,-0.0011467999999991,0.0061844000000001,0,sub_13
0.0023077999999998,0.0010220000000012,-0.0013261999999999,-0.0030483999999996,0.0003416000000008,0.0063970000000001,0,sub_13
0.0021653999999998,3.780000000131613e-05,-0.0021075999999999,-0.0038949999999996,0.0014086000000008,0.0061768000000001,0,sub_13
0.0028465999999998,-0.0013127999999986,-0.0021923999999999,-0.0036765999999996,0.0014092000000008,0.0053244000000001,0,sub_13
0.0033843999999998,-0.0031287999999986,-0.0015793999999999,-0.0023983999999996,0.0001298000000009,0.0044804000000001,0,sub_13
0.0033439999999998,-0.0025425999999987,-0.0014539999999999,-0.0019745999999996,-0.0009353999999991,0.0040574000000001,0,sub_13
0.0028145999999998,-0.0019881999999987,-0.0016033999999999,-0.0015487999999996,-0.0011499999999991,0.0040606000000001,0,sub_13
0.0028547999999998,-0.0007343999999987,-0.0017437999999999,-0.0009095999999996,-0.0013663999999991,0.0042786000000001,0,sub_13
0.0031877999999998,-5.339999999872386e-05,-0.0019885999999999,-0.0009105999999996,-0.0011561999999991,0.0049188000000001,0,sub_13
0.0037967999999998,0.0003640000000012,-0.0022617999999999,-0.0013419999999996,-0.001796599999999,0.0055572000000001,0,sub_13
0.0043415999999998,0.0004860000000012,-0.0023541999999999,-0.0017763999999996,-0.003288399999999,0.0059828000000001,0,sub_13
0.0045977999999998,0.0003644000000012,-0.0019993999999999,-0.0024231999999996,-0.004566399999999,0.0064066000000001,0,sub_13
0.0041819999999998,-0.0002587999999986,-0.0017069999999999,-0.0032785999999996,-0.004777199999999,0.0066144000000001,0,sub_13
0.0031457999999998,-0.0006437999999986,-0.0012795999999999,-0.0034909999999996,-0.004351199999999,0.0068260000000001,0,sub_13
0.0022639999999998,-0.0004499999999987,-0.0013761999999999,-0.0034853999999996,-0.003284799999999,0.0068230000000001,0,sub_13
0.0011575999999998,-0.0009003999999987,-0.0009797999999999,-0.0034787999999996,-0.002217399999999,0.0066066000000001,0,sub_13
0.0008877999999998,-0.0011363999999987,-0.0010297999999999,-0.0034751999999996,-0.001576999999999,0.0066044000000001,0,sub_13
0.0008531999999998,-0.0010123999999987,-0.0013143999999999,-0.0032619999999996,-0.001789799999999,0.0066048000000001,0,sub_13
0.0009491999999998,-0.0007265999999987,-0.0017153999999999,-0.0034755999999996,-0.002000999999999,0.0066022000000001,0,sub_13
0.0008611999999998,-0.0003215999999987,-0.0018923999999999,-0.0041185999999996,-0.002425799999999,0.0068120000000001,0,sub_13
0.0016799999999998,-1.5999999987439962e-06,-0.0020465999999999,-0.0041223999999996,-0.003065799999999,0.0070264000000001,0,sub_13
0.0023153999999998,5.5000000001256e-05,-0.0018547999999999,-0.0037013999999996,-0.004133399999999,0.0072444000000001,0,sub_13
0.0027783999999998,0.0001024000000012,-0.0015951999999999,-0.0037025999999996,-0.004555199999999,0.0074498000000001,0,sub_13
0.0031741999999998,0.0001896000000012,-0.0011553999999999,-0.0037019999999996,-0.004762999999999,0.0074414000000001,0,sub_13
0.0034633999999998,-8.799999998724e-06,-0.0008989999999999,-0.0032755999999996,-0.004973199999999,0.0076496000000001,0,sub_13
0.0029545999999998,6.3400000001256e-05,-0.0006905999999999,-0.0036999999999996,-0.004753599999999,0.0076378000000001,0,sub_13
0.0027747999999998,-0.0003081999999987,-0.0008213999999999,-0.0041203999999996,-0.003681599999999,0.0076248000000001,0,sub_13
0.0023845999999998,-0.0009863999999987,-0.0012597999999999,-0.0043299999999996,-0.003040799999999,0.0074090000000001,0,sub_13
0.0022949999999998,-0.0012243999999987,-0.0009975999999999,-0.0045413999999996,-0.002613999999999,0.0074070000000001,0,sub_13
0.0024059999999997,-0.0013289999999987,-0.0010141999999999,-0.0043251999999996,-0.002187799999999,0.0071944000000001,0,sub_13
0.0025397999999997,-0.0015137999999986,-0.0012083999999999,-0.0038935999999996,-0.001123999999999,0.0071960000000001,0,sub_13
0.0020065999999997,-0.0011363999999986,-0.0019541999999999,-0.0036703999999996,-0.000686599999999,0.0065378000000001,0,sub_13
0.0018689999999997,-0.0002411999999987,-0.0019807999999999,-0.0034539999999996,-0.000891799999999,0.0067348000000001,0,sub_13
0.0019247999999997,-0.0005365999999987,-0.0021897999999999,-0.0036681999999996,-0.001947599999999,0.0069300000000001,0,sub_13
0.0020505999999998,-0.0005903999999987,-0.0018583999999999,-0.0038803999999996,-0.002364999999999,0.0073380000000001,0,sub_13
0.0025497999999998,-0.0005573999999987,-0.0018725999999999,-0.0043077999999996,-0.003207799999999,0.0077450000000001,0,sub_13
0.0031721999999998,-0.0008549999999987,-0.0010089999999999,-0.0045277999999996,-0.004061799999999,0.0083854000000001,0,sub_13
0.0034317999999998,-0.0011285999999987,-0.0006803999999999,-0.0049563999999996,-0.004486399999999,0.0083830000000001,0,sub_13
0.0038611999999998,-0.0015641999999987,-0.0001985999999999,-0.0045167999999996,-0.004262999999999,0.0075074000000001,0,sub_13
0.0035639999999998,-0.0024149999999987,8.660000000007013e-05,-0.0042933999999996,-0.003829199999999,0.0074846000000001,0,sub_13
0.0030283999999998,-0.0012661999999987,-0.0004823999999999,-0.0038557999999996,-0.003183199999999,0.0074632000000001,0,sub_13
0.0022557999999998,-0.0006595999999987,-0.0006423999999999,-0.0046963999999996,-0.001469999999999,0.0080724000000001,0,sub_13
0.0019581999999998,-0.0007967999999987,-0.0008491999999999,-0.0051121999999996,2.8000000000934223e-05,0.0088984000000001,0,sub_13
0.0012853999999998,-0.0005871999999987,-0.0015467999999999,-0.0055379999999996,0.0010914000000009,0.0097486000000001,0,sub_13
0.0017225999999998,-0.0003485999999987,-0.0025047999999999,-0.0057447999999996,0.0015224000000009,0.0086784000000001,0,sub_13
0.0020787999999998,-0.0022853999999987,-0.0021437999999999,-0.0048815999999996,0.0015280000000009,0.0065480000000001,0,sub_13
0.0029505999999998,-0.0030763999999987,-0.0020987999999999,-0.0022991999999996,0.0009038000000009,0.0035466000000001,0,sub_13
0.0033055999999998,-0.0035441999999987,-0.0019827999999999,6.980000000033452e-05,0.0004924000000009,0.0007572000000001,0,sub_13
0.0037827999999998,-0.0020115999999987,-0.0021883999999999,0.0017988000000003,0.0007198000000009,-0.0013965999999998,0,sub_13
0.0034479999999998,-8.119999999872396e-05,-0.0021911999999999,0.0026724000000003,0.0013730000000009,-0.0027021999999998,0,sub_13
0.0033235999999998,0.0016104000000012,-0.0024537999999999,0.0022600000000003,0.0018134000000009,-0.0029485999999998,0,sub_13
0.0035179999999998,0.0015634000000012,-0.0030009999999999,0.0011932000000003,0.0013926000000009,-0.0033827999999998,0,sub_13
0.0040205999999998,0.0021420000000012,-0.0032845999999999,0.0003398000000003,0.0007590000000009,-0.0040287999999998,0,sub_13
0.0040063999999998,0.0008424000000012,-0.0024967999999999,-8.499999999964536e-05,0.0003378000000009,-0.0048857999999998,0,sub_13
0.0032913999999998,-0.0005145999999987,-0.0023451999999999,-0.0002991999999996,-0.000298799999999,-0.0053137999999998,0,sub_13
0.0027101999999998,-0.0017259999999987,-0.0018779999999999,-6.739999999966536e-05,-0.000281999999999,-0.0059877999999998,0,sub_13
0.0020805999999998,-0.0011921999999987,-0.0008361999999999,0.0005894000000003,0.0001562000000009,-0.0058047999999998,0,sub_13
0.0019659999999998,-0.0016661999999987,-0.0007205999999999,0.0012472000000003,0.0008074000000009,-0.0056221999999998,0,sub_13
0.0019183999999998,-0.0016297999999987,-0.0010713999999999,0.0016906000000003,0.0012462000000009,-0.0054407999999998,0,sub_13
0.0026009999999998,-0.0015175999999987,-0.0012313999999999,0.0027760000000003,0.0018966000000008,-0.0054687999999998,0,sub_13
0.0026659999999998,-0.0008491999999987,-0.0014825999999999,0.0029884000000003,0.0021072000000008,-0.0050401999999998,0,sub_13
0.0022205999999998,-0.0001605999999987,-0.0022195999999999,0.0029874000000003,0.0021064000000008,-0.0048265999999998,0,sub_13
0.0025243999999998,0.0007158000000012,-0.0015483999999999,0.0030054000000003,0.0023334000000008,-0.0044381999999998,0,sub_13
0.0026877999999998,0.0013148000000012,-0.0013859999999999,0.0028074000000003,0.0021344000000008,-0.0038369999999998,0,sub_13
0.0026259999999998,0.0013576000000012,-0.0009191999999999,0.0023998000000003,0.0021516000000008,-0.0038785999999998,0,sub_13
0.0028713999999998,0.0010102000000012,-0.0007177999999999,0.0024208000000003,0.0023812000000008,-0.0041311999999998,0,sub_13
0.0031149999999998,0.0003762000000012,-0.0008625999999999,0.0026552000000003,0.0026100000000008,-0.0043821999999998,0,sub_13
0.0022013999999998,-0.0001441999999987,-0.0012601999999999,0.0028724000000003,0.0028250000000008,-0.0050219999999998,0,sub_13
0.0016873999999997,-0.0007547999999987,-0.0014649999999999,0.0030886000000003,0.0028268000000009,-0.0056615999999998,0,sub_13
0.0019543999999997,-0.0006483999999986,-0.0018157999999999,0.0028732000000003,0.0024016000000009,-0.0056625999999998,0,sub_13
0.0020193999999997,-0.0009251999999987,-0.0022377999999999,0.0028912000000003,0.0015664000000009,-0.0057035999999998,0,sub_13
0.0019041999999997,-0.0015109999999987,-0.0012755999999999,0.0024852000000003,0.0011596000000009,-0.0059617999999998,0,sub_13
0.0012281999999997,-0.0016241999999986,-0.0012511999999999,0.0025032000000003,0.0011730000000009,-0.0051493999999998,0,sub_13
0.0014047999999997,-0.0003783999999986,-0.0020837999999999,0.0031670000000003,0.0020382000000008,-0.0047607999999998,0,sub_13
0.0010081999999998,0.0002832000000012,-0.0022191999999999,0.0029754000000003,0.0026924000000008,-0.0041643999999998,0,sub_13
0.0010397999999998,0.0005848000000013,-0.0022675999999998,0.0027602000000003,0.0029036000000008,-0.0035253999999998,0,sub_13
0.0012357999999998,0.0005850000000013,-0.0021251999999998,0.0029688000000003,0.0031108000000008,-0.0022423999999998,0,sub_13
0.0021085999999998,0.0006988000000012,-0.0016209999999998,0.0023288000000003,0.0026886000000008,-0.0026735999999998,0,sub_13
0.0021293999999998,-0.0002313999999987,-0.0004483999999998,0.0012610000000003,0.0020548000000009,-0.0031073999999998,0,sub_13
0.0029151999999998,-0.0017043999999987,-0.0003397999999998,0.0017102000000003,0.0012158000000009,-0.0042111999999998,0,sub_13
0.0029383999999998,-0.0024361999999987,0.0003764,0.0019498000000003,0.0014420000000009,-0.0051041999999998,0,sub_13
0.0030749999999998,-0.0017939999999987,-0.0003765999999999,0.0019772000000003,0.0018820000000009,-0.0059989999999998,0,sub_13
0.0030863999999998,-0.0012867999999987,-0.0012007999999999,0.0026436000000003,0.0029556000000009,-0.0060355999999998,0,sub_13
0.0034131999999998,-0.0006479999999987,-0.0016241999999999,0.0035168000000003,0.0031736000000008,-0.0054287999999998,0,sub_13
0.0029155999999998,-0.0002047999999987,-0.0017085999999999,0.0037264000000003,0.0033816000000008,-0.0043593999999998,0,sub_13
0.0029965999999998,0.0004390000000012,-0.0014447999999999,0.0037198000000003,0.0025268000000008,-0.0037173999999998,0,sub_13
0.0028921999999998,0.0006012000000012,-0.0007965999999999,0.0035150000000003,0.0018926000000008,-0.0035221999999998,0,sub_13
0.0019235999999998,0.0006156000000012,-0.0001713999999999,0.0028826000000003,0.0010468000000008,-0.0033295999999998,0,sub_13
0.0014377999999998,9.4600000001276e-05,-0.0007817999999999,0.0020386000000003,0.0006280000000008,-0.0031391999999997,0,sub_13
0.0015669999999998,-0.0001621999999987,-0.0006853999999999,0.0014082000000003,-3.799999999125857e-06,-0.0031605999999997,0,sub_13
0.0014583999999998,-0.0001789999999987,-0.0010755999999999,0.0009950000000003,0.0002160000000008,-0.0031815999999997,0,sub_13
0.0018389999999997,-0.0001407999999987,-0.0015629999999999,0.0012104000000003,0.0002170000000008,-0.0036073999999998,0,sub_13
0.0029281999999997,-0.0008453999999987,-0.0016727999999998,0.0014248000000003,0.0002172000000009,-0.0038195999999998,0,sub_13
0.0031359999999997,-0.0005595999999987,-0.0012731999999998,0.0016392000000003,0.0002172000000009,-0.0040315999999998,0,sub_13
0.0024789999999997,0.0001466000000012,-0.0007655999999998,0.0016428000000003,0.0004308000000009,-0.0040327999999998,0,sub_13
0.0023303999999998,0.0003224000000012,-0.0002947999999999,0.0022856000000003,0.0006410000000008,-0.0038157999999998,0,sub_13
0.0023009999999998,0.0003418000000012,1.320000000009018e-05,0.0024988000000003,0.0008502000000008,-0.0029607999999998,0,sub_13
0.0022619999999998,0.0008464000000012,-0.0001025999999999,0.0018556000000003,0.0002110000000009,-0.0023243999999998,0,sub_13
0.0021859999999998,0.0007982000000012,0.0001244,0.0014278000000003,-0.000214799999999,-0.0019005999999998,0,sub_13
0.0031665999999998,0.0006390000000012,-0.0001703999999999,0.0014288000000003,-0.000213999999999,-0.0021141999999998,0,sub_13
0.0032057999999998,0.0003904000000012,-0.0001351999999999,0.0007896000000003,-0.000422999999999,-0.0025457999999998,0,sub_13
0.0029987999999998,0.0002190000000012,-0.0004953999999999,0.0001484000000003,-0.001058199999999,-0.0029767999999998,0,sub_13
0.0032371999999998,-0.0002287999999987,-0.0004053999999999,0.0007904000000003,-0.001482999999999,-0.0038263999999998,0,sub_13
0.0035873999999998,-0.0015409999999987,0.0003968,0.0010040000000003,-0.001484999999999,-0.0048813999999998,0,sub_13
0.0027523999999998,-0.0008083999999987,8.48000000000502e-05,0.0014292000000003,-0.001277199999999,-0.0052941999999998,0,sub_13
0.0026197999999998,-0.0001625999999987,-0.0007409999999999,0.0014294000000003,-5.199999999105746e-06,-0.0050703999999998,0,sub_13
0.0020047999999998,9.040000000125596e-05,-0.0006999999999999,0.0016440000000003,0.0016914000000008,-0.0046319999999998,0,sub_13
0.0020079999999998,-0.0001315999999987,-0.0007071999999999,0.0016434000000003,0.0033870000000008,-0.0037677999999998,0,sub_13
0.0020029999999998,0.0006272000000012,-0.0010561999999999,0.0014262000000003,0.0035966000000008,-0.0027013999999998,0,sub_13
0.0024917999999998,-0.0004603999999987,-0.0009049999999999,0.0007832000000003,0.0033840000000008,-0.0022783999999998,0,sub_13
0.0030077999999998,-0.0016575999999987,-0.0005677999999999,0.0009852000000003,0.0025232000000009,-0.0024721999999998,0,sub_13
0.0039469999999998,-0.0030943999999987,-0.0003399999999999,0.0014034000000003,0.0018764000000009,-0.0030921999999998,0,sub_13
0.0039467999999998,-0.0024915999999987,-0.0006947999999999,0.0009700000000003,0.0014464000000009,-0.0039319999999998,0,sub_13
0.0029781999999998,-0.0012503999999987,-0.0013365999999999,0.0013938000000003,0.0020778000000009,-0.0045533999999998,0,sub_13
0.0028365999999998,-0.0004043999999987,-0.0017151999999999,0.0020262000000003,0.0022800000000009,-0.0045319999999998,0,sub_13
0.0027883999999998,-0.0004589999999987,-0.0021959999999999,0.0020204000000003,0.0014260000000009,-0.0041035999999998,0,sub_13
0.0023219999999998,0.0004220000000012,-0.0019631999999999,0.0013716000000003,0.0003594000000009,-0.0032521999999998,0,sub_13
0.0007437999999998,0.0001186000000012,-0.0012579999999999,0.0020030000000003,0.0007738000000009,-0.0008981999999998,0,sub_13
0.0002909999999998,-0.0002327999999987,-0.0012439999999999,0.0021986000000003,0.0022428000000009,0.0019000000000001,0,sub_13
-0.0007932000000001,0.0003348000000012,-0.0016657999999999,0.0015416000000003,0.0035034000000009,0.0042652000000001,0,sub_13
-0.0006206000000001,0.0016626000000012,-0.0019031999999999,0.0013170000000003,0.0043432000000009,0.0049248000000001,0,sub_13
0.0004095999999998,0.0023504000000012,-0.0029227999999999,0.0013088000000003,0.0039118000000009,0.0036648000000001,0,sub_13
0.0021605999999998,0.0033016000000012,-0.0028589999999999,0.0004528000000003,0.0020030000000009,-0.0003767999999998,0,sub_13
0.0039149999999998,0.0031254000000012,-0.0024913999999999,3.940000000035473e-05,-0.000529999999999,-0.0059311999999998,0,sub_13
0.0047505999999997,0.0018914000000012,-0.0017979999999999,0.0002690000000003,-0.002001599999999,-0.0110551999999998,0,sub_13
0.0035103999999997,0.0013820000000012,-0.0016659999999999,6.520000000035474e-05,-0.002416599999999,-0.0136199999999998,0,sub_13
0.0022121999999998,0.0004056000000012,-0.0014159999999999,-0.0001451999999996,-0.002201199999999,-0.0140489999999998,0,sub_13
0.0022023999999998,-0.0019225999999987,-0.0019119999999999,0.0002638000000003,-0.002003399999999,-0.0125289999999998,0,sub_13
0.0022663999999998,-0.0034233999999987,-0.0017499999999999,0.0002414000000003,-0.001808399999999,-0.0099439999999997,0,sub_13
0.0029345999999998,-0.0047609999999987,-0.0008491999999999,0.0004334000000003,-0.000764599999999,-0.0067173999999997,0,sub_13
0.0037773999999998,-0.0059203999999987,0.0002746,0.0010512000000003,-0.000147399999999,-0.0037009999999998,0,sub_13
0.0040303999999998,-0.0065917999999987,0.0011624,0.0016726000000003,0.0011098000000009,-0.0008991999999998,0,sub_13
0.0039701999999998,-0.0063557999999987,0.0015236,0.0020946000000003,0.0023772000000009,0.0014522000000001,0,sub_13
0.0033651999999998,-0.0056281999999987,0.0013246,0.0029490000000003,0.0040728000000008,0.0029516000000001,0,sub_13
0.0024205999999998,-0.0036953999999987,0.000681,0.0035776000000003,0.0049144000000008,0.0040446000000001,0,sub_13
0.0023071999999998,-0.0022635999999987,0.0002926,0.0042100000000003,0.0061838000000008,0.0047100000000001,0,sub_13
0.0023199999999998,-0.0003677999999987,-0.0008539999999999,0.0044128000000003,0.0066034000000008,0.0051598000000001,0,sub_13
0.0021873999999998,0.0017966000000012,-0.0018029999999999,0.0039746000000003,0.0063878000000008,0.0051786000000001,0,sub_13
0.0023341999999998,0.0031652000000012,-0.0024509999999999,0.0028906000000003,0.0046838000000009,0.0049812000000001,0,sub_13
0.0021901999999998,0.0040794000000012,-0.0023937999999999,0.0016036000000003,0.0023482000000009,0.0041208000000001,0,sub_13
0.0019891999999998,0.0051704000000012,-0.0028081999999999,0.0003214000000003,1.680000000091452e-05,0.0021920000000001,0,sub_13
0.0017421999999998,0.0050104000000012,-0.0030853999999999,-0.0015949999999996,-0.001670599999999,-0.0003829999999998,0,sub_13
0.0015767999999998,0.0034576000000012,-0.0026551999999999,-0.0024407999999996,-0.002297399999999,-0.0027381999999998,0,sub_13
0.0009959999999998,0.0022406000000012,-0.0017323999999999,-0.0030853999999996,-0.002510999999999,-0.0040015999999998,0,sub_13
0.0011881999999998,0.0005064000000012,-0.0020311999999999,-0.0028745999999996,-0.002513799999999,-0.0054729999999998,0,sub_13
0.0014577999999998,-0.0015207999999987,-0.0018151999999999,-0.0030953999999996,-0.002731599999999,-0.0060925999999998,0,sub_13
0.0020693999999998,-0.0028833999999987,-0.0006577999999999,-0.0013949999999996,-0.002530799999999,-0.0064855999999998,0,sub_13
0.0025301999999998,-0.0028457999999986,0.0004568,-0.0001221999999996,-0.001692599999999,-0.0060277999999998,0,sub_13
0.0029045999999998,-0.0023797999999986,0.0007094,0.0011608000000003,-0.000421399999999,-0.0053795999999998,0,sub_13
0.0036365999999998,-0.0013681999999987,0.0012834,0.0018008000000003,0.0004252000000009,-0.0045215999999998,0,sub_13
0.0042953999999998,-0.0004491999999987,0.0015668,0.0030868000000003,0.0021236000000009,-0.0040873999999998,0,sub_13
0.0050621999999998,0.0003852000000012,0.0013346,0.0030790000000003,0.0025410000000009,-0.0040713999999998,0,sub_13
0.0051217999999998,0.0011374000000012,0.000634,0.0030702000000003,0.0021086000000009,-0.0046951999999998,0,sub_13
0.0055771999999998,0.0010890000000012,0.0004762,0.0026356000000002,0.0016786000000009,-0.0055355999999998,0,sub_13
0.0049815999999998,0.0005080000000012,-6.759999999992991e-05,0.0022038000000002,0.0023122000000008,-0.0059501999999998,0,sub_13
0.0038215999999998,-0.0003425999999987,-0.0004425999999999,0.0017674000000003,0.0023048000000008,-0.0059365999999997,0,sub_13
0.0024373999999998,-0.0008107999999987,-0.0005979999999999,0.0019740000000003,0.0022980000000008,-0.0044395999999997,0,sub_13
0.0016191999999998,-0.0010889999999987,-0.0010557999999999,0.0017558000000003,0.0027188000000008,-0.0029461999999998,0,sub_13
0.0012383999999998,-0.0018805999999987,-0.0015319999999999,0.0019560000000003,0.0024958000000008,-0.0018507999999998,0,sub_13
0.0013847999999998,-0.0024273999999987,-0.0013037999999999,0.0019420000000003,0.0020604000000009,-0.0007565999999998,0,sub_13
0.0017083999999998,-0.0021045999999987,-0.0008967999999999,0.0017136000000003,0.0016250000000009,0.0005496000000001,0,sub_13
0.0019457999999998,-0.0013091999999987,-0.0008437999999999,0.0012766000000003,0.0018312000000009,0.0014264000000001,0,sub_13
0.0020213999999997,-0.0006047999999987,-0.0008091999999999,0.0012634000000003,0.0016090000000009,0.0025204000000001,0,sub_13
0.0024339999999997,0.0003878000000012,-0.0010191999999999,0.0006176000000003,0.0016062000000009,0.0037978000000001,0,sub_13
0.0028655999999997,0.0015390000000012,-0.0011987999999999,0.0001852000000003,0.0011782000000009,0.0046498000000001,0,sub_13
0.0031569999999998,0.0027434000000012,-0.0014791999999999,-3.119999999964527e-05,0.0005396000000009,0.0046492000000001,0,sub_13
0.0037889999999998,0.0028764000000012,-0.0014531999999998,-0.0004665999999996,-0.000103799999999,0.0038094000000001,0,sub_13
0.0040295999999998,0.0027214000000012,-0.0011249999999998,-0.0011153999999996,-0.001170799999999,0.0025414000000001,0,sub_13
0.0034861999999998,0.0024900000000012,-0.0006833999999998,-0.0011193999999996,-0.001599199999999,0.0008498000000001,0,sub_13
0.0029961999999998,0.0018570000000012,-0.0002163999999998,-0.0006967999999996,-0.001604599999999,-0.0004119999999998,0,sub_13
0.0023845999999998,0.0007904000000012,-0.0006763999999999,-0.0007007999999996,-0.001396199999999,-0.0014633999999998,0,sub_13
0.0020325999999998,-5.219999999868429e-05,-0.0011231999999999,-0.0004827999999996,-0.000968199999999,-0.0021031999999998,0,sub_13
0.0023343999999998,-0.0007233999999986,-0.0015365999999999,-0.0004761999999996,-0.000113399999999,-0.0027451999999998,0,sub_13
0.0024137999999998,-0.0010661999999986,-0.0019703999999999,-4.75999999996453e-05,9.900000000091456e-05,-0.0029561999999998,0,sub_13
0.0024591999999998,-0.0008719999999986,-0.0023677999999999,-0.0002637999999996,-0.000539399999999,-0.0029567999999998,0,sub_13
0.0035575999999998,-0.0012195999999987,-0.0021919999999999,-5.99999999996453e-05,-0.000974799999999,-0.0027313999999998,0,sub_13
0.0040945999999998,-0.0010655999999987,-0.0016743999999999,-0.0002837999999996,-0.001621799999999,-0.0025087999999997,0,sub_13
0.0038421999999998,-0.0010843999999987,-0.0010269999999999,-8.279999999964528e-05,-0.002059799999999,-0.0016423999999997,0,sub_13
0.0035681999999998,-0.0008833999999987,-0.0002999999999999,-0.0003085999999996,-0.002071799999999,-0.0003521999999997,0,sub_13
0.0032287999999998,-0.0011263999999987,-8.439999999994979e-05,-0.0001047999999996,-0.0014461999999991,0.0009400000000001,0,sub_13
0.0030103999999998,-0.0012277999999987,-0.0001865999999999,-0.0003209999999996,-0.0005991999999991,0.0024328000000001,0,sub_13
0.0027065999999998,-0.0009847999999987,-0.0006975999999999,-0.0003201999999996,0.0002504000000008,0.0030726000000001,0,sub_13
0.0029361999999998,-0.0004229999999987,-0.0011083999999999,-0.0005355999999996,0.0008866000000008,0.0028738000000001,0,sub_13
0.0037495999999998,-0.0003137999999987,-0.0016143999999999,-0.0009633999999996,0.0008878000000008,0.0018198000000001,0,sub_13
0.0043899999999998,-0.0001639999999987,-0.0020073999999999,-0.0009605999999996,0.0006786000000008,-0.0002989999999998,0,sub_13
0.0038041999999998,0.0005024000000012,-0.0015409999999999,-0.0007443999999996,0.0006808000000008,-0.0022029999999997,0,sub_13
0.0033725999999998,0.0004932000000012,-0.0010369999999999,-0.0001071999999996,0.0004644000000008,-0.0030355999999997,0,sub_13
0.0026691999999997,0.0003926000000012,-0.0008411999999998,0.0005300000000003,3.520000000093453e-05,-0.0028169999999997,0,sub_13
0.0023891999999997,-0.0009005999999987,-0.0007197999999998,0.0013758000000003,-0.000611199999999,-0.0017419999999997,0,sub_13
0.0023231999999997,-0.0017931999999987,0.0002984,0.0017892000000003,-0.001473399999999,0.0003984000000001,0,sub_13
0.0027209999999997,-0.0018493999999987,0.0006962,0.0021984000000003,-0.001915599999999,0.0021292000000001,0,sub_13
0.0015727999999998,-0.0019435999999987,0.000784,0.0015494000000003,-0.000224399999999,0.0040636000000001,0,sub_13
0.0007959999999998,-0.0015133999999987,0.0005824,0.0009032000000003,0.0014694000000008,0.0053570000000001,0,sub_13
6.09999999998423e-05,-0.0006649999999987,-0.0006175999999999,4.660000000037464e-05,0.0035908000000008,0.0064346000000001,0,sub_13
-3.7000000000157655e-05,0.0005660000000012,-0.0019925999999999,-0.0014531999999996,0.0048632000000008,0.0072952000000001,0,sub_13
-0.0004636000000001,0.0005156000000012,-0.0028311999999999,-0.0029515999999996,0.0044398000000009,0.0079262000000001,0,sub_13
0.0005361999999998,0.0002798000000012,-0.0036831999999999,-0.0036041999999996,0.0014602000000009,0.0077118000000001,0,sub_13
