userAcceleration.x,userAcceleration.y,userAcceleration.z,rotationRate.x,rotationRate.y,rotationRate.z,label,subject
0.0208417999999998,0.0065992000000012,-0.0132589999999998,0.0148518000000004,-0.002366199999999,-0.0026097999999998,0,sub_1
0.0294833999999998,0.0084664000000012,-0.0115027999999999,0.0337460000000005,-0.008896399999999,0.0139792000000001,0,sub_1
0.0342507999999998,0.0069050000000012,-0.0174345999999999,0.0719772000000004,-0.020006799999999,0.0424622000000001,0,sub_1
0.0296793999999998,0.0036348000000012,-0.0149821999999999,0.1118754000000004,-0.031583599999999,0.0795032000000001,0,sub_1
0.0189827999999998,0.0057168000000012,-0.0113877999999999,0.1475094000000004,-0.046552799999999,0.1139514000000001,0,sub_1
0.0011213999999998,0.0086990000000012,-0.0088241999999999,0.1763256000000004,-0.086105799999999,0.1214640000000001,0,sub_1
-0.0116788000000001,0.0031188000000012,-0.0032075999999999,0.1883026000000004,-0.136407599999999,0.1141312000000001,0,sub_1
-0.0189262000000001,0.0061600000000012,0.0078384,0.1516914000000004,-0.139610399999999,0.0922980000000001,0,sub_1
-0.0185458000000001,0.0131676000000012,0.0075166,0.1052000000000004,-0.125245999999999,0.0547770000000001,0,sub_1
-0.0116630000000001,0.0088970000000012,0.0028472,0.0694018000000004,-0.103667199999999,0.0175388000000001,0,sub_1
-0.0009660000000001,0.0045718000000012,-0.0036293999999999,0.0434120000000004,-0.061332999999999,0.0027752000000001,0,sub_1
-0.0003984000000001,0.0092204000000012,-0.0109847999999999,0.0289558000000004,-0.014784599999999,-0.0102041999999998,0,sub_1
-0.0043560000000001,0.0062252000000012,-0.0153343999999999,0.0377780000000004,-0.010095799999999,-0.0204081999999998,0,sub_1
-0.0077470000000001,-0.0013177999999987,-0.0170479999999999,0.0439470000000005,-0.016090999999999,-0.0205757999999998,0,sub_1
-0.0122228000000001,-0.0019529999999987,-0.0152233999999999,0.0345254000000005,-0.019922399999999,-0.0155139999999998,0,sub_1
-0.0145306000000001,-0.0015255999999987,-0.0132337999999999,0.0167888000000005,-0.022445799999999,-0.0107255999999998,0,sub_1
-0.0122346000000001,0.0003470000000012,-0.0110711999999999,-0.0028709999999994,-0.020721199999999,-0.0010423999999998,0,sub_1
-0.0063998000000001,0.0043292000000012,-0.0102237999999999,-0.0170055999999994,-0.019020599999999,0.0121024000000001,0,sub_1
0.0005587999999998,0.0075930000000012,-0.0092577999999999,-0.0215485999999994,-0.021817399999999,0.0229702000000001,0,sub_1
0.0095841999999998,0.0088826000000012,-0.0067797999999999,-0.0175375999999994,-0.024838799999999,0.0294116000000001,0,sub_1
0.0149693999999998,0.0093248000000012,-0.0034911999999999,-0.0092121999999994,-0.023175799999999,0.0313854,0,sub_1
0.0172679999999998,0.0103446000000012,-0.0012501999999999,-0.0021281999999994,-0.020199599999999,0.0258714000000001,0,sub_1
0.0140301999999998,0.0113912000000012,0.0012516,0.0030558000000005,-0.018259999999999,0.0147906000000001,0,sub_1
0.0076397999999998,0.0131136000000012,0.0023368,0.0056828000000005,-0.015247799999999,0.0039036000000001,0,sub_1
0.0024707999999998,0.0145064000000012,-2.579999999993386e-05,0.0067976000000005,-0.011610599999999,-0.0022947999999998,0,sub_1
0.0015095999999998,0.0147632000000012,-0.0038257999999999,0.0089612000000004,-0.007769999999999,-0.0054899999999998,0,sub_1
0.0017431999999998,0.0118090000000012,-0.0073163999999999,0.0153774000000005,-0.005443599999999,-0.0067303999999998,0,sub_1
0.0014683999999998,0.0050456000000012,-0.0103547999999999,0.0245566000000005,-0.005895799999999,-0.0081615999999998,0,sub_1
0.0013001999999998,-0.0016517999999987,-0.0123131999999999,0.0339348000000005,-0.012303999999999,-0.0121469999999998,0,sub_1
-0.0002994000000001,-0.0071491999999987,-0.0128347999999999,0.0399140000000005,-0.019339799999999,-0.0182975999999998,0,sub_1
-0.0038190000000001,-0.0108197999999987,-0.0142415999999999,0.0392848000000004,-0.023589199999999,-0.0230021999999997,0,sub_1
-0.0053206000000001,-0.0111627999999987,-0.0164255999999999,0.0286484000000005,-0.021631199999999,-0.0262893999999998,0,sub_1
-0.0043628000000001,-0.0079125999999987,-0.0165251999999999,0.0101352000000005,-0.013687999999999,-0.0277163999999998,0,sub_1
-0.0053434000000001,-0.0054627999999987,-0.0146259999999998,-0.0068807999999994,-0.001927199999999,-0.0261469999999998,0,sub_1
-0.0069684000000001,-0.0033429999999987,-0.0127357999999998,-0.0179501999999994,0.0072572000000009,-0.0226041999999998,0,sub_1
-0.0086400000000001,-0.0019531999999987,-0.0100371999999998,-0.0254241999999994,0.0117326000000009,-0.0166801999999998,0,sub_1
-0.0100358000000001,0.0004162000000012,-0.0065979999999998,-0.0248383999999995,0.0093464000000009,-0.0068457999999998,0,sub_1
-0.0106206000000001,0.0009580000000012,-0.0048855999999998,-0.0180957999999995,0.0013942000000009,0.0043204000000001,0,sub_1
-0.0064792000000001,0.0026394000000012,-0.0045417999999998,-0.0138995999999995,-0.006960199999999,0.0118376000000001,0,sub_1
0.0019747999999998,0.0052362000000012,-0.0045363999999998,-0.0137183999999994,-0.011657399999999,0.0141948000000001,0,sub_1
0.0108349999999998,0.0071186000000012,-0.0042131999999998,-0.0111461999999994,-0.011654599999999,0.0114354000000001,0,sub_1
0.0169203999999998,0.0048266000000012,-0.0005123999999998,-0.0049025999999994,-0.007821399999999,0.0042022000000001,0,sub_1
0.0191201999999998,0.0013356000000012,0.0031488000000001,0.0015728000000005,-0.000152599999999,-0.0032473999999998,0,sub_1
0.0173739999999998,0.0002854000000012,-8.119999999989385e-05,0.0044032000000004,0.0058150000000009,-0.0083703999999998,0,sub_1
0.0115163999999998,-0.0011907999999987,-0.0053465999999998,0.0059086000000004,0.0055924000000009,-0.0096491999999998,0,sub_1
0.0049163999999998,-0.0028829999999987,-0.0097989999999998,0.0056528000000004,-0.000614999999999,-0.0047371999999998,0,sub_1
-0.0029180000000001,-0.0026467999999987,-0.0140017999999998,-0.0018907999999995,-0.006174799999999,0.0067542000000001,0,sub_1
-0.0085502000000001,0.0005260000000012,-0.0170859999999998,-0.0128619999999995,-0.011947799999999,0.0209988000000001,0,sub_1
-0.0084750000000001,0.0040238000000012,-0.0158435999999998,-0.0210417999999995,-0.015804599999999,0.0331238000000001,0,sub_1
-0.0062040000000001,0.0098558000000012,-0.0130753999999998,-0.0259717999999995,-0.014959599999999,0.0388560000000001,0,sub_1
-0.0018412000000001,0.0159878000000012,-0.0097137999999998,-0.0269901999999995,-0.009607399999999,0.0330730000000001,0,sub_1
0.0061525999999998,0.0173604000000012,-0.0075531999999999,-0.0191973999999995,-0.003379599999999,0.0141046000000001,0,sub_1
0.0121615999999998,0.0128528000000012,-0.0052371999999999,-0.0011279999999995,0.0019954000000009,-0.0133361999999998,0,sub_1
0.0143283999999998,0.0086168000000012,-0.0038055999999999,0.0231088000000004,0.0001156000000009,-0.0432879999999998,0,sub_1
0.0115891999999998,0.0024018000000012,-0.0019369999999998,0.0474990000000004,-0.008396799999999,-0.0663933999999998,0,sub_1
0.0034085999999998,-0.0035305999999987,-0.0024505999999998,0.0664944000000004,-0.019492399999999,-0.0784237999999998,0,sub_1
-0.0066998000000001,-0.0034461999999987,-0.0066395999999998,0.0730378000000004,-0.031462799999999,-0.0743031999999998,0,sub_1
-0.0147562000000001,0.0023974000000012,-0.0146895999999998,0.0626690000000004,-0.039180199999999,-0.0536423999999998,0,sub_1
-0.0182580000000001,0.0035016000000012,-0.0202723999999998,0.0399118000000004,-0.037317199999999,-0.0206891999999998,0,sub_1
-0.0174192000000001,0.0008352000000012,-0.0224783999999999,0.0114166000000004,-0.030532999999999,0.0120038000000001,0,sub_1
-0.0132146000000001,-0.0028111999999987,-0.0212385999999999,-0.0164095999999995,-0.021814999999999,0.0402128000000001,0,sub_1
-0.0058786000000001,-0.0074333999999987,-0.0153687999999999,-0.0384173999999995,-0.010519199999999,0.0582042000000001,0,sub_1
0.0033171999999998,-0.0079485999999987,-0.0076889999999999,-0.0494829999999995,-0.001329399999999,0.0606788000000001,0,sub_1
0.0091173999999998,-0.0030775999999987,-0.0018711999999999,-0.0466513999999995,0.0023200000000009,0.0515074000000001,0,sub_1
0.0114095999999998,0.0093538000000012,-0.0006433999999999,-0.0329251999999995,0.0033972000000009,0.0368606000000001,0,sub_1
0.0173823999999998,0.0162628000000012,-0.0034117999999999,-0.0100817999999995,-0.006643399999999,0.0240006000000001,0,sub_1
0.0159839999999998,0.0209208000000012,-0.0072781999999999,0.0108702000000004,-0.012619799999999,0.0087722000000001,0,sub_1
0.0146081999999998,0.0223048000000012,-0.0080903999999999,0.0243524000000004,-0.017511199999999,-0.0050141999999998,0,sub_1
0.0143289999999998,0.0214432000000012,-0.0036831999999999,0.0342018000000004,-0.018998599999999,-0.0143439999999998,0,sub_1
0.0136657999999998,0.0106704000000012,-0.0038989999999999,0.0391310000000004,-0.020480999999999,-0.0207169999999998,0,sub_1
0.0074697999999998,0.0054596000000012,-0.0022259999999999,0.0311110000000004,-0.011885799999999,-0.0318933999999998,0,sub_1
0.0058281999999998,0.0023572000000012,-0.0007785999999998,0.0228258000000004,-0.010762999999999,-0.0390027999999998,0,sub_1
0.0034703999999998,-0.0035939999999987,-0.0017127999999998,0.0243148000000004,-0.010772199999999,-0.0379239999999998,0,sub_1
-0.0009590000000001,-0.0150365999999987,-0.0100689999999998,0.0234370000000004,-0.011003599999999,-0.0325885999999998,0,sub_1
-0.0039010000000001,-0.0206949999999987,-0.0130947999999998,0.0163752000000004,-0.008028199999999,-0.0247365999999998,0,sub_1
-0.0073240000000001,-0.0219557999999987,-0.0159587999999998,0.0099302000000004,-0.003802199999999,-0.0104725999999998,0,sub_1
-0.0109926000000001,-0.0232167999999987,-0.0197047999999998,0.0021900000000004,0.0016874000000009,0.0084808000000001,0,sub_1
-0.0158876000000001,-0.0235133999999987,-0.0236181999999998,-0.0136527999999995,0.0059372000000009,0.0248154000000001,0,sub_1
-0.0187384000000001,-0.0170531999999987,-0.0203185999999998,-0.0309679999999995,0.0102106000000009,0.0364394000000001,0,sub_1
-0.0176816000000001,-0.0084269999999987,-0.0148175999999999,-0.0416545999999994,0.0142622000000009,0.0444776000000001,0,sub_1
-0.0141080000000001,-0.0005915999999987,-0.0097755999999999,-0.0457107999999994,0.0170320000000009,0.0476498000000001,0,sub_1
-0.0086194000000001,0.0115866000000012,-0.0074029999999998,-0.0456999999999994,0.0164050000000009,0.0444454000000001,0,sub_1
-0.0030764000000001,0.0236260000000012,-0.0041275999999998,-0.0407671999999994,0.0170478000000009,0.0391370000000001,0,sub_1
0.0025325999999998,0.0305458000000012,-0.0027763999999998,-0.0305011999999994,0.0157616000000009,0.0321594000000001,0,sub_1
0.0036251999999998,0.0310644000000012,0.0020380000000001,-0.0215235999999994,0.0106530000000009,0.0232552000000001,0,sub_1
0.0090253999999998,0.0282562000000012,0.0029368000000001,-0.0063595999999994,0.0061586000000009,0.0154622000000001,0,sub_1
0.0143681999999998,0.0208760000000012,0.0054898,0.0081626000000005,0.0010280000000009,0.0074520000000001,0,sub_1
0.0157907999999998,0.0116064000000012,0.0086024,0.0171570000000005,-0.003429199999999,-0.0042291999999998,0,sub_1
-0.0069296000000001,-0.0022443999999987,0.0297862,-0.0251091999999994,0.0034718000000009,-0.0412795999999998,0,sub_1
-0.0221932000000001,0.0025318000000012,0.0341624,-0.0994921999999994,0.0086668000000009,-0.1033347999999998,0,sub_1
-0.0681820000000001,0.0183928000000012,0.0295716,-0.2194919999999994,-0.031138199999999,-0.2211989999999998,0,sub_1
-0.0574380000000001,0.0099856000000012,0.0104068,-0.3168787999999994,-0.103276399999999,-0.3209271999999998,0,sub_1
-0.0134836000000001,-4.439999999875238e-05,-0.0198789999999999,-0.3492247999999994,-0.101852199999999,-0.3852577999999999,0,sub_1
0.0338079999999998,0.0145546000000012,-0.0695291999999999,-0.3062909999999995,-0.099413799999999,-0.3428843999999998,0,sub_1
0.0409971999999998,0.0203680000000012,-0.0773661999999999,-0.2464983999999994,-0.101042199999999,-0.2572319999999998,0,sub_1
0.0758093999999998,-0.0101673999999987,-0.0530065999999999,-0.1481749999999994,-0.117929599999999,-0.1187341999999998,0,sub_1
0.0614925999999998,-0.0115801999999987,-0.0352271999999999,-0.0024295999999994,-0.078281799999999,0.0157590000000001,0,sub_1
0.0184633999999998,-0.0085903999999987,-0.0152879999999999,0.0922574000000005,-0.094744399999999,0.1072384000000001,0,sub_1
-0.0066366000000001,-0.0156189999999987,0.0110618,0.1108408000000005,-0.089273999999999,0.1084294000000001,0,sub_1
-0.0019926000000001,-0.0244071999999987,0.0132334,0.1038038000000005,-0.058498199999999,0.0906084000000001,0,sub_1
0.0017867999999998,-0.0053525999999987,-0.0011407999999999,0.0909956000000005,0.0221342000000009,0.0773832000000001,0,sub_1
-0.0034000000000001,0.0084268000000012,0.0007982,0.0162068000000005,0.0610880000000009,0.0445504000000001,0,sub_1
-0.0069730000000001,0.0200424000000012,0.006579,-0.0555327999999994,0.0659440000000009,0.0113556000000001,0,sub_1
-0.0084314000000001,0.0251072000000012,0.006597,-0.0768459999999994,0.0433344000000009,-0.0169653999999998,0,sub_1
-0.0078908000000001,0.0263394000000012,0.0001068000000001,-0.0591801999999994,0.0077960000000009,-0.0426473999999998,0,sub_1
-0.0086062000000001,0.0221480000000012,-0.0096589999999998,-0.0332061999999994,-0.030329999999999,-0.0678407999999998,0,sub_1
0.0002983999999998,0.0162344000000012,-0.0150797999999998,-0.0016669999999994,-0.046602599999999,-0.0748631999999998,0,sub_1
0.0074949999999998,0.0139076000000012,-0.0169549999999998,0.0230826000000005,-0.035867799999999,-0.0633805999999998,0,sub_1
0.0108319999999998,0.0100018000000012,-0.0169219999999998,0.0386332000000005,-0.023424199999999,-0.0449139999999998,0,sub_1
0.0132603999999998,0.0028960000000012,-0.0145775999999999,0.0503354000000004,-0.011398399999999,-0.0251919999999998,0,sub_1
0.0158285999999998,-0.0009579999999987,-0.0106933999999999,0.0574092000000004,0.0123726000000009,-0.0082945999999998,0,sub_1
0.0098411999999998,-0.0019135999999987,-0.0065091999999999,0.0521448000000004,0.0307022000000009,-0.0053633999999998,0,sub_1
0.0057461999999998,-0.0055687999999987,-0.0032885999999999,0.0389632000000004,0.0320636000000009,-0.0144293999999998,0,sub_1
0.0056331999999998,-0.0063865999999987,-0.0015835999999999,0.0266200000000004,0.0281036000000009,-0.0254053999999998,0,sub_1
0.0090441999999998,-0.0024055999999987,-0.0038361999999998,0.0131860000000005,0.0262486000000009,-0.0289139999999998,0,sub_1
0.0085831999999998,0.0035180000000012,-0.0077849999999998,-0.0019891999999994,0.0235220000000009,-0.0260245999999998,0,sub_1
0.0057751999999998,0.0081476000000012,-0.0093823999999998,-0.0178271999999994,0.0186556000000009,-0.0203601999999998,0,sub_1
0.0027957999999998,0.0095670000000012,-0.0108249999999998,-0.0283301999999994,0.0154684000000009,-0.0133797999999998,0,sub_1
-0.0001546000000001,0.0087622000000012,-0.0144419999999998,-0.0260375999999994,0.0122298000000009,-0.0048145999999998,0,sub_1
-0.0023922000000001,0.0059422000000012,-0.0151721999999999,-0.0149887999999994,0.0070568000000009,0.0001820000000001,0,sub_1
-4.860000000017003e-05,0.0026592000000012,-0.0126217999999999,-0.0019927999999995,0.0061444000000009,0.0036916000000001,0,sub_1
0.0015101999999998,-0.0005065999999987,-0.0109409999999999,0.0099548000000004,0.0092840000000009,0.0071890000000001,0,sub_1
-0.0007506000000001,-0.0020825999999987,-0.0047335999999999,0.0152762000000004,0.0105266000000009,0.0114974000000001,0,sub_1
-0.0021010000000001,-0.0020397999999987,-0.0009043999999999,0.0101622000000004,0.0122478000000009,0.0116730000000001,0,sub_1
-0.0010184000000001,-0.0015465999999987,-0.0014557999999999,-0.0004839999999995,0.0140022000000009,0.0083918000000001,0,sub_1
0.0010569999999998,-0.0028685999999987,-0.0066293999999999,-0.0098399999999994,0.0146996000000009,0.0019162000000001,0,sub_1
0.0023583999999998,-0.0032133999999987,-0.0085795999999999,-0.0189627999999994,0.0185966000000009,-0.0056297999999998,0,sub_1
0.0040481999999998,0.0006418000000012,-0.0122511999999999,-0.0242145999999994,0.0316320000000009,-0.0108101999999998,0,sub_1
0.0039739999999998,0.0014296000000012,-0.0108791999999999,-0.0290559999999994,0.0408318000000009,-0.0161965999999998,0,sub_1
0.0051355999999998,0.0042868000000012,-0.0069959999999999,-0.0271027999999994,0.0434010000000009,-0.0208861999999998,0,sub_1
0.0028037999999998,0.0069496000000012,-0.0003741999999999,-0.0251635999999994,0.0423508000000009,-0.0262121999999998,0,sub_1
0.0027701999999998,0.0087704000000012,0.0014184,-0.0249485999999994,0.0400190000000009,-0.0291989999999998,0,sub_1
0.0050923999999998,0.0081480000000012,-0.0009395999999998,-0.0226169999999994,0.0363914000000009,-0.0296055999999998,0,sub_1
0.0085369999999998,0.0106102000000012,-0.0048195999999998,-0.0137053999999994,0.0337714000000009,-0.0212079999999998,0,sub_1
0.0083301999999998,0.0098852000000012,-0.0065157999999998,-0.0073761999999994,0.0305040000000009,-0.0085545999999998,0,sub_1
0.0086245999999998,0.0110050000000012,-0.0091031999999998,-0.0006299999999994,0.0282878000000009,0.0073050000000001,0,sub_1
0.0026807999999998,0.0107106000000012,-0.0088969999999999,0.0025168000000005,0.0267448000000009,0.0175838000000001,0,sub_1
-0.0049016000000001,0.0100820000000012,-0.0026379999999999,-0.0065093999999994,0.0146238000000009,0.0194584000000001,0,sub_1
-0.0087064000000001,0.0096270000000012,0.0007556,-0.0178523999999994,0.0012644000000009,0.0131996000000001,0,sub_1
-0.0088964000000001,0.0103292000000012,-0.0011859999999999,-0.0231729999999994,-0.005283199999999,0.0031284000000001,0,sub_1
-0.0058912000000001,0.0087608000000012,-0.0043991999999999,-0.0244189999999994,-0.008007399999999,-0.0075601999999998,0,sub_1
-0.0026744000000001,0.0060212000000012,-0.0060063999999998,-0.0211871999999994,-0.010969599999999,-0.0167315999999998,0,sub_1
0.0024827999999998,0.0052018000000012,-0.0103437999999998,-0.0089731999999994,-0.007153999999999,-0.0234983999999998,0,sub_1
0.0068159999999998,0.0013396000000012,-0.0142331999999998,0.0066556000000005,-0.000166599999999,-0.0270401999999998,0,sub_1
0.0079503999999998,-0.0042429999999987,-0.0151433999999998,0.0169328000000005,0.0047016000000009,-0.0286935999999998,0,sub_1
0.0100879999999998,-0.0063435999999987,-0.0127821999999998,0.0192954000000005,0.0087306000000009,-0.0267689999999998,0,sub_1
0.0134243999999998,-0.0050133999999987,-0.0114403999999999,0.0171660000000005,0.0157438000000009,-0.0203829999999998,0,sub_1
0.0171657999999998,-0.0031171999999987,-0.0137757999999999,0.0207700000000005,0.0246224000000009,-0.0058405999999998,0,sub_1
0.0163335999999998,0.0018260000000012,-0.0116111999999999,0.0139176000000005,0.0345988000000009,0.0096954000000001,0,sub_1
0.0139059999999998,0.0084786000000012,-0.0090229999999999,0.0068422000000005,0.0435070000000009,0.0260854000000001,0,sub_1
0.0057383999999998,0.0104286000000012,-0.0088789999999999,0.0059426000000005,0.0451680000000009,0.0378272000000001,0,sub_1
0.0038743999999998,0.0119680000000012,-0.0077949999999999,0.0088508000000005,0.0382986000000009,0.0483246000000001,0,sub_1
0.0021093999999998,0.0124634000000012,-0.0020319999999999,0.0015538000000005,0.0319226000000009,0.0508450000000001,0,sub_1
0.0001143999999998,0.0098108000000012,-0.0018975999999998,-0.0020999999999994,0.0215154000000009,0.0459184000000001,0,sub_1
-0.0021666000000001,0.0063624000000012,-0.0006237999999998,-0.0089347999999994,0.0066800000000009,0.0322160000000001,0,sub_1
0.0007923999999998,0.0055850000000012,0.0010690000000001,-0.0193803999999994,-0.005581399999999,0.0174170000000001,0,sub_1
0.0059707999999998,0.0059442000000012,-0.0029179999999998,-0.0263773999999994,-0.005940199999999,0.0069000000000001,0,sub_1
0.0060233999999998,0.0040008000000012,-0.0102767999999998,-0.0229405999999994,-0.005930799999999,0.0017968000000001,0,sub_1
0.0067639999999998,0.0029930000000012,-0.0126127999999998,-0.0148301999999994,-0.005532199999999,0.0018534000000001,0,sub_1
0.0089111999999998,0.0012816000000012,-0.0126935999999998,-0.0056489999999994,0.0022934000000009,0.0085310000000001,0,sub_1
0.0046955999999998,-0.0007219999999987,-0.0126643999999998,-0.0015673999999994,0.0148234000000009,0.0151670000000001,0,sub_1
-0.0027964000000001,-0.0013483999999987,-0.0112991999999999,-0.0011377999999994,0.0165208000000009,0.0164500000000001,0,sub_1
-0.0043394000000001,0.0013558000000012,-0.0092413999999999,-0.0045655999999994,0.0124874000000009,0.0155764000000001,0,sub_1
-0.0061552000000001,0.0043792000000012,-0.0082555999999999,-0.0092729999999994,0.0088834000000009,0.0149068000000001,0,sub_1
-0.0090012000000001,0.0081736000000012,-0.0107247999999999,-0.0116315999999994,0.0031506000000009,0.0116924000000001,0,sub_1
-0.0054080000000001,0.0109932000000012,-0.0119377999999999,-0.0063167999999994,-0.004737399999999,0.0081070000000001,0,sub_1
-0.0013262000000001,0.0105522000000012,-0.0116277999999998,0.0022146000000005,-0.008589799999999,0.0049664000000001,0,sub_1
0.0005779999999998,0.0078688000000012,-0.0103991999999998,0.0094834000000005,-0.009026999999999,0.0013856000000001,0,sub_1
0.0034427999999998,0.0046324000000012,-0.0077113999999998,0.0144148000000005,-0.007536999999999,-0.0024273999999998,0,sub_1
0.0066285999999998,0.0015464000000012,-0.0053581999999998,0.0150808000000005,-0.003907999999999,-0.0045635999999998,0,sub_1
0.0078995999999998,-0.0006645999999987,-0.0046629999999998,0.0127512000000005,-0.000488199999999,-0.0050109999999998,0,sub_1
0.0087649999999998,-0.0007655999999987,-0.0071109999999999,0.0116954000000005,0.0018602000000009,-0.0050207999999998,0,sub_1
0.0095247999999998,0.0004610000000012,-0.0078253999999999,0.0104300000000004,0.0052740000000009,-0.0048197999999998,0,sub_1
0.0097693999999998,0.0023286000000012,-0.0095045999999999,0.0089406000000004,0.0067692000000009,-0.0041905999999998,0,sub_1
0.0089273999999998,0.0045438000000012,-0.0091743999999999,0.0099902000000004,0.0029316000000009,-0.0041779999999998,0,sub_1
0.0068727999999998,0.0061858000000012,-0.0082583999999999,0.0118948000000004,-0.001551799999999,-0.0041675999999998,0,sub_1
0.0045419999999998,0.0066984000000012,-0.0049173999999999,0.0105928000000004,-0.005392799999999,-0.0022579999999998,0,sub_1
0.0024701999999998,0.0076114000000012,-0.0040393999999999,0.0107706000000005,-0.011160999999999,0.0007326000000001,0,sub_1
0.0001889999999998,0.0084890000000012,-0.0041377999999998,0.0143680000000005,-0.015875399999999,0.0035318000000001,0,sub_1
-0.0011490000000001,0.0091626000000012,-0.0045853999999998,0.0184086000000005,-0.017393999999999,0.0059028000000001,0,sub_1
-0.0026124000000001,0.0100880000000012,-0.0044641999999998,0.0224558000000005,-0.017413599999999,0.0072124000000001,0,sub_1
-0.0032512000000001,0.0091270000000012,-0.0057467999999998,0.0273662000000004,-0.016366799999999,0.0074584000000001,0,sub_1
-0.0023794000000001,0.0063424000000012,-0.0076415999999998,0.0303750000000004,-0.013387399999999,0.0055524000000001,0,sub_1
-0.0002442000000001,0.0031844000000012,-0.0093021999999999,0.0304048000000004,-0.011886399999999,0.0014890000000001,0,sub_1
0.0022799999999998,0.0008594000000012,-0.0102811999999999,0.0293678000000004,-0.010381599999999,-0.0025817999999998,0,sub_1
0.0060399999999998,-0.0023421999999987,-0.0116359999999999,0.0278932000000004,-0.010582799999999,-0.0057985999999998,0,sub_1
0.0090711999999998,-0.0034637999999987,-0.0115283999999999,0.0253388000000004,-0.011852599999999,-0.0070981999999998,0,sub_1
0.0084621999999998,-0.0030627999999987,-0.0094453999999998,0.0204296000000004,-0.012059799999999,-0.0056381999999998,0,sub_1
0.0069421999999998,-0.0028873999999987,-0.0063047999999998,0.0114584000000004,-0.010127199999999,-0.0014297999999998,0,sub_1
0.0051983999999998,-0.0028597999999987,-0.0040643999999998,0.0016290000000004,-0.008195799999999,0.0038408000000001,0,sub_1
0.0029345999999998,-0.0001099999999987,-0.0027873999999998,-0.0086237999999995,-0.005835399999999,0.0086804000000001,0,sub_1
-0.0001082000000001,0.0023000000000012,-0.0041237999999998,-0.0162903999999994,-0.002840599999999,0.0099034000000001,0,sub_1
-0.0004608000000001,0.0044242000000012,-0.0058095999999999,-0.0198927999999994,-6.299999999905929e-05,0.0085910000000001,0,sub_1
-0.0006118000000001,0.0068078000000012,-0.0080869999999999,-0.0170825999999994,0.0037632000000009,0.0058264000000001,0,sub_1
-0.0010930000000001,0.0081168000000012,-0.0095695999999999,-0.0129847999999994,0.0082282000000009,0.0020018000000001,0,sub_1
-0.0002828000000001,0.0073452000000012,-0.0102851999999999,-0.0078285999999994,0.0109842000000008,-0.0015995999999998,0,sub_1
0.0021757999999998,0.0063422000000012,-0.0089685999999999,-0.0044063999999994,0.0118286000000009,-0.0026453999999998,0,sub_1
0.0031825999999998,0.0046114000000012,-0.0082759999999999,-0.0037711999999994,0.0111856000000009,-0.0022129999999998,0,sub_1
0.0037887999999998,0.0028400000000012,-0.0077899999999999,-0.0065585999999994,0.0094862000000009,-0.0009483999999998,0,sub_1
0.0044647999999998,0.0016958000000012,-0.0079637999999998,-0.0095665999999994,0.0065076000000009,0.0007436000000001,0,sub_1
