userAcceleration.x,userAcceleration.y,userAcceleration.z,rotationRate.x,rotationRate.y,rotationRate.z,label,subject
0.0042057999999998,0.0026744000000012,-0.0015951999999999,0.0001548000000003,-0.006197599999999,0.0044996000000001,0,sub_16
0.0047763999999998,0.0049042000000012,-0.0001345999999999,-0.0009179999999996,-0.006394199999999,0.0051316,0,sub_16
0.0056757999999998,0.0072838000000012,0.0009908,-0.0017619999999996,-0.005092399999999,0.0038406000000001,0,sub_16
0.0068535999999998,0.0096428000000012,0.0014388,-0.0017457999999996,-0.002938799999999,0.0019136000000001,0,sub_16
0.0070661999999998,0.0115494000000012,0.0011014,-0.0010855999999996,-0.000588999999999,-0.0002211999999998,0,sub_16
0.0068265999999998,0.0122982000000012,-3.4999999999928406e-05,-1.3999999996199343e-06,0.0013324000000009,-0.0021389999999998,0,sub_16
0.0057703999999998,0.0113470000000012,-0.0014535999999999,0.0004322000000003,0.0013370000000009,-0.0036313999999998,0,sub_16
0.0040877999999998,0.0096516000000012,-0.0037833999999999,0.0006354000000003,-0.000352799999999,-0.0042499999999998,0,sub_16
0.0022611999999998,0.0072336000000012,-0.0057241999999999,0.0010520000000003,-0.001830999999999,-0.0046535999999998,0,sub_16
0.0006061999999998,0.0032462000000012,-0.0064945999999999,0.0014724000000003,-0.001820399999999,-0.0044181999999998,0,sub_16
-0.0006330000000001,-0.0003117999999987,-0.0072239999999999,0.0016804000000003,-0.000959399999999,-0.0035443999999998,0,sub_16
-0.0009094000000001,-0.0025575999999987,-0.0072227999999999,0.0025266000000003,0.0005342000000009,-0.0015987999999998,0,sub_16
-0.0005244000000001,-0.0046675999999987,-0.0066563999999999,0.0025188000000003,0.0013762000000009,0.0009638000000001,0,sub_16
-0.0004524000000001,-0.0060699999999987,-0.0055513999999999,0.0022882000000003,0.0007250000000009,0.0041676000000001,0,sub_16
-3.520000000017728e-05,-0.0045037999999987,-0.0040419999999999,0.0011994000000003,-0.001200599999999,0.0071536000000001,0,sub_16
0.0009221999999998,-0.0019123999999987,-0.0024415999999999,-0.0001083999999996,-0.002674799999999,0.0095012000000001,0,sub_16
0.0019843999999998,0.0008078000000012,-0.0009997999999999,-0.0018285999999996,-0.002224799999999,0.0105616000000001,0,sub_16
0.0034701999999998,0.0052068000000012,0.000404,-0.0031093999999995,-6.75999999990646e-05,0.0105548000000001,0,sub_16
0.0055059999999998,0.0099206000000012,0.0007118,-0.0041625999999996,0.0040112000000009,0.0092652000000001,0,sub_16
0.0073267999999998,0.0137984000000012,0.0001658,-0.0043575999999996,0.0080914000000009,0.0069132000000001,0,sub_16
0.0080155999999998,0.0157526000000012,-0.0004139999999999,-0.0034829999999996,0.0104414000000009,0.0045662000000001,0,sub_16
0.0083077999999998,0.0167976000000012,-0.0015919999999999,-0.0024035999999996,0.0106608000000009,0.0020098000000001,0,sub_16
0.0077713999999998,0.0149350000000012,-0.0023659999999998,-0.0006917999999996,0.0095980000000009,-0.0001133999999998,0,sub_16
0.0063347999999998,0.0117786000000012,-0.0032057999999998,0.0001478000000003,0.0070516000000009,-0.0013767999999998,0,sub_16
0.0047801999999998,0.0078222000000012,-0.0037319999999998,-0.0002955999999996,0.0042948000000009,-0.0022215999999998,0,sub_16
0.0033913999999998,0.0032522000000012,-0.0047833999999998,-0.0013763999999996,0.0026038000000009,-0.0026447999999998,0,sub_16
0.0014767999999998,-0.0012845999999987,-0.0055575999999998,-0.0015989999999996,0.0026118000000009,-0.0024233999999998,0,sub_16
-5.900000000017722e-05,-0.0047157999999987,-0.0066587999999998,-0.0016091999999995,0.0032548000000009,-0.0013465999999998,0,sub_16
-0.0015884000000001,-0.0072883999999987,-0.0063715999999998,-0.0016159999999996,0.0034612000000009,0.0003622000000001,0,sub_16
-0.0026032000000001,-0.0081753999999987,-0.0057203999999998,-0.0018389999999996,0.0034534000000009,0.0024972000000001,0,sub_16
-0.0028340000000001,-0.0065183999999987,-0.0045363999999998,-0.0029155999999996,0.0032364000000009,0.0044128000000001,0,sub_16
-0.0012678000000001,-0.0026773999999987,-0.0031945999999998,-0.0044267999999996,0.0034622000000009,0.0056956000000001,0,sub_16
0.0002851999999998,0.0016764000000012,-0.0010227999999998,-0.0059311999999996,0.0039060000000009,0.0056962000000001,0,sub_16
0.0036759999999997,0.0073994000000012,-0.0005879999999998,-0.0057199999999996,0.0052002000000009,0.0046398,0,sub_16
0.0069671999999997,0.0119882000000012,-0.0006757999999998,-0.0044409999999996,0.0058552000000009,0.0027368,0,sub_16
0.0093031999999997,0.0146340000000012,-0.0015671999999998,-0.0020997999999996,0.0052288000000009,0.0006292000000001,0,sub_16
0.0095989999999997,0.0154240000000012,-0.0019955999999998,0.0002454000000003,0.0028846000000009,-0.0012741999999998,0,sub_16
0.0097235999999997,0.0157994000000012,-0.0030027999999998,0.0025848000000003,-0.000737799999999,-0.0031759999999998,0,sub_16
0.0078167999999997,0.0132888000000012,-0.0031747999999998,0.0027878000000003,-0.004355399999999,-0.0044519999999998,0,sub_16
0.0054749999999997,0.0085588000000012,-0.0038519999999998,0.0027714000000003,-0.006686399999999,-0.0048671999999998,0,sub_16
0.0030179999999997,0.0038384000000012,-0.0037937999999999,0.0021216000000003,-0.006462599999999,-0.0042217999999998,0,sub_16
0.0012819999999998,-0.0010363999999987,-0.0043371999999999,0.0016852000000003,-0.005390799999999,-0.0027213999999998,0,sub_16
-0.0011450000000001,-0.0060585999999987,-0.0044075999999999,0.0006078000000003,-0.003893399999999,-0.0005851999999998,0,sub_16
-0.0030922000000001,-0.0089415999999987,-0.0040397999999999,-4.299999999966002e-05,-0.002609599999999,0.0013408000000001,0,sub_16
-0.0041460000000001,-0.0092301999999987,-0.0035133999999999,-0.0013251999999996,-0.001121399999999,0.0032528000000001,0,sub_16
-0.0034884000000001,-0.0069055999999987,-0.0027185999999999,-0.0030311999999996,0.0003708000000009,0.0045208000000001,0,sub_16
-0.0020176000000001,-0.0029915999999987,-0.0017629999999999,-0.0047295999999996,0.0027186000000009,0.0049332000000001,0,sub_16
0.0006817999999998,0.0026516000000012,-0.0012857999999999,-0.0057839999999996,0.0057044000000009,0.0051358000000001,0,sub_16
0.0039961999999998,0.0079398000000012,-0.0020107999999999,-0.0055613999999996,0.0082718000000009,0.0040648000000001,0,sub_16
0.0065777999999998,0.0134130000000012,-0.0024971999999999,-0.0040641999999996,0.0087074000000009,0.0021510000000001,0,sub_16
0.0077953999999997,0.0167362000000012,-0.0030307999999999,-0.0023623999999996,0.0065882000000009,-0.0003989999999998,0,sub_16
0.0076187999999998,0.0181896000000012,-0.0040211999999999,-0.0008795999999996,0.0034036000000009,-0.0027355999999998,0,sub_16
0.0067559999999998,0.0169070000000012,-0.0050455999999999,0.0014548000000003,-0.000422199999999,-0.0052791999999998,0,sub_16
0.0052661999999998,0.0129872000000012,-0.0053919999999999,0.0027264000000003,-0.003405199999999,-0.0063347999999998,0,sub_16
0.0041041999999998,0.0071200000000012,-0.0058579999999999,0.0033628000000003,-0.004471799999999,-0.0065427999999998,0,sub_16
0.0029589999999998,0.0012338000000012,-0.0060889999999999,0.0042184000000003,-0.003411999999999,-0.0058973999999998,0,sub_16
0.0018383999999998,-0.0041523999999987,-0.0057989999999999,0.0042168000000003,-0.002360799999999,-0.0046237999999998,0,sub_16
0.0006627999999998,-0.0081323999999987,-0.0047013999999999,0.0031424000000003,-0.001947799999999,-0.0027157999999998,0,sub_16
-0.0001118000000001,-0.0094091999999987,-0.0036943999999999,0.0020586000000003,-0.003665199999999,-0.0008051999999998,0,sub_16
-0.0004378000000001,-0.0081631999999987,-0.0018351999999999,0.0005508000000003,-0.004954199999999,0.0008884000000001,0,sub_16
-0.0001140000000001,-0.0049645999999987,-0.0006053999999999,-0.0009561999999996,-0.006242199999999,0.0023682000000001,0,sub_16
0.0016469999999998,-0.0005087999999987,0.0007176,-0.0015981999999996,-0.006029399999999,0.0030044000000001,0,sub_16
0.0037811999999998,0.0047588000000012,0.0007756,-0.0022277999999996,-0.003895599999999,0.0027836000000001,0,sub_16
0.0053587999999998,0.0093694000000012,0.0006082,-0.0022009999999996,-7.259999999906421e-05,0.0019164000000001,0,sub_16
0.0067433999999998,0.0135396000000012,-0.0008325999999999,-0.0008987999999996,0.0024686000000009,0.0008460000000001,0,sub_16
0.0072997999999998,0.0155726000000012,-0.0017875999999999,0.0008236000000003,0.0030924000000009,-0.0006459999999998,0,sub_16
0.0068025999999998,0.0163570000000012,-0.0035471999999999,0.0018952000000003,0.0013748000000009,-0.0021397999999998,0,sub_16
0.0060701999999998,0.0145524000000012,-0.0046339999999999,0.0023182000000003,-0.002045799999999,-0.0034221999999998,0,sub_16
0.0046737999999998,0.0114868000000012,-0.0057633999999998,0.0027354000000003,-0.005238799999999,-0.0044833999999998,0,sub_16
0.0028169999999998,0.0068664000000012,-0.0056185999999998,0.0027316000000003,-0.006727599999999,-0.0051223999999998,0,sub_16
0.0011135999999998,0.0019600000000012,-0.0062571999999998,0.0020878000000003,-0.007153199999999,-0.0046991999999998,0,sub_16
-0.0009582000000001,-0.0029263999999987,-0.0059283999999998,0.0023036000000003,-0.006527799999999,-0.0038473999999998,0,sub_16
-0.0028922000000001,-0.0062523999999987,-0.0059765999999998,0.0023022000000003,-0.006117399999999,-0.0023561999999998,0,sub_16
-0.0036194000000001,-0.0082345999999987,-0.0046221999999998,0.0014454000000003,-0.006129999999999,-0.0008701999999998,0,sub_16
-0.0028364000000001,-0.0076389999999987,-0.0037945999999998,0.0001618000000003,-0.006565599999999,0.0001860000000001,0,sub_16
-0.0011894000000001,-0.0051871999999987,-0.0023559999999999,-0.0004721999999996,-0.005721799999999,0.0003906000000001,0,sub_16
0.0016571999999998,-0.0014061999999987,-0.0010545999999999,-0.0008939999999996,-0.004442799999999,0.0005996000000001,0,sub_16
0.0047999999999998,0.0029668000000012,-0.0003193999999999,-2.6999999999639895e-05,-0.002099599999999,-3.8199999999875615e-05,0,sub_16
0.0073773999999998,0.0082150000000012,-0.0003497999999999,0.0012638000000003,-0.000184799999999,-0.0004589999999998,0,sub_16
0.0085629999999998,0.0115862000000012,-0.0006623999999999,0.0025582000000003,0.0008708000000009,-0.0011001999999998,0,sub_16
0.0089143999999998,0.0136194000000012,-0.0010749999999999,0.0034134000000003,-0.000204999999999,-0.0011009999999998,0,sub_16
0.0079681999999998,0.0132184000000012,-0.0022409999999998,0.0031996000000003,-0.001915599999999,-0.0013219999999998,0,sub_16
0.0066549999999998,0.0121892000000012,-0.0026383999999998,0.0027706000000003,-0.003839399999999,-0.0013305999999998,0,sub_16
0.0050601999999997,0.0096432000000012,-0.0029825999999998,0.0021330000000003,-0.004697199999999,-0.0013419999999998,0,sub_16
0.0029137999999997,0.0056694000000012,-0.0034945999999998,0.0010660000000003,-0.004481199999999,-0.0011361999999998,0,sub_16
0.0010107999999998,0.0019280000000012,-0.0040389999999998,-0.0002075999999996,-0.002985399999999,-0.0011469999999998,0,sub_16
-0.0004214000000001,-0.0006467999999987,-0.0042679999999998,-0.0012667999999996,-0.000852799999999,-0.0007297999999998,0,sub_16
-0.0012514000000001,-0.0023717999999987,-0.0043449999999998,-0.0023241999999996,0.0010628000000009,-0.0003119999999998,0,sub_16
-0.0016824000000001,-0.0032797999999986,-0.0046483999999998,-0.0027441999999996,0.0025492000000009,0.0003244000000001,0,sub_16
-0.0012298000000001,-0.0021031999999987,-0.0041377999999998,-0.0029573999999996,0.0029678000000009,0.0013908000000001,0,sub_16
-0.0003720000000001,0.0008068000000012,-0.0037783999999998,-0.0023163999999996,0.0025354000000009,0.0013962000000001,0,sub_16
0.0010723999999998,0.0033588000000012,-0.0030787999999998,-0.0008237999999996,0.0006128000000009,0.0003410000000001,0,sub_16
0.0024821999999998,0.0057712000000012,-0.0028731999999998,0.0010928000000003,-0.001094999999999,-0.0004979999999998,0,sub_16
0.0040261999999998,0.0080110000000012,-0.0028923999999998,0.0025836000000003,-0.002588199999999,-0.0013401999999998,0,sub_16
0.0052327999999998,0.0098562000000012,-0.0031931999999998,0.0038656000000003,-0.003651999999999,-0.0028253999999998,0,sub_16
0.0052719999999998,0.0096622000000012,-0.0032347999999998,0.0040810000000003,-0.003861999999999,-0.0032507999999998,0,sub_16
0.0055767999999997,0.0099276000000012,-0.0034285999999998,0.0040830000000003,-0.003222399999999,-0.0028241999999998,0,sub_16
0.0046345999999997,0.0089744000000012,-0.0032159999999998,0.0028086000000003,-0.002150599999999,-0.0028343999999998,0,sub_16
0.0038053999999997,0.0075092000000012,-0.0027211999999999,0.0013170000000003,-0.001718199999999,-0.0026315999999998,0,sub_16
0.0025717999999998,0.0055664000000012,-0.0027799999999999,3.500000000038004e-05,-0.001289999999999,-0.0015725999999998,0,sub_16
0.0019481999999998,0.0037390000000012,-0.0026197999999999,-0.0008221999999996,-0.001290599999999,-0.0007239999999998,0,sub_16
0.0010267999999998,0.0015472000000012,-0.0028707999999999,-0.0021041999999996,-0.000863599999999,0.0001212000000001,0,sub_16
0.0010267999999998,0.0006772000000012,-0.0032149999999999,-0.0023203999999996,-0.000228799999999,0.0014008000000001,0,sub_16
0.0010121999999998,0.0003162000000012,-0.0033227999999999,-0.0023247999999996,0.0006298000000009,0.0024748000000001,0,sub_16
0.0014447999999998,0.0012060000000012,-0.0031265999999999,-0.0019023999999996,0.0012748000000009,0.0033384000000001,0,sub_16
0.0021263999999998,0.0022422000000012,-0.0031937999999999,-0.0014781999999996,0.0017092000000009,0.0035614000000001,0,sub_16
0.0029595999999998,0.0041128000000012,-0.0031611999999998,-0.0006281999999996,0.0015048000000009,0.0033608000000001,0,sub_16
0.0031861999999998,0.0051080000000012,-0.0027095999999998,0.0002208000000003,0.0008750000000009,0.0029472,0,sub_16
0.0034195999999998,0.0061208000000012,-0.0028669999999998,0.0010752000000003,0.0002362000000009,0.0020994,0,sub_16
0.0038941999999998,0.0060140000000012,-0.0029479999999998,0.0019334000000003,0.0002374000000009,0.0010372,0,sub_16
0.0041225999999998,0.0058638000000012,-0.0028959999999998,0.0025764000000003,0.0006622000000009,0.0008274,0,sub_16
0.0037571999999997,0.0058752000000012,-0.0030061999999998,0.0023614000000003,0.0017404000000009,0.0010438000000001,0,sub_16
0.0035295999999997,0.0056514000000012,-0.0031607999999998,0.0015054000000003,0.0028200000000009,0.0014692000000001,0,sub_16
0.0032367999999998,0.0054024000000012,-0.0030375999999999,6.400000000379886e-06,0.0034750000000009,0.0021044000000001,0,sub_16
0.0026973999999998,0.0052188000000012,-0.0030201999999999,-0.0014935999999996,0.0037046000000009,0.0025264000000001,0,sub_16
0.0022487999999997,0.0052098000000012,-0.0035377999999999,-0.0032049999999996,0.0041488000000009,0.0027332000000001,0,sub_16
0.0026691999999998,0.0047182000000012,-0.0030349999999999,-0.0042727999999996,0.0039394000000009,0.0027260000000001,0,sub_16
0.0027039999999998,0.0042940000000012,-0.0027881999999998,-0.0049157999999996,0.0037268000000009,0.0031490000000001,0,sub_16
0.0023587999999998,0.0041290000000012,-0.0029853999999998,-0.0051281999999996,0.0043650000000009,0.0035740000000001,0,sub_16
0.0023693999999998,0.0035142000000012,-0.0031401999999998,-0.0051319999999996,0.0048014000000009,0.0037926000000001,0,sub_16
0.0027277999999998,0.0029346000000012,-0.0031155999999998,-0.0036403999999996,0.0052342000000009,0.0035942000000001,0,sub_16
0.0022005999999998,0.0026782000000012,-0.0034091999999998,-0.0017219999999996,0.0056656000000009,0.0033990000000001,0,sub_16
0.0018635999999998,0.0031532000000012,-0.0035721999999999,-0.0006589999999996,0.0050372000000009,0.0025582000000001,0,sub_16
0.0020685999999998,0.0041962000000012,-0.0032605999999999,0.0006126000000003,0.0031306000000009,0.0015068000000001,0,sub_16
0.0021501999999998,0.0049646000000012,-0.0034689999999999,0.0014642000000003,0.0016404000000009,0.0004464000000001,0,sub_16
0.0021375999999998,0.0057556000000012,-0.0035651999999999,0.0014642000000003,0.0010038000000009,-0.0001935999999998,0,sub_16
0.0023377999999998,0.0059570000000012,-0.0037993999999999,0.0012538000000003,0.0010070000000009,-0.0008359999999998,0,sub_16
0.0030881999999998,0.0057824000000012,-0.0035451999999999,0.0012534000000003,0.0020824000000009,-0.0010433999999998,0,sub_16
0.0031179999999998,0.0046628000000012,-0.0037129999999999,0.0003994000000003,0.0037972000000009,-0.0006167999999998,0,sub_16
0.0029237999999998,0.0047472000000012,-0.0036017999999999,-0.0013117999999996,0.0050874000000009,0.0002318000000001,0,sub_16
0.0027303999999998,0.0045360000000012,-0.0029941999999999,-0.0028133999999996,0.0053124000000009,0.0008694,0,sub_16
0.0025673999999998,0.0045256000000012,-0.0029343999999999,-0.0038921999999996,0.0048960000000009,0.0017244,0,sub_16
0.0023679999999998,0.0040406000000012,-0.0035543999999999,-0.0045409999999996,0.0038296000000009,0.0025758,0,sub_16
0.0026205999999998,0.0039652000000012,-0.0029929999999999,-0.0043323999999996,0.0027636000000008,0.0025786,0,sub_16
0.0029447999999998,0.0036698000000012,-0.0024923999999999,-0.0032683999999996,0.0021208000000008,0.0025868000000001,0,sub_16
0.0027473999999998,0.0037448000000012,-0.0024149999999999,-0.0022055999999996,0.0021232000000008,0.0028112000000001,0,sub_16
0.0027407999999998,0.0041736000000012,-0.0021485999999999,-0.0015675999999996,0.0021288000000008,0.0026054000000001,0,sub_16
0.0026259999999998,0.0045360000000012,-0.0019733999999998,-0.0009283999999996,0.0021352000000009,0.0021860000000001,0,sub_16
0.0026557999999997,0.0045014000000012,-0.0026597999999998,-0.0011417999999996,0.0023578000000009,0.0017604000000001,0,sub_16
0.0023531999999997,0.0046034000000012,-0.0029285999999998,-0.0007161999999996,0.0023650000000009,0.0013394000000001,0,sub_16
0.0021979999999998,0.0042704000000012,-0.0028405999999998,-0.0002865999999996,0.0019418000000009,0.0002748000000001,0,sub_16
0.0024625999999998,0.0039208000000012,-0.0032541999999998,0.0001430000000003,0.0019428000000009,-0.0003631999999998,0,sub_16
0.0029653999999997,0.0037578000000012,-0.0028899999999999,0.0005734000000003,0.0025814000000009,-0.0005747999999998,0,sub_16
0.0034549999999998,0.0036830000000012,-0.0029517999999999,0.0010000000000003,0.0032164000000009,6.820000000014419e-05,0,sub_16
0.0034725999999998,0.0031518000000012,-0.0029439999999999,0.0003548000000003,0.0036416000000009,0.0009164000000001,0,sub_16
0.0036125999999998,0.0035250000000012,-0.0030703999999999,-0.0005075999999996,0.0036396000000009,0.0021908000000001,0,sub_16
0.0033651999999998,0.0035138000000012,-0.0023057999999999,-0.0017975999999996,0.0032140000000009,0.0032492000000001,0,sub_16
0.0032021999999998,0.0035784000000012,-0.0025835999999999,-0.0030857999999996,0.0027900000000009,0.0038802000000001,0,sub_16
0.0028203999999998,0.0038834000000012,-0.0022675999999999,-0.0039453999999996,0.0023664000000009,0.0040870000000001,0,sub_16
0.0030305999999998,0.0044292000000012,-0.0017773999999998,-0.0039433999999996,0.0027924000000009,0.0040864000000001,0,sub_16
0.0034505999999998,0.0043894000000012,-0.0017839999999998,-0.0043653999999996,0.0036470000000009,0.0038686,0,sub_16
0.0036413999999998,0.0046248000000012,-0.0023387999999998,-0.0039319999999996,0.0047124000000009,0.0034430000000001,0,sub_16
0.0038021999999998,0.0046720000000012,-0.0024329999999998,-0.0026419999999996,0.0049176000000009,0.0023762000000001,0,sub_16
0.0034785999999998,0.0043850000000012,-0.0023217999999998,-0.0009281999999996,0.0046944000000009,0.0015264000000001,0,sub_16
0.0030947999999998,0.0049758000000012,-0.0027831999999998,-0.0002869999999996,0.0034088000000009,0.0008840000000001,0,sub_16
0.0024969999999998,0.0053280000000012,-0.0029627999999998,0.0005676000000003,0.0019102000000009,2.980000000012417e-05,0,sub_16
0.0024485999999998,0.0050524000000012,-0.0030141999999998,0.0014240000000003,0.0006256000000009,-0.0010383999999998,0,sub_16
0.0024725999999998,0.0047670000000012,-0.0032937999999999,0.0016402000000003,0.0008396000000009,-0.0014645999999998,0,sub_16
0.0030211999999998,0.0044644000000012,-0.0033475999999999,0.0012164000000003,0.0012680000000009,-0.0016817999999998,0,sub_16
0.0033005999999998,0.0037280000000012,-0.0032165999999998,0.0007966000000003,0.0016852000000009,-0.0021189999999998,0,sub_16
0.0036835999999998,0.0035472000000012,-0.0032357999999998,0.0005876000000003,0.0018870000000009,-0.0021271999999998,0,sub_16
0.0035735999999998,0.0034478000000012,-0.0030735999999998,-0.0004769999999996,0.0018778000000009,-0.0019273999999998,0,sub_16
0.0034923999999998,0.0039742000000012,-0.0029343999999998,-0.0015491999999996,0.0005886000000009,-0.0012987999999998,0,sub_16
0.0034597999999998,0.0047438000000012,-0.0033973999999998,-0.0019803999999996,-0.000489799999999,-0.0006659999999998,0,sub_16
0.0038497999999998,0.0049616000000012,-0.0031383999999998,-0.0015621999999996,-0.001347599999999,0.0004062000000001,0,sub_16
0.0043489999999998,0.0043726000000012,-0.0025469999999998,-0.0011441999999996,-0.002629999999999,0.0010518000000001,0,sub_16
0.0041391999999998,0.0043954000000012,-0.0023635999999999,-0.0005097999999996,-0.003273999999999,0.0016980000000001,0,sub_16
0.0036495999999998,0.0041688000000012,-0.0025563999999999,0.0001304000000003,-0.003063999999999,0.0019158000000001,0,sub_16
0.0034147999999998,0.0038874000000012,-0.0023123999999998,0.0007790000000003,-0.003292199999999,0.0014846000000001,0,sub_16
0.0029337999999998,0.0037210000000012,-0.0024473999999998,0.0012152000000003,-0.003731199999999,0.0006250000000001,0,sub_16
0.0024715999999998,0.0037022000000012,-0.0031853999999998,0.0018676000000003,-0.003319399999999,-2.059999999987558e-05,0,sub_16
0.0027695999999997,0.0035040000000012,-0.0032189999999998,0.0025172000000003,-0.003546799999999,-0.0006653999999998,0,sub_16
0.0031539999999997,0.0035610000000012,-0.0029379999999998,0.0027410000000003,-0.003983999999999,-0.0017401999999998,0,sub_16
0.0031985999999997,0.0033076000000012,-0.0029413999999998,0.0029584000000002,-0.003769199999999,-0.0023797999999998,0,sub_16
0.0035709999999998,0.0033470000000012,-0.0035959999999998,0.0029642000000002,-0.002915199999999,-0.0028081999999998,0,sub_16
0.0033543999999997,0.0034766000000012,-0.0036425999999998,0.0027538000000002,-0.002487599999999,-0.0030239999999998,0,sub_16
0.0033899999999997,0.0034910000000012,-0.0033983999999998,0.0023322000000002,-0.002076999999999,-0.0026083999999998,0,sub_16
0.0031867999999997,0.0033744000000012,-0.0029911999999998,0.0016942000000003,-0.001880399999999,-0.0017665999999998,0,sub_16
0.0033301999999997,0.0038790000000012,-0.0031569999999998,0.0006276000000003,-0.002320599999999,-0.0011407999999998,0,sub_16
0.0032883999999997,0.0040406000000012,-0.0029077999999998,-1.1399999999640127e-05,-0.002761599999999,-0.0007255999999998,0,sub_16
0.0036449999999997,0.0041810000000012,-0.0023777999999999,-0.0006493999999996,-0.002989399999999,-0.0003105999999998,0,sub_16
0.0037551999999997,0.0040060000000012,-0.0017383999999999,-0.0008607999999996,-0.002774799999999,-0.0005259999999998,0,sub_16
0.0037069999999998,0.0041814000000012,-0.0016151999999999,-0.0006463999999996,-0.002562599999999,-0.0005247999999998,0,sub_16
0.0035263999999998,0.0035092000000012,-0.0013795999999999,6.6000000003598335e-06,-0.001730399999999,-0.0005323999999998,0,sub_16
0.0030811999999998,0.0027454000000012,-0.0016015999999999,0.0010856000000003,-0.001324799999999,-0.0007501999999998,0,sub_16
0.0029649999999998,0.0024292000000012,-0.0020309999999999,0.0023770000000003,-0.000920799999999,-0.0007527999999998,0,sub_16
0.0026581999999998,0.0030014000000012,-0.0022841999999999,0.0028118000000003,-0.001152999999999,-0.0007605999999998,0,sub_16
0.0022561999999998,0.0034306000000012,-0.0026135999999999,0.0032486000000003,-0.001595599999999,-0.0014089999999998,0,sub_16
0.0019075999999998,0.0041486000000012,-0.0022277999999998,0.0038898000000003,-0.002445599999999,-0.0024717999999998,0,sub_16
0.0021555999999998,0.0047488000000012,-0.0024193999999998,0.0032506000000003,-0.002654599999999,-0.0029031999999998,0,sub_16
0.0023101999999998,0.0045182000000012,-0.0022015999999998,0.0024000000000003,-0.002436799999999,-0.0033367999999998,0,sub_16
0.0025397999999998,0.0038880000000012,-0.0029507999999998,0.0019752000000003,-0.002009199999999,-0.0033403999999998,0,sub_16
0.0024807999999998,0.0032252000000012,-0.0030293999999998,0.0011294000000003,-0.001597999999999,-0.0031391999999998,0,sub_16
0.0025133999999998,0.0033820000000012,-0.0031775999999999,-0.0003573999999996,-0.000760999999999,-0.0023019999999998,0,sub_16
0.0023835999999998,0.0033298000000012,-0.0027159999999999,-0.0012049999999996,-0.000563599999999,-0.0018867999999998,0,sub_16
0.0026519999999998,0.0039444000000012,-0.0029887999999999,-0.0014143999999996,-0.000794599999999,-0.0014665999999998,0,sub_16
0.0023795999999998,0.0043832000000012,-0.0024737999999999,-0.0014093999999996,-0.001237599999999,-0.0014719999999998,0,sub_16
0.0028513999999998,0.0044810000000012,-0.0022271999999999,-0.0005605999999996,-0.002093599999999,-0.0012513999999998,0,sub_16
0.0027149999999998,0.0035656000000012,-0.0029581999999999,0.0005042000000003,-0.002947799999999,-0.0016699999999998,0,sub_16
0.0028625999999998,0.0033086000000012,-0.0033189999999999,0.0013576000000003,-0.002950799999999,-0.0016639999999998,0,sub_16
