userAcceleration.x,userAcceleration.y,userAcceleration.z,rotationRate.x,rotationRate.y,rotationRate.z,label,subject
-0.0089068000000001,-0.0354629999999987,-0.0005727999999999,0.0107512000000004,0.0136174000000008,0.0204052,0,sub_5
-0.0121670000000001,-0.0339365999999987,-0.0021021999999999,0.0113472000000004,0.0040268000000008,0.0206354,0,sub_5
-0.0105070000000001,-0.0320345999999987,-0.0009895999999999,0.0119642000000004,-0.0036351999999991,0.0180858,0,sub_5
-0.0062076000000001,-0.0311779999999987,0.001896,0.0104696000000004,-0.0102091999999991,0.0116746,0,sub_5
-0.0014940000000001,-0.0331453999999987,0.0060408,0.0085550000000004,-0.0180487999999991,0.0024846,0,sub_5
0.0035355999999997,-0.0357165999999987,0.0084678,0.0098650000000004,-0.0205731999999991,-0.0066895999999999,0,sub_5
0.0091305999999997,-0.0372875999999988,0.0112942,0.0120476000000004,-0.0175661999999991,-0.0145829999999999,0,sub_5
0.0148001999999997,-0.0407369999999987,0.0131074,0.0138092000000004,-0.0111575999999991,-0.0203471999999999,0,sub_5
0.0178063999999998,-0.0451459999999987,0.0133672,0.0140552000000004,-0.0037021999999991,-0.0201413999999999,0,sub_5
0.0214821999999997,-0.0495281999999987,0.0129366,0.0146982000000004,0.0028762000000008,-0.0141631999999999,0,sub_5
0.0241731999999998,-0.0491041999999987,0.0099914,0.0089400000000004,0.0122356000000008,-0.0054559999999999,0,sub_5
0.0246491999999998,-0.0509323999999987,0.0025014,0.0091276000000004,0.0149704000000008,0.0030874,0,sub_5
0.0087869999999998,-0.0482573999999988,0.0070364,0.0242502000000004,0.0136204000000008,0.0078948,0,sub_5
-0.0045992000000001,-0.0412807999999988,0.0174388,0.0396302000000004,0.0144308000000008,0.0050102,0,sub_5
-0.0075192000000001,-0.0387469999999987,0.0230882,0.0354096000000004,0.0219146000000008,0.00198,0,sub_5
-0.0050282000000001,-0.0377359999999987,0.0198494,0.0317726000000004,0.0202212000000008,0.002384,0,sub_5
-0.0030998000000001,-0.0343773999999987,0.0200268,0.0266440000000004,0.0189590000000008,0.0027772,0,sub_5
0.0073197999999998,-0.0357043999999987,0.0132162,0.0110774000000004,0.0209318000000008,0.0024524,0,sub_5
0.0162581999999998,-0.0420345999999988,0.0009162,-0.0034443999999995,0.0216080000000008,0.0057684,0,sub_5
0.0137839999999998,-0.0403075999999987,-0.0051717999999999,0.0016316000000004,0.0128498000000008,0.007097,0,sub_5
0.0049165999999998,-0.0395433999999988,0.0014978,0.0092892000000004,0.0036770000000008,0.0033166,0,sub_5
-0.0020504000000001,-0.0399467999999988,0.0079206,0.0103684000000004,0.0015624000000008,-0.0015869999999999,0,sub_5
-0.0023314000000001,-0.0391947999999987,0.0106156,0.0075976000000004,0.0005136000000008,-0.0033141999999999,0,sub_5
-4.420000000016251e-05,-0.0376889999999987,0.011302,0.0028920000000004,-0.0024509999999991,-0.0037705999999999,0,sub_5
0.0029631999999998,-0.0392877999999988,0.0106568,-0.0009467999999995,-0.0028603999999992,-0.0046513999999999,0,sub_5
0.0057253999999998,-0.0410401999999987,0.0093858,-0.0011391999999995,0.0011910000000007,-0.0052987999999999,0,sub_5
0.0082557999999998,-0.0426773999999987,0.0086168,0.0003582000000005,0.0022502000000007,-0.0050759999999999,0,sub_5
0.0097959999999997,-0.0436929999999987,0.007965,0.0020478000000005,-0.0003173999999991,-0.0037789999999999,0,sub_5
0.0081571999999997,-0.0434191999999987,0.0099786,0.0056646000000005,-0.0018247999999991,-0.0028971999999999,0,sub_5
0.0060075999999997,-0.0420021999999987,0.0103398,0.0080194000000004,-0.0001283999999991,-0.0028829999999999,0,sub_5
0.0050075999999997,-0.0418859999999987,0.0101698,0.0084548000000004,0.0011508000000008,-0.0035225999999999,0,sub_5
0.0041883999999997,-0.0409721999999987,0.0099164,0.0097400000000004,0.0022116000000008,-0.0035149999999998,0,sub_5
0.0039667999999997,-0.0407373999999987,0.0094524,0.0099610000000004,0.0049762000000008,-0.0024487999999998,0,sub_5
0.0040163999999997,-0.0410961999999987,0.008412,0.0095314000000004,0.0064604000000008,-0.0003173999999998,0,sub_5
0.0033829999999998,-0.0420595999999987,0.0094336,0.0099504000000004,0.0079374000000008,0.0028884000000001,0,sub_5
0.0029085999999998,-0.0417709999999987,0.0099936,0.0105858000000004,0.0104774000000008,0.0065216,0,sub_5
0.0024195999999998,-0.0407307999999987,0.0083282,0.0082376000000004,0.0134556000000008,0.009706,0,sub_5
0.0038391999999997,-0.0399757999999988,0.006079,0.0052476000000004,0.0134636000000008,0.010326,0,sub_5
0.0059647999999997,-0.0395529999999988,0.0056244,0.0033204000000004,0.0113424000000008,0.0096744,0,sub_5
0.0074663999999997,-0.0392943999999988,0.0071554,0.0030994000000004,0.0073046000000008,0.0073278,0,sub_5
0.0093665999999997,-0.0399653999999987,0.0099018,0.0035260000000004,0.0047568000000008,0.0047702,0,sub_5
0.0112897999999997,-0.0431597999999987,0.0132664,0.0060942000000004,0.0047546000000008,0.003079,0,sub_5
0.0110967999999998,-0.0436977999999987,0.0154204,0.0101522000000004,0.0060170000000008,0.003533,0,sub_5
0.0099099999999998,-0.0433981999999987,0.0151818,0.0137912000000004,0.0087732000000008,0.0037686,0,sub_5
0.0094769999999997,-0.0417535999999987,0.0121336,0.0146542000000004,0.0106884000000008,0.0035586,0,sub_5
0.0066017999999997,-0.0391115999999987,0.0067052,0.0131636000000004,0.0106960000000008,0.0029074,0,sub_5
0.0028669999999997,-0.0360779999999987,0.002685,0.0088914000000004,0.0081602000000008,0.0013852,0,sub_5
-0.0013584000000002,-0.0362753999999987,0.0015634,0.0039780000000004,0.0049892000000008,-0.0005677999999999,0,sub_5
-0.0038198000000002,-0.0377429999999987,0.0018604,0.0007658000000004,0.0005338000000008,-0.0025073999999999,0,sub_5
-0.0064036000000001,-0.0401335999999987,0.0029298,-0.0001019999999995,-0.0041443999999991,-0.0040029999999998,0,sub_5
-0.0047138000000001,-0.0430413999999987,0.0061846,0.0020134000000004,-0.0098973999999991,-0.0056899999999998,0,sub_5
-0.0009598000000001,-0.0447089999999987,0.0091592,0.0071132000000004,-0.0160877999999991,-0.0071417999999998,0,sub_5
0.0046589999999998,-0.0449105999999987,0.0108142,0.0117930000000004,-0.0201487999999991,-0.0079585999999998,0,sub_5
0.0086753999999998,-0.0438315999999987,0.0117042,0.0139230000000004,-0.0210083999999991,-0.0079425999999998,0,sub_5
0.0130823999999998,-0.0428371999999987,0.012477,0.0137172000000004,-0.0188787999999991,-0.0075193999999999,0,sub_5
0.0141499999999998,-0.0419375999999987,0.0127834,0.0118104000000004,-0.0148283999999991,-0.0064697999999999,0,sub_5
0.0137837999999998,-0.0411799999999987,0.012554,0.0086318000000004,-0.0090681999999991,-0.0056447999999999,0,sub_5
0.0113411999999998,-0.0414325999999987,0.0122484,0.0054542000000004,-0.0037315999999991,-0.0054599999999999,0,sub_5
0.0089379999999998,-0.0422833999999987,0.011234,0.0035538000000004,0.0009614000000008,-0.0052655999999999,0,sub_5
0.0058989999999998,-0.0421195999999987,0.010127,0.0031454000000004,0.0045866000000008,-0.0057003999999999,0,sub_5
0.0037591999999998,-0.0416549999999987,0.0082238,0.0029386000000004,0.0056544000000008,-0.0061303999999999,0,sub_5
0.0022979999999998,-0.0412525999999987,0.006736,0.0033702000000004,0.0065060000000008,-0.0063421999999999,0,sub_5
0.0015703999999998,-0.0416571999999987,0.0048612,0.0046552000000004,0.0075668000000008,-0.0063345999999999,0,sub_5
0.0007871999999998,-0.0428161999999987,0.0044812,0.0052848000000004,0.0056454000000008,-0.0059005999999999,0,sub_5
0.0006419999999998,-0.0450445999999988,0.005107,0.0065334000000004,0.0007322000000008,-0.0037491999999999,0,sub_5
0.0019487999999998,-0.0473861999999987,0.0081116,0.0097082000000004,-0.0026971999999991,-0.0013725999999999,0,sub_5
0.0034413999999998,-0.0491581999999987,0.011185,0.0128762000000004,-0.0067691999999991,0.0018594,0,sub_5
0.0067189999999998,-0.0491339999999988,0.0127926,0.0156108000000004,-0.0114821999999991,0.0059438,0,sub_5
0.0105255999999997,-0.0469313999999987,0.0143296,0.0187884000000004,-0.0129991999999991,0.0096,0,sub_5
0.0136987999999997,-0.0440473999999987,0.0148998,0.0204906000000004,-0.0113119999999991,0.012387,0,sub_5
0.0155521999999997,-0.0409775999999987,0.012679,0.0192208000000004,-0.0079029999999991,0.013442,0,sub_5
0.0165363999999997,-0.0386255999999987,0.0106758,0.0166834000000004,-0.0034173999999991,0.0127776,0,sub_5
0.0148887999999997,-0.0371105999999987,0.0105614,0.0133030000000004,0.0021416000000008,0.010824,0,sub_5
0.0115133999999997,-0.0377127999999987,0.0093466,0.0084348000000004,0.0081352000000008,0.008005,0,sub_5
0.0067889999999998,-0.0392391999999987,0.0082028,0.0035626000000004,0.0137012000000008,0.0056138,0,sub_5
0.0017603999999998,-0.0408049999999987,0.0081798,-0.0002569999999995,0.0173408000000008,0.0045142,0,sub_5
-0.0030974000000001,-0.0423997999999987,0.007466,-0.0023859999999995,0.0182014000000008,0.0042846,0,sub_5
-0.0054214000000001,-0.0440801999999987,0.0066972,-0.0032443999999995,0.0169268000000008,0.0040666,0,sub_5
-0.0059422000000001,-0.0444935999999987,0.0068216,-0.0017689999999995,0.0135102000000008,0.0047222,0,sub_5
-0.0042136000000001,-0.0443963999999987,0.0066872,0.0007704000000004,0.0086018000000008,0.0045326,0,sub_5
-0.0016114000000001,-0.0443179999999987,0.0074552,0.0041652000000004,0.0036922000000008,0.0039216,0,sub_5
0.0014611999999998,-0.0441831999999987,0.009011,0.0069246000000004,-0.0001499999999991,0.0033048,0,sub_5
0.0036097999999998,-0.0433115999999987,0.0097548,0.0086182000000004,-0.0035629999999991,0.0028936,0,sub_5
0.0061653999999998,-0.0432949999999987,0.0103994,0.0086104000000004,-0.0059039999999991,0.0022556,0,sub_5
0.0080721999999998,-0.0432971999999987,0.0119382,0.0079684000000004,-0.0069643999999991,0.0016116,0,sub_5
0.0091569999999998,-0.0430717999999987,0.0120062,0.0066902000000004,-0.0067459999999991,0.0013888,0,sub_5
0.0096123999999998,-0.0431705999999987,0.0117692,0.0056310000000004,-0.0052499999999991,0.001166,0,sub_5
0.0094659999999998,-0.0438011999999988,0.0122156,0.0045756000000004,-0.0026895999999991,0.0011554,0,sub_5
0.0087263999999997,-0.0438711999999987,0.0120858,0.0045824000000004,-0.0005615999999991,0.0017936,0,sub_5
0.0079307999999997,-0.0439891999999987,0.0110822,0.0052292000000004,0.0015642000000008,0.0024362,0,sub_5
0.0064339999999997,-0.0444583999999987,0.0109254,0.0063008000000004,0.0028380000000008,0.0026558,0,sub_5
0.0051597999999997,-0.0447627999999987,0.0104862,0.0069372000000004,0.0030446000000008,0.0037282,0,sub_5
0.0050639999999997,-0.0445535999999987,0.009903,0.0079974000000004,0.0028226000000008,0.0050178,0,sub_5
0.0051003999999998,-0.0446277999999987,0.009955,0.0079936000000004,0.0026070000000008,0.005659,0,sub_5
0.0046501999999998,-0.0444489999999987,0.0106304,0.0081994000000004,0.0017506000000008,0.0065162,0,sub_5
0.0048445999999997,-0.0443303999999987,0.0114438,0.0079794000000004,0.0015332000000008,0.0077968,0,sub_5
0.0057603999999997,-0.0442381999999987,0.0114404,0.0073412000000004,0.0030224000000008,0.0088586,0,sub_5
0.0056799999999997,-0.0445321999999987,0.0114336,0.0071288000000004,0.0030240000000008,0.0086434,0,sub_5
0.0054917999999997,-0.0444683999999987,0.0110648,0.0077736000000004,0.0032382000000008,0.007793,0,sub_5
0.0060677999999997,-0.0447081999999987,0.010753,0.0071420000000004,0.0043090000000008,0.0069326,0,sub_5
0.0070447999999997,-0.0451701999999987,0.0101506,0.0058704000000004,0.0051698000000008,0.0058544,0,sub_5
0.0070759999999997,-0.0452119999999987,0.0102446,0.0050216000000004,0.0043284000000008,0.0039268,0,sub_5
0.0069311999999997,-0.0449937999999987,0.0104386,0.0043902000000004,0.0053994000000008,0.0030664,0,sub_5
0.0067123999999997,-0.0450779999999987,0.010709,0.0037550000000004,0.0060426000000008,0.0026338,0,sub_5
0.0063245999999998,-0.0453755999999987,0.0102746,0.0039704000000004,0.0060436000000008,0.002208,0,sub_5
0.0059019999999998,-0.0453065999999987,0.010577,0.0046066000000004,0.0049770000000008,0.002,0,sub_5
0.0060197999999998,-0.0455543999999987,0.0108024,0.0054534000000004,0.0041192000000008,0.0026478,0,sub_5
0.0057453999999997,-0.0457217999999987,0.0106412,0.0056600000000004,0.0034758000000008,0.0035048,0,sub_5
0.0056875999999997,-0.0459589999999987,0.0101144,0.0058676000000004,0.0032576000000008,0.0045748,0,sub_5
0.0056819999999997,-0.0458641999999987,0.0101662,0.0058588000000004,0.0024012000000008,0.0056442,0,sub_5
0.0058587999999997,-0.0457789999999987,0.009748,0.0067074000000004,0.0023940000000008,0.0067184,0,sub_5
0.0054581999999997,-0.0451647999999988,0.0099166,0.0069198000000004,0.0026046000000008,0.007147,0,sub_5
0.0059929999999997,-0.0449835999999987,0.0098326,0.0069178000000004,0.0019664000000008,0.006934,0,sub_5
0.0066169999999997,-0.0447023999999987,0.0102292,0.0067034000000004,0.0011176000000008,0.0062926,0,sub_5
0.0072137999999997,-0.0444107999999987,0.0105182,0.0060662000000004,0.0009102000000008,0.0054338,0,sub_5
0.0070115999999997,-0.0442551999999987,0.010241,0.0054310000000004,0.0007044000000008,0.0041478,0,sub_5
0.0072497999999997,-0.0449559999999987,0.0098528,0.0052186000000004,6.940000000087002e-05,0.0032926,0,sub_5
0.0072479999999997,-0.0455653999999987,0.0106824,0.0050062000000004,-0.0005655999999991,0.0024374,0,sub_5
0.0069371999999997,-0.0455975999999987,0.0108462,0.0056454000000004,-0.0007809999999991,0.0024422,0,sub_5
0.0068667999999998,-0.0458809999999987,0.0107004,0.0060702000000004,-0.0012085999999991,0.0024456,0,sub_5
0.0077183999999998,-0.0462019999999987,0.011264,0.0062806000000004,-0.0020605999999991,0.0022346,0,sub_5
0.0080463999999998,-0.0462085999999987,0.011811,0.0069236000000004,-0.0022725999999991,0.0013846000000001,0,sub_5
0.0082975999999998,-0.0453605999999987,0.011153,0.0079914000000004,-0.0024877999999991,0.0009650000000001,0,sub_5
0.0089421999999998,-0.0446271999999987,0.0107668,0.0073552000000004,-0.0026941999999991,-0.0001073999999998,0,sub_5
0.0081675999999997,-0.0443421999999987,0.0107084,0.0073630000000004,-0.0026873999999991,-0.0018163999999998,0,sub_5
0.0061667999999997,-0.0435803999999987,0.0096432,0.0077984000000004,-0.0020445999999991,-0.0030961999999998,0,sub_5
0.0044729999999997,-0.0435765999999987,0.0088484,0.0073764000000004,-0.0016143999999991,-0.0037405999999999,0,sub_5
0.0036939999999997,-0.0443879999999987,0.0089884,0.0071640000000004,-0.0024615999999991,-0.0048091999999999,0,sub_5
0.0023877999999997,-0.0455607999999987,0.0092036,0.0082288000000004,-0.0043769999999991,-0.0062947999999999,0,sub_5
0.0027851999999998,-0.0464459999999987,0.0096986,0.0090812000000004,-0.0052295999999991,-0.0069287999999999,0,sub_5
0.0043799999999998,-0.0473123999999988,0.0107008,0.0092898000000004,-0.0067199999999991,-0.0073525999999999,0,sub_5
0.0058401999999998,-0.0473543999999988,0.0111474,0.0092870000000004,-0.0079957999999991,-0.0079917999999999,0,sub_5
0.0067203999999998,-0.0468211999999987,0.0112486,0.0090766000000004,-0.0075679999999991,-0.0082073999999999,0,sub_5
0.0073743999999997,-0.0465983999999987,0.011499,0.0082260000000004,-0.0062891999999991,-0.0075739999999999,0,sub_5
0.0079807999999997,-0.0460571999999987,0.0112364,0.0067314000000004,-0.0060725999999991,-0.0071573999999998,0,sub_5
0.0082909999999997,-0.0462725999999987,0.0111598,0.0060932000000004,-0.0054321999999991,-0.0069489999999998,0,sub_5
0.0082263999999997,-0.0469963999999987,0.0114534,0.0067334000000004,-0.0052221999999991,-0.0067311999999998,0,sub_5
0.0076687999999997,-0.0475585999999987,0.01171,0.0071610000000004,-0.0045863999999991,-0.0063017999999998,0,sub_5
0.0076033999999998,-0.0478971999999987,0.011556,0.0075898000000004,-0.0033129999999991,-0.0054459999999998,0,sub_5
0.0070499999999997,-0.0481287999999987,0.0114468,0.0084434000000004,-0.0022549999999991,-0.0043731999999998,0,sub_5
0.0061819999999997,-0.0480503999999987,0.010934,0.0088692000000004,-0.0014083999999991,-0.0033031999999999,0,sub_5
0.0061449999999997,-0.0469629999999987,0.011059,0.0084424000000004,-0.0007701999999991,-0.0026659999999999,0,sub_5
0.0065187999999997,-0.0466637999999987,0.0113534,0.0082282000000004,-0.0009823999999991,-0.0026671999999998,0,sub_5
0.0063097999999997,-0.0463057999999987,0.0109266,0.0080148000000004,-0.0016181999999991,-0.0033087999999998,0,sub_5
0.0059819999999998,-0.0464377999999987,0.0110266,0.0077994000000004,-0.0022557999999991,-0.0035229999999998,0,sub_5
0.0057603999999998,-0.0464913999999987,0.0116598,0.0075870000000004,-0.0024663999999991,-0.0039513999999998,0,sub_5
0.0057667999999998,-0.0466983999999987,0.0113352,0.0075842000000004,-0.0026811999999991,-0.0035239999999998,0,sub_5
0.0058103999999997,-0.0467583999999987,0.0109562,0.0073688000000004,-0.0026821999999991,-0.0030981999999999,0,sub_5
0.0063573999999997,-0.0467535999999987,0.011363,0.0075802000000004,-0.0028967999999991,-0.0028827999999999,0,sub_5
0.0069355999999997,-0.0467257999999987,0.0113016,0.0077966000000004,-0.0026827999999991,-0.0033089999999999,0,sub_5
0.0068879999999997,-0.0467645999999987,0.0114626,0.0077976000000004,-0.0024697999999991,-0.0033093999999999,0,sub_5
0.0066397999999997,-0.0475085999999987,0.0117534,0.0077994000000004,-0.0022559999999991,-0.0035231999999999,0,sub_5
0.0064443999999998,-0.0476989999999987,0.0111276,0.0078034000000004,-0.0018281999999991,-0.0039509999999999,0,sub_5
0.0063283999999997,-0.0477105999999987,0.0113068,0.0080168000000004,-0.0016167999999991,-0.0037359999999999,0,sub_5
0.0066833999999997,-0.0479043999999987,0.011419,0.0078034000000004,-0.0014037999999991,-0.0035239999999999,0,sub_5
0.0070519999999997,-0.0480517999999988,0.0117322,0.0082292000000004,-0.0011939999999991,-0.0030939999999999,0,sub_5
0.0067681999999997,-0.0476895999999987,0.0118966,0.0088742000000004,8.140000000084989e-05,-0.0028775999999999,0,sub_5
0.0065099999999997,-0.0474557999999987,0.012415,0.0088750000000004,0.0013554000000008,-0.0018109999999999,0,sub_5
0.0062917999999998,-0.0479393999999987,0.0119744,0.0088730000000004,0.0013536000000008,-0.0013837999999999,0,sub_5
0.0063669999999998,-0.0475489999999988,0.0122398,0.0097264000000004,0.0017750000000008,-0.0009511999999999,0,sub_5
0.0071679999999998,-0.0468991999999987,0.0119246,0.0099416000000004,0.0019882000000008,-0.0011635999999999,0,sub_5
0.0079429999999998,-0.0468281999999987,0.0118676,0.0090862000000004,0.0013528000000008,-0.0013823999999999,0,sub_5
0.0087681999999997,-0.0473869999999987,0.0121508,0.0088758000000004,0.0011440000000008,-0.0022381999999999,0,sub_5
0.0090319999999997,-0.0473595999999987,0.0122228,0.0082424000000004,0.0024254000000008,-0.0024577999999999,0,sub_5
0.0078831999999997,-0.0474943999999987,0.012083,0.0071794000000004,0.0030690000000008,-0.0026795999999999,0,sub_5
0.0069265999999997,-0.0481485999999987,0.0118186,0.0059002000000004,0.0034988000000008,-0.0024753999999998,0,sub_5
0.0064375999999997,-0.0479611999999987,0.0114156,0.0061116000000004,0.0037086000000008,-0.0018331999999998,0,sub_5
0.0059511999999998,-0.0481915999999987,0.0112928,0.0063220000000004,0.0034930000000008,-0.0014041999999998,0,sub_5
0.0056911999999997,-0.0479005999999987,0.0113494,0.0069592000000004,0.0030638000000008,-0.0011855999999998,0,sub_5
0.0059201999999997,-0.0477515999999987,0.0110984,0.0080222000000004,0.0028446000000008,-0.0005369999999998,0,sub_5
0.0061231999999997,-0.0474951999999987,0.0112894,0.0092996000000004,0.0030498000000008,0.0003262,0,sub_5
0.0064133999999997,-0.0478683999999987,0.0114958,0.0095158000000004,0.0036882000000008,0.000327,0,sub_5
0.0062501999999997,-0.0475079999999987,0.0114656,0.0099398000000004,0.0034720000000008,0.0007576,0,sub_5
0.0062373999999997,-0.0476225999999987,0.011828,0.0097256000000004,0.0034720000000008,0.0009698,0,sub_5
0.0065147999999997,-0.0476745999999987,0.0121992,0.0095122000000004,0.0036848000000008,0.0011818,0,sub_5
0.0067441999999997,-0.0475985999999987,0.012372,0.0090872000000004,0.0036878000000008,0.0007516,0,sub_5
0.0066479999999997,-0.0472745999999987,0.0124896,0.0090892000000004,0.0036894000000008,0.0003242,0,sub_5
0.0073993999999997,-0.0473513999999987,0.0129306,0.0088816000000004,0.0043320000000008,-0.0003189999999999,0,sub_5
0.0076071999999997,-0.0480379999999987,0.0125242,0.0084586000000004,0.0045490000000008,-0.0009631999999999,0,sub_5
0.0070965999999997,-0.0485343999999987,0.0124872,0.0076072000000004,0.0045538000000008,-0.0013965999999999,0,sub_5
0.0066337999999997,-0.0489163999999987,0.0121998,0.0073958000000004,0.0045564000000008,-0.0018253999999999,0,sub_5
0.0062563999999997,-0.0489953999999987,0.0124184,0.0069622000000004,0.0037032000000008,-0.0011863999999999,0,sub_5
0.0057323999999997,-0.0486481999999987,0.0120178,0.0063152000000004,0.0028506000000008,-0.0005487999999999,0,sub_5
0.0057869999999997,-0.0477349999999987,0.011796,0.0056742000000004,0.0026398000000008,-0.0005529999999999,0,sub_5
0.0065803999999997,-0.0472335999999987,0.0111624,0.0043920000000004,0.0017938000000008,-0.0009879999999999,0,sub_5
0.0071529999999998,-0.0476251999999987,0.0122104,0.0028956000000004,0.0011598000000008,-0.0009975999999998,0,sub_5
0.0073621999999998,-0.0486509999999987,0.0137536,0.0031120000000004,0.0011616000000008,-0.0016369999999998,0,sub_5
0.0075531999999998,-0.0495463999999987,0.0149918,0.0035426000000004,0.0022244000000008,-0.0014217999999998,0,sub_5
0.0079833999999998,-0.0509085999999987,0.0158094,0.0048208000000004,0.0026426000000008,-0.0005587999999998,0,sub_5
0.0087071999999998,-0.0511323999999987,0.016317,0.0075984000000004,0.0039094000000008,-0.0001137999999998,0,sub_5
0.0096823999999998,-0.0504801999999987,0.0160202,0.0101646000000004,0.0056032000000008,0.0003292000000001,0,sub_5
0.0103993999999998,-0.0496913999999987,0.0144008,0.0105952000000004,0.0075150000000008,0.001398,0,sub_5
0.0104073999999998,-0.0494409999999987,0.0128542,0.0101742000000004,0.0092194000000008,0.0018202,0,sub_5
0.0095375999999998,-0.0484993999999987,0.0124396,0.0086884000000004,0.0115658000000008,0.0024476,0,sub_5
0.0085125999999998,-0.0487157999999987,0.0124256,0.0071968000000004,0.0128460000000008,0.00329,0,sub_5
0.0072279999999998,-0.0488017999999987,0.0120472,0.0057002000000004,0.0130608000000008,0.0041338,0,sub_5
0.0067617999999998,-0.0484431999999987,0.0118802,0.0050572000000004,0.0122116000000008,0.0039168,0,sub_5
0.0068145999999998,-0.0482635999999987,0.0120982,0.0052648000000004,0.0102958000000008,0.0032798,0,sub_5
0.0065511999999998,-0.0482517999999987,0.0123308,0.0067546000000004,0.0083774000000008,0.0022244,0,sub_5
0.0056379999999998,-0.0484713999999987,0.0122346,0.0076042000000004,0.0068856000000008,0.0015914,0,sub_5
