userAcceleration.x,userAcceleration.y,userAcceleration.z,rotationRate.x,rotationRate.y,rotationRate.z,label,subject
0.0412539999999997,-0.1972239999999988,0.1006522,0.0060884000000004,-0.0033143999999991,-0.0037471999999998,0,sub_5
0.0406815999999997,-0.1981593999999988,0.1012626,0.0054444000000004,-0.0043765999999991,-0.0039639999999998,0,sub_5
0.0399201999999997,-0.1984997999999987,0.1013012,0.0054310000000004,-0.0069347999999991,-0.0035335999999998,0,sub_5
0.0399233999999998,-0.1991777999999988,0.1017716,0.0060576000000004,-0.0084343999999991,-0.0020317999999999,0,sub_5
0.0398181999999997,-0.1986585999999988,0.1019798,0.0079714000000004,-0.0084469999999991,-0.0005229999999999,0,sub_5
0.0394365999999997,-0.1978519999999988,0.1020846,0.0088230000000004,-0.0071783999999991,0.0011906,0,sub_5
0.0397683999999998,-0.1962899999999988,0.10103,0.0088250000000004,-0.0052669999999991,0.0026838,0,sub_5
0.0392803999999998,-0.1948005999999988,0.1004422,0.0088356000000004,-0.0031357999999991,0.0024676,0,sub_5
0.0389507999999998,-0.1933945999999987,0.1002744,0.0082070000000004,-0.0020623999999991,0.0009664,0,sub_5
0.0380569999999998,-0.1937645999999988,0.101007,0.0063076000000004,8.500000000084864e-05,-0.0016133999999999,0,sub_5
0.0380253999999998,-0.1945399999999987,0.1012908,0.0050446000000004,0.0007414000000008,-0.0048277999999999,0,sub_5
0.0377839999999998,-0.1955361999999988,0.1008964,0.0054838000000004,0.0005388000000008,-0.0078155999999999,0,sub_5
0.0378045999999998,-0.1964127999999987,0.1009544,0.0063478000000004,0.0007574000000008,-0.0099463999999998,0,sub_5
0.0372503999999998,-0.1978263999999988,0.1010796,0.0067832000000004,0.0009758000000008,-0.0116527999999998,0,sub_5
0.0377927999999998,-0.1987987999999988,0.101028,0.0076300000000004,-0.0005185999999991,-0.0116447999999998,0,sub_5
0.0382803999999998,-0.1990843999999987,0.1014422,0.0084720000000004,-0.0020171999999991,-0.0105687999999998,0,sub_5
0.0385485999999998,-0.1993107999999988,0.102355,0.0080386000000004,-0.0024459999999991,-0.0095029999999998,0,sub_5
0.0391179999999998,-0.1997203999999987,0.1028264,0.0075984000000004,-0.0037295999999991,-0.0077951999999998,0,sub_5
0.0400345999999998,-0.2000851999999987,0.1023284,0.0073716000000004,-0.0043773999999991,-0.0054459999999998,0,sub_5
0.0403411999999998,-0.1999875999999988,0.1023052,0.0079994000000004,-0.0050271999999991,-0.0033043999999998,0,sub_5
0.0404199999999998,-0.2000073999999988,0.1022458,0.0079888000000004,-0.0050365999999991,-0.0009543999999998,0,sub_5
0.0406247999999998,-0.1999791999999987,0.1023052,0.0086144000000004,-0.0054759999999991,0.0018278,0,sub_5
0.0412791999999998,-0.1992859999999988,0.1030682,0.0092440000000004,-0.0054875999999991,0.0041824,0,sub_5
0.0413121999999998,-0.1975109999999988,0.1039264,0.0094584000000004,-0.0035775999999991,0.0058906,0,sub_5
0.0417241999999998,-0.1963303999999988,0.1033116,0.0086096000000004,-0.0014483999999991,0.0069502,0,sub_5
0.0416593999999998,-0.1948545999999988,0.1022068,0.0081944000000004,4.8600000000848485e-05,0.0058772,0,sub_5
0.0419605999999998,-0.1938229999999988,0.1017264,0.0071458000000004,0.0015538000000008,0.0033044,0,sub_5
0.0417903999999998,-0.1935335999999988,0.1007332,0.0056800000000004,0.0039180000000008,-0.0005545999999999,0,sub_5
0.0408725999999998,-0.1942159999999987,0.10019,0.0044246000000004,0.0047934000000008,-0.0052645999999999,0,sub_5
0.0396117999999998,-0.1954337999999988,0.1002272,0.0035942000000004,0.0054534000000008,-0.0097577999999998,0,sub_5
0.0383369999999998,-0.1974297999999988,0.1004018,0.0033980000000004,0.0063184000000008,-0.0127513999999998,0,sub_5
0.0370513999999998,-0.1984825999999988,0.100452,0.0040438000000004,0.0061092000000008,-0.0142421999999998,0,sub_5
0.0359537999999998,-0.1998435999999988,0.100628,0.0046754000000004,0.0044016000000008,-0.0140219999999998,0,sub_5
0.0366187999999998,-0.2012715999999987,0.1007186,0.0059366000000004,0.0018336000000008,-0.0123007999999998,0,sub_5
0.0376561999999997,-0.2015327999999988,0.1018662,0.0078330000000004,-0.0011651999999991,-0.0099335999999999,0,sub_5
0.0390701999999998,-0.2015125999999988,0.1031612,0.0088722000000004,-0.0039521999999991,-0.0065043999999999,0,sub_5
0.0399453999999998,-0.2016703999999987,0.1034862,0.0090636000000004,-0.0052457999999991,-0.0028693999999999,0,sub_5
0.0408985999999998,-0.2012111999999987,0.1039532,0.0096844000000004,-0.0061137999999991,0.0005544,0,sub_5
0.0414487999999998,-0.1997489999999988,0.1041088,0.0100976000000004,-0.0063393999999991,0.003335,0,sub_5
0.0418083999999998,-0.1985721999999987,0.1035018,0.0096660000000004,-0.0054933999999991,0.0052536,0,sub_5
0.0420613999999998,-0.1973493999999988,0.1026702,0.0090316000000004,-0.0033641999999991,0.006101,0,sub_5
0.0421731999999998,-0.1962307999999988,0.1022002,0.0081868000000004,-0.0018681999999991,0.0056658,0,sub_5
0.0418595999999998,-0.1957847999999988,0.1014664,0.0069200000000004,-0.0001541999999991,0.004373,0,sub_5
0.0410223999999998,-0.1957333999999987,0.1012592,0.0058666000000004,0.0017712000000008,0.003295,0,sub_5
0.0403577999999998,-0.1963997999999988,0.1012004,0.0050284000000004,0.0034854000000008,0.0015778,0,sub_5
0.0395485999999998,-0.1968691999999988,0.101476,0.0048284000000004,0.0045592000000008,-0.0003477999999999,0,sub_5
0.0392359999999998,-0.1975137999999988,0.1016664,0.0048418000000004,0.0058444000000008,-0.0020583999999999,0,sub_5
0.0386141999999998,-0.1984441999999988,0.1016666,0.0048486000000004,0.0060626000000008,-0.0033405999999998,0,sub_5
0.0381001999999998,-0.1992175999999988,0.1017598000000001,0.0050668000000004,0.0058540000000008,-0.0046207999999998,0,sub_5
0.0374455999999997,-0.1993275999999987,0.1019264,0.0052792000000004,0.0050036000000008,-0.0052591999999998,0,sub_5
0.0376941999999997,-0.2004495999999988,0.1017972,0.0059098000000004,0.0028708000000008,-0.0052519999999998,0,sub_5
0.0376229999999997,-0.2013163999999987,0.1023484,0.0069622000000004,0.0007322000000008,-0.0041737999999998,0,sub_5
0.0380787999999997,-0.2008281999999988,0.1028304,0.0082310000000004,-0.0003435999999991,-0.0026679999999999,0,sub_5
0.0388725999999998,-0.2006749999999987,0.1028424,0.0090720000000004,-0.0012063999999991,-0.0007381999999999,0,sub_5
0.0400885999999998,-0.2006527999999988,0.1024598,0.0103360000000004,-0.0027105999999991,0.001409,0,sub_5
0.0412337999999998,-0.1989779999999987,0.1028338,0.0109664000000004,-0.0033579999999991,0.0029098,0,sub_5
0.0423487999999998,-0.1974925999999988,0.1027206,0.0107512000000004,-0.0031465999999991,0.003549,0,sub_5
0.0430113999999998,-0.1966479999999987,0.102796,0.0094718000000004,-0.0022923999999991,0.00418,0,sub_5
0.0432929999999998,-0.1961945999999988,0.1027924,0.0079858000000004,-0.0012193999999991,0.0035274,0,sub_5
0.0428315999999998,-0.1958219999999987,0.1027144,0.0067208000000004,0.0011328000000008,0.0024474,0,sub_5
0.0415787999999998,-0.1966847999999987,0.1025376,0.0052408000000004,0.0032720000000008,0.0015798,0,sub_5
0.0404623999999997,-0.1975207999999987,0.102668,0.0043978000000004,0.0045574000000008,0.000504,0,sub_5
0.0395685999999998,-0.1984115999999987,0.102803,0.0044064000000004,0.0049894000000008,-0.0009921999999999,0,sub_5
0.0390937999999998,-0.1986597999999987,0.1028166,0.0054782000000004,0.0049900000000008,-0.0020529999999999,0,sub_5
0.0383049999999998,-0.1995055999999987,0.103113,0.0059070000000004,0.0047780000000008,-0.0026905999999999,0,sub_5
0.0379207999999998,-0.1997453999999987,0.1029436000000001,0.0061212000000004,0.0043536000000008,-0.0033295999999999,0,sub_5
0.0379421999999998,-0.1998725999999987,0.1026338,0.0067576000000004,0.0037114000000008,-0.0031105999999999,0,sub_5
0.0387455999999998,-0.1998825999999987,0.102373,0.0073920000000004,0.0026430000000008,-0.0028909999999999,0,sub_5
0.0392979999999998,-0.2009455999999987,0.1025596,0.0069574000000004,0.0013644000000008,-0.0024649999999999,0,sub_5
0.0404715999999998,-0.2012489999999987,0.1028196,0.0069468000000004,-0.0003425999999991,-0.0018219999999999,0,sub_5
0.0408873999999998,-0.2011789999999987,0.1031792,0.0073620000000004,-0.0020517999999991,-0.0009623999999999,0,sub_5
0.0416863999999998,-0.2011395999999987,0.103255,0.0071408000000004,-0.0029065999999991,-0.0001083999999999,0,sub_5
0.0418885999999998,-0.2011755999999988,0.1037936,0.0071342000000004,-0.0033367999999991,0.0009602,0,sub_5
0.0423169999999998,-0.2005277999999987,0.1038824,0.0073400000000004,-0.0035565999999991,0.0024574,0,sub_5
0.0421253999999998,-0.1996745999999988,0.1042264,0.0075524000000004,-0.0029215999999991,0.0033126,0,sub_5
0.0423637999999998,-0.1993905999999987,0.1044712,0.0073420000000004,-0.0014329999999991,0.0041638,0,sub_5
0.0420825999999998,-0.1986239999999987,0.1045102,0.0075592000000004,-0.0003693999999991,0.0043776,0,sub_5
0.0416137999999998,-0.1984561999999987,0.104186,0.0071430000000004,0.0013390000000008,0.0037316,0,sub_5
0.0406369999999998,-0.1982503999999987,0.1040412,0.0067316000000004,0.0036884000000008,0.0026574,0,sub_5
0.0400787999999998,-0.1989035999999988,0.1033728,0.0054638000000004,0.0054016000000008,0.0015782,0,sub_5
0.0384331999999998,-0.1992615999999987,0.10356,0.0056858000000004,0.0062574000000008,0.0005106,0,sub_5
0.0371503999999998,-0.2002951999999987,0.1038486,0.0054792000000004,0.0071130000000008,-0.0001327999999999,0,sub_5
0.0362535999999998,-0.2008541999999987,0.103517,0.0054830000000004,0.0079652000000008,-0.0001337999999999,0,sub_5
0.0360525999999998,-0.2011077999999987,0.103136,0.0059040000000004,0.0068976000000008,8.42000000000911e-05,0,sub_5
0.0362083999999998,-0.2007229999999987,0.1033648,0.0073880000000004,0.0047618000000008,9.720000000009108e-05,0,sub_5
0.0378387999999998,-0.2005195999999987,0.1032562,0.0075966000000004,0.0032714000000008,-0.0003267999999999,0,sub_5
0.0397047999999998,-0.2003297999999987,0.1029188,0.0075928000000004,0.0022070000000008,-0.0005391999999999,0,sub_5
0.0408617999999998,-0.2005399999999987,0.102853,0.0069440000000004,0.0005040000000008,-0.0003279999999999,0,sub_5
0.0411937999999997,-0.2012259999999988,0.1033162,0.0065134000000004,-0.0001345999999991,-0.0001165999999999,0,sub_5
0.0417161999999998,-0.2017773999999987,0.103964,0.0058696000000004,0.0007132000000008,0.001587,0,sub_5
0.0416465999999998,-0.2018147999999988,0.1041636,0.0052180000000004,0.0007052000000008,0.0041462,0,sub_5
0.0414603999999998,-0.2020209999999988,0.10453,0.0049922000000004,0.0004826000000008,0.0067088,0,sub_5
0.0419169999999998,-0.2015641999999987,0.105414,0.0064800000000004,0.0008966000000008,0.0084278,0,sub_5
0.0426407999999998,-0.2008973999999987,0.1055722,0.0071182000000004,0.0019536000000008,0.0099264,0,sub_5
0.0421491999999998,-0.2003831999999988,0.1050248,0.0071220000000004,0.0038668000000008,0.0109922,0,sub_5
0.0416997999999998,-0.2003933999999988,0.1045998,0.0067038000000004,0.0059980000000008,0.0112002,0,sub_5
0.0407461999999998,-0.1997015999999987,0.1039458,0.0060742000000004,0.0074950000000008,0.0103392,0,sub_5
0.0394761999999998,-0.1996617999999988,0.1037534,0.0048016000000004,0.0081430000000008,0.0092614,0,sub_5
0.0382249999999997,-0.1995697999999988,0.1036672,0.0039538000000004,0.0081512000000008,0.0079736,0,sub_5
0.0379587999999998,-0.1998915999999987,0.103308,0.0041738000000004,0.0075198000000008,0.0058396,0,sub_5
0.0378811999999997,-0.2004077999999987,0.102855,0.0048216000000004,0.0066756000000008,0.0032814,0,sub_5
0.0375691999999997,-0.2011185999999988,0.1030632,0.0056780000000004,0.0056142000000008,0.0015796,0,sub_5
0.0376621999999998,-0.2012967999999987,0.1030486,0.0063192000000004,0.0047640000000008,0.0005168,0,sub_5
0.0380359999999998,-0.2018543999999988,0.1030162,0.0065326000000004,0.0039144000000008,-0.0003351999999999,0,sub_5
0.0392001999999998,-0.2022393999999988,0.1040234,0.0063126000000004,0.0022116000000008,-0.0005481999999999,0,sub_5
0.0399323999999998,-0.2022655999999988,0.1046576,0.0063040000000004,0.0013550000000008,0.0005212,0,sub_5
0.0405693999999998,-0.2028663999999987,0.105585,0.0062954000000004,0.0004986000000008,0.0015904,0,sub_5
0.0408705999999998,-0.2035865999999987,0.1056268,0.0064992000000004,6.480000000082827e-05,0.0033016,0,sub_5
0.0418357999999998,-0.2034397999999987,0.1059988,0.0069136000000004,-0.0003721999999991,0.0056552,0,sub_5
0.0412689999999998,-0.2027427999999987,0.1058638,0.0064810000000004,0.0008974000000008,0.0082142,0,sub_5
0.0418313999999998,-0.2019645999999987,0.1066584,0.0068962000000004,0.0002492000000008,0.0101406,0,sub_5
0.0418965999999998,-0.2001277999999987,0.1058968,0.0068980000000004,0.0021606000000008,0.0116338,0,sub_5
0.0417701999999998,-0.1990923999999987,0.105582,0.0069046000000004,0.0047130000000008,0.0126988,0,sub_5
0.0412157999999998,-0.1982239999999987,0.1050218,0.0069122000000004,0.0066296000000008,0.01291,0,sub_5
0.0411483999999998,-0.1972935999999988,0.1047672,0.0069160000000004,0.0062086000000008,0.0116288,0,sub_5
0.0402141999999998,-0.1973803999999987,0.103648,0.0062960000000004,0.0083506000000008,0.0092716,0,sub_5
0.0399187999999998,-0.1983105999999987,0.10348,0.0056712000000004,0.0092154000000008,0.0067024,0,sub_5
0.0396569999999998,-0.1981103999999987,0.1032434,0.0044016000000004,0.0083804000000008,0.00349,0,sub_5
0.0385649999999998,-0.1989475999999987,0.1031492,0.0039912000000004,0.0086086000000008,6.860000000009133e-05,0,sub_5
0.0378101999999998,-0.2004805999999988,0.1030034,0.0044296000000004,0.0088294000000008,-0.0022787999999999,0,sub_5
0.0373763999999998,-0.2016627999999987,0.102879,0.0048496000000004,0.0062756000000008,-0.0033407999999998,0,sub_5
0.0376555999999998,-0.2028493999999988,0.1033554,0.0056906000000004,0.0030784000000008,-0.0037581999999998,0,sub_5
0.0380797999999998,-0.2036225999999988,0.104189,0.0073804000000004,-0.0003379999999991,-0.0033147999999998,0,sub_5
0.0398559999999998,-0.2038035999999988,0.1053628,0.0077860000000004,-0.0039655999999991,-0.0022391999999998,0,sub_5
0.0416215999999998,-0.2032885999999988,0.1057484,0.0077706000000004,-0.0063133999999991,-0.0011679999999998,0,sub_5
0.0430323999999998,-0.2020561999999988,0.1059922,0.0073372000000004,-0.0073787999999991,-0.0007423999999998,0,sub_5
0.0433907999999998,-0.2007055999999987,0.1058886,0.0077574000000004,-0.0088715999999991,-0.0007375999999998,0,sub_5
0.0438059999999998,-0.2005191999999987,0.105109,0.0079726000000004,-0.0090827999999991,-0.0013767999999998,0,sub_5
0.0421593999999998,-0.2003129999999987,0.1042654,0.0081870000000004,-0.0090825999999991,-0.0015887999999998,0,sub_5
0.0408723999999998,-0.2001139999999988,0.1039336,0.0079756000000004,-0.0088679999999991,-0.0018041999999998,0,sub_5
0.0402469999999998,-0.1998329999999987,0.1039242,0.0073354000000004,-0.0084413999999991,-0.0013817999999998,0,sub_5
0.0399933999999998,-0.2000325999999987,0.1041466,0.0058456000000004,-0.0075839999999991,-0.0013931999999999,0,sub_5
0.0396975999999998,-0.1999685999999987,0.104596,0.0047864000000004,-0.0063003999999991,-0.0018293999999999,0,sub_5
0.0401333999999998,-0.2003913999999988,0.1050734,0.0045864000000004,-0.0052267999999991,-0.0037549999999998,0,sub_5
0.0405327999999998,-0.2008577999999988,0.1053656,0.0058772000000004,-0.0047973999999991,-0.0056693999999998,0,sub_5
0.0403927999999998,-0.2019645999999987,0.1057754,0.0076006000000004,-0.0033033999999991,-0.0077957999999998,0,sub_5
0.0398041999999998,-0.2026425999999987,0.1053798,0.0084684000000004,-0.0013837999999991,-0.0090739999999998,0,sub_5
0.0395259999999998,-0.2028827999999987,0.1047504,0.0084694000000004,-0.0009583999999991,-0.0088609999999998,0,sub_5
0.0392983999999998,-0.2031699999999988,0.1046034,0.0078254000000004,-0.0005351999999991,-0.0075841999999998,0,sub_5
0.0383445999999998,-0.2031957999999987,0.1048462,0.0073918000000004,-0.0005397999999991,-0.0060917999999998,0,sub_5
0.0380073999999998,-0.2027247999999987,0.1049718,0.0071698000000004,-0.0009711999999991,-0.0045971999999998,0,sub_5
0.0381789999999998,-0.2024645999999987,0.1050748,0.0071574000000004,-0.0018309999999991,-0.0026733999999998,0,sub_5
0.0382353999999998,-0.2023389999999987,0.1058872,0.0082128000000004,-0.0033303999999991,-0.0015957999999998,0,sub_5
0.0391497999999998,-0.2013117999999987,0.1064068,0.0094844000000004,-0.0046157999999991,-0.0009443999999999,0,sub_5
0.0397907999999998,-0.2012249999999988,0.1061182,0.0103350000000004,-0.0050455999999991,-0.0007241999999999,0,sub_5
0.0413977999999998,-0.2008401999999987,0.1061738,0.0109674000000004,-0.0059033999999991,0.0001358,0,sub_5
0.0428031999999998,-0.2002699999999987,0.1064514,0.0105368000000004,-0.0061175999999991,0.000774,0,sub_5
0.0432545999999997,-0.1995565999999987,0.1058752,0.0086230000000004,-0.0039829999999991,0.0013988,0,sub_5
0.0429053999999998,-0.1997305999999988,0.105245,0.0073572000000004,-0.0012069999999991,0.0009592,0,sub_5
0.0428079999999998,-0.1992701999999988,0.1050188,0.0054542000000004,0.0017858000000008,8.760000000009107e-05,0,sub_5
0.0412215999999997,-0.1996443999999987,0.1044156,0.0037702000000004,0.0047830000000008,-0.0020643999999999,0,sub_5
0.0400813999999997,-0.2008085999999988,0.1047552,0.0040084000000004,0.0073508000000008,-0.0050571999999999,0,sub_5
0.0397365999999998,-0.2021083999999987,0.1055022,0.0050974000000004,0.0090644000000008,-0.0082563999999998,0,sub_5
0.0396093999999998,-0.2030951999999988,0.1054456,0.0055376000000004,0.0103480000000008,-0.0099641999999998,0,sub_5
0.0390989999999998,-0.2043551999999988,0.1054378,0.0063948000000004,0.0105606000000008,-0.0105995999999998,0,sub_5
0.0392359999999998,-0.2053597999999987,0.105583,0.0072416000000004,0.0097028000000008,-0.0099515999999998,0,sub_5
0.0391971999999998,-0.2054457999999987,0.1050082,0.0080778000000004,0.0073502000000008,-0.0084471999999998,0,sub_5
0.0387339999999998,-0.2057737999999987,0.1050662,0.0089044000000004,0.0039280000000008,-0.0058733999999999,0,sub_5
0.0385345999999998,-0.2054761999999987,0.1057678,0.0092984000000004,-0.0005585999999991,-0.0030873999999999,0,sub_5
0.0397835999999998,-0.2049047999999987,0.1059106,0.0096936000000004,-0.0046199999999991,-8.839999999990904e-05,0,sub_5
0.0408427999999998,-0.2042559999999987,0.1062102,0.0100954000000004,-0.0078265999999991,0.0022686,0,sub_5
0.0418555999999998,-0.2032979999999987,0.1072082,0.0102936000000004,-0.0091139999999991,0.0044082,0,sub_5
0.0434071999999998,-0.2016265999999988,0.1070892,0.0098640000000004,-0.0084783999999991,0.0056862,0,sub_5
0.0443881999999997,-0.1999063999999988,0.1061884,0.0098708000000004,-0.0063505999999991,0.0063244,0,sub_5
0.0445487999999997,-0.1986925999999988,0.1060854,0.0090356000000004,-0.0031483999999991,0.00546,0,sub_5
0.0444749999999997,-0.1976179999999988,0.1060076,0.0073526000000004,0.0004862000000008,0.0037344,0,sub_5
0.0435805999999997,-0.1975647999999988,0.1050652,0.0052456000000004,0.0041248000000008,0.0013648,0,sub_5
0.0423899999999998,-0.1983779999999987,0.1050714,0.0031406000000004,0.0071286000000008,-0.0020719999999999,0,sub_5
0.0412865999999998,-0.2003357999999987,0.1060354,0.0018862000000004,0.0094904000000008,-0.0055021999999998,0,sub_5
0.0388901999999998,-0.2020889999999987,0.1063748,0.0023302000000004,0.0107774000000008,-0.0080645999999998,0,sub_5
0.0366913999999998,-0.2040213999999987,0.106095,0.0038344000000004,0.0118426000000008,-0.0093373999999998,0,sub_5
0.0364595999999998,-0.2054387999999987,0.1058698,0.0055356000000004,0.0105584000000008,-0.0093237999999998,0,sub_5
0.0369155999999998,-0.2066649999999987,0.1058258,0.0078606000000004,0.0067110000000008,-0.0082343999999998,0,sub_5
0.0376649999999998,-0.2068291999999987,0.1061672,0.0095380000000004,0.0020102000000008,-0.0062937999999998,0,sub_5
0.0396361999999998,-0.2065975999999987,0.1067578,0.0101474000000004,-0.0024753999999991,-0.0039335999999998,0,sub_5
0.0410979999999998,-0.2059013999999988,0.1066896,0.0096890000000004,-0.0069581999999991,-0.0013671999999998,0,sub_5
0.0421791999999998,-0.2038407999999988,0.1069638,0.0098814000000004,-0.0093119999999991,0.0009872000000001,0,sub_5
0.0427715999999998,-0.2014421999999987,0.1068332,0.0102996000000004,-0.0088967999999991,0.0033396000000001,0,sub_5
0.0438051999999998,-0.1994743999999987,0.105795,0.0098698000000004,-0.0080489999999991,0.004831,0,sub_5
0.0444577999999998,-0.1980609999999987,0.105036,0.0088068000000004,-0.0063443999999991,0.005676,0,sub_5
0.0448679999999998,-0.1970829999999988,0.1058438,0.0081782000000004,-0.0037855999999991,0.0056682,0,sub_5
0.0440777999999998,-0.1980945999999988,0.1059022,0.0075572000000004,-0.0010075999999991,0.0041648,0,sub_5
0.0429389999999998,-0.1992063999999987,0.1059762,0.0065134000000004,0.0021996000000008,0.0022306,0,sub_5
0.0405903999999998,-0.2003279999999987,0.1061204,0.0056850000000004,0.0058320000000008,0.0002974,0,sub_5
0.0390729999999997,-0.2012649999999987,0.1062312,0.0050660000000004,0.0086116000000008,-0.0016333999999999,0,sub_5
0.0384811999999998,-0.2025133999999988,0.1057426,0.0050814000000004,0.0098984000000007,-0.0037713999999999,0,sub_5
0.0377369999999997,-0.2030949999999987,0.1060402,0.0048738000000004,0.0099042000000008,-0.0050547999999998,0,sub_5
0.0375517999999997,-0.2036443999999987,0.1064198,0.0046546000000004,0.0079900000000008,-0.0056947999999998,0,sub_5
0.0385527999999997,-0.2048153999999988,0.106343,0.0048592000000004,0.0056474000000008,-0.0061175999999998,0,sub_5
0.0390793999999998,-0.2059497999999988,0.1061276,0.0054878000000004,0.0033008000000008,-0.0058963999999998,0,sub_5
0.0397449999999997,-0.2066455999999988,0.106424,0.0065344000000004,9.620000000084804e-05,-0.0046029999999998,0,sub_5
0.0408107999999997,-0.2070063999999987,0.1067766,0.0071534000000004,-0.0026833999999991,-0.0026721999999998,0,sub_5
0.0418441999999998,-0.2075441999999988,0.1067338,0.0073486000000004,-0.0048221999999991,-0.0007451999999999,0,sub_5
0.0425539999999998,-0.2069341999999988,0.1072886,0.0081830000000004,-0.0067519999999991,0.0016132,0,sub_5
0.0435971999999997,-0.2054297999999987,0.1075774,0.0088078000000004,-0.0080409999999991,0.0037556,0,sub_5
0.0437697999999997,-0.2039799999999987,0.1074672,0.0083754000000004,-0.0076201999999991,0.0054612,0,sub_5
0.0442641999999998,-0.2023723999999987,0.107138,0.0085888000000004,-0.0063477999999991,0.006743,0,sub_5
0.0438943999999998,-0.2008335999999987,0.1067454,0.0081688000000004,-0.0042183999999991,0.0073782,0,sub_5
0.0430637999999998,-0.2002605999999987,0.1064162,0.0062648000000004,-0.0010141999999991,0.0069334,0,sub_5
0.0413251999999998,-0.2005153999999987,0.1062862,0.0052142000000004,0.0019748000000008,0.0062812,0,sub_5
