userAcceleration.x,userAcceleration.y,userAcceleration.z,rotationRate.x,rotationRate.y,rotationRate.z,label,subject
-0.0044168000000001,-0.0036173999999987,-0.0132311999999998,6.58000000004716e-05,0.0002734000000009,-0.0055069999999999,0,sub_9
-0.0045222000000002,-0.0037577999999987,-0.0135479999999999,0.0002724000000004,-0.001006399999999,-0.0052901999999999,0,sub_9
-0.0047604000000002,-0.0033821999999987,-0.0137801999999999,0.0009058000000004,-0.001226799999999,-0.0040035999999999,0,sub_9
-0.0043896000000002,-0.0031915999999987,-0.0137701999999999,0.0011140000000004,-0.000384199999999,-0.0020787999999999,0,sub_9
-0.0048654000000002,-0.0030235999999987,-0.0136387999999999,0.0008984000000004,0.0006748000000009,-0.0005845999999999,0,sub_9
-0.0056116000000001,-0.0034317999999987,-0.0141187999999999,0.0017430000000004,0.0010876000000009,0.0017724,0,sub_9
-0.0062358000000001,-0.0034225999999987,-0.0143059999999999,0.0021628000000004,0.0012912000000009,0.0034858,0,sub_9
-0.0062390000000001,-0.0041927999999987,-0.0147595999999999,0.0025844000000004,0.0008600000000009,0.0041318,0,sub_9
-0.0065346000000001,-0.0040991999999987,-0.0150549999999998,0.0023672000000004,0.0002208000000009,0.0043446,0,sub_9
-0.0064636000000001,-0.0046463999999987,-0.0143991999999998,0.0023634000000004,-0.000419199999999,0.004559,0,sub_9
-0.0061964000000002,-0.0054195999999987,-0.0137535999999998,0.0015054000000004,-0.000195799999999,0.0041228,0,sub_9
-0.0058018000000002,-0.0062911999999987,-0.0137195999999998,0.0010742000000004,-0.000185999999999,0.0034764,0,sub_9
-0.0053030000000002,-0.0065019999999987,-0.0134807999999998,2.000000000451684e-06,-0.000174799999999,0.003039,0,sub_9
-0.0042938000000002,-0.0073153999999987,-0.0134005999999998,-0.0010701999999995,-0.000163599999999,0.0026018,0,sub_9
-0.0035954000000002,-0.0075715999999987,-0.0132927999999998,-0.0021385999999995,0.0002754000000009,0.0017368,0,sub_9
-0.0025714000000002,-0.0078461999999987,-0.0130053999999999,-0.0029851999999995,0.0004966000000009,0.0004488,0,sub_9
-0.0018114000000002,-0.0083521999999987,-0.0127031999999999,-0.0044663999999995,0.0011496000000009,-0.0016987999999999,0,sub_9
-0.0010780000000002,-0.0081727999999987,-0.0127961999999999,-0.0061589999999994,0.0024416000000009,-0.0036349999999999,0,sub_9
-0.0009436000000002,-0.0082303999999987,-0.0127723999999999,-0.0078617999999994,0.0033194000000009,-0.0057903999999999,0,sub_9
-0.0007126000000002,-0.0084915999999987,-0.0135093999999999,-0.0091377999999994,0.0041958000000009,-0.0079429999999999,0,sub_9
-0.0015274000000002,-0.0073323999999987,-0.0131307999999999,-0.0101995999999994,0.0052844000000009,-0.0100941999999999,0,sub_9
-0.0019730000000002,-0.0057397999999987,-0.0136785999999999,-0.0106269999999994,0.0063656000000009,-0.0109591999999999,0,sub_9
-0.0025946000000002,-0.0045469999999987,-0.0140197999999999,-0.0097797999999994,0.0065884000000009,-0.0113867999999999,0,sub_9
-0.0036858000000002,-0.0027021999999987,-0.0135327999999999,-0.0080651999999995,0.0082868000000009,-0.0113769999999999,0,sub_9
-0.0056952000000002,-0.0010831999999987,-0.0134935999999999,-0.0059353999999995,0.0089124000000009,-0.0098673999999999,0,sub_9
-0.0074704000000002,0.0001444000000011,-0.0145305999999999,-0.0029643999999995,0.0074022000000009,-0.0077083999999999,0,sub_9
-0.0091292000000002,-3.3999999988174565e-06,-0.0145233999999999,1.6000000004916596e-06,0.0052620000000009,-0.0053361999999999,0,sub_9
-0.0105094000000002,-0.0001537999999988,-0.0141461999999999,0.0025388000000004,0.0029094000000009,-0.0027531999999999,0,sub_9
-0.0103760000000002,-0.0002187999999988,-0.0151657999999999,0.0050666000000004,-0.000724799999999,0.000686,0,sub_9
-0.0091104000000002,-0.0002655999999988,-0.0149383999999999,0.0065324000000004,-0.003502199999999,0.0039032,0,sub_9
-0.0070972000000001,-0.0017743999999987,-0.0147369999999999,0.0075780000000004,-0.004786999999999,0.0071156,0,sub_9
-0.0044156000000001,-0.0031349999999987,-0.0141377999999998,0.0082028000000004,-0.005439399999999,0.0098982,0,sub_9
-0.0017574000000001,-0.0054763999999987,-0.0137921999999998,0.0077676000000004,-0.0054455999999989,0.011818,0,sub_9
0.0003391999999998,-0.0089717999999987,-0.0121517999999998,0.0056368000000004,-0.005011199999999,0.011589,0,sub_9
0.0021341999999998,-0.0121709999999987,-0.0115999999999998,0.0032992000000004,-0.004782399999999,0.0096496,0,sub_9
0.0030595999999997,-0.0133929999999987,-0.0114129999999998,0.0005412000000004,-0.004115599999999,0.0068572,0,sub_9
0.0015125999999997,-0.0123427999999987,-0.0113027999999998,-0.0028519999999994,-0.002593599999999,0.0038456,0,sub_9
-0.0006286000000002,-0.0100843999999987,-0.0113821999999998,-0.0049669999999994,-0.000440999999999,0.0019104,0,sub_9
-0.0032122000000002,-0.0070001999999987,-0.0130955999999998,-0.0049577999999994,0.0008466000000009,0.0012728,0,sub_9
-0.0055536000000002,-0.0041529999999987,-0.0139261999999998,-0.0043141999999994,0.0014904000000009,0.0012816,0,sub_9
-0.0080860000000001,-0.0021403999999987,-0.0138469999999998,-0.0030309999999994,0.0017006000000009,0.000863,0,sub_9
-0.0088756000000001,-0.0019535999999987,-0.0139451999999999,-0.0002589999999994,0.0006282000000009,0.0002428,0,sub_9
-0.0086696000000001,-0.0020633999999987,-0.0146497999999999,0.0022962000000005,-0.001711999999999,-0.0016619999999999,0,sub_9
-0.0075944000000001,-0.0024925999999987,-0.0138871999999999,0.0035740000000005,-0.003620599999999,-0.0037897999999999,0,sub_9
-0.0057782000000001,-0.0029191999999987,-0.0141607999999999,0.0046404000000004,-0.004465799999999,-0.0052795999999999,0,sub_9
-0.0034102000000002,-0.0041231999999987,-0.0143033999999999,0.0052770000000004,-0.004675399999999,-0.0054913999999999,0,sub_9
-0.0011462000000002,-0.0055223999999987,-0.0144103999999998,0.0044182000000004,-0.0042447999999989,-0.0046461999999999,0,sub_9
4.49999999997884e-05,-0.0069547999999987,-0.0138823999999998,0.0027112000000004,-0.0027533999999989,-0.0031643999999999,0,sub_9
0.0004669999999997,-0.0081511999999987,-0.0137979999999998,0.0007888000000004,-0.001050799999999,-0.0010435999999999,0,sub_9
0.0001741999999998,-0.0082195999999987,-0.0129519999999998,-0.0015593999999995,0.0004420000000009,0.0006472,0,sub_9
-0.0004906000000001,-0.0072499999999987,-0.0125783999999998,-0.0036929999999995,0.0012984000000009,0.0014858,0,sub_9
-0.0022280000000001,-0.0059527999999987,-0.0130773999999998,-0.0047481999999995,0.0023648000000009,0.001694,0,sub_9
-0.0036434000000001,-0.0039949999999987,-0.0133073999999998,-0.0051633999999995,0.0027924000000009,0.0012666,0,sub_9
-0.0052014000000001,-0.0021175999999987,-0.0134049999999998,-0.0045115999999995,0.0030040000000009,0.0006334,0,sub_9
-0.0066486000000002,-0.0016281999999987,-0.0138685999999998,-0.0032205999999995,0.0027882000000009,-0.0002085999999999,0,sub_9
-0.0075978000000002,-0.0015843999999987,-0.0144035999999998,-0.0017211999999995,0.0017184000000009,-0.0008343999999999,0,sub_9
-0.0071128000000002,-0.0019637999999987,-0.0136583999999998,-0.0006571999999995,0.0004388000000009,-0.0014661999999999,0,sub_9
-0.0059672000000002,-0.0033815999999987,-0.0132677999999999,-0.0002351999999995,-0.000840199999999,-0.0016753999999999,0,sub_9
-0.0040326000000002,-0.0046945999999987,-0.0134849999999998,-0.0002219999999995,-0.001490599999999,-0.0018703999999999,0,sub_9
-0.0032410000000002,-0.0052783999999987,-0.0133857999999998,-0.0006337999999995,-0.001289199999999,-0.0016421999999999,0,sub_9
-0.0024366000000002,-0.0055507999999987,-0.0129255999999998,-0.0016835999999994,-0.000446999999999,-0.0012055999999999,0,sub_9
-0.0020774000000002,-0.0056351999999987,-0.0129779999999998,-0.0020915999999994,0.0001824000000009,-0.0014051999999999,0,sub_9
-0.0030146000000002,-0.0058633999999987,-0.0128893999999998,-0.0018573999999994,0.0010236000000009,-0.0018141999999999,0,sub_9
-0.0030452000000002,-0.0062011999999987,-0.0127815999999999,-0.0018507999999994,0.0016662000000009,-0.0026695999999999,0,sub_9
-0.0020760000000002,-0.0067443999999987,-0.0130165999999999,-0.0018477999999994,0.0012444000000009,-0.0037371999999999,0,sub_9
-0.0020282000000002,-0.0064107999999987,-0.0136939999999999,-0.0016295999999995,0.0016724000000009,-0.0043771999999999,0,sub_9
-0.0027856000000002,-0.0062725999999987,-0.0137557999999998,-0.0018377999999995,0.0027376000000009,-0.0043819999999998,0,sub_9
-0.0027806000000002,-0.0057609999999987,-0.0137967999999998,-0.0020507999999995,0.0031618000000009,-0.0039585999999998,0,sub_9
-0.0040576000000002,-0.0053135999999987,-0.0138117999999998,-0.0022713999999995,0.0025182000000009,-0.0028929999999998,0,sub_9
-0.0050586000000001,-0.0046081999999987,-0.0136097999999998,-0.0018489999999995,0.0022994000000009,-0.0020371999999998,0,sub_9
-0.0053204000000001,-0.0049323999999987,-0.0131059999999998,-0.0014267999999995,0.0014440000000009,-0.0018213999999999,0,sub_9
-0.0051394000000001,-0.0044379999999987,-0.0132989999999998,-0.0010037999999995,0.0003780000000009,-0.0020305999999999,0,sub_9
-0.0043060000000001,-0.0043737999999987,-0.0130915999999999,-0.0005789999999995,-4.959999999900432e-05,-0.0020271999999999,0,sub_9
-0.0038054000000002,-0.0042579999999987,-0.0128137999999999,0.0002754000000004,0.0001606000000009,-0.0020215999999999,0,sub_9
-0.0032066000000002,-0.0044795999999987,-0.0126823999999999,0.0004868000000004,0.0001582000000009,-0.0015927999999999,0,sub_9
-0.0031522000000002,-0.0048589999999987,-0.0126835999999999,0.0009122000000004,0.0001554000000009,-0.0009511999999999,0,sub_9
-0.0033120000000002,-0.0054995999999987,-0.0122773999999999,0.0017566000000004,-0.000704399999999,0.000549,0,sub_9
-0.0042578000000002,-0.0055939999999987,-0.0125007999999999,0.0026048000000004,-0.001560799999999,0.0011948,0,sub_9
-0.0052784000000002,-0.0049035999999987,-0.0127031999999998,0.0036674000000004,-0.002416999999999,0.0016284,0,sub_9
-0.0065510000000002,-0.0039083999999987,-0.0130545999999998,0.0047270000000004,-0.003487999999999,0.0024896,0,sub_9
-0.0078358000000002,-0.0026091999999987,-0.0134187999999998,0.0055718000000004,-0.004559599999999,0.0033516,0,sub_9
-0.0085796000000002,-0.0025893999999987,-0.0143189999999998,0.0055660000000004,-0.005201199999999,0.0039932,0,sub_9
-0.0082876000000002,-0.0033035999999987,-0.0151863999999998,0.0049182000000004,-0.006054599999999,0.0048444,0,sub_9
-0.0066844000000002,-0.0052283999999987,-0.0152789999999998,0.0034246000000004,-0.006260199999999,0.0048354,0,sub_9
-0.0043612000000002,-0.0076857999999987,-0.0147013999999998,0.0017274000000004,-0.005183199999999,0.0039688,0,sub_9
-0.0017202000000002,-0.0096165999999987,-0.0143009999999998,-0.0001755999999995,-0.003249799999999,0.002245,0,sub_9
0.0008297999999997,-0.0102049999999987,-0.0133763999999998,-0.0020729999999995,-0.000462399999999,9.300000000009926e-05,0,sub_9
0.0015235999999997,-0.0096077999999987,-0.0118753999999998,-0.0037549999999995,0.0031748000000009,-0.0016313999999999,0,sub_9
0.0006629999999997,-0.0074783999999987,-0.0117101999999998,-0.0050139999999994,0.0063812000000009,-0.0031397999999999,0,sub_9
-0.0011062000000002,-0.0050081999999987,-0.0119963999999999,-0.0054263999999994,0.0080932000000009,-0.0046403999999998,0,sub_9
-0.0024534000000002,-0.0031003999999987,-0.0119201999999999,-0.0052119999999994,0.0078812000000009,-0.0050657999999999,0,sub_9
-0.0043550000000002,-0.0015485999999987,-0.0119651999999999,-0.0041467999999994,0.0061726000000009,-0.0052677999999999,0,sub_9
-0.0052664000000002,-0.0005735999999987,-0.0123611999999999,-0.0024463999999995,0.0031844000000009,-0.0056773999999999,0,sub_9
-0.0048938000000002,-0.0005835999999987,-0.0123757999999998,-0.0009661999999995,-0.000445599999999,-0.0052331999999998,0,sub_9
-0.0045436000000002,-0.0010461999999987,-0.0125245999999998,0.0002978000000004,-0.003228599999999,-0.0032959999999999,0,sub_9
-0.0038882000000002,-0.0020037999999987,-0.0133249999999998,0.0013484000000004,-0.005586399999999,-0.0009335999999999,0,sub_9
-0.0030818000000002,-0.0031227999999987,-0.0138511999999998,0.0015444000000004,-0.006451199999999,0.0020598000000001,0,sub_9
-0.0026636000000002,-0.0043221999999987,-0.0139533999999998,0.0011042000000005,-0.006673799999999,0.0048344,0,sub_9
-0.0031370000000002,-0.0053355999999987,-0.0143767999999999,0.0011056000000005,-0.005833599999999,0.0069772,0,sub_9
-0.0032786000000002,-0.0062433999999987,-0.0148307999999999,0.0008976000000005,-0.005625799999999,0.0076236,0,sub_9
-0.0038202000000002,-0.0060531999999987,-0.0146631999999999,0.0004848000000005,-0.004560999999999,0.0071994,0,sub_9
-0.0050226000000002,-0.0054373999999987,-0.0145623999999999,0.0009314000000005,-0.003281599999999,0.0057128,0,sub_9
-0.0055026000000002,-0.0047469999999987,-0.0146381999999999,0.0013788000000004,-0.001789199999999,0.0042258,0,sub_9
-0.0061226000000002,-0.0045675999999987,-0.0149075999999999,0.0016056000000004,-0.000929199999999,0.0020898,0,sub_9
-0.0070176000000002,-0.0042371999999987,-0.0143183999999999,0.0020496000000004,0.0007822000000009,-4.559999999992001e-05,0,sub_9
-0.0072856000000002,-0.0043147999999987,-0.0139979999999999,0.0027070000000004,0.0027052000000009,-0.0019663999999999,0,sub_9
-0.0064104000000002,-0.0043711999999987,-0.0138287999999999,0.0027184000000004,0.0035642000000009,-0.0036765999999999,0,sub_9
-0.0056274000000002,-0.0049041999999987,-0.0130987999999999,0.0027320000000004,0.0037794000000009,-0.0051633999999998,0,sub_9
-0.0039196000000002,-0.0050845999999987,-0.0120867999999999,0.0029532000000004,0.0039888000000009,-0.0053667999999998,0,sub_9
-0.0020036000000002,-0.0050647999999987,-0.0116835999999998,0.0027418000000004,0.0033458000000009,-0.0051447999999999,0,sub_9
-0.0009044000000002,-0.0053857999999987,-0.0119795999999998,0.0020990000000004,0.0020634000000009,-0.0044975999999999,0,sub_9
-0.0002144000000002,-0.0058041999999987,-0.0120371999999998,0.0014542000000004,0.0012036000000009,-0.0029965999999999,0,sub_9
0.0002019999999997,-0.0057173999999987,-0.0129219999999998,0.0007978000000004,0.0001304000000009,-0.0004359999999999,0,sub_9
2.5199999999787675e-05,-0.0060165999999987,-0.0133881999999998,-7.099999999954803e-05,-0.001153399999999,0.001696,0,sub_9
-0.0007534000000002,-0.0061271999999987,-0.0139157999999998,-0.0011551999999995,-0.002216999999999,0.0036134,0,sub_9
-0.0020416000000002,-0.0055079999999987,-0.0135603999999998,-0.0024459999999995,-0.002212799999999,0.0051006,0,sub_9
-0.0031824000000002,-0.0050677999999987,-0.0135723999999998,-0.0037347999999995,-0.002631199999999,0.005734,0,sub_9
-0.0048954000000002,-0.0049949999999987,-0.0136937999999998,-0.0033099999999995,-0.003049599999999,0.0048838,0,sub_9
-0.0061614000000002,-0.0043437999999987,-0.0137765999999998,-0.0028793999999995,-0.002614199999999,0.0036052,0,sub_9
-0.0068804000000002,-0.0038003999999987,-0.0142915999999998,-0.0020151999999995,-0.001546799999999,0.002328,0,sub_9
-0.0069172000000002,-0.0044127999999987,-0.0144095999999998,-0.0007283999999995,-0.001120799999999,0.0012682,0,sub_9
-0.0066788000000002,-0.0046895999999987,-0.0146957999999998,0.0011958000000004,-0.000275399999999,0.0012806,0,sub_9
-0.0058444000000002,-0.0051661999999987,-0.0140839999999998,0.0012036000000004,0.0014252000000009,0.0019248,0,sub_9
-0.0045204000000002,-0.0054919999999987,-0.0135821999999998,0.0012028000000004,0.0018450000000009,0.0032116,0,sub_9
-0.0036318000000002,-0.0059389999999987,-0.0130141999999998,0.0007752000000004,0.0020542000000009,0.004282,0,sub_9
-0.0028090000000001,-0.0060323999999987,-0.0124065999999998,0.0001362000000004,0.0022658000000009,0.0049238,0,sub_9
-0.0025334000000001,-0.0057167999999987,-0.0112827999999999,-0.0007151999999995,0.0016304000000009,0.0044968,0,sub_9
-0.0024312000000001,-0.0045301999999987,-0.0114747999999999,-0.0005017999999995,0.0007810000000009,0.0036448,0,sub_9
-0.0027666000000001,-0.0037617999999987,-0.0115095999999999,-0.0004969999999995,0.0007854000000009,0.0025766,0,sub_9
-0.0025852000000001,-0.0032369999999987,-0.0113891999999999,-6.459999999952821e-05,0.0007890000000009,0.0012978,0,sub_9
-0.0031940000000002,-0.0027677999999987,-0.0124751999999999,0.0007918000000004,0.0003642000000009,0.000236,0,sub_9
-0.0045082000000002,-0.0032573999999987,-0.0133243999999999,0.0016546000000004,0.0010110000000009,-0.0008261999999999,0,sub_9
-0.0054796000000001,-0.0047211999999987,-0.0138549999999999,0.0016648000000004,0.0022984000000009,-0.0014677999999999,0,sub_9
-0.0058204000000001,-0.0055597999999987,-0.0146695999999999,0.0014560000000004,0.0029448000000009,-0.0014689999999999,0,sub_9
-0.0060836000000001,-0.0058455999999987,-0.0148917999999998,0.0012406000000005,0.0027366000000009,-0.0008283999999999,0,sub_9
-0.0049408000000001,-0.0067979999999987,-0.0139563999999998,0.0012366000000005,0.0023136000000009,2.7600000000079645e-05,0,sub_9
-0.0024506000000001,-0.0071853999999987,-0.0140737999999998,0.0007992000000005,0.0008204000000009,0.0008812,0,sub_9
-0.0005864000000002,-0.0065029999999987,-0.0133385999999998,0.0007878000000004,-0.001311999999999,0.0013112,0,sub_9
0.0005081999999997,-0.0061009999999987,-0.0119029999999998,0.0007800000000004,-0.003016399999999,0.0013132,0,sub_9
0.0012247999999997,-0.0058867999999987,-0.0111719999999998,0.0003470000000004,-0.004074999999999,0.0010984,0,sub_9
0.0014177999999997,-0.0047255999999987,-0.0111277999999998,-8.119999999952822e-05,-0.004704999999999,0.0002422,0,sub_9
0.0001443999999997,-0.0034961999999987,-0.0108361999999998,-8.059999999952823e-05,-0.004910399999999,-0.0006115999999999,0,sub_9
-0.0009108000000002,-0.0029849999999987,-0.0112673999999998,0.0001304000000004,-0.005543399999999,-0.0012495999999999,0,sub_9
-0.0025026000000002,-0.0031501999999987,-0.0126483999999999,0.0011950000000004,-0.006391599999999,-0.0020949999999999,0,sub_9
-0.0043284000000002,-0.0033907999999987,-0.0134057999999999,0.0022628000000004,-0.007031199999999,-0.0029411999999999,0,sub_9
-0.0063336000000002,-0.0044835999999987,-0.0144585999999999,0.0024742000000004,-0.007457999999999,-0.0029391999999999,0,sub_9
-0.0072138000000002,-0.0052823999999987,-0.0158307999999999,0.0020456000000004,-0.007033799999999,-0.0020881999999999,0,sub_9
-0.0077688000000002,-0.0058049999999987,-0.0160905999999999,0.0009810000000004,-0.005327599999999,-0.0010289999999999,0,sub_9
-0.0078474000000002,-0.0059359999999987,-0.0159925999999999,-0.0005065999999995,-0.003192199999999,-0.0004005999999999,0,sub_9
-0.0069248000000001,-0.0056703999999987,-0.0160743999999999,-0.0011405999999995,-0.000847399999999,0.000447,0,sub_9
-0.0058338000000001,-0.0053913999999987,-0.0151201999999998,-0.0015593999999995,0.0014982000000009,0.0008692,0,sub_9
-0.0046272000000001,-0.0055501999999987,-0.0136863999999998,-0.0011257999999995,0.0027790000000009,0.000444,0,sub_9
-0.0035784000000001,-0.0051267999999987,-0.0133349999999998,-0.0006943999999995,0.0032062000000009,-0.0001945999999999,0,sub_9
-0.0021958000000001,-0.0047365999999987,-0.0124017999999998,-0.0004789999999995,0.0034194000000009,-0.0004069999999999,0,sub_9
-0.0016370000000002,-0.0050831999999987,-0.0118215999999998,-0.0004767999999995,0.0032104000000009,-0.0006269999999999,0,sub_9
-0.0012438000000002,-0.0044175999999987,-0.0114995999999998,-0.0004783999999995,0.0023614000000009,-0.0006327999999999,0,sub_9
-0.0009990000000002,-0.0038023999999987,-0.0115949999999998,-0.0006951999999995,0.0015116000000009,-0.0002125999999999,0,sub_9
-0.0007004000000002,-0.0037281999999987,-0.0116385999999998,-0.0009129999999995,0.0006608000000009,0.0004214,0,sub_9
-0.0006364000000002,-0.0045485999999987,-0.0118335999999998,-0.0007061999999995,-0.000617599999999,0.0010588,0,sub_9
-0.0011284000000002,-0.0047383999999987,-0.0118009999999999,-0.0009263999999994,-0.002108199999999,0.0010592,0,sub_9
-0.0015794000000002,-0.0050613999999987,-0.0120977999999999,-0.0011415999999994,-0.002745799999999,0.000845,0,sub_9
-0.0022116000000002,-0.0057307999999987,-0.0127193999999999,-0.0011397999999994,-0.002744199999999,0.0004176,0,sub_9
-0.0026820000000001,-0.0060357999999987,-0.0129971999999999,-0.0009191999999994,-0.002529199999999,-0.0006579999999999,0,sub_9
-0.0037270000000001,-0.0055223999999987,-0.0132301999999999,-0.0009061999999994,-0.001035199999999,-0.0017365999999999,0,sub_9
-0.0043492000000001,-0.0052417999999987,-0.0134297999999999,-0.0002559999999995,0.0002418000000009,-0.0023831999999999,0,sub_9
-0.0047596000000001,-0.0049461999999987,-0.0135725999999999,0.0006046000000004,0.0008790000000009,-0.0030275999999999,0,sub_9
-0.0050088000000001,-0.0042429999999987,-0.0128601999999999,0.0008262000000004,0.0015192000000009,-0.0038899999999999,0,sub_9
-0.0053756000000002,-0.0044219999999987,-0.0124645999999999,0.0012538000000004,0.0017308000000009,-0.0038873999999999,0,sub_9
-0.0048434000000001,-0.0044695999999987,-0.0125857999999999,0.0016728000000004,0.0004494000000009,-0.0034555999999999,0,sub_9
-0.0040810000000001,-0.0045331999999987,-0.0128983999999999,0.0012404000000004,-0.000190799999999,-0.0028167999999999,0,sub_9
-0.0033306000000001,-0.0055227999999987,-0.0127507999999999,0.0005956000000004,-0.000192799999999,-0.0017529999999999,0,sub_9
-0.0027500000000001,-0.0057667999999987,-0.0133229999999999,-5.1999999999528206e-05,-0.000408399999999,-0.0004815999999999,0,sub_9
-0.0023502000000001,-0.0055237999999987,-0.0130821999999999,-0.0013357999999995,-0.000618399999999,-6.919999999992019e-05,0,sub_9
-0.0031130000000002,-0.0054909999999987,-0.0130405999999999,-0.0019745999999995,2.2200000000955485e-05,0.0001328,0,sub_9
-0.0033812000000002,-0.0057609999999987,-0.0131433999999999,-0.0024001999999994,0.0002378000000009,-9.03999999999202e-05,0,sub_9
-0.0035610000000002,-0.0049115999999987,-0.0142781999999999,-0.0026105999999994,0.0004544000000009,-0.0007393999999999,0,sub_9
-0.0035554000000002,-0.0050875999999987,-0.0138651999999999,-0.0026057999999994,0.0010952000000009,-0.0011675999999999,0,sub_9
-0.0040630000000002,-0.0055031999999987,-0.0145157999999999,-0.0015349999999994,0.0023680000000009,-0.0007345999999999,0,sub_9
-0.0040288000000002,-0.0058975999999987,-0.0146379999999999,-0.0011073999999994,0.0030040000000009,-0.0003051999999999,0,sub_9
-0.0039884000000001,-0.0060619999999987,-0.0142125999999999,-0.0011119999999994,0.0036510000000009,0.0007604,0,sub_9
-0.0042012000000001,-0.0059105999999987,-0.0135813999999999,-0.0009041999999994,0.0042962000000009,0.0020412,0,sub_9
-0.0041502000000001,-0.0055863999999987,-0.0129899999999999,-0.0011231999999994,0.0043064000000009,0.002679,0,sub_9
-0.0039532000000001,-0.0048781999999987,-0.0125129999999999,-0.0013421999999994,0.0032556000000009,0.00225,0,sub_9
-0.0034744000000001,-0.0038955999999987,-0.0116705999999999,-0.0015591999999994,0.0024188000000009,0.001607,0,sub_9
-0.0033048000000002,-0.0035047999999987,-0.0113935999999998,-0.0013419999999995,0.0019970000000009,0.0003272,0,sub_9
-0.0030530000000001,-0.0039047999999987,-0.0115263999999998,-0.0011257999999995,0.0011500000000009,-0.0011657999999999,0,sub_9
-0.0028446000000001,-0.0035821999999987,-0.0116891999999998,-0.0004873999999995,0.0003038000000009,-0.0018019999999999,0,sub_9
-0.0026504000000001,-0.0040137999999987,-0.0118399999999998,-6.239999999950825e-05,-0.000117399999999,-0.0020129999999999,0,sub_9
-0.0025394000000001,-0.0051885999999987,-0.0124991999999998,-6.319999999950824e-05,-0.000323999999999,-0.0022271999999999,0,sub_9
-0.0024740000000001,-0.0058947999999987,-0.0133103999999998,-6.399999999950824e-05,-0.000318399999999,-0.0022279999999999,0,sub_9
-0.0026896000000001,-0.0057795999999987,-0.0132959999999998,-0.0007057999999995,-0.000523399999999,-0.0022327999999999,0,sub_9
-0.0028402000000001,-0.0061691999999987,-0.0139125999999998,-0.0011275999999995,-9.319999999904452e-05,-0.0028771999999999,0,sub_9
-0.0028912000000001,-0.0057023999999987,-0.0140185999999998,-0.0015503999999995,0.0005484000000009,-0.0030945999999999,0,sub_9
-0.0033820000000001,-0.0049451999999987,-0.0142349999999999,-0.0015455999999995,0.0011892000000009,-0.0035225999999999,0,sub_9
-0.0039046000000001,-0.0039517999999987,-0.0140267999999999,-0.0011151999999995,0.0011948000000009,-0.0039457999999998,0,sub_9
-0.0042732000000001,-0.0039933999999987,-0.0133509999999999,-0.0002569999999995,0.0016242000000009,-0.0041531999999998,0,sub_9
-0.0044572000000002,-0.0040289999999987,-0.0134475999999999,0.0001704000000004,0.0012028000000009,-0.0043623999999998,0,sub_9
-0.0043568000000002,-0.0037281999999987,-0.0138215999999999,0.0003816000000004,0.0003552000000009,-0.0043587999999999,0,sub_9
-0.0036724000000002,-0.0042101999999987,-0.0136669999999998,0.0005920000000004,-0.000493199999999,-0.0041415999999999,0,sub_9
-0.0031896000000002,-0.0048781999999987,-0.0135165999999998,0.0003738000000005,-0.000920999999999,-0.0035017999999999,0,sub_9
