userAcceleration.x,userAcceleration.y,userAcceleration.z,rotationRate.x,rotationRate.y,rotationRate.z,label,subject
-0.0076824000000002,-0.0021573999999988,-0.0053995999999999,0.0004972000000004,-0.0049795999999991,-0.0052927999999999,0,sub_11
-0.0049574000000002,-0.0007583999999988,-0.0057949999999999,0.0020070000000004,-0.0011507999999991,-0.0050735999999999,0,sub_11
-0.0039382000000002,-0.0004899999999988,-0.0051425999999999,0.0035082000000004,0.0007606000000008,-0.0048519999999999,0,sub_11
-0.0026366000000002,-0.0010961999999988,-0.0061175999999999,0.0035082000000004,0.0011850000000008,-0.0044251999999999,0,sub_11
-0.0022970000000002,-0.0017871999999988,-0.0065569999999999,0.0026468000000004,0.0005562000000009,-0.0035763999999999,0,sub_11
-0.0025736000000002,-0.0023567999999988,-0.0077153999999999,0.0007206000000004,0.0009938000000009,-0.0020955999999999,0,sub_11
-0.0044204000000002,-0.0032533999999988,-0.0079279999999999,-0.0016275999999995,0.0029226000000009,-0.0001921999999999,0,sub_11
-0.0075606000000002,-0.0026843999999988,-0.0079251999999999,-0.0041843999999995,0.0065538000000008,0.0023484,0,sub_11
-0.0114136000000002,-0.0021371999999988,-0.0067573999999999,-0.0054695999999995,0.0088998000000009,0.0055404,0,sub_11
-0.0151782000000002,-0.0011507999999988,-0.0064817999999999,-0.0052657999999995,0.0091026000000009,0.0078916,0,sub_11
-0.0166460000000002,0.0003900000000011,-0.0066013999999998,-0.0037817999999995,0.0071790000000009,0.008118,0,sub_11
-0.0161848000000002,0.0014512000000011,-0.0083111999999998,-0.0022959999999995,0.0033474000000009,0.0059968,0,sub_11
-0.0145406000000002,0.0009512000000011,-0.0094631999999998,-0.0008167999999995,-0.003676199999999,0.0019528,0,sub_11
-0.0117492000000002,0.0013658000000011,-0.0088961999999998,0.0002366000000004,-0.010697399999999,-0.0023077999999999,0,sub_11
-0.0086898000000002,0.0009056000000011,-0.0081765999999998,0.0010940000000004,-0.013458399999999,-0.0061479999999999,0,sub_11
-0.0063802000000002,-0.0003877999999988,-0.0073013999999998,0.0025942000000004,-0.014309399999999,-0.0087041999999999,0,sub_11
-0.0046124000000002,-0.0012143999999987,-0.0064117999999998,0.0034506000000004,-0.014100599999999,-0.0093433999999999,0,sub_11
-0.0030210000000002,-0.0024953999999987,-0.0054691999999999,0.0030278000000004,-0.012185799999999,-0.0082805999999999,0,sub_11
-0.0021814000000002,-0.0036023999999987,-0.0054757999999998,0.0013304000000004,-0.007502999999999,-0.0057347999999999,0,sub_11
-0.0026468000000002,-0.0043343999999987,-0.0048909999999998,-0.0012223999999995,-0.001757799999999,-0.0017005999999999,0,sub_11
-0.0031854000000002,-0.0038549999999987,-0.0045985999999998,-0.0037759999999995,0.0044314000000009,0.0027572,0,sub_11
-0.0040118000000002,-0.0036547999999988,-0.0046479999999998,-0.0048311999999995,0.0106196000000009,0.006157,0,sub_11
-0.0059670000000002,-0.0026147999999988,-0.0047369999999998,-0.0043985999999995,0.0144632000000009,0.0085022,0,sub_11
-0.0094804000000002,-0.0012179999999988,-0.0057477999999998,-0.0024809999999995,0.0148988000000009,0.0093666,0,sub_11
-0.0122636000000002,0.0013688000000011,-0.0068851999999998,0.0007120000000004,0.0125668000000009,0.0085342,0,sub_11
-0.0138974000000002,0.0025368000000011,-0.0085773999999998,0.0032592000000004,0.0061798000000009,0.0051418,0,sub_11
-0.0144938000000002,0.0019870000000011,-0.0092681999999999,0.0053700000000004,-0.003609399999999,0.000469,0,sub_11
-0.0135534000000002,0.0006624000000011,-0.0093143999999999,0.0074932000000004,-0.010628799999999,-0.0042073999999999,0,sub_11
-0.0113650000000002,-0.0009993999999988,-0.0085957999999999,0.0076954000000004,-0.015941399999999,-0.0069861999999999,0,sub_11
-0.0086218000000002,-0.0035367999999987,-0.0080317999999999,0.0049152000000004,-0.018268399999999,-0.0078669999999999,0,sub_11
-0.0065746000000002,-0.0045811999999987,-0.0060669999999999,0.0023646000000004,-0.013579199999999,-0.0053367999999999,0,sub_11
-0.0039300000000002,-0.0034613999999987,-0.0049877999999999,0.0002446000000004,-0.005917199999999,-0.0006709999999999,0,sub_11
-0.0012144000000002,-0.0032841999999987,-0.0049891999999999,-0.0029355999999995,0.0034520000000009,0.004199,0,sub_11
0.0011211999999997,-0.0024759999999987,-0.0053569999999999,-0.0046185999999995,0.0111184000000009,0.0065276,0,sub_11
0.0017751999999997,-0.0007281999999987,-0.0058403999999999,-0.0037467999999995,0.0153756000000009,0.006742,0,sub_11
0.0002831999999997,-0.0007767999999987,-0.0067179999999999,-0.0016063999999995,0.0153742000000009,0.0052616,0,sub_11
-0.0038856000000002,-0.0007631999999988,-0.0065307999999999,9.980000000043426e-05,0.0138922000000009,0.003567,0,sub_11
-0.0086846000000002,0.0007824000000011,-0.0073051999999999,0.0015802000000004,0.0098536000000009,0.0020878,0,sub_11
-0.0138860000000002,0.0008140000000011,-0.0077825999999999,0.0019928000000004,0.0064546000000009,0.0014548,0,sub_11
-0.0177086000000002,0.0005096000000011,-0.0075413999999999,0.0019718000000004,0.0024144000000009,0.0016741999999999,0,sub_11
-0.0191486000000002,0.0007218000000011,-0.0073865999999998,0.0011022000000004,-0.000345399999999,0.0020995999999999,0,sub_11
-0.0196860000000002,0.0010482000000011,-0.0078931999999998,0.0002410000000004,-0.002258999999999,0.0018824,0,sub_11
-0.0190606000000002,0.0006416000000011,-0.0086209999999998,-0.0004153999999995,-0.006090799999999,0.001669,0,sub_11
-0.0166700000000002,0.0011856000000011,-0.0088905999999998,-0.0012899999999995,-0.010774999999999,0.0016688,0,sub_11
-0.0137416000000002,0.0010614000000011,-0.0089465999999998,-0.0021519999999995,-0.013962799999999,0.000385,0,sub_11
-0.0076288000000002,0.0003846000000011,-0.0087091999999999,-0.0030013999999995,-0.015441399999999,-0.0015463999999999,0,sub_11
-0.0009786000000002,-0.0003273999999988,-0.0084927999999999,-0.0042621999999995,-0.013933999999999,-0.0039115999999999,0,sub_11
0.0041883999999997,-0.0007877999999988,-0.0071297999999998,-0.0044407999999995,-0.009870399999999,-0.0071271999999999,0,sub_11
0.0058195999999997,-0.0009387999999988,-0.0045607999999998,-0.0026969999999995,-0.004962999999999,-0.0099031999999999,0,sub_11
0.0056535999999997,-0.0008875999999988,-0.0019775999999998,0.0005258000000004,-0.000497999999999,-0.0098909999999999,0,sub_11
0.0008445999999997,0.0001550000000011,-0.0002995999999999,0.0037294000000004,0.0022520000000009,-0.0077355999999999,0,sub_11
-0.0042692000000002,-0.0007051999999988,-0.0019189999999999,0.0067052000000004,0.0035044000000009,-0.0038707999999999,0,sub_11
-0.0081868000000002,-0.0012999999999988,-0.0032861999999999,0.0077416000000004,0.0017826000000009,0.0016946,0,sub_11
-0.0087522000000002,-0.0023159999999987,-0.0064395999999999,0.0053658000000004,7.440000000095339e-05,0.006809,0,sub_11
-0.0094436000000002,-0.0027967999999987,-0.0068991999999999,0.0015204000000004,0.0020004000000009,0.0101992,0,sub_11
-0.0098628000000002,-0.0037561999999987,-0.0066607999999999,-0.0010303999999995,0.0062688000000009,0.0127408,0,sub_11
-0.0105550000000002,-0.0029643999999987,-0.0038691999999999,-0.0027161999999995,0.0109688000000009,0.0131514,0,sub_11
-0.0100146000000002,-0.0007039999999987,-0.0054331999999999,-0.0046059999999995,0.0146102000000009,0.0099288,0,sub_11
-0.0101418000000002,0.0009938000000011,-0.0060201999999999,-0.0033007999999995,0.0137790000000009,0.0035296,0,sub_11
-0.0095654000000002,0.0015410000000011,-0.0071589999999999,-0.0007267999999995,0.0089012000000009,-0.0043509999999999,0,sub_11
-0.0096318000000002,0.0019370000000011,-0.0081047999999999,0.0005658000000004,0.0036028000000009,-0.0124535999999999,0,sub_11
-0.0096724000000002,0.0022852000000011,-0.0086473999999999,0.0016288000000004,-0.001486999999999,-0.0173553999999999,0,sub_11
-0.0115066000000001,0.0011712000000011,-0.0069845999999999,0.0033206000000004,-0.004467199999999,-0.0175551999999999,0,sub_11
-0.0127452000000002,0.0004786000000011,-0.0057897999999999,0.0026642000000004,-0.003408199999999,-0.0135037999999999,0,sub_11
-0.0132198000000002,-0.0006155999999987,-0.0066799999999999,-0.0003509999999995,-0.002775599999999,-0.0073317999999999,0,sub_11
-0.0119842000000001,-0.0020895999999987,-0.0063613999999999,-0.0027363999999995,-0.004276799999999,-0.0009391999999999,0,sub_11
-0.0105020000000001,-0.0030895999999987,-0.0060547999999999,-0.0046845999999995,-0.005567999999999,0.0039628,0,sub_11
-0.0087082000000002,-0.0034949999999987,-0.0049787999999999,-0.0049037999999995,-0.004935799999999,0.0058832,0,sub_11
-0.0076528000000002,-0.0031947999999987,-0.0057563999999998,-0.0036205999999995,-0.0040941999999991,0.0056716,0,sub_11
-0.0070022000000002,-0.0020787999999988,-0.0065233999999998,-0.0021151999999995,-0.0028211999999991,0.0039654,0,sub_11
-0.0067188000000002,-0.0008049999999988,-0.0079185999999998,-0.0012509999999995,-0.0028199999999991,0.0011882,0,sub_11
-0.0067810000000002,-0.0002321999999988,-0.0083643999999999,-0.0006077999999995,-0.0043101999999991,-0.0013751999999999,0,sub_11
-0.0070094000000002,-0.0005411999999988,-0.0079357999999999,-0.0010353999999995,-0.004739199999999,-0.0020243999999999,0,sub_11
-0.0068586000000002,-0.0016735999999988,-0.0063139999999999,-0.0014611999999995,-0.004312399999999,-0.0018143999999999,0,sub_11
-0.0075562000000002,-0.0027647999999988,-0.0051517999999999,-0.0008211999999995,-0.002829199999999,-0.0003163999999999,0,sub_11
-0.0078236000000002,-0.0034415999999988,-0.0057979999999999,3.900000000045456e-05,0.0001446000000009,0.0011814,0,sub_11
-0.0083538000000002,-0.0031627999999988,-0.0068887999999998,4.780000000045456e-05,0.0027046000000009,0.001814,0,sub_11
-0.0091388000000002,-0.0023031999999987,-0.0075617999999998,4.7000000000454535e-05,0.0024976000000009,0.001809,0,sub_11
-0.0094450000000002,-0.0005111999999987,-0.0076599999999998,0.0008978000000004,0.0016492000000009,0.0015972,0,sub_11
-0.0088012000000002,0.0006348000000012,-0.0083717999999998,0.0026050000000004,0.0010126000000009,0.0009638,0,sub_11
-0.0081946000000002,0.0010024000000012,-0.0085881999999998,0.0030232000000004,-0.000475999999999,0.0013906,0,sub_11
-0.0073020000000002,-0.0001063999999987,-0.0076977999999998,0.0025792000000004,-0.003460599999999,0.0022458,0,sub_11
-0.0067160000000002,-0.0014721999999988,-0.0067239999999998,0.0019256000000004,-0.005167999999999,0.0035252,0,sub_11
-0.0065708000000002,-0.0035917999999988,-0.0058841999999998,0.0010712000000004,-0.003255999999999,0.0056532,0,sub_11
-0.0063116000000002,-0.0040803999999988,-0.0057249999999999,-0.0006275999999995,0.0010112000000009,0.0075618,0,sub_11
-0.0066452000000002,-0.0038575999999988,-0.0050787999999998,-0.0012555999999995,0.0048536000000009,0.0081966,0,sub_11
-0.0062618000000001,-0.0017323999999988,-0.0059941999999998,-0.0010215999999995,0.0093374000000009,0.0075548,0,sub_11
-0.0053614000000001,0.0003660000000011,-0.0068383999999998,0.0002784000000004,0.0119068000000009,0.0052136,0,sub_11
-0.0045092000000001,0.0023746000000011,-0.0079277999999998,0.0013544000000004,0.0106480000000009,0.0013802,0,sub_11
-0.0042734000000002,0.0027574000000011,-0.0078047999999998,0.0022040000000004,0.0068220000000009,-0.0015999999999999,0,sub_11
-0.0046986000000002,0.0027814000000011,-0.0082605999999999,0.0021972000000004,0.0034208000000009,-0.0035185999999999,0,sub_11
-0.0055574000000002,0.0015728000000011,-0.0083997999999999,0.0013304000000004,-0.000195599999999,-0.0041609999999999,0,sub_11
-0.0065752000000002,0.0008780000000011,-0.0088755999999999,-0.0003879999999995,-0.002533999999999,-0.0039561999999999,0,sub_11
-0.0079006000000002,-0.0003131999999988,-0.0085095999999999,-0.0018921999999995,-0.003817999999999,-0.0033221999999999,0,sub_11
-0.0088982000000002,-0.0007863999999988,-0.0078801999999998,-0.0023177999999995,-0.003397999999999,-0.0035375999999999,0,sub_11
-0.0093950000000002,-0.0011865999999988,-0.0075403999999998,-0.0021033999999995,-0.003404399999999,-0.0041751999999999,0,sub_11
-0.0096232000000002,-0.0011921999999988,-0.0072945999999998,-0.0014651999999995,-0.003414999999999,-0.0041689999999999,0,sub_11
-0.0104786000000002,-0.0016667999999988,-0.0069721999999998,-0.0006135999999995,-0.002789799999999,-0.0035211999999999,0,sub_11
-0.0108742000000002,-0.0010379999999988,-0.0073035999999998,-0.0001907999999995,-0.001945999999999,-0.0018101999999999,0,sub_11
-0.0102332000000002,-0.0010667999999988,-0.0080253999999999,-0.0006233999999995,-0.001737399999999,-0.0003179999999999,0,sub_11
-0.0093728000000002,-0.0013855999999987,-0.0076983999999999,-0.0014807999999995,-0.001313399999999,0.0009574,0,sub_11
-0.0087086000000002,-0.0016401999999987,-0.0070103999999999,-0.0008349999999995,-0.000249399999999,0.0011802,0,sub_11
-0.0074572000000002,-0.0011149999999987,-0.0073653999999999,-0.0003949999999995,0.0018832000000009,0.0007592,0,sub_11
-0.0062686000000002,-0.0008937999999987,-0.0078525999999999,-0.0003775999999995,0.0035964000000009,-0.0009461999999999,0,sub_11
-0.0066008000000002,-0.0001429999999987,-0.0073329999999999,5.300000000047415e-05,0.0031742000000009,-0.0017911999999999,0,sub_11
-0.0076920000000002,0.0014054000000011,-0.0071925999999999,0.0004770000000004,0.0018970000000009,-0.0019943999999999,0,sub_11
-0.0088324000000002,0.0018964000000011,-0.0076063999999999,0.0002578000000004,0.0014682000000009,-0.0011407999999999,0,sub_11
-0.0094520000000002,0.0011954000000011,-0.0079091999999999,0.0006626000000004,-0.001735799999999,0.0005752,0,sub_11
-0.0093088000000002,0.0010014000000011,-0.0078339999999999,-0.0002167999999995,-0.006211999999999,0.0018568,0,sub_11
-0.0085286000000002,0.0007452000000011,-0.0079045999999999,-0.0015097999999995,-0.009611999999999,0.0016422,0,sub_11
-0.0069818000000002,-0.0008369999999988,-0.0065499999999999,-0.0008603999999995,-0.008967199999999,0.0005814,0,sub_11
-0.0058064000000002,-0.0020739999999988,-0.0057185999999999,0.0006522000000004,-0.006619199999999,-0.0009029999999999,0,sub_11
-0.0060326000000002,-0.0021331999999988,-0.0052783999999999,0.0011026000000004,-0.003414599999999,-0.0026093999999999,0,sub_11
-0.0065654000000002,-0.0023117999999988,-0.0056251999999999,0.0017644000000004,0.0006364000000009,-0.0030335999999999,0,sub_11
-0.0071106000000002,-0.0020959999999988,-0.0059495999999998,0.0024188000000004,0.0042542000000009,-0.0026063999999999,0,sub_11
-0.0076188000000002,-0.0009273999999988,-0.0072785999999998,0.0017796000000004,0.0055304000000009,-0.0015441999999999,0,sub_11
-0.0081964000000002,-0.0004563999999988,-0.0081427999999998,6.680000000045447e-05,0.0051068000000009,-0.0007009999999999,0,sub_11
-0.0080596000000002,-0.0003309999999988,-0.0081047999999998,-0.0007955999999995,0.0040422000000009,-0.0002849999999999,0,sub_11
-0.0079740000000002,0.0003930000000011,-0.0083527999999999,-0.0005901999999995,0.0029748000000009,-7.519999999995716e-05,0,sub_11
-0.0080956000000002,0.0002536000000011,-0.0085991999999999,-0.0008047999999995,0.0029760000000009,-0.0002969999999999,0,sub_11
-0.0085844000000002,-0.0002373999999988,-0.0089145999999999,-0.0010261999999995,0.0010612000000009,-0.0009437999999999,0,sub_11
-0.0089822000000002,-0.0001873999999987,-0.0085547999999998,-0.0008235999999995,-0.001494199999999,-0.0015865999999999,0,sub_11
-0.0092978000000002,1.8000000001216435e-05,-0.0077233999999998,-0.0008265999999995,-0.002769999999999,-0.0022259999999999,0,sub_11
-0.0100630000000002,-0.0008979999999987,-0.0066835999999998,-0.0006121999999995,-0.002982199999999,-0.0026515999999999,0,sub_11
-0.0102246000000002,-0.0014841999999987,-0.0061415999999998,-0.0001915999999995,-0.003418399999999,-0.0022243999999999,0,sub_11
-0.0097280000000002,-0.0015971999999987,-0.0061105999999998,-0.0001919999999995,-0.002786799999999,-0.0020151999999999,0,sub_11
-0.0082480000000002,-0.0014793999999988,-0.0058621999999999,-0.0004047999999995,-0.001729399999999,-0.0015943999999999,0,sub_11
-0.0066242000000002,-0.0011761999999988,-0.0063487999999999,-0.0004059999999995,-0.001098799999999,-0.0011713999999999,0,sub_11
-0.0055368000000002,-0.0008039999999988,-0.0060039999999999,-0.0004073999999995,-0.000680399999999,-0.0009617999999999,0,sub_11
-0.0046302000000002,-0.0012745999999988,-0.0062947999999999,-0.0001861999999995,0.0008110000000009,-0.0011757999999999,0,sub_11
-0.0041754000000002,-0.0017073999999988,-0.0062413999999998,-0.0001889999999995,0.0008084000000009,-0.0005347999999999,0,sub_11
-0.0060962000000002,-0.0012769999999988,-0.0062655999999998,0.0002320000000004,0.0001652000000009,0.00011,0,sub_11
-0.0078620000000001,-0.0012101999999988,-0.0058691999999998,0.0006554000000004,0.0003716000000009,0.0013954,0,sub_11
-0.0084178000000002,-0.0009623999999988,-0.0067191999999998,0.0008694000000004,0.0010066000000009,0.0022516,0,sub_11
-0.0086084000000002,-0.0005987999999987,-0.0072095999999998,0.0002202000000004,-0.001334799999999,0.002251,0,sub_11
-0.0094542000000002,-0.0005701999999987,-0.0067153999999999,0.0004322000000004,-0.002823599999999,0.0014008,0,sub_11
-0.0089640000000002,-0.0005605999999987,-0.0058463999999999,0.0008700000000004,-0.001331199999999,0.0007618,0,sub_11
-0.0081642000000002,-0.0012309999999987,-0.0063967999999999,0.0008834000000004,0.0001662000000009,-0.0007353999999999,0,sub_11
-0.0082088000000002,-0.0016241999999987,-0.0061755999999999,0.0013112000000004,-0.000895599999999,-0.0020129999999999,0,sub_11
-0.0085768000000002,-0.0011815999999988,-0.0059537999999999,0.0017360000000004,-0.001323199999999,-0.0020093999999999,0,sub_11
-0.0078800000000002,-0.0007291999999988,-0.0072579999999999,0.0013150000000004,-0.000253399999999,-0.0017983999999999,0,sub_11
-0.0065318000000002,-0.0011385999999988,-0.0083183999999998,-0.0001833999999995,-0.001523599999999,-0.0015917999999999,0,sub_11
-0.0062258000000002,-0.0007753999999988,-0.0075453999999998,-0.0010445999999995,-0.003222999999999,-0.0011665999999999,0,sub_11
-0.0055896000000002,-0.0013291999999988,-0.0072523999999998,-0.0014667999999995,-0.001729599999999,-0.0003151999999999,0,sub_11
-0.0058064000000002,-0.0020439999999987,-0.0068697999999998,-0.0008181999999995,0.0004000000000009,0.0003292,0,sub_11
-0.0067004000000001,-0.0020459999999987,-0.0061527999999998,-0.0006039999999995,0.0014610000000009,0.001184,0,sub_11
-0.0079688000000001,-0.0017693999999987,-0.0060109999999999,-0.0003925999999995,0.0016708000000009,0.0018262,0,sub_11
-0.0092332000000001,-0.0016289999999987,-0.0064817999999999,0.0002476000000004,0.0027296000000009,0.0028974,0,sub_11
-0.0105440000000001,-0.0013289999999987,-0.0066277999999999,0.0002438000000004,0.0020896000000009,0.003112,0,sub_11
-0.0110570000000001,-0.0012085999999987,-0.0067223999999999,2.240000000045444e-05,0.0005994000000009,0.0033304,0,sub_11
-0.0100728000000002,-0.0015251999999987,-0.0067727999999999,0.0008718000000004,-0.000678799999999,0.002915,0,sub_11
-0.0092272000000002,-0.0013039999999988,-0.0067751999999999,0.0017286000000004,-0.001313599999999,0.0014306,0,sub_11
-0.0069306000000002,-0.0009083999999988,-0.0065329999999999,0.0013032000000004,-0.002794399999999,-0.0004887999999999,0,sub_11
-0.0054514000000002,-0.0011301999999988,-0.0058605999999999,0.0013056000000004,-0.003639399999999,-0.0019789999999999,0,sub_11
-0.0043502000000002,-0.0010681999999988,-0.0055903999999999,0.0015248000000004,-0.003210599999999,-0.0028325999999999,0,sub_11
-0.0043412000000002,-0.0008445999999988,-0.0057817999999999,0.0013190000000004,-0.001293199999999,-0.0026227999999999,0,sub_11
-0.0040786000000002,-0.0019483999999988,-0.0057025999999999,0.0008914000000004,-1.939999999904712e-05,-0.0011317999999999,0,sub_11
-0.0050606000000002,-0.0021875999999988,-0.0057127999999999,0.0008914000000004,0.0014678000000009,0.000582,0,sub_11
-0.0061686000000002,-0.0019541999999988,-0.0062701999999998,0.0006800000000004,0.0038064000000009,0.0027206,0,sub_11
-0.0066720000000002,-0.0019931999999988,-0.0061249999999998,0.0009000000000004,0.0061476000000009,0.0037938,0,sub_11
-0.0074182000000002,-0.0013373999999988,-0.0065935999999998,4.640000000045432e-05,0.0061524000000009,0.004008,0,sub_11
-0.0091934000000002,-0.0003851999999988,-0.0070857999999998,-0.0001603999999995,0.0063732000000009,0.0029444,0,sub_11
-0.0111594000000002,0.0001454000000011,-0.0077877999999998,5.960000000045436e-05,0.0063784000000009,0.0014504,0,sub_11
-0.0121748000000002,0.0001838000000011,-0.0081119999999998,5.860000000045436e-05,0.0044676000000009,-0.0002563999999999,0,sub_11
-0.0135800000000002,0.0006376000000011,-0.0088115999999998,-0.0016589999999995,0.0008568000000009,-0.0015455999999999,0,sub_11
-0.0138654000000002,0.0001834000000011,-0.0081711999999998,-0.0020987999999995,-0.002757399999999,-0.0021809999999999,0,sub_11
-0.0119628000000002,4.680000000119671e-05,-0.0076965999999998,-0.0025357999999995,-0.005520199999999,-0.0026035999999999,0,sub_11
-0.0088326000000002,-0.0011191999999988,-0.0062747999999998,-0.0029707999999995,-0.007856999999999,-0.0030269999999999,0,sub_11
-0.0057422000000002,-0.0014851999999988,-0.0052437999999998,-0.0027627999999995,-0.009556799999999,-0.0034465999999999,0,sub_11
-0.0028686000000002,-0.0024007999999988,-0.0044359999999998,-0.0012611999999995,-0.008278199999999,-0.0038609999999999,0,sub_11
-0.0013348000000002,-0.0031453999999988,-0.0038599999999998,0.0006754000000004,-0.004238599999999,-0.0034251999999999,0,sub_11
-0.0014142000000002,-0.0035687999999988,-0.0043173999999998,0.0017548000000004,1.2800000000932898e-05,-0.0019275999999999,0,sub_11
-0.0023564000000002,-0.0029297999999988,-0.0057713999999998,0.0009062000000004,0.0036276000000009,0.0006256,0,sub_11
-0.0046998000000002,-0.0020831999999988,-0.0065453999999998,0.0002696000000004,0.0076708000000009,0.0036112,0,sub_11
-0.0079522000000002,-0.0012121999999988,-0.0071843999999998,-0.0003735999999995,0.0104346000000009,0.006812,0,sub_11
-0.0113572000000002,-0.0002809999999988,-0.0070023999999999,-0.0010187999999995,0.0117114000000009,0.0089464,0,sub_11
-0.0139950000000002,0.0006906000000011,-0.0080883999999999,-0.0016629999999995,0.0117158000000009,0.009587,0,sub_11
-0.0158446000000002,0.0015468000000011,-0.0085853999999999,-0.0003925999999995,0.0078886000000009,0.0076822,0,sub_11
-0.0159406000000002,0.0015760000000011,-0.0083221999999999,0.0004484000000004,0.0017206000000009,0.0042778,0,sub_11
-0.0139110000000002,0.0019128000000011,-0.0074715999999998,0.0021468000000004,-0.004446799999999,2.4800000000042843e-05,0,sub_11
-0.0110158000000002,0.0009638000000011,-0.0074711999999998,0.0029960000000004,-0.008695799999999,-0.0033817999999999,0,sub_11
-0.0080386000000002,0.0005836000000011,-0.0073665999999998,0.0040546000000004,-0.011675799999999,-0.0046519999999999,0,sub_11
-0.0047894000000002,-0.0017163999999987,-0.0072135999999998,0.0025584000000004,-0.010821799999999,-0.0033811999999999,0,sub_11
-0.0022962000000002,-0.0032975999999987,-0.0062749999999998,0.0006374000000004,-0.008267199999999,-0.0008337999999999,0,sub_11
-0.0007576000000002,-0.0042813999999987,-0.0049083999999999,-0.0012767999999995,-0.003584599999999,0.0023518,0,sub_11
0.0001973999999997,-0.0035387999999987,-0.0043973999999999,-0.0008357999999995,0.0017318000000009,0.0044846,0,sub_11
-0.0002666000000002,-0.0043389999999987,-0.0042183999999999,0.0004656000000004,0.0062024000000009,0.0042742,0,sub_11
-0.0019812000000002,-0.0024955999999988,-0.0043909999999999,0.0024022000000004,0.0085442000000009,0.0030028,0,sub_11
-0.0044556000000002,-0.0002839999999988,-0.0059117999999999,0.0034790000000004,0.0096146000000008,0.0013004,0,sub_11
-0.0073166000000002,-0.0001813999999988,-0.0074261999999998,0.0041222000000004,0.0091950000000008,-0.0004029999999999,0,sub_11
-0.0106024000000002,-0.0005759999999988,-0.0079923999999999,0.0028290000000004,0.0064334000000008,-0.0008351999999999,0,sub_11
-0.0133822000000002,-0.0001233999999988,-0.0062707999999998,0.0002438000000004,0.0034540000000008,0.001074,0,sub_11
-0.0145210000000002,-0.0006235999999988,-0.0061023999999998,-0.0019009999999995,0.0034560000000009,0.0029826,0,sub_11
-0.0138560000000002,-0.0015407999999988,-0.0051319999999998,-0.0019009999999995,0.0038804000000009,0.0034094,0,sub_11
-0.0122008000000002,-0.0003121999999988,-0.0060583999999999,-0.0018999999999995,0.0028202000000009,0.002129,0,sub_11
-0.0096810000000002,3.500000000117645e-05,-0.0069953999999999,-0.0021095999999995,0.0011268000000009,-0.0004339999999999,0,sub_11
-0.0074074000000002,0.0008374000000011,-0.0081433999999999,-0.0012531999999995,-0.001209999999999,-0.0036311999999999,0,sub_11
-0.0053150000000002,0.0014696000000011,-0.0083763999999999,2.4000000000454214e-05,-0.004614399999999,-0.0066105999999999,0,sub_11
-0.0039294000000002,0.0012830000000011,-0.0088713999999999,-0.0001969999999995,-0.007380999999999,-0.0078921999999999,0,sub_11
-0.0038646000000002,-0.0005893999999987,-0.0075789999999999,-0.0004219999999995,-0.009089999999999,-0.0072523999999999,0,sub_11
