userAcceleration.x,userAcceleration.y,userAcceleration.z,rotationRate.x,rotationRate.y,rotationRate.z,label,subject
-0.0066360000000002,0.0009988000000011,-0.0080257999999999,-0.0023779999999995,-0.003452199999999,0.002454,0,sub_11
-0.0036642000000002,0.0007502000000011,-0.0080099999999999,-0.0023853999999995,-0.007044799999999,0.0011748,0,sub_11
-0.0024356000000002,2.200000001176261e-06,-0.0067277999999999,-0.0019641999999995,-0.010637199999999,-0.0005287999999999,0,sub_11
-0.0012186000000002,-0.0008967999999988,-0.0060707999999999,-0.0008835999999995,-0.010182999999999,-0.0024465999999999,0,sub_11
-0.0011908000000002,-0.0021873999999988,-0.0051351999999999,-0.0006447999999995,-0.006320399999999,-0.0035199999999999,0,sub_11
-0.0034296000000002,-0.0028725999999988,-0.0047349999999999,0.0006442000000004,-0.003770799999999,-0.0028733999999999,0,sub_11
-0.0045154000000002,-0.0029415999999988,-0.0044741999999999,0.0017178000000004,-0.000373399999999,-0.0009475999999999,0,sub_11
-0.0041472000000002,-0.0027307999999988,-0.0055699999999999,0.0015150000000004,0.0034564000000009,0.0005416,0,sub_11
-0.0038060000000002,-0.0023139999999988,-0.0059823999999999,0.0008738000000004,0.0040944000000009,0.0013908,0,sub_11
-0.0037828000000002,-0.0014071999999987,-0.0057207999999999,0.0017288000000004,0.0038894000000009,0.001603,0,sub_11
-0.0030250000000002,-0.0009269999999987,-0.0050929999999999,0.0021666000000003,0.0051798000000009,0.0011696,0,sub_11
-0.0034592000000002,-0.0008303999999987,-0.0048135999999999,0.0023922000000004,0.0062596000000009,0.0003076,0,sub_11
-0.0050038000000002,-0.0005221999999987,-0.0053693999999999,0.0021882000000004,0.0069138000000008,-0.0003431999999999,0,sub_11
-0.0069290000000002,0.0001366000000012,-0.0063087999999999,0.0021918000000004,0.0071378000000008,-0.0001373999999999,0,sub_11
-0.0081860000000002,0.0009076000000012,-0.0074223999999998,0.0015450000000004,0.0054364000000008,-0.0003533999999999,0,sub_11
-0.0091856000000002,0.0007814000000012,-0.0080543999999999,0.0004744000000004,0.0045880000000008,-0.0003597999999999,0,sub_11
-0.0103566000000002,0.0008080000000011,-0.0086513999999999,-0.0003849999999995,0.0028882000000009,-0.0007907999999999,0,sub_11
-0.0103186000000002,0.0004934000000012,-0.0078949999999998,-0.0003909999999995,0.0016212000000009,-0.0007991999999999,0,sub_11
-0.0098384000000002,-6.759999999880371e-05,-0.0071651999999998,3.460000000045189e-05,0.0009936000000009,-0.0012327999999999,0,sub_11
-0.0100434000000002,-0.0001739999999988,-0.0067661999999998,-0.0006143999999995,-0.000273799999999,-0.0006047999999999,0,sub_11
-0.0096192000000002,0.0004720000000011,-0.0072901999999998,-0.0012681999999995,-0.003030799999999,-0.0004023999999999,0,sub_11
-0.0083872000000002,0.0004324000000011,-0.0075743999999998,-0.0019257999999995,-0.006427799999999,1.4400000000082966e-05,0,sub_11
-0.0075064000000002,-1.039999999882359e-05,-0.0073703999999998,-0.0025783999999995,-0.009195199999999,1.340000000006297e-05,0,sub_11
-0.0069772000000002,-0.0008885999999988,-0.0066925999999998,-0.0032281999999995,-0.010686999999999,0.0006516,0,sub_11
-0.0058944000000002,-0.0018683999999988,-0.0057943999999999,-0.0021605999999995,-0.010470199999999,0.0008714,0,sub_11
-0.0047760000000002,-0.0031347999999988,-0.0047289999999999,-0.0006567999999995,-0.008761199999999,0.0004514,0,sub_11
-0.0042316000000002,-0.0036239999999988,-0.0042481999999999,0.0006462000000004,-0.004069399999999,0.00024,0,sub_11
-0.0035828000000002,-0.0027211999999988,-0.0047227999999999,0.0023730000000004,-0.000230599999999,-0.0001811999999999,0,sub_11
-0.0028998000000002,-0.0020299999999988,-0.0055319999999999,0.0030302000000004,0.0023362000000009,-0.0012489999999999,0,sub_11
-0.0036376000000002,-0.0012593999999988,-0.0061533999999999,0.0030340000000004,0.0034006000000009,-0.0010367999999999,0,sub_11
-0.0053790000000002,0.0008640000000011,-0.0071301999999999,0.0030254000000004,0.0033930000000009,0.000886,0,sub_11
-0.0067660000000002,0.0026166000000011,-0.0080709999999999,0.0025814000000004,0.0012572000000009,0.0025948,0,sub_11
-0.0074776000000002,0.0019992000000011,-0.0092499999999999,0.0012772000000004,-0.002791399999999,0.0038728,0,sub_11
-0.0078626000000002,0.0007184000000011,-0.0084365999999999,0.0001906000000004,-0.007038999999999,0.0045132,0,sub_11
-0.0073964000000002,-0.0004995999999988,-0.0075045999999999,-0.0006643999999995,-0.008724999999999,0.0036566,0,sub_11
-0.0063560000000002,-0.0020859999999988,-0.0062533999999999,-0.0008541999999995,-0.006146999999999,0.0015172,0,sub_11
-0.0051966000000002,-0.0037987999999988,-0.0055553999999999,-0.0006067999999995,-0.001651399999999,-0.0010489999999999,0,sub_11
-0.0050188000000002,-0.0043245999999988,-0.0045191999999999,-0.0003621999999995,0.0030540000000009,-0.0027609999999999,0,sub_11
-0.0054204000000002,-0.0030619999999988,-0.0045733999999999,0.0009382000000004,0.0066748000000009,-0.0036111999999999,0,sub_11
-0.0048782000000002,-0.0019517999999988,-0.0056755999999999,0.0018110000000004,0.0105086000000009,-0.0040373999999999,0,sub_11
-0.0036876000000002,-0.0013293999999988,-0.0066451999999999,0.0018110000000004,0.0105086000000009,-0.0040373999999999,0,sub_11
-0.0038142000000002,-0.0001237999999988,-0.0070459999999999,0.0013654000000004,0.0071082000000009,-0.0031795999999999,0,sub_11
-0.0053676000000002,0.0009350000000011,-0.0068083999999999,0.0011332000000004,0.0043436000000009,-0.0016801999999999,0,sub_11
-0.0065652000000002,0.0011966000000011,-0.0071437999999999,-0.0001639999999995,0.0022210000000009,2.460000000004308e-05,0,sub_11
-0.0083932000000002,0.0012332000000011,-0.0072939999999999,-0.0016869999999995,-0.002033999999999,0.0023716,0,sub_11
-0.0102350000000002,0.0003418000000011,-0.0072153999999999,-0.0032023999999995,-0.005433199999999,0.0038628,0,sub_11
-0.0109348000000001,-0.0006539999999988,-0.0070539999999998,-0.0036395999999995,-0.007138599999999,0.0045028,0,sub_11
-0.0091138000000001,-0.0016031999999988,-0.0059475999999998,-0.0032119999999995,-0.007775799999999,0.0036522,0,sub_11
-0.0072484000000001,-0.0022725999999988,-0.0057435999999998,-0.0017043999999995,-0.005858799999999,0.001953,0,sub_11
-0.0050782000000002,-0.0030487999999988,-0.0051399999999998,0.0006682000000004,-0.002661399999999,-0.0010237999999999,0,sub_11
-0.0038230000000002,-0.0030047999999988,-0.0052587999999999,0.0028188000000004,-0.001168599999999,-0.0037861999999999,0,sub_11
-0.0038552000000002,-0.0013027999999988,-0.0044985999999999,0.0036786000000004,-0.000741599999999,-0.0052741999999999,0,sub_11
-0.0050440000000002,0.0008088000000011,-0.0056975999999999,0.0038898000000004,-0.000319999999999,-0.0048441999999999,0,sub_11
-0.0059240000000002,0.0014248000000011,-0.0068861999999999,0.0032430000000004,-0.000111599999999,-0.0031397999999999,0,sub_11
-0.0080652000000002,0.0017478000000011,-0.0067087999999999,0.0021482000000004,-0.002678999999999,0.0004878,0,sub_11
-0.0095274000000002,0.0020816000000011,-0.0058879999999999,0.0012660000000004,-0.004823599999999,0.0047574,0,sub_11
-0.0087676000000002,0.0006278000000011,-0.0058533999999999,0.0016840000000004,-0.004408399999999,0.0071098,0,sub_11
-0.0071998000000002,-0.0025965999999987,-0.0055625999999999,0.0033976000000004,-0.003126199999999,0.0071222,0,sub_11
-0.0066862000000002,-0.0050481999999987,-0.0043067999999999,0.0046892000000004,-0.001837999999999,0.0060634,0,sub_11
-0.0060954000000001,-0.0058077999999987,-0.0049483999999999,0.0040816000000004,0.0020220000000009,0.0028516,0,sub_11
-0.0063088000000001,-0.0050371999999987,-0.0050279999999999,0.0039104000000004,0.0075866000000009,-0.0007867999999999,0,sub_11
-0.0069184000000001,-0.0036565999999987,-0.0053591999999999,0.0035162000000004,0.0118702000000009,-0.0035703999999999,0,sub_11
-0.0070580000000001,-6.859999999878353e-05,-0.0062477999999999,0.0013920000000004,0.0129472000000009,-0.0046549999999999,0,sub_11
-0.0052264000000001,0.0030666000000011,-0.0069785999999999,9.940000000045208e-05,0.0097574000000009,-0.0050873999999999,0,sub_11
-0.0018000000000002,0.0048414000000011,-0.0075381999999999,0.0007138000000004,0.0042148000000009,-0.0048623999999999,0,sub_11
0.0012663999999997,0.0039786000000012,-0.0077937999999999,0.0008910000000004,-0.002383199999999,-0.0037849999999999,0,sub_11
0.0027569999999997,0.0022028000000012,-0.0078639999999999,-0.0004213999999995,-0.007487199999999,-0.0020789999999999,0,sub_11
0.0023447999999997,-0.0007347999999987,-0.0069179999999999,-0.0019337999999995,-0.008546599999999,0.0006888,0,sub_11
-0.0004710000000002,-0.0032947999999987,-0.0059705999999999,-0.0032107999999995,-0.004918599999999,0.0032386,0,sub_11
-0.0037394000000002,-0.0061713999999987,-0.0040661999999999,-0.0038333999999995,0.0012664000000009,0.0051486,0,sub_11
-0.0065612000000002,-0.0076323999999987,-0.0029287999999999,-0.0029433999999995,0.0093596000000009,0.0051444,0,sub_11
-0.0082514000000002,-0.0071123999999987,-0.0040461999999999,-0.0003311999999995,0.0187336000000009,0.0030142,0,sub_11
-0.0095132000000002,-0.0038965999999987,-0.0054925999999999,0.0022756000000004,0.0242872000000009,-0.0023127999999999,0,sub_11
-0.0101084000000002,0.0002068000000012,-0.0073927999999999,0.0044174000000004,0.0219568000000009,-0.0069919999999999,0,sub_11
-0.0098708000000002,0.0042500000000012,-0.0089877999999999,0.0048292000000004,0.0168532000000009,-0.0093293999999999,0,sub_11
-0.0092380000000002,0.0057988000000011,-0.0112267999999999,0.0030890000000004,0.0104676000000009,-0.0089027999999999,0,sub_11
-0.0092428000000002,0.0053532000000011,-0.0106953999999998,-0.0003953999999995,-0.000401399999999,-0.0046371999999999,0,sub_11
-0.0093382000000002,0.0036436000000011,-0.0090425999999998,-0.0038945999999995,-0.012348599999999,0.002404,0,sub_11
-0.0071268000000002,0.0004418000000011,-0.0068879999999998,-0.0069077999999995,-0.013209999999999,0.007298,0,sub_11
-0.0057026000000002,-0.0037617999999988,-0.0062469999999998,-0.0073173999999995,-0.008524799999999,0.0081436,0,sub_11
-0.0079112000000002,-0.0046765999999987,-0.0030253999999998,-0.0055997999999995,-0.007460399999999,0.0068724,0,sub_11
-0.0097444000000002,-0.0040859999999987,-0.0025097999999999,-0.0030127999999995,-0.005106599999999,0.0034694,0,sub_11
-0.0105386000000002,-0.0040655999999987,-0.0033673999999999,0.0008804000000004,0.0012976000000009,-0.0016387999999999,0,sub_11
-0.0096392000000002,-0.0024633999999987,-0.0051705999999999,0.0041020000000004,0.0013098000000009,-0.0061025999999999,0,sub_11
-0.0068220000000002,-7.339999999880367e-05,-0.0059143999999999,0.0045066000000004,-0.005496999999999,-0.0077999999999999,0,sub_11
-0.0003996000000002,0.0012836000000011,-0.0077413999999999,0.0036346000000004,-0.009749399999999,-0.0078005999999999,0,sub_11
0.0060563999999997,0.0004366000000011,-0.0064571999999999,0.0034252000000004,-0.008047599999999,-0.0069497999999999,0,sub_11
0.0112371999999997,-0.0008487999999988,-0.0058445999999999,0.0017250000000004,-0.004215999999999,-0.0046165999999999,0,sub_11
0.0112479999999997,-0.0027723999999988,-0.0046385999999999,-0.0006163999999995,0.0008902000000009,-0.0007939999999999,0,sub_11
0.0072913999999997,-0.0043967999999988,-0.0036691999999999,-0.0012387999999995,0.0096206000000009,0.00282,0,sub_11
0.0022459999999997,-0.0067073999999987,-0.0036409999999999,-0.0016333999999995,0.0204848000000009,0.0053646,0,sub_11
-0.0043312000000002,-0.0061401999999987,-0.0043787999999999,-0.0026853999999995,0.0266676000000009,0.007056,0,sub_11
-0.0100544000000002,-0.0043095999999987,-0.0049317999999999,-0.0028925999999995,0.0296568000000009,0.0074756,0,sub_11
-0.0141534000000002,-0.0020849999999987,-0.0066217999999999,-0.0013907999999995,0.0311564000000009,0.0059862,0,sub_11
-0.0166634000000002,0.0008104000000012,-0.0082569999999999,-0.0003257999999995,0.0286046000000008,0.0038604,0,sub_11
-0.0191242000000002,0.0047774000000011,-0.0097897999999999,-0.0007821999999995,0.0194552000000008,0.0013052,0,sub_11
-0.0192478000000002,0.0065402000000011,-0.0108757999999999,-0.0016875999999995,0.0066822000000009,-0.0014613999999999,0,sub_11
-0.0193246000000002,0.0072160000000011,-0.0108783999999999,-0.0021707999999995,-0.006521199999999,-0.0035835999999999,0,sub_11
-0.0173810000000002,0.0069306000000011,-0.0101083999999999,-0.0039381999999995,-0.019086999999999,-0.0042201999999999,0,sub_11
-0.0141634000000002,0.0048686000000011,-0.0086983999999999,-0.0063417999999995,-0.029737199999999,-0.0037953999999999,0,sub_11
-0.0097670000000002,0.0018934000000011,-0.0071441999999999,-0.0072297999999995,-0.034855799999999,-0.0027259999999999,0,sub_11
-0.0048358000000002,-0.0009263999999988,-0.0054729999999999,-0.0065905999999995,-0.034222399999999,-0.0018677999999999,0,sub_11
0.0014471999999997,-0.0052369999999988,-0.0033571999999999,-0.0050787999999995,-0.030179599999999,-0.0018623999999999,0,sub_11
0.0057489999999997,-0.0088171999999988,-0.0007967999999999,-0.0029085999999995,-0.022303199999999,-0.0020709999999999,0,sub_11
0.0094963999999997,-0.0099015999999988,-0.0005951999999999,-8.159999999954835e-05,-0.010613399999999,-0.0027047999999999,0,sub_11
0.0112007999999997,-0.0088927999999987,-0.0007491999999999,0.0031692000000004,0.0008602000000009,-0.0029081999999999,0,sub_11
0.0112977999999997,-0.0081503999999987,-0.0014971999999999,0.0047046000000004,0.0116956000000009,-0.0018407999999999,0,sub_11
0.0086493999999997,-0.0063135999999987,-0.0031599999999999,0.0053720000000004,0.0203992000000009,0.0002914,0,sub_11
0.0023411999999997,-0.0020919999999987,-0.0058079999999999,0.0051648000000004,0.0256918000000009,0.003704,0,sub_11
-0.0048498000000002,0.0016486000000012,-0.0073217999999999,0.0043056000000004,0.0282362000000009,0.0075404,0,sub_11
-0.0106380000000002,0.0028724000000011,-0.0089825999999999,0.0038636000000004,0.0277996000000009,0.010529,0,sub_11
-0.0164050000000002,0.0036320000000011,-0.0100091999999999,0.0042528000000004,0.0207622000000009,0.0118226,0,sub_11
-0.0207468000000001,0.0051876000000011,-0.0107179999999999,0.0033514000000004,0.0103248000000009,0.0120434,0,sub_11
-0.0231704000000001,0.0035314000000011,-0.0119855999999999,0.0003420000000004,0.0037258000000009,0.0109628,0,sub_11
-0.0238448000000001,0.0015560000000011,-0.0112547999999999,-0.0028827999999995,-0.004359599999999,0.0088144,0,sub_11
-0.0228578000000002,0.0023798000000011,-0.0088849999999999,-0.0059027999999995,-0.016697399999999,0.0043228,0,sub_11
-0.0120766000000002,0.0037146000000011,-0.0070991999999999,-0.0056769999999995,-0.021367199999999,-0.0025059999999999,0,sub_11
-0.0016354000000002,0.0017078000000011,-0.0067475999999999,-0.0015827999999995,-0.020508399999999,-0.0099557999999999,0,sub_11
0.0087075999999997,-0.0005935999999988,-0.0050233999999999,0.0043926000000004,-0.025408999999999,-0.0150351999999999,0,sub_11
0.0131297999999997,-0.0030257999999988,-0.0044025999999999,0.0075960000000004,-0.026266399999999,-0.0165071999999999,0,sub_11
0.0158417999999997,-0.0063299999999988,-0.0037019999999999,0.0082646000000004,-0.016062199999999,-0.0128785999999999,0,sub_11
0.0086115999999997,-0.0081163999999987,-0.0023823999999999,0.0067802000000004,-0.004382199999999,-0.0034983999999999,0,sub_11
0.0021567999999997,-0.0070927999999987,-0.0032129999999999,0.0005988000000004,0.0085848000000009,0.00777,0,sub_11
-0.0025572000000002,-0.0055375999999987,-0.0030159999999999,-0.0038601999999995,0.0217716000000009,0.0158454,0,sub_11
-0.0032826000000002,-0.0043147999999987,-0.0029695999999999,-0.0025667999999995,0.0281402000000009,0.019056,0,sub_11
-0.0053388000000002,-0.0024339999999987,-0.0043297999999999,0.0017208000000004,0.0313262000000009,0.0178,0,sub_11
-0.0067862000000002,-0.0007097999999987,-0.0073397999999999,0.0051626000000004,0.0309146000000009,0.0112016,0,sub_11
-0.0088672000000002,0.0012534000000012,-0.0069643999999999,0.0107170000000004,0.0236862000000009,0.0024902,0,sub_11
-0.0092816000000002,0.0042132000000011,-0.0086707999999999,0.0135022000000004,0.0160114000000009,-0.0068827999999999,0,sub_11
-0.0080704000000002,0.0073228000000011,-0.0107571999999998,0.0124564000000004,0.0113292000000009,-0.0154317999999999,0,sub_11
-0.0055158000000002,0.0080744000000011,-0.0126775999999998,0.0090338000000004,0.0032336000000009,-0.0207883999999999,0,sub_11
-0.0039448000000002,0.0068952000000011,-0.0119619999999998,0.0040830000000004,-0.007009399999999,-0.0205981999999999,0,sub_11
-0.0029208000000002,0.0051124000000011,-0.0108325999999999,-0.0019259999999995,-0.011935999999999,-0.0170037999999999,0,sub_11
-0.0042366000000002,0.0024320000000012,-0.0083679999999999,-0.0055839999999995,-0.011950599999999,-0.0101925999999999,0,sub_11
-0.0076274000000002,-0.0028649999999987,-0.0054351999999999,-0.0068919999999995,-0.009636599999999,-0.0016589999999999,0,sub_11
-0.0092492000000002,-0.0035425999999987,-0.0027037999999999,-0.0088171999999995,-0.004116999999999,0.0049434,0,sub_11
-0.0087148000000002,-0.0037851999999987,-0.0028485999999999,-0.0087807999999995,0.0033482000000009,0.0062196,0,sub_11
-0.0070512000000002,-0.0036873999999987,-0.0041565999999999,-0.0053209999999995,0.0089002000000009,0.003463,0,sub_11
-0.0073178000000002,-0.0014845999999988,-0.0046323999999999,-0.0003981999999995,0.0072048000000009,0.0002984,0,sub_11
-0.0063972000000002,0.0033058000000011,-0.0056363999999999,0.0006772000000004,0.0046680000000009,-0.0022507999999999,0,sub_11
-0.0060344000000002,0.0043528000000011,-0.0084283999999999,0.0013182000000004,0.0008528000000009,-0.0043741999999999,0,sub_11
-0.0062924000000002,0.0031998000000011,-0.0071083999999999,0.0021438000000004,-0.004267799999999,-0.0032935999999999,0,sub_11
-0.0074952000000002,0.0021098000000011,-0.0048265999999999,0.0001870000000004,-0.008325399999999,0.000757,0,sub_11
-0.0063204000000002,-0.0004275999999988,-0.0049199999999999,-0.0047291999999995,-0.007042799999999,0.0039258,0,sub_11
-0.0054086000000002,-0.0021339999999988,-0.0050385999999999,-0.0066521999999995,-0.006211399999999,0.0056084,0,sub_11
-0.0050656000000002,-0.0034915999999988,-0.0029081999999999,-0.0057955999999995,-0.004323599999999,0.0070956,0,sub_11
-0.0036476000000002,-0.0015581999999988,-0.0043191999999999,-0.0053445999999995,0.0003432000000009,0.0066534,0,sub_11
-0.0025540000000002,-3.4799999998803975e-05,-0.0056939999999999,-0.0044707999999995,0.0028830000000009,0.0049352,0,sub_11
-0.0008920000000002,0.0011880000000011,-0.0053525999999999,-0.0021099999999995,0.0041384000000009,0.0034426,0,sub_11
0.0011729999999997,0.0026310000000011,-0.0050883999999999,0.0002524000000004,0.0060538000000009,0.0019612,0,sub_11
0.0027907999999997,0.0033808000000011,-0.0066211999999999,0.0009050000000004,0.0071238000000009,0.0002552,0,sub_11
0.0020293999999997,0.0034536000000011,-0.0078627999999999,0.0004676000000004,0.0041450000000009,-0.0003849999999999,0,sub_11
-0.0006860000000002,0.0028292000000012,-0.0094541999999999,-0.0010529999999995,-0.000951999999999,3.820000000002298e-05,0,sub_11
-0.0065046000000002,0.0009930000000012,-0.0097507999999999,-0.0038635999999995,-0.007538399999999,0.0010952,0,sub_11
-0.0126346000000002,-0.0025331999999987,-0.0087095999999999,-0.0068875999999995,-0.013699799999999,0.0025774,0,sub_11
-0.0157876000000002,-0.0053449999999987,-0.0057853999999999,-0.0077605999999995,-0.016458199999999,0.003643,0,sub_11
-0.0170274000000002,-0.0076197999999987,-0.0031091999999999,-0.0066833999999995,-0.013891599999999,0.0034336,0,sub_11
-0.0145136000000002,-0.0087293999999987,-0.0010709999999999,-0.0034483999999995,-0.008354799999999,0.0013128,0,sub_11
-0.0088998000000002,-0.0075731999999987,-0.0014919999999999,0.0008708000000004,-0.001321199999999,-0.0031525999999999,0,sub_11
-0.0024590000000002,-0.0047257999999987,-0.0032721999999999,0.0051940000000004,0.0057160000000009,-0.0084723999999999,0,sub_11
0.0013069999999997,-0.0020839999999988,-0.0052561999999999,0.0075670000000004,0.0082774000000009,-0.0116637999999999,0,sub_11
0.0035117999999997,0.0019462000000011,-0.0074047999999999,0.0073284000000004,0.0059070000000009,-0.0114529999999999,0,sub_11
0.0038447999999997,0.0056036000000011,-0.0084809999999999,0.0047292000000004,0.0037452000000009,-0.0080543999999999,0,sub_11
0.0038351999999997,0.0077234000000011,-0.0084869999999999,0.0006344000000004,0.0034968000000009,-0.0023185999999999,0,sub_11
0.0017755999999997,0.0063114000000011,-0.0079821999999999,-0.0032633999999995,0.0008988000000009,0.0047034,0,sub_11
-0.0019324000000002,0.0050022000000011,-0.0074765999999999,-0.0063103999999995,-0.003614599999999,0.010452,0,sub_11
-0.0051850000000002,0.0022620000000011,-0.0062691999999999,-0.0071869999999995,-0.005966199999999,0.0132262,0,sub_11
-0.0080350000000002,-0.0003885999999987,-0.0057011999999999,-0.0069763999999995,-0.007666999999999,0.0121616,0,sub_11
-0.0099090000000002,-0.0033207999999987,-0.0050059999999999,-0.0050565999999995,-0.010229199999999,0.0085558,0,sub_11
-0.0100934000000002,-0.0034861999999987,-0.0040783999999999,-0.0018355999999995,-0.010018399999999,0.0030328,0,sub_11
-0.0088132000000002,-0.0036249999999987,-0.0042075999999999,0.0018274000000004,-0.006400199999999,-0.0024913999999999,0,sub_11
-0.0059566000000002,-0.0036331999999987,-0.0050827999999999,0.0042094000000004,-0.001929799999999,-0.0069575999999999,0,sub_11
-0.0029264000000002,-0.0035573999999988,-0.0062855999999999,0.0040192000000004,0.0019028000000009,-0.0095181999999999,0,sub_11
-0.0016668000000002,-0.0029003999999988,-0.0063107999999999,0.0027572000000004,0.0061676000000009,-0.0093187999999999,0,sub_11
-0.0017752000000002,-0.0026571999999988,-0.0062189999999999,0.0006350000000004,0.0106414000000009,-0.0074165999999999,0,sub_11
-0.0011988000000002,-0.0027451999999988,-0.0049943999999999,-0.0012757999999995,0.0146884000000009,-0.0055123999999999,0,sub_11
-0.0019970000000002,-0.0021661999999988,-0.0043713999999999,-0.0021181999999995,0.0178780000000009,-0.0044503999999999,0,sub_11
-0.0039972000000002,-0.0001531999999988,-0.0040647999999999,0.0010946000000004,0.0216906000000009,-0.0029335999999999,0,sub_11
-0.0043586000000002,0.0018336000000011,-0.0032717999999999,0.0027820000000004,0.0176290000000009,-0.0022719999999999,0,sub_11
-0.0046986000000002,0.0027234000000011,-0.0032235999999999,0.0044762000000004,0.0154832000000009,-0.0011855999999999,0,sub_11
-0.0064884000000002,0.0031224000000011,-0.0022281999999999,0.0076870000000004,0.0195064000000009,0.0009718,0,sub_11
-0.0057576000000002,0.0045652000000011,-0.0018451999999999,0.0089566000000004,0.0137630000000009,-0.0024301999999999,0,sub_11
-0.0024980000000002,-0.0001279999999988,-0.0046391999999999,0.0035838000000004,-0.000681999999999,-0.0084313999999999,0,sub_11
-0.0092084000000002,-0.0065853999999988,-0.0036235999999999,-0.0004799999999995,-0.001737399999999,-0.0073901999999999,0,sub_11
-0.0164964000000002,-0.0079949999999988,0.0008064,-0.0019851999999995,0.0020772000000009,-0.0009961999999999,0,sub_11
-0.0181446000000002,-0.0050579999999988,-0.0005827999999999,-0.0067053999999995,-0.000484799999999,0.0036712,0,sub_11
-0.0171574000000002,-0.0045151999999988,-0.0020171999999999,-0.0082085999999995,0.0039592000000009,0.0117704,0,sub_11
-0.0165456000000002,0.0005444000000011,0.0003402,-0.0050127999999995,0.0109374000000009,0.0213948,0,sub_11
-0.0061800000000002,0.0071566000000011,-0.0060083999999999,-0.0048377999999995,0.0015568000000009,0.0220458,0,sub_11
0.0062617999999997,0.0069174000000011,-0.0082965999999999,-0.0067801999999995,-0.013319199999999,0.0135024,0,sub_11
0.0127737999999997,0.0011700000000011,-0.0037935999999999,-0.0031259999999995,-0.015005599999999,0.0058388,0,sub_11
0.0118749999999997,-0.0024763999999988,0.000528,-0.0009547999999995,-0.009462599999999,0.0030694,0,sub_11
0.0154671999999997,6.940000000117616e-05,-0.0006733999999999,0.0012534000000004,0.0037518000000009,0.000722,0,sub_11
0.0113307999999997,-0.0051009999999988,-0.0004591999999999,0.0058270000000004,0.0190962000000009,-0.0035341999999999,0,sub_11
0.0005417999999997,-0.0018577999999988,-0.0047385999999999,0.0114186000000004,0.0254810000000009,-0.0058491999999999,0,sub_11
-0.0067708000000002,0.0016900000000011,-0.0126683999999998,0.0099190000000004,0.0218726000000009,-0.0071325999999999,0,sub_11
-0.0122148000000002,0.0034934000000011,-0.0185103999999998,0.0041040000000004,0.0067776000000009,-0.0092859999999999,0,sub_11
-0.0226034000000002,-0.0013449999999988,-0.0113161999999999,0.0023386000000004,-0.005576199999999,-0.0086415999999999,0,sub_11
-0.0214556000000002,3.620000000119604e-05,-0.0071965999999999,0.0029720000000004,-0.002613599999999,-0.0041543999999999,0,sub_11
-0.0139390000000002,-0.0039871999999988,-0.0060093999999999,0.0014936000000004,0.0063178000000009,0.0013786,0,sub_11
