userAcceleration.x,userAcceleration.y,userAcceleration.z,rotationRate.x,rotationRate.y,rotationRate.z,label,subject
0.0009747999999997,-0.0266689999999987,0.0016688,0.0099206000000004,-0.0043965999999991,-0.0028643999999998,0,sub_5
0.0011975999999997,-0.0263033999999987,0.0019024,0.0107914000000004,-0.0007769999999991,-0.0030765999999998,0,sub_5
0.0007421999999997,-0.0269893999999987,0.002612,0.0118774000000004,0.0034804000000008,-0.0030745999999998,0,sub_5
0.0001067999999997,-0.0270011999999987,0.0042424,0.0138170000000004,0.0085836000000008,-0.0022129999999998,0,sub_5
-0.0002354000000002,-0.0272789999999987,0.0048264,0.0157604000000004,0.0158122000000008,-7.219999999991122e-05,0,sub_5
-0.0010208000000001,-0.0274123999999987,0.0043754,0.0168386000000004,0.0211238000000008,0.002706,0,sub_5
-0.0005994000000001,-0.0275711999999987,0.0032808,0.0166194000000004,0.0230294000000008,0.0059066,0,sub_5
0.0008683999999998,-0.0264145999999987,0.001744,0.0151162000000004,0.0223896000000008,0.0073924,0,sub_5
0.0028231999999998,-0.0257169999999987,-0.0007321999999999,0.0119012000000004,0.0189928000000008,0.0071606,0,sub_5
0.0041225999999998,-0.0248839999999987,-0.0010891999999999,0.0082566000000004,0.0130484000000008,0.0050062000000001,0,sub_5
0.0052801999999998,-0.0244487999999987,-0.0001889999999999,0.0061182000000004,0.0079588000000008,0.0009386000000001,0,sub_5
0.0044741999999998,-0.0242339999999987,0.0013528,0.0050552000000004,0.0047828000000008,-0.0031239999999998,0,sub_5
0.0034947999999998,-0.0250761999999987,0.002101,0.0050640000000004,0.0037294000000008,-0.0061135999999998,0,sub_5
0.0019777999999998,-0.0257071999999987,0.0029458,0.0055022000000004,0.0043748000000008,-0.0080339999999998,0,sub_5
0.0012995999999998,-0.0262633999999987,0.0024926,0.0065758000000004,0.0052258000000008,-0.0086683999999999,0,sub_5
0.0004379999999998,-0.0274717999999987,0.0017566,0.0072168000000004,0.0062854000000008,-0.0078107999999999,0,sub_5
0.0002391999999998,-0.0289397999999987,0.0014082,0.0078502000000004,0.0064894000000008,-0.0060973999999999,0,sub_5
-0.0001728000000001,-0.0289967999999987,0.0016952,0.0080472000000004,0.0056254000000008,-0.0033173999999999,0,sub_5
0.0001987999999998,-0.0291489999999987,0.0015056,0.0080338000000004,0.0045524000000008,-0.0013933999999999,0,sub_5
0.0001663999999998,-0.0293909999999987,0.002008,0.0084470000000004,0.0030536000000008,0.0001068,0,sub_5
0.0002859999999998,-0.0289189999999987,0.0023522,0.0086508000000004,0.0019832000000008,0.0011778,0,sub_5
0.0006273999999998,-0.0279171999999987,0.002005,0.0084326000000004,0.0011310000000008,0.001391,0,sub_5
0.0015997999999998,-0.0274649999999987,0.0014142,0.0086440000000004,0.0004918000000008,0.0011796,0,sub_5
0.0014731999999997,-0.0271187999999987,0.0016636,0.0092822000000004,6.340000000084516e-05,0.0011846,0,sub_5
0.0027883999999997,-0.0268171999999987,0.001415,0.0088604000000004,0.0004936000000008,0.0005402,0,sub_5
0.0037409999999997,-0.0260957999999987,0.0017712,0.0086548000000004,0.0011378000000008,-0.0005301999999998,0,sub_5
0.0039685999999997,-0.0258173999999987,0.0021916,0.0084462000000004,0.0013550000000008,-0.0013865999999998,0,sub_5
0.0034035999999997,-0.0257019999999987,0.0024052,0.0076034000000004,0.0024284000000008,-0.0026757999999998,0,sub_5
0.0028315999999997,-0.0255245999999987,0.0019138,0.0061176000000004,0.0032894000000008,-0.0035417999999998,0,sub_5
0.0012801999999997,-0.0260189999999987,0.0010726,0.0050526000000004,0.0032948000000008,-0.0039765999999998,0,sub_5
0.0010941999999997,-0.0269573999999987,0.001083,0.0044066000000004,0.0022310000000008,-0.0037661999999998,0,sub_5
0.0004553999999997,-0.0277141999999987,0.0015326,0.0039760000000004,0.0015924000000008,-0.0035545999999998,0,sub_5
0.0003707999999998,-0.0282165999999987,0.0019578,0.0035414000000004,0.0005262000000008,-0.0029151999999998,0,sub_5
0.0008733999999998,-0.0288193999999987,0.0025288,0.0043872000000004,-0.0003323999999991,-0.0020535999999998,0,sub_5
0.0013055999999998,-0.0287453999999987,0.0036598,0.0052358000000004,-0.0005517999999991,-0.0011927999999999,0,sub_5
0.0007035999999998,-0.0287545999999987,0.0034396,0.0060864000000004,-0.0003451999999991,-0.0003325999999999,0,sub_5
0.0012805999999998,-0.0289333999999987,0.0027478,0.0067218000000004,-0.0005637999999991,0.0005266,0,sub_5
0.0012915999999997,-0.0288027999999987,0.0025094,0.0082098000000004,-0.0009985999999991,0.001392,0,sub_5
0.0010235999999997,-0.0279407999999987,0.0016922,0.0090632000000004,-0.0007893999999991,0.0016112,0,sub_5
0.0001047999999997,-0.0273205999999987,0.0020964,0.0094890000000004,-0.0007917999999991,0.0018278,0,sub_5
-0.0001416000000002,-0.0262285999999987,0.0025336,0.0094900000000004,-0.0005787999999991,0.0018276,0,sub_5
0.0002879999999997,-0.0257285999999987,0.0023756,0.0094996000000004,0.0013394000000008,0.0016116,0,sub_5
9.159999999981686e-05,-0.0255983999999987,0.0024366,0.0088662000000004,0.0024086000000008,0.0011786,0,sub_5
0.0005689999999998,-0.0265097999999987,0.0027938,0.0082232000000004,0.0011350000000008,0.0005348,0,sub_5
0.0017299999999998,-0.0274355999999987,0.00245,0.0084376000000004,0.0004986000000008,-0.0003173999999999,0,sub_5
0.0022635999999998,-0.0276815999999987,0.0018652,0.0082234000000004,-0.0005623999999991,-0.0011719999999999,0,sub_5
0.0022343999999998,-0.0274703999999987,0.0026218,0.0075784000000004,-0.0022619999999991,-0.0018151999999999,0,sub_5
0.0036211999999998,-0.0275871999999987,0.002647,0.0071526000000004,-0.0028961999999991,-0.0026719999999999,0,sub_5
0.0041065999999998,-0.0267961999999987,0.0033674,0.0069430000000004,-0.0022553999999991,-0.0028877999999999,0,sub_5
0.0045215999999998,-0.0264103999999987,0.0035058,0.0060914000000004,-0.0018263999999991,-0.0028941999999999,0,sub_5
0.0044081999999997,-0.0272309999999987,0.0037868,0.0063094000000004,-0.0007619999999991,-0.0028941999999999,0,sub_5
0.0038139999999997,-0.0278989999999987,0.0030256,0.0067372000000004,-0.0001259999999991,-0.0024647999999999,0,sub_5
0.0026911999999997,-0.0281923999999987,0.0033032,0.0073754000000004,0.0002944000000008,-0.0016061999999999,0,sub_5
0.0021589999999997,-0.0282515999999987,0.0023738,0.0080156000000004,0.0009288000000008,-0.0009615999999999,0,sub_5
0.0009725999999997,-0.0277929999999987,0.0017774,0.0084386000000004,0.0004996000000008,-0.0005307999999999,0,sub_5
0.0003453999999998,-0.0270289999999987,0.0012568,0.0086462000000004,-0.0014159999999991,-0.0011677999999999,0,sub_5
0.0002515999999998,-0.0264855999999987,0.0016742,0.0094938000000004,-0.0039705999999991,-0.0024403999999998,0,sub_5
0.0007285999999998,-0.0264111999999987,0.0016656,0.0103454000000004,-0.0060973999999991,-0.0041409999999998,0,sub_5
0.0005217999999997,-0.0268315999999987,0.0017332,0.0105578000000003,-0.0075843999999991,-0.0054195999999998,0,sub_5
0.0015219999999997,-0.0277631999999987,0.0017234,0.0105606000000003,-0.0075819999999991,-0.0060605999999998,0,sub_5
0.0028621999999997,-0.0289477999999987,0.0021076,0.0101368000000003,-0.0060925999999991,-0.0052107999999998,0,sub_5
0.0040923999999997,-0.0296441999999987,0.002953,0.0094996000000003,-0.0041779999999991,-0.0039359999999998,0,sub_5
0.0050489999999997,-0.0294971999999987,0.0036068,0.0080088000000004,-0.0020481999999991,-0.0024535999999999,0,sub_5
0.0060969999999998,-0.0290561999999987,0.0045598,0.0067324000000004,-0.0001305999999991,-0.0013965999999999,0,sub_5
0.0056315999999998,-0.0287395999999987,0.0047744,0.0063114000000004,0.0015736000000008,-0.0009743999999999,0,sub_5
0.0044843999999998,-0.0284229999999987,0.0044714,0.0061038000000004,0.0028528000000008,-0.0009775999999999,0,sub_5
0.0029729999999998,-0.0284215999999987,0.0037608,0.0054686000000004,0.0039204000000008,-0.0009833999999999,0,sub_5
0.0013969999999998,-0.0288483999999987,0.0033962,0.0054666000000004,0.0041310000000008,-0.0003427999999999,0,sub_5
0.0004631999999998,-0.0296245999999987,0.0027646,0.0058934000000004,0.0043418000000008,-0.0001265999999999,0,sub_5
0.0002445999999998,-0.0295269999999987,0.0023402,0.0063134000000004,0.0034856000000008,0.0005184,0,sub_5
0.0006493999999998,-0.0291651999999987,0.0020248,0.0065200000000004,0.0026300000000008,0.001162,0,sub_5
0.0004201999999998,-0.0285477999999987,0.0015174,0.0071562000000004,0.0019878000000008,0.001381,0,sub_5
0.0007599999999998,-0.0276451999999987,0.000507,0.0080088000000004,0.0011352000000008,0.0007472,0,sub_5
0.0008191999999998,-0.0273503999999987,0.0006142,0.0086460000000004,-0.0001427999999991,0.0001124,0,sub_5
0.0014453999999998,-0.0276413999999987,0.0010244,0.0086460000000004,-0.0012037999999991,-0.0009545999999998,0,sub_5
0.0017747999999998,-0.0284115999999987,0.0021486,0.0084336000000004,-0.0018387999999991,-0.0018099999999998,0,sub_5
0.0022605999999998,-0.0292711999999987,0.0037828,0.0082184000000004,-0.0022641999999991,-0.0018109999999998,0,sub_5
0.0021369999999998,-0.0297519999999987,0.0053068,0.0077916000000004,-0.0020505999999991,-0.0016005999999998,0,sub_5
0.0024765999999998,-0.0298819999999987,0.0057668,0.0073706000000004,-0.0001341999999991,-0.0009649999999998,0,sub_5
0.0021705999999997,-0.0299697999999987,0.0061112,0.0075870000000004,0.0015652000000008,0.0001026,0,sub_5
0.0019297999999997,-0.0295185999999987,0.0057282,0.0082290000000004,0.0028378000000008,0.0009602,0,sub_5
0.0020765999999997,-0.0282803999999987,0.0051138,0.0086634000000004,0.0049652000000008,0.0013878,0,sub_5
0.0023935999999997,-0.0277447999999987,0.0042962,0.0082386000000004,0.0060294000000008,0.0020244,0,sub_5
0.0028733999999997,-0.0279105999999987,0.0034046,0.0067488000000004,0.0064624000000008,0.0015862,0,sub_5
0.0023533999999998,-0.0274935999999987,0.0032292,0.0056866000000004,0.0071070000000008,0.0011506,0,sub_5
0.0020361999999998,-0.0268921999999987,0.0033448,0.0048352000000004,0.0068996000000008,0.0005038000000001,0,sub_5
0.0017919999999997,-0.0282071999999987,0.0029086,0.0031252000000004,0.0056298000000008,-0.0001473999999998,0,sub_5
0.0010507999999997,-0.0295289999999987,0.0022184,0.0029110000000004,0.0043566000000008,-0.0012155999999998,0,sub_5
0.0001065999999997,-0.0300991999999987,0.0028076,0.0043932000000004,0.0020070000000008,-0.0009885999999998,0,sub_5
0.0012223999999997,-0.0307909999999987,0.0027788,0.0052372000000004,-0.0003385999999991,-0.0011931999999998,0,sub_5
0.0018217999999997,-0.0315327999999987,0.0028228,0.0060820000000004,-0.0016223999999991,-0.0005445999999999,0,sub_5
0.0025115999999997,-0.0312133999999987,0.002436,0.0073508000000004,-0.0033347999999991,0.000321,0,sub_5
0.0039221999999997,-0.0312057999999987,0.003148,0.0077698000000004,-0.0041919999999991,0.0011796,0,sub_5
0.0045611999999998,-0.0304529999999987,0.0030616,0.0077640000000004,-0.0048337999999991,0.0018212,0,sub_5
0.0048947999999998,-0.0292931999999987,0.0028058,0.0073296000000004,-0.0061123999999991,0.002247,0,sub_5
0.0058163999999998,-0.0287367999999987,0.0023302,0.0062588000000004,-0.0080219999999991,0.0011738,0,sub_5
0.0056949999999998,-0.0283233999999987,0.0025824,0.0058310000000004,-0.0099311999999991,-0.0005357999999998,0,sub_5
0.0043119999999998,-0.0277163999999987,0.0024174,0.0051908000000004,-0.0116265999999991,-0.0022471999999998,0,sub_5
0.0038083999999998,-0.0283841999999987,0.0024642,0.0045536000000004,-0.0131071999999991,-0.0043861999999998,0,sub_5
0.0025493999999998,-0.0297189999999987,0.002608,0.0041296000000004,-0.0137397999999991,-0.0056701999999998,0,sub_5
0.0009175999999998,-0.0304239999999987,0.0028128,0.0041268000000004,-0.0145911999999991,-0.0058827999999998,0,sub_5
0.0011413999999998,-0.0310063999999987,0.0029076,0.0039088000000004,-0.0152311999999991,-0.0054563999999999,0,sub_5
0.0016625999999998,-0.0305301999999987,0.0033396,0.0049690000000004,-0.0152407999999991,-0.0039533999999999,0,sub_5
0.0017003999999998,-0.0306945999999987,0.003779,0.0051766000000004,-0.0141855999999991,-0.0016031999999999,0,sub_5
0.0017007999999998,-0.0310883999999987,0.0046472,0.0055986000000004,-0.0127059999999991,0.0009616,0,sub_5
0.0021631999999998,-0.0310923999999987,0.0052344,0.0062348000000004,-0.0101651999999991,0.004381,0,sub_5
0.0015161999999997,-0.0310289999999987,0.0062282,0.0066606000000004,-0.0067723999999991,0.0080116,0,sub_5
0.0019297999999997,-0.0314551999999987,0.0063186,0.0066634000000004,-0.0033745999999991,0.0107846,0,sub_5
0.0028293999999997,-0.0304943999999987,0.0058872,0.0066634000000004,-0.0012525999999991,0.0129184,0,sub_5
0.0036593999999997,-0.0292873999999987,0.005259,0.0066634000000004,0.0002328000000008,0.014412,0,sub_5
0.0043199999999997,-0.0286289999999987,0.0042822,0.0060282000000004,0.0013004000000008,0.0144062,0,sub_5
0.0049361999999997,-0.0282573999999987,0.0034096,0.0049718000000004,0.0023744000000008,0.0131156,0,sub_5
0.0047677999999997,-0.0288453999999987,0.003423,0.0036994000000004,0.0028100000000008,0.0118242,0,sub_5
0.0039783999999997,-0.0295303999999987,0.0042592,0.0037090000000004,0.0032428000000008,0.0101144,0,sub_5
0.0024325999999998,-0.0295801999999987,0.0052278,0.0041472000000004,0.0049492000000008,0.0092608,0,sub_5
0.0005951999999998,-0.0296187999999987,0.0063936,0.0037272000000004,0.0062298000000008,0.0090426,0,sub_5
-0.0001212000000001,-0.0294337999999987,0.0060428,0.0037224000000004,0.0051646000000008,0.009044,0,sub_5
0.0016681999999997,-0.0284099999999987,0.002869,0.0017952000000004,0.0034678000000008,0.0088192,0,sub_5
0.0042537999999997,-0.0278399999999987,-0.0003555999999999,-0.0022597999999995,0.0026324000000008,0.0081512,0,sub_5
0.0075165999999997,-0.0292785999999987,-0.0016279999999999,-0.0065213999999995,0.0011670000000008,0.0053458000000001,0,sub_5
0.0084561999999997,-0.0316447999999987,0.0010454,-0.0069509999999995,-0.0020169999999991,0.0027832000000001,0,sub_5
0.0081685999999997,-0.0332695999999987,0.0051224,-0.0050247999999995,-0.0018063999999991,0.0017282000000001,0,sub_5
0.0060487999999998,-0.0350771999999987,0.009479,0.0003250000000004,0.0013716000000008,0.0015478,0,sub_5
0.0033151999999998,-0.0354273999999987,0.0107226,0.0078006000000004,0.0045354000000008,0.0030914,0,sub_5
0.0006889999999998,-0.0346443999999987,0.0097166,0.0141988000000004,0.0068448000000008,0.0061242,0,sub_5
-0.0002284000000001,-0.0321183999999987,0.0049078,0.0176070000000004,0.0100106000000008,0.0106304,0,sub_5
0.0003427999999998,-0.0302919999999987,-0.0003985999999999,0.0169534000000004,0.0110620000000008,0.0146836,0,sub_5
0.0011293999999997,-0.0293803999999987,-0.0023299999999999,0.0135096000000004,0.0082888000000008,0.0185086,0,sub_5
0.0014987999999997,-0.0295091999999987,-0.0007673999999999,0.0094258000000004,0.0040324000000008,0.0208356,0,sub_5
0.0017277999999997,-0.0288555999999987,0.002819,0.0072710000000004,0.0006258000000008,0.0221068,0,sub_5
0.0028187999999997,-0.0288235999999987,0.0061398,0.0051400000000004,-0.0006371999999991,0.0201708,0,sub_5
0.0031661999999997,-0.0286455999999987,0.008292,0.0040914000000004,1.920000000084528e-05,0.0167444,0,sub_5
0.0031021999999997,-0.0277217999999987,0.007033,0.0047670000000004,0.0032316000000008,0.012045,0,sub_5
0.0028847999999997,-0.0269197999999987,0.005681,0.0050120000000004,0.0053810000000008,0.0071302,0,sub_5
0.0026905999999997,-0.0273371999999987,0.0024864,0.0024766000000004,0.0066854000000008,0.002838,0,sub_5
0.0019907999999998,-0.0296407999999987,0.002118,0.0014262000000004,0.0073402000000007,-0.0001611999999998,0,sub_5
0.0003187999999998,-0.0321643999999987,0.0034172,0.0027074000000004,0.0060634000000007,-0.0016461999999998,0,sub_5
-0.0009292000000001,-0.0342999999999987,0.005848,0.0029046000000004,0.0028652000000007,-0.0012135999999999,0,sub_5
-0.0002102000000001,-0.0358737999999987,0.0069176,0.0033142000000004,0.0013630000000008,0.0011412,0,sub_5
0.0011909999999998,-0.0359311999999987,0.0077528,0.0054334000000004,0.0011306000000008,0.0041472,0,sub_5
0.0034703999999998,-0.0339011999999987,0.0070282,0.0067002000000004,0.0013264000000008,0.0073604,0,sub_5
0.0063649999999998,-0.0313929999999987,0.0050414,0.0056256000000004,0.0023844000000008,0.010129,0,sub_5
0.0089343999999998,-0.0301591999999987,0.0038592,0.0039252000000004,0.0051548000000008,0.0113956,0,sub_5
0.0086595999999998,-0.0298255999999987,0.0048662,0.0041538000000004,0.0081384000000008,0.010966,0,sub_5
0.0071151999999998,-0.0297703999999987,0.0060002,0.0043796000000004,0.0098462000000008,0.0098972,0,sub_5
0.0044163999999998,-0.0303013999999987,0.005139,0.0037528000000004,0.0117700000000008,0.0088222,0,sub_5
0.0024669999999998,-0.0309647999999987,0.0049222,0.0044044000000004,0.0132634000000008,0.0077566,0,sub_5
0.0006529999999998,-0.0305719999999987,0.0044418,0.0063314000000004,0.0130506000000008,0.006061,0,sub_5
0.0007515999999998,-0.0301869999999987,0.0028552,0.0067696000000004,0.0136960000000008,0.0041406,0,sub_5
0.0014117999999998,-0.0307603999999987,0.001775,0.0067726000000004,0.0130620000000008,0.0028596,0,sub_5
0.0030259999999998,-0.0314851999999987,0.0023748,0.0063402000000004,0.0109364000000008,0.0020048,0,sub_5
0.0033779999999998,-0.0319943999999987,0.0029716,0.0059058000000004,0.0081724000000008,0.000937,0,sub_5
0.0033687999999998,-0.0325955999999987,0.0038482,0.0050410000000004,0.0056186000000008,0.0009344,0,sub_5
0.0032249999999998,-0.0323623999999987,0.0047422,0.0045942000000004,0.0015704000000008,0.0013636,0,sub_5
0.0036395999999998,-0.0314199999999987,0.004613,0.0045846000000004,-0.0016211999999991,0.0002994,0,sub_5
0.0037863999999998,-0.0306345999999987,0.0043034,0.0056476000000004,-0.0048111999999991,-0.0020391999999999,0,sub_5
0.0034475999999998,-0.0309523999999987,0.0042378,0.0065030000000004,-0.0073587999999991,-0.0050207999999999,0,sub_5
0.0025059999999998,-0.0317099999999987,0.0044194,0.0077918000000004,-0.0077799999999991,-0.0073613999999999,0,sub_5
0.0013411999999998,-0.0332835999999987,0.0048356,0.0090788000000004,-0.0065051999999991,-0.0075675999999999,0,sub_5
0.0005583999999998,-0.0343019999999987,0.0049108,0.0090806000000004,-0.0045935999999991,-0.0060745999999999,0,sub_5
0.0002473999999998,-0.0345853999999987,0.0048548,0.0090806000000004,-0.0026837999999991,-0.0041543999999999,0,sub_5
0.0013273999999998,-0.0337727999999987,0.0047994,0.0088614000000004,-0.0016271999999991,-0.0018071999999999,0,sub_5
0.0031725999999998,-0.0325709999999987,0.0048856,0.0088490000000004,-0.0031235999999991,-0.0005235999999998,0,sub_5
0.0045905999999998,-0.0309495999999987,0.0043718,0.0082012000000004,-0.0052501999999991,-0.0009525999999998,0,sub_5
0.0049431999999998,-0.0308285999999987,0.0047744,0.0086270000000004,-0.0069501999999991,-0.0024429999999998,0,sub_5
0.0049987999999998,-0.0316987999999987,0.0054898,0.0086308000000004,-0.0073711999999991,-0.0037241999999998,0,sub_5
0.0045957999999998,-0.0327585999999987,0.005688,0.0086386000000004,-0.0065155999999991,-0.0045799999999998,0,sub_5
0.0038717999999998,-0.0338259999999987,0.0063162,0.0082214000000004,-0.0041713999999991,-0.0043721999999998,0,sub_5
0.0038261999999998,-0.0342169999999987,0.007279,0.0075898000000004,-0.0016151999999991,-0.0037389999999998,0,sub_5
0.0041789999999998,-0.0335651999999987,0.007128,0.0069546000000004,0.0007256000000008,-0.0024643999999998,0,sub_5
0.0041567999999998,-0.0326067999999987,0.0057632,0.0071718000000004,0.0024258000000008,-0.0016103999999998,0,sub_5
0.0042547999999998,-0.0321919999999987,0.0053666,0.0073870000000004,0.0037000000000008,-0.0007557999999998,0,sub_5
0.0043005999999998,-0.0316563999999987,0.0049748,0.0080242000000004,0.0034830000000008,-0.0003237999999999,0,sub_5
0.0029361999999998,-0.0315431999999987,0.0035338,0.0084434000000004,0.0022016000000008,0.000108,0,sub_5
0.0021065999999998,-0.0323787999999987,0.003901,0.0086586000000004,0.0028390000000008,0.0003222,0,sub_5
0.0016877999999998,-0.0332951999999987,0.0050316,0.0086538000000004,0.0021982000000008,0.0007502,0,sub_5
0.0016855999999998,-0.0337583999999987,0.0060156,0.0097236000000004,0.0028336000000008,0.0007568000000001,0,sub_5
0.0022143999999997,-0.0352285999999987,0.0069312,0.0097446000000004,0.0079452000000008,0.0011778000000001,0,sub_5
0.0032375999999997,-0.0367781999999988,0.0084308,0.0093524000000004,0.0168898000000008,0.0024454000000001,0,sub_5
0.0031291999999997,-0.0378917999999987,0.0092016,0.0076838000000004,0.0275400000000008,0.0045566000000001,0,sub_5
0.0020415999999998,-0.0348825999999987,0.008629,0.0043206000000004,0.0399046000000008,0.0055854000000001,0,sub_5
0.0020369999999998,-0.0322503999999987,0.006713,0.0001058000000004,0.0510008000000008,0.0049008,0,sub_5
-0.0004926000000001,-0.0288443999999987,0.0028316,-0.0032783999999995,0.0548588000000008,0.0020948,0,sub_5
-0.0010506000000001,-0.0272405999999987,0.0003812,-0.0075535999999995,0.0501984000000008,-0.0009199999999999,0,sub_5
-0.0023552000000001,-0.0257763999999987,-0.0022331999999999,-0.0106069999999995,0.0325374000000008,-0.0039097999999999,0,sub_5
-0.0007058000000001,-0.0292939999999987,-0.0003795999999999,-0.0096119999999995,0.0144328000000008,-0.0060159999999999,0,sub_5
0.0017835999999998,-0.0337159999999987,0.0018976,-0.0092637999999995,-0.0021901999999991,-0.0051375999999999,0,sub_5
0.0066291999999998,-0.0392115999999987,0.005395,-0.0095547999999995,-0.0169003999999991,-0.0025569999999999,0,sub_5
0.0101707999999998,-0.0416655999999987,0.0068952,-0.0055447999999995,-0.0252295999999991,-0.0010227999999999,0,sub_5
0.0148069999999998,-0.0415011999999987,0.010869,0.0038600000000004,-0.0222771999999991,-0.0016017999999999,0,sub_5
0.0174429999999998,-0.0395491999999987,0.0110822,0.0083792000000004,-0.0137707999999991,-0.0015811999999999,0,sub_5
0.0178181999999998,-0.0367875999999987,0.009956,0.0094872000000004,-0.0039765999999991,-0.0009451999999999,0,sub_5
0.0174209999999998,-0.0315573999999987,0.0089676,0.0106020000000004,0.0075212000000008,-9.759999999993176e-05,0,sub_5
0.0162069999999998,-0.0280249999999987,0.0085024,0.0093716000000004,0.0179678000000008,-0.0007605999999999,0,sub_5
0.0129495999999998,-0.0283633999999987,0.005895,0.0025916000000004,0.0280078000000008,-0.0014617999999999,0,sub_5
0.0071879999999998,-0.0294485999999987,0.0037092,-0.0029329999999995,0.0329282000000008,-0.0017203999999999,0,sub_5
-0.0006444000000001,-0.0298623999999987,0.0023722,-0.0042035999999995,0.0340022000000008,-0.0027987999999999,0,sub_5
-0.0065834000000001,-0.0318529999999987,0.0006888,-0.0044169999999995,0.0327296000000008,-0.0040805999999998,0,sub_5
-0.0104200000000001,-0.0334445999999987,-0.0004963999999999,-0.0029453999999995,0.0276120000000008,-0.0042773999999998,0,sub_5
-0.0123052000000001,-0.0348491999999987,-0.0002797999999999,-0.0004329999999995,0.0182236000000008,-0.0029657999999998,0,sub_5
