userAcceleration.x,userAcceleration.y,userAcceleration.z,rotationRate.x,rotationRate.y,rotationRate.z,label,subject
0.0005641999999997,0.0049340000000012,-0.0114025999999999,-0.0013147999999995,-0.003903399999999,0.0023024,0,sub_23
0.0006809999999997,0.0049106000000012,-0.0115729999999999,-0.0002433999999995,-0.003053999999999,0.0020966,0,sub_23
0.0014739999999997,0.0046042000000012,-0.0114401999999999,0.0004070000000003,-0.001773599999999,0.0010326,0,sub_23
0.0022549999999997,0.0042834000000012,-0.0110077999999999,0.0006344000000003,-6.359999999909927e-05,-0.0004619999999999,0,sub_23
0.0031309999999997,0.0044060000000012,-0.0109359999999999,0.0010742000000003,0.0012204000000009,-0.0021679999999999,0,sub_23
0.0037595999999997,0.0047638000000012,-0.0105755999999998,0.0012948000000003,0.0025002000000009,-0.0025935999999999,0,sub_23
0.0038213999999997,0.0052060000000012,-0.0102741999999998,0.0015072000000003,0.0027108000000009,-0.0021649999999999,0,sub_23
0.0041553999999997,0.0053414000000011,-0.0096815999999998,0.0017156000000004,0.0029182000000008,-0.0008819999999999,0,sub_23
0.0046711999999997,0.0049196000000011,-0.0101173999999998,0.0017108000000004,0.0033384000000009,0.000613,0,sub_23
0.0050415999999997,0.0045488000000011,-0.0106251999999998,0.0012782000000004,0.0035476000000009,0.0021068,0,sub_23
0.0055609999999997,0.0041412000000012,-0.0109479999999999,0.0010620000000004,0.0026976000000009,0.0018944,0,sub_23
0.0056573999999997,0.0038574000000011,-0.0110141999999999,0.0008514000000004,0.0027016000000009,0.0012536000000001,0,sub_23
0.0054757999999997,0.0042582000000012,-0.0106899999999999,0.0008524000000004,0.0022786000000009,0.0006150000000001,0,sub_23
0.0056645999999997,0.0049616000000012,-0.0098867999999999,0.0006360000000004,0.0012164000000009,0.0001892000000001,0,sub_23
0.0059957999999997,0.0053092000000012,-0.0097553999999999,0.0004196000000004,0.0001538000000009,-0.0002381999999998,0,sub_23
0.0065975999999997,0.0053512000000012,-0.0094211999999999,0.0002060000000004,0.0001550000000009,-0.0002395999999998,0,sub_23
0.0074061999999997,0.0047340000000012,-0.0092425999999999,-0.0002235999999995,-5.799999999905906e-05,0.0001852,0,sub_23
0.0070463999999997,0.0044946000000012,-0.0102323999999999,-0.0004377999999995,-0.000269599999999,0.0001858,0,sub_23
0.0061153999999997,0.0045770000000012,-0.0107689999999999,-0.0006529999999995,-0.000694399999999,0.0001866,0,sub_23
0.0048141999999997,0.0045180000000012,-0.0113923999999998,-0.0008689999999995,-0.001544599999999,-2.579999999991452e-05,0,sub_23
0.0031319999999997,0.0046722000000012,-0.0113975999999998,-0.0017289999999995,-0.002608599999999,0.0003984,0,sub_23
0.0015225999999997,0.0055014000000012,-0.0114169999999998,-0.0025901999999995,-0.003461199999999,0.0012494,0,sub_23
0.0008309999999997,0.0057394000000012,-0.0110801999999998,-0.0034523999999995,-0.004102999999999,0.0025258,0,sub_23
0.0005439999999997,0.0053720000000012,-0.0111045999999998,-0.0032437999999995,-0.004108399999999,0.0035954,0,sub_23
0.0008319999999997,0.0049860000000012,-0.0110093999999998,-0.0026027999999995,-0.003049199999999,0.004453,0,sub_23
0.0014269999999997,0.0046386000000012,-0.0118831999999998,-0.0015259999999995,-0.001134599999999,0.004246,0,sub_23
0.0022235999999997,0.0041752000000012,-0.0120955999999998,0.0006216000000004,0.0007796000000009,0.003192,0,sub_23
0.0030759999999997,0.0040884000000012,-0.0120711999999998,0.0031958000000004,0.0024802000000009,0.0019276,0,sub_23
0.0034941999999997,0.0041358000000012,-0.0125233999999998,0.0042746000000004,0.0037598000000009,0.0006532,0,sub_23
0.0042845999999997,0.0044630000000012,-0.0125293999999998,0.0047104000000004,0.0048270000000009,-0.0001979999999999,0,sub_23
0.0053239999999997,0.0049750000000012,-0.0123437999999998,0.0053516000000004,0.0052500000000009,1.960000000008552e-05,0,sub_23
0.0065201999999997,0.0052674000000012,-0.0120181999999998,0.0053506000000004,0.0056738000000009,0.00066,0,sub_23
0.0071155999999997,0.0055006000000012,-0.0115839999999998,0.0049210000000004,0.0056732000000009,0.001298,0,sub_23
0.0084841999999997,0.0055830000000012,-0.0102149999999998,0.0049170000000004,0.0056704000000009,0.0021528,0,sub_23
0.0096709999999997,0.0054540000000012,-0.0080819999999998,0.0047020000000004,0.0056704000000009,0.0025804,0,sub_23
0.0108883999999997,0.0055518000000012,-0.0069025999999999,0.0036314000000004,0.0043988000000009,0.0021492,0,sub_23
0.0111077999999997,0.0054576000000012,-0.0066301999999999,0.0019152000000004,0.0016392000000009,0.001502,0,sub_23
0.0110075999999997,0.0049658000000012,-0.0067083999999998,-0.0008687999999995,-0.001117599999999,0.001061,0,sub_23
0.0098591999999997,0.0049794000000012,-0.0075941999999998,-0.0040853999999995,-0.004938999999999,0.0008318,0,sub_23
0.0079165999999997,0.0051404000000012,-0.0098011999999998,-0.0068821999999995,-0.008980599999999,0.001886,0,sub_23
0.0052493999999997,0.0042894000000012,-0.0112391999999998,-0.0090311999999995,-0.011108399999999,0.0031558,0,sub_23
0.0026569999999997,0.0037988000000012,-0.0126681999999998,-0.0105357999999995,-0.011962399999999,0.0048566,0,sub_23
1.1999999999775731e-05,0.0038030000000012,-0.0134703999999999,-0.0111799999999995,-0.011540799999999,0.006348,0,sub_23
-0.0024564000000002,0.0039140000000011,-0.0140259999999999,-0.0098961999999995,-0.009421799999999,0.0078506,0,sub_23
-0.0048160000000002,0.0039836000000011,-0.0138669999999999,-0.0081751999999995,-0.006446399999999,0.0078596,0,sub_23
-0.0055584000000002,0.0042662000000011,-0.0131093999999999,-0.0055957999999995,-0.003257599999999,0.0070196,0,sub_23
-0.0051346000000002,0.0050140000000012,-0.0125937999999999,-0.0023671999999995,0.0009984000000009,0.0051134,0,sub_23
-0.0038912000000002,0.0053110000000011,-0.0117985999999999,0.0017184000000003,0.0056796000000009,0.0027854,0,sub_23
-0.0015464000000002,0.0054142000000012,-0.0114851999999999,0.0047382000000003,0.0099412000000009,-0.0001903999999999,0,sub_23
0.0010997999999997,0.0052612000000012,-0.0111231999999999,0.0073250000000003,0.0137744000000009,-0.0020989999999999,0,sub_23
0.0033289999999997,0.0057584000000012,-0.0109945999999999,0.0088362000000003,0.0167552000000009,-0.0029455999999999,0,sub_23
0.0058989999999997,0.0053220000000012,-0.0104065999999999,0.0092708000000003,0.0182466000000009,-0.0031565999999999,0,sub_23
0.0087879999999997,0.0051982000000012,-0.0105921999999999,0.0081956000000004,0.0173948000000009,-0.0020931999999999,0,sub_23
0.0110659999999997,0.0049680000000011,-0.0100567999999999,0.0064738000000004,0.0154786000000009,-0.0006055999999999,0,sub_23
0.0127989999999997,0.0048788000000011,-0.0096265999999999,0.0043188000000004,0.0122860000000009,0.0008794,0,sub_23
0.0131027999999997,0.0044000000000011,-0.0093925999999999,0.0021592000000004,0.0078158000000009,0.0021524,0,sub_23
0.0126437999999997,0.0046230000000011,-0.0095505999999999,-0.0006403999999995,0.0033476000000009,0.0034208,0,sub_23
0.0115107999999997,0.0049810000000011,-0.0097729999999999,-0.0034347999999995,-0.000903999999999,0.0038354,0,sub_23
0.0097529999999997,0.0052220000000011,-0.0100027999999999,-0.0058005999999995,-0.004943599999999,0.0040392,0,sub_23
0.0075163999999997,0.0056710000000012,-0.0101461999999999,-0.0073069999999995,-0.007920399999999,0.0040338,0,sub_23
0.0055977999999997,0.0063196000000011,-0.0110213999999998,-0.0079553999999995,-0.009410599999999,0.0044596,0,sub_23
0.0031023999999997,0.0067180000000012,-0.0114623999999998,-0.0077453999999995,-0.010263399999999,0.0044632,0,sub_23
0.0011641999999997,0.0065006000000012,-0.0118999999999998,-0.0068927999999995,-0.010267399999999,0.0046828,0,sub_23
-0.0010140000000002,0.0064028000000011,-0.0121163999999998,-0.0058221999999995,-0.009207199999999,0.0049022,0,sub_23
-0.0015796000000001,0.0060282000000012,-0.0125189999999998,-0.0045323999999995,-0.007293999999999,0.0046948,0,sub_23
-0.0013848000000001,0.0051234000000012,-0.0126023999999999,-0.0034469999999996,-0.004523799999999,0.0034174,0,sub_23
-0.0006658000000001,0.0045860000000012,-0.0126505999999999,-0.0021453999999996,-0.001539399999999,0.001714,0,sub_23
-0.0002436000000002,0.0046946000000012,-0.0129567999999999,-0.0006303999999996,0.0016564000000009,0.0002254,0,sub_23
0.0003267999999997,0.0049776000000012,-0.0129683999999999,0.0008780000000003,0.0044220000000009,-0.0001943999999999,0,sub_23
0.0008963999999997,0.0052144000000012,-0.0122401999999999,0.0017384000000003,0.0063342000000009,0.0002368,0,sub_23
0.0018205999999997,0.0056014000000012,-0.0116383999999999,0.0023786000000004,0.0073926000000009,0.0013078,0,sub_23
0.0034817999999997,0.0059238000000012,-0.0110803999999999,0.0025890000000004,0.0082380000000009,0.0028034,0,sub_23
0.0045217999999997,0.0057532000000012,-0.0098557999999999,0.0025870000000004,0.0084486000000009,0.003444,0,sub_23
0.0062065999999997,0.0054132000000012,-0.0094787999999999,0.0028024000000004,0.0080254000000009,0.0025916,0,sub_23
0.0075419999999997,0.0052372000000012,-0.0100013999999999,0.0028036000000004,0.0071780000000009,0.0015248,0,sub_23
0.0078121999999997,0.0050318000000011,-0.0098697999999999,0.0019494000000004,0.0059076000000009,0.0004526,0,sub_23
0.0074131999999997,0.0045538000000011,-0.0100635999999999,0.0010886000000004,0.0037824000000009,2.2400000000085675e-05,0,sub_23
0.0073715999999997,0.0049616000000011,-0.0103463999999999,0.0002268000000004,0.0020806000000009,0.0002324,0,sub_23
0.0072907999999997,0.0048558000000011,-0.0108435999999999,-0.0014915999999995,0.0003794000000009,0.0010774,0,sub_23
0.0066193999999997,0.0048144000000011,-0.0111867999999999,-0.0027785999999995,-0.000682799999999,0.0014972,0,sub_23
0.0060371999999997,0.0052144000000012,-0.0113007999999999,-0.0027833999999995,-0.001535399999999,0.001712,0,sub_23
0.0052177999999997,0.0054460000000012,-0.0114463999999999,-0.0025675999999995,-0.001109999999999,0.0017126,0,sub_23
0.0044357999999997,0.0051740000000012,-0.0121729999999998,-0.0027785999999995,-0.001107599999999,0.0012834,0,sub_23
0.0036121999999997,0.0052112000000012,-0.0120719999999998,-0.0023493999999995,-0.000683199999999,0.0012854,0,sub_23
0.0030239999999997,0.0053994000000011,-0.0119461999999998,-0.0017057999999995,-0.000258599999999,0.0010752,0,sub_23
0.0024611999999997,0.0049530000000011,-0.0122941999999998,-0.0017005999999995,0.0003818000000009,0.0006466,0,sub_23
0.0021647999999997,0.0050892000000012,-0.0125169999999998,-0.0012689999999995,0.0005964000000009,-0.0002053999999999,0,sub_23
0.0023771999999997,0.0048854000000011,-0.0119987999999999,-0.0004077999999995,0.0016610000000009,-0.0008417999999999,0,sub_23
0.0023647999999997,0.0053414000000011,-0.0122453999999999,0.0002428000000004,0.0031532000000008,-0.0016937999999999,0,sub_23
0.0031489999999997,0.0050122000000011,-0.0120629999999999,0.0006796000000004,0.0048572000000008,-0.0021209999999999,0,sub_23
0.0041359999999997,0.0055978000000012,-0.0112035999999999,0.0011116000000004,0.0061328000000009,-0.0019067999999999,0,sub_23
0.0049491999999997,0.0054996000000012,-0.0108897999999999,0.0008956000000004,0.0063430000000008,-0.0010547999999999,0,sub_23
0.0054751999999997,0.0055446000000012,-0.0110049999999999,0.0004596000000004,0.0052748000000008,1.1000000000065645e-05,0,sub_23
0.0058327999999997,0.0049914000000012,-0.0105141999999999,2.280000000043888e-05,0.0037816000000009,0.0008636,0,sub_23
0.0058483999999997,0.0049556000000012,-0.0103457999999999,-0.0002011999999995,0.0020758000000009,0.0015052,0,sub_23
0.0057777999999997,0.0046608000000012,-0.0110715999999999,-0.0006355999999995,0.0001610000000009,0.0012912,0,sub_23
0.0054387999999997,0.0049662000000012,-0.0108775999999999,-0.0014947999999995,-0.001326199999999,0.0010736,0,sub_23
0.0051757999999997,0.0049848000000012,-0.0108641999999999,-0.0017101999999995,-0.002176999999999,0.0008582,0,sub_23
0.0049097999999997,0.0048408000000011,-0.0109025999999999,-0.0014989999999995,-0.002817199999999,0.000859,0,sub_23
0.0044221999999997,0.0049552000000011,-0.0111359999999999,-0.0017143999999995,-0.003880399999999,0.00043,0,sub_23
0.0042487999999997,0.0049680000000011,-0.0106197999999998,-0.0017173999999995,-0.004308599999999,0.0008562,0,sub_23
0.0044699999999997,0.0046064000000011,-0.0112411999999998,-0.0015041999999995,-0.004098399999999,0.0012832,0,sub_23
0.0043185999999997,0.0047782000000011,-0.0108603999999998,-0.0015041999999995,-0.004098399999999,0.0012832,0,sub_23
0.0045825999999997,0.0049596000000011,-0.0107895999999998,-0.0012887999999996,-0.003885199999999,0.0010708,0,sub_23
0.0045607999999997,0.0052906000000012,-0.0104423999999998,-0.0008639999999996,-0.004312599999999,0.0010744,0,sub_23
0.0044679999999997,0.0049486000000012,-0.0110039999999998,-0.0008631999999996,-0.004526199999999,0.0008594,0,sub_23
0.0042827999999997,0.0047686000000012,-0.0103981999999998,-0.0006469999999996,-0.004738999999999,0.0002186,0,sub_23
0.0044263999999997,0.0046392000000011,-0.0109145999999998,-0.0002193999999996,-0.004741999999999,0.0002198,0,sub_23
0.0041553999999997,0.0048552000000011,-0.0110473999999998,-6.19999999958102e-06,-0.004957199999999,0.0002198,0,sub_23
0.0045899999999997,0.0049234000000011,-0.0112961999999998,0.0002108000000004,-0.004108199999999,0.000432,0,sub_23
0.0042421999999997,0.0048650000000011,-0.0111497999999998,0.0012786000000004,-0.003686599999999,0.0006524,0,sub_23
0.0039357999999997,0.0052276000000011,-0.0114117999999998,0.0019166000000004,-0.003478199999999,0.0012974,0,sub_23
0.0038655999999997,0.0054540000000011,-0.0115111999999998,0.0021298000000004,-0.003054399999999,0.0017256,0,sub_23
0.0041053999999997,0.0055944000000011,-0.0112181999999998,0.0021278000000004,-0.003059199999999,0.002364,0,sub_23
0.0040263999999997,0.0052412000000011,-0.0114109999999998,0.0017022000000004,-0.002635399999999,0.0027854,0,sub_23
0.0047053999999997,0.0055510000000012,-0.0108005999999998,0.0014926000000004,-0.001997599999999,0.0027806,0,sub_23
0.0060739999999997,0.0051858000000012,-0.0107781999999998,0.0023548000000004,-0.001359199999999,0.0017152,0,sub_23
0.0066845999999997,0.0044970000000012,-0.0103721999999999,0.0021502000000004,-0.001141199999999,0.0002156,0,sub_23
0.0074777999999997,0.0039898000000012,-0.0107051999999999,0.0017342000000004,-0.000705399999999,-0.0017103999999999,0,sub_23
0.0072299999999997,0.0043006000000012,-0.0104383999999999,0.0015274000000004,-0.000698199999999,-0.0032073999999999,0,sub_23
0.0065373999999997,0.0044836000000012,-0.0113319999999999,0.0004588000000004,-0.001332399999999,-0.0034275999999999,0,sub_23
0.0047699999999997,0.0047692000000012,-0.0113395999999999,-0.0010403999999995,-0.001971799999999,-0.0025849999999999,0,sub_23
0.0039631999999997,0.0051534000000012,-0.0114235999999999,-0.0012545999999995,-0.001974999999999,-0.0021615999999999,0,sub_23
0.0033397999999997,0.0053026000000012,-0.0112275999999999,-0.0014679999999995,-0.001340799999999,-0.0013117999999999,0,sub_23
0.0030165999999997,0.0046908000000011,-0.0113369999999999,-0.0010391999999995,-0.000919399999999,-0.0010979999999998,0,sub_23
0.0030413999999997,0.0045298000000011,-0.0105991999999999,-0.0006065999999995,-0.000494399999999,-0.0017385999999998,0,sub_23
0.0032659999999997,0.0046970000000011,-0.0108213999999999,4.020000000041911e-05,0.0001460000000009,-0.0025895999999998,0,sub_23
0.0033239999999997,0.0048028000000011,-0.0104805999999999,0.0002564000000004,0.0007844000000009,-0.0025889999999998,0,sub_23
0.0027397999999997,0.0051360000000011,-0.0106243999999999,0.0011128000000004,0.0012084000000009,-0.0027971999999998,0,sub_23
0.0029363999999997,0.0052756000000012,-0.0106201999999999,0.0013284000000003,0.0016302000000009,-0.0025851999999999,0,sub_23
0.0032977999999997,0.0052068000000012,-0.0109313999999999,0.0013324000000003,0.0024786000000009,-0.0023753999999999,0,sub_23
0.0038969999999997,0.0046382000000012,-0.0108233999999999,0.0011232000000003,0.0033280000000009,-0.0021667999999999,0,sub_23
0.0044131999999997,0.0044606000000011,-0.0111811999999998,0.0013426000000003,0.0037532000000009,-0.0028091999999999,0,sub_23
0.0048089999999997,0.0043072000000011,-0.0112501999999998,0.0013486000000003,0.0039670000000008,-0.0036665999999999,0,sub_23
0.0052957999999997,0.0042292000000011,-0.0110885999999998,0.0011382000000004,0.0041826000000009,-0.0040955999999999,0,sub_23
0.0049259999999997,0.0044756000000011,-0.0107595999999998,0.0013526000000004,0.0041830000000009,-0.0043077999999999,0,sub_23
0.0046931999999997,0.0050622000000012,-0.0103997999999998,0.0015650000000004,0.0039694000000008,-0.0043059999999999,0,sub_23
0.0045563999999997,0.0055492000000012,-0.0099361999999998,0.0013490000000004,0.0035404000000008,-0.0038821999999999,0,sub_23
0.0047887999999997,0.0057122000000012,-0.0096867999999998,0.0007014000000004,0.0024720000000009,-0.0030331999999999,0,sub_23
0.0048471999999997,0.0062132000000012,-0.0098439999999998,5.560000000041903e-05,0.0014054000000009,-0.0026115999999999,0,sub_23
0.0054573999999997,0.0058246000000012,-0.0101663999999999,-0.0005911999999995,0.0003378000000009,-0.0019761999999999,0,sub_23
0.0057533999999997,0.0057888000000012,-0.0104005999999999,-0.0012397999999995,-0.000943599999999,-0.0011269999999999,0,sub_23
0.0053859999999997,0.0052912000000012,-0.0109873999999999,-0.0018915999999995,-0.002224599999999,0.000152,0,sub_23
0.0054289999999997,0.0048930000000012,-0.0109581999999999,-0.0025365999999995,-0.002438599999999,0.0010024,0,sub_23
0.0050383999999997,0.0046002000000012,-0.0106561999999999,-0.0025395999999995,-0.002228799999999,0.0018568,0,sub_23
0.0044551999999997,0.0049856000000011,-0.0109443999999999,-0.0023199999999995,-0.001590199999999,0.0014274,0,sub_23
0.0041315999999997,0.0045174000000011,-0.0106713999999999,-0.0018831999999995,-0.000736799999999,0.0003582,0,sub_23
0.0042999999999997,0.0045578000000011,-0.0110005999999999,-0.0014405999999995,0.0005462000000009,-0.0015659999999999,0,sub_23
0.0041037999999997,0.0046656000000011,-0.0113775999999999,-0.0009999999999995,0.0014030000000009,-0.0034897999999999,0,sub_23
0.0038885999999997,0.0049490000000011,-0.0115631999999999,-0.0009889999999995,0.0020464000000009,-0.0049889999999999,0,sub_23
0.0043393999999997,0.0046622000000011,-0.0115713999999998,-0.0012013999999995,0.0020482000000009,-0.0052041999999999,0,sub_23
0.0044295999999997,0.0052602000000011,-0.0121365999999998,-0.0014157999999995,0.0020482000000009,-0.0049919999999999,0,sub_23
0.0044923999999997,0.0056378000000012,-0.0117023999999998,-0.0014205999999995,0.0020440000000009,-0.0039239999999999,0,sub_23
0.0044877999999997,0.0057904000000012,-0.0110003999999998,-0.0007861999999995,0.0022472000000009,-0.0022131999999999,0,sub_23
0.0046729999999997,0.0054542000000012,-0.0106893999999998,-0.0003639999999995,0.0022400000000009,-0.0009309999999999,0,sub_23
0.0045211999999997,0.0054820000000012,-0.0100915999999999,-0.0001533999999995,0.0022350000000009,-7.739999999991413e-05,0,sub_23
0.0046529999999997,0.0047580000000012,-0.0096161999999999,-0.0001571999999995,0.0018056000000009,0.0005614,0,sub_23
0.0048547999999997,0.0039186000000012,-0.0095853999999999,5.0600000000419136e-05,0.0009494000000009,0.0012024,0,sub_23
0.0046263999999997,0.0038472000000012,-0.0101605999999999,-0.0005921999999995,0.0001006000000009,0.0009854,0,sub_23
0.0048973999999997,0.0039410000000012,-0.0107243999999999,-0.0008085999999995,-0.000537599999999,0.0009848,0,sub_23
0.0047469999999997,0.0044112000000011,-0.0112987999999999,-0.0012391999999995,-0.001175799999999,0.0011962,0,sub_23
0.0043377999999997,0.0047764000000011,-0.0114525999999999,-0.0014531999999995,-0.001601799999999,0.0011928,0,sub_23
0.0040141999999997,0.0052040000000011,-0.0112837999999999,-0.0016615999999995,-0.001173799999999,0.000761,0,sub_23
0.0044475999999997,0.0050698000000012,-0.0115747999999999,-0.0018699999999995,-0.000745999999999,0.000329,0,sub_23
0.0042525999999997,0.0048836000000012,-0.0112027999999998,-0.0022897999999995,-0.000315599999999,-0.0005315999999999,0,sub_23
0.0041469999999997,0.0044358000000012,-0.0110353999999998,-0.0020673999999995,0.0003264000000009,-0.0016015999999999,0,sub_23
0.0035857999999997,0.0047290000000012,-0.0108141999999998,-0.0016377999999995,0.0009642000000009,-0.0015993999999999,0,sub_23
0.0032707999999997,0.0051504000000012,-0.0112261999999998,-0.0016405999999995,0.0009616000000009,-0.0009585999999999,0,sub_23
0.0030585999999997,0.0048952000000012,-0.0112049999999998,-0.0012195999999995,0.0007428000000009,0.000113,0,sub_23
0.0037015999999997,0.0048838000000012,-0.0119157999999998,-0.0005843999999995,0.0005226000000009,0.0011842,0,sub_23
0.0040135999999997,0.0054820000000012,-0.0119707999999998,-0.0001635999999995,9.020000000092076e-05,0.0022542,0,sub_23
0.0044001999999997,0.0050554000000012,-0.0121261999999998,0.0004764000000004,0.0002988000000009,0.002684,0,sub_23
0.0051213999999997,0.0050698000000012,-0.0118729999999998,0.0009078000000004,0.0009368000000009,0.002471,0,sub_23
0.0049271999999997,0.0051628000000012,-0.0116271999999998,0.0013410000000004,0.0017888000000009,0.0020438,0,sub_23
0.0042671999999997,0.0053300000000012,-0.0107717999999999,0.0009182000000004,0.0022182000000009,0.001613,0,sub_23
0.0042343999999997,0.0044326000000012,-0.0105495999999999,0.0007086000000004,0.0026468000000009,0.0011836,0,sub_23
0.0049945999999997,0.0045936000000012,-0.0101927999999999,-0.0001399999999995,0.0028664000000009,0.0003228,0,sub_23
0.0046123999999997,0.0043486000000011,-0.0104897999999998,-0.0007783999999995,0.0024444000000009,-0.0003235999999999,0,sub_23
0.0047559999999997,0.0044438000000011,-0.0104617999999998,-0.0009869999999995,0.0026600000000009,-0.0009675999999999,0,sub_23
0.0046783999999997,0.0046236000000011,-0.0109981999999998,-0.0003411999999996,0.0032980000000009,-0.0013925999999999,0,sub_23
0.0041731999999997,0.0056372000000011,-0.0112467999999998,0.0005208000000003,0.0047864000000009,-0.0016035999999998,0,sub_23
0.0033165999999997,0.0057372000000011,-0.0116577999999998,0.0013760000000003,0.0052078000000009,-0.0013859999999998,0,sub_23
0.0030017999999997,0.0056956000000011,-0.0116343999999999,0.0024400000000003,0.0049892000000009,-0.0009509999999998,0,sub_23
0.0033671999999997,0.0055752000000011,-0.0114451999999999,0.0028610000000003,0.0045582000000009,-9.29999999998943e-05,0,sub_23
0.0036325999999997,0.0051964000000011,-0.0108257999999999,0.0028552000000004,0.0039164000000009,0.0005486000000001,0,sub_23
0.0049791999999997,0.0044872000000011,-0.0111055999999999,0.0026360000000004,0.0026372000000009,0.0007618,0,sub_23
0.0053891999999997,0.0045628000000011,-0.0108821999999999,0.0017824000000004,0.0024264000000009,0.0007554000000001,0,sub_23
0.0055329999999997,0.0047568000000011,-0.0101933999999998,0.0005038000000004,0.0026434000000009,0.0007456000000001,0,sub_23
0.0047905999999997,0.0050768000000011,-0.0102517999999998,7.300000000041907e-05,0.0011544000000009,0.0003166000000001,0,sub_23
0.0043959999999997,0.0052564000000011,-0.0104829999999998,-0.0003577999999995,-0.000122399999999,0.0001010000000001,0,sub_23
0.0036445999999997,0.0050400000000012,-0.0103433999999998,-0.0012161999999995,-0.000760199999999,0.0005230000000001,0,sub_23
0.0035263999999997,0.0046308000000012,-0.0113935999999998,-0.0014333999999995,-0.001399399999999,0.000736,0,sub_23
0.0035745999999997,0.0044350000000012,-0.0122691999999999,-0.0010111999999995,-0.002253999999999,0.0009536,0,sub_23
0.0035455999999997,0.0045768000000011,-0.0124099999999999,-0.0012235999999995,-0.002042199999999,0.001165,0,sub_23
0.0036131999999997,0.0045450000000011,-0.0122149999999999,-0.0014377999999995,-0.002256599999999,0.001377,0,sub_23
0.0030323999999997,0.0049534000000011,-0.0119015999999999,-0.0018605999999995,-0.002041599999999,0.000946,0,sub_23
0.0035179999999997,0.0053742000000011,-0.0105543999999999,-0.0022843999999995,-0.001827399999999,0.0007286,0,sub_23
0.0042709999999997,0.0053546000000012,-0.0100399999999998,-0.0029225999999995,-0.001613199999999,0.0007234000000001,0,sub_23
0.0043621999999997,0.0052686000000012,-0.0099315999999998,-0.0029205999999995,-0.001399199999999,0.0005094000000001,0,sub_23
0.0047021999999997,0.0052486000000012,-0.0103477999999998,-0.0027043999999995,-0.000760599999999,0.0005100000000001,0,sub_23
