userAcceleration.x,userAcceleration.y,userAcceleration.z,rotationRate.x,rotationRate.y,rotationRate.z,label,subject
0.0029623999999997,-0.0067537999999987,-0.0065013999999999,-0.0055743999999995,0.0013162000000008,-7.299999999992226e-05,0,sub_7
0.0030665999999997,-0.0068473999999987,-0.0061961999999999,-0.0040925999999995,0.0013096000000008,0.0005822,0,sub_7
0.0040123999999997,-0.0071775999999987,-0.0069357999999999,-0.0032423999999995,0.0021616000000008,0.0001636,0,sub_7
0.0029965999999997,-0.0069627999999987,-0.0065133999999999,-0.0038885999999994,0.0023798000000008,-0.0002645999999999,0,sub_7
0.0028797999999997,-0.0065931999999987,-0.0064377999999999,-0.0034717999999994,0.0023786000000008,-4.419999999992228e-05,0,sub_7
0.0029709999999998,-0.0064463999999987,-0.0067951999999999,-0.0021905999999995,0.0027994000000008,0.0001778,0,sub_7
0.0036547999999998,-0.0061015999999987,-0.0070861999999999,-0.0004903999999995,0.0023632000000008,0.0012584,0,sub_7
0.0038881999999998,-0.0050007999999987,-0.0071809999999999,0.0007764000000004,0.0010736000000008,0.002978,0,sub_7
0.0045633999999998,-0.0042857999999987,-0.0073679999999998,0.0022384000000004,-0.0006391999999991,0.0053482,0,sub_7
0.0044817999999998,-0.0036961999999987,-0.0070159999999998,0.0034888000000004,-0.0017129999999991,0.0079296,0,sub_7
0.0045239999999998,-0.0037303999999987,-0.0066609999999998,0.0045288000000004,-0.0027835999999991,0.0098686,0,sub_7
0.0038429999999998,-0.0043275999999987,-0.0064379999999998,0.0045088000000004,-0.0029955999999991,0.0111584,0,sub_7
0.0033673999999998,-0.0056865999999987,-0.0064323999999999,0.0036448000000004,-0.0021349999999991,0.0113726,0,sub_7
0.0036229999999998,-0.0068351999999987,-0.0068577999999999,0.0025864000000005,-0.0010625999999991,0.0105092,0,sub_7
0.0041839999999997,-0.0080867999999987,-0.0075753999999999,0.0011082000000005,1.720000000082246e-05,0.0081474,0,sub_7
0.0034879999999997,-0.0085093999999987,-0.0080907999999999,-0.0007957999999994,0.0008872000000008,0.0053556,0,sub_7
0.0032249999999997,-0.0074365999999987,-0.0077621999999999,-0.0022703999999994,0.0019704000000008,0.0021392,0,sub_7
0.0036455999999997,-0.0072293999999987,-0.0078113999999999,-0.0012023999999994,0.0019798000000008,-0.0001965999999999,0,sub_7
0.0042127999999997,-0.0069309999999987,-0.0071897999999999,-0.0001391999999995,0.0015606000000008,-0.0018909999999999,0,sub_7
0.0045469999999998,-0.0066601999999987,-0.0067597999999999,0.0009200000000004,0.0011380000000008,-0.0027307999999999,0,sub_7
0.0051829999999998,-0.0064803999999987,-0.0061501999999999,0.0024040000000004,0.0002880000000008,-0.0035669999999999,0,sub_7
0.0054343999999998,-0.0064043999999987,-0.0064027999999999,0.0047358000000004,-0.0014189999999991,-0.0039689999999999,0,sub_7
0.0044707999999998,-0.0056573999999987,-0.0067235999999998,0.0057996000000004,-0.002061799999999,-0.0039607999999999,0,sub_7
0.0032965999999998,-0.0053801999999987,-0.0071515999999998,0.0066502000000004,-0.002491799999999,-0.0037405999999999,0,sub_7
0.0024375999999998,-0.0050891999999987,-0.0077853999999998,0.0075008000000004,-0.002921599999999,-0.0035203999999999,0,sub_7
0.0023125999999998,-0.0050547999999987,-0.0083755999999998,0.0072818000000004,-0.003147599999999,-0.0024429999999999,0,sub_7
0.0023515999999997,-0.0054937999999987,-0.0082421999999999,0.0059952000000004,-0.0035829999999991,-0.0013727999999999,0,sub_7
0.0030681999999997,-0.0065373999999987,-0.0075111999999999,0.0027920000000004,-0.0040081999999991,-0.0011705999999999,0,sub_7
0.0034243999999997,-0.0064845999999987,-0.0061607999999999,0.0015090000000004,-0.0048643999999991,-0.0013815999999999,0,sub_7
0.0039981999999997,-0.0068359999999987,-0.0054283999999999,0.0021512000000004,-0.0046621999999991,-0.0015805999999999,0,sub_7
0.0042617999999997,-0.0067169999999987,-0.0058673999999999,0.0019484000000004,-0.0031665999999991,-0.0024383999999999,0,sub_7
0.0043551999999998,-0.0060977999999987,-0.0065861999999999,0.0008900000000004,-0.0018819999999991,-0.0030883999999999,0,sub_7
0.0049493999999998,-0.0053349999999987,-0.0068675999999999,0.0019656000000004,-0.0008169999999991,-0.0039367999999999,0,sub_7
0.0054935999999997,-0.0053091999999987,-0.0081227999999999,0.0015640000000004,0.0017296000000008,-0.0041463999999999,0,sub_7
0.0052329999999997,-0.0042411999999987,-0.0084483999999999,-0.0009741999999995,0.0038568000000008,-0.0041565999999999,0,sub_7
0.0050187999999997,-0.0038467999999987,-0.0077875999999999,-0.0018101999999995,0.0051248000000008,-0.0039401999999999,0,sub_7
0.0051871999999997,-0.0042337999999987,-0.0074621999999999,-0.0020011999999995,0.0072438000000008,-0.0039339999999999,0,sub_7
0.0044699999999997,-0.0039013999999987,-0.0079793999999999,-0.0036869999999995,0.0093670000000008,-0.0037245999999999,0,sub_7
0.0040435999999998,-0.0033729999999987,-0.0079339999999999,-0.0058167999999995,0.0102266000000008,-0.0037405999999999,0,sub_7
0.0036511999999998,-0.0040415999999987,-0.0078855999999999,-0.0068825999999995,0.0106556000000008,-0.0035349999999999,0,sub_7
0.0034989999999998,-0.0046865999999987,-0.0083603999999999,-0.0077247999999994,0.0112874000000008,-0.0035425999999999,0,sub_7
0.0029537999999998,-0.0054323999999987,-0.0083869999999999,-0.0081449999999994,0.0108524000000008,-0.0035455999999999,0,sub_7
0.0021229999999998,-0.0060415999999987,-0.0076495999999999,-0.0077135999999994,0.0097762000000008,-0.0037555999999999,0,sub_7
0.0010365999999998,-0.0069955999999987,-0.0074573999999999,-0.0070689999999994,0.0086992000000008,-0.0039639999999999,0,sub_7
0.0009339999999998,-0.0074867999999987,-0.0071885999999999,-0.0064253999999994,0.0069846000000008,-0.0045989999999999,0,sub_7
0.0004111999999998,-0.0074817999999987,-0.0058181999999999,-0.0057957999999995,0.0044264000000008,-0.0048047999999999,0,sub_7
0.0007967999999998,-0.0073467999999987,-0.0052483999999998,-0.0051633999999995,0.0029320000000008,-0.0045849999999999,0,sub_7
0.0010195999999998,-0.0068227999999987,-0.0053345999999998,-0.0034687999999995,0.0016416000000008,-0.0030759999999999,0,sub_7
0.0013085999999998,-0.0054641999999987,-0.0057845999999998,-0.0007145999999995,0.0001200000000008,0.0003492,0,sub_7
0.0013959999999998,-0.0029103999999987,-0.0059617999999999,0.0018138000000004,-0.0022607999999991,0.0056968,0,sub_7
0.0028915999999998,-0.0006217999999987,-0.0060829999999998,0.0049716000000004,-0.0057139999999991,0.012332,0,sub_7
0.0036013999999998,0.0009904000000012,-0.0059953999999999,0.0081334000000004,-0.0081029999999991,0.0191796,0,sub_7
0.0044619999999998,0.0011682000000012,-0.0065157999999999,0.0091700000000004,-0.0096279999999991,0.024943,0,sub_7
0.0059291999999998,0.0003348000000012,-0.0065303999999999,0.0083002000000004,-0.0107003999999991,0.027502,0,sub_7
0.0065967999999998,-0.0021953999999987,-0.0077381999999999,0.0061664000000004,-0.0104805999999991,0.0277006,0,sub_7
0.0059139999999998,-0.0048235999999987,-0.0088277999999999,0.0027688000000004,-0.0093931999999991,0.0251116,0,sub_7
0.0054479999999998,-0.0068367999999987,-0.0100909999999999,-0.0006355999999995,-0.010004599999999,0.0208114,0,sub_7
0.0050981999999998,-0.0083235999999987,-0.0103323999999999,-0.0027521999999995,-0.009976799999999,0.0154512,0,sub_7
0.0040643999999998,-0.0093089999999987,-0.0102313999999999,-0.0027329999999995,-0.009954999999999,0.0096786,0,sub_7
0.0031723999999998,-0.0095093999999987,-0.0085819999999999,0.0002792000000004,-0.0099385999999991,0.0026448,0,sub_7
0.0027713999999998,-0.0096293999999987,-0.0084203999999999,0.0035114000000004,-0.008855799999999,-0.0048157999999999,0,sub_7
0.0001359999999998,-0.0099367999999987,-0.0076037999999999,0.0052586000000004,-0.0069159999999991,-0.0118563999999999,0,sub_7
-0.0023396000000001,-0.0101619999999987,-0.0070805999999999,0.0059448000000004,-0.0019967999999991,-0.0171991999999999,0,sub_7
-0.0046162000000001,-0.0094901999999987,-0.0086501999999999,0.0049240000000004,0.0054748000000008,-0.0199931999999999,0,sub_7
-0.0027366000000001,-0.0050703999999987,-0.0071637999999999,0.0025858000000004,0.0108070000000008,-0.0185181999999999,0,sub_7
-0.0005392000000001,0.0004782000000012,-0.0043097999999999,0.0008550000000004,0.0137736000000008,-0.0121221999999999,0,sub_7
0.0053113999999997,0.0072778000000012,-0.0011801999999999,0.0001844000000004,0.0180038000000008,-0.0029429999999999,0,sub_7
0.0112739999999997,0.0122184000000012,-0.0024573999999999,-8.259999999951006e-05,0.0173314000000008,0.006459,0,sub_7
0.0159361999999997,0.0153594000000012,-0.0022015999999999,-0.0016489999999995,0.0107050000000008,0.0141502,0,sub_7
0.0152503999999997,0.0125628000000012,-0.0061109999999999,-0.0046919999999995,0.0040878000000008,0.019906,0,sub_7
0.0125577999999997,0.0070488000000012,-0.0107685999999999,-0.0077127999999995,3.660000000086372e-05,0.0233084,0,sub_7
0.0076393999999997,0.0001928000000012,-0.0160861999999999,-0.0096561999999995,-0.0052821999999991,0.023088,0,sub_7
0.0020533999999997,-0.0056365999999987,-0.0153123999999999,-0.0102913999999994,-0.0089013999999991,0.0194678,0,sub_7
-0.0011878000000002,-0.0118095999999987,-0.0135029999999999,-0.0085487999999994,-0.0080455999999991,0.0135084,0,sub_7
-0.0023576000000001,-0.0157885999999987,-0.0103325999999999,-0.0048571999999994,-0.0044121999999991,0.0039268,0,sub_7
-0.0025394000000001,-0.0168155999999987,-0.0082013999999999,-0.0005091999999994,-0.0009785999999991,-0.0094953999999999,0,sub_7
-0.0025866000000001,-0.0167763999999987,-0.0063207999999999,0.0031938000000005,0.0022406000000008,-0.0220671999999998,0,sub_7
-0.0024390000000001,-0.0147549999999987,-0.0058709999999999,0.0055936000000004,0.0048256000000008,-0.0312405999999998,0,sub_7
-0.0023380000000001,-0.0088811999999987,-0.0053659999999999,0.0071082000000004,0.0065368000000008,-0.0342233999999998,0,sub_7
-0.0009298000000002,-0.0004789999999988,-0.0044877999999999,0.0073092000000004,0.0075860000000008,-0.0303777999999998,0,sub_7
0.0025279999999997,0.0071312000000011,-0.0030515999999999,0.0068394000000004,0.0086100000000008,-0.0197001999999999,0,sub_7
0.0067251999999997,0.0144438000000011,-0.0027841999999999,0.0061544000000004,0.0085476000000008,-0.0075185999999999,0,sub_7
0.0111731999999997,0.0184190000000011,-0.0041235999999999,0.0052492000000004,0.0063580000000008,0.0040234,0,sub_7
0.0137909999999997,0.0173508000000012,-0.0072459999999999,0.0030716000000004,0.0031188000000008,0.0127804,0,sub_7
0.0127577999999998,0.0109480000000012,-0.0117595999999999,0.0006988000000004,-0.0001035999999991,0.0174768,0,sub_7
0.0095959999999998,0.0040024000000012,-0.0152503999999999,-0.0022939999999995,-0.0039423999999991,0.0170422,0,sub_7
0.0051023999999998,-0.0036021999999987,-0.0149777999999999,-0.0054925999999995,-0.0062635999999991,0.0142454,0,sub_7
0.0001969999999998,-0.0090077999999987,-0.0123417999999999,-0.0080347999999994,-0.006662799999999,0.0097416,0,sub_7
-0.0044696000000001,-0.0118883999999987,-0.0084617999999999,-0.0077931999999994,-0.006204999999999,0.003725,0,sub_7
-0.0085614000000001,-0.0117881999999987,-0.0048715999999999,-0.0073343999999994,-0.0046833999999991,-0.0020777999999999,0,sub_7
-0.0111992000000001,-0.0105733999999987,-0.0008381999999999,-0.0068813999999994,-0.0029545999999991,-0.0063853999999999,0,sub_7
-0.0091660000000001,-0.0065615999999987,0.0017424,-0.0045291999999994,-0.0023123999999991,-0.0070463999999999,0,sub_7
-0.0043170000000001,-0.0016687999999988,0.0021098,0.0001540000000004,-0.0010563999999991,-0.0034189999999999,0,sub_7
0.0028027999999998,0.0032232000000011,0.0008188,0.0041812000000004,-0.0002455999999991,0.0034448,0,sub_7
0.0106273999999998,0.0069740000000011,-0.0013611999999999,0.0081930000000004,-0.0028435999999991,0.0103128,0,sub_7
0.0164425999999997,0.0079420000000011,-0.0070709999999999,0.0111400000000004,-0.0062849999999991,0.0158926,0,sub_7
0.0177293999999997,0.0050928000000011,-0.0133497999999999,0.0108920000000004,-0.0096995999999991,0.0188762,0,sub_7
0.0160809999999997,0.0005994000000011,-0.0166789999999999,0.0070366000000004,-0.0128711999999991,0.0175614,0,sub_7
0.0119027999999997,-0.0042177999999988,-0.0176407999999999,0.0032080000000004,-0.0149579999999991,0.0113314,0,sub_7
0.0069637999999997,-0.0090095999999987,-0.0170355999999999,-0.0001611999999995,-0.0119245999999991,0.0029618,0,sub_7
0.0028733999999997,-0.0111691999999987,-0.0122175999999999,-0.0033007999999995,-0.0059065999999991,-0.0060511999999999,0,sub_7
0.0005319999999997,-0.0118635999999987,-0.0073041999999999,-0.0049339999999995,0.0015920000000008,-0.0150451999999998,0,sub_7
-0.0005448000000002,-0.0112029999999987,-0.0039041999999999,-0.0050869999999995,0.0082246000000008,-0.0218913999999998,0,sub_7
0.0008493999999998,-0.0077467999999987,-0.0008989999999999,-0.0058981999999995,0.0146310000000008,-0.0248961999999998,0,sub_7
0.0037743999999998,-0.0031437999999987,0.000874,-0.0056609999999995,0.0180418000000008,-0.0257839999999998,0,sub_7
0.0067213999999998,0.0003826000000012,0.0003128,-0.0016165999999995,0.0167408000000008,-0.0238615999999998,0,sub_7
0.0072819999999998,0.0032732000000012,-0.0027381999999999,0.0026152000000004,0.0130820000000008,-0.0185167999999999,0,sub_7
0.0070941999999998,0.0057854000000011,-0.0061611999999999,0.0049228000000004,0.0098510000000008,-0.0119039999999999,0,sub_7
0.0055067999999998,0.0059102000000011,-0.0093783999999999,0.0061626000000004,0.0064106000000008,-0.0052983999999999,0,sub_7
0.0033915999999998,0.0031280000000012,-0.0112663999999999,0.0050498000000004,0.0027660000000008,0.0013214,0,sub_7
0.0015045999999998,0.0005900000000012,-0.0125783999999999,0.0005440000000004,0.0023352000000008,0.006418,0,sub_7
0.0015615999999997,-0.0019589999999987,-0.0110665999999999,-0.0050037999999995,0.0042644000000008,0.0082996,0,sub_7
0.0018553999999997,-0.0047067999999987,-0.0083863999999999,-0.0090547999999994,0.0055510000000008,0.0078516,0,sub_7
0.0019227999999997,-0.0076413999999987,-0.0065527999999999,-0.0118237999999994,0.0059862000000008,0.0061318,0,sub_7
0.0018443999999997,-0.0079105999999987,-0.0053507999999999,-0.0135229999999994,0.0066324000000008,0.003992,0,sub_7
0.0014751999999997,-0.0081091999999987,-0.0044507999999999,-0.0137381999999994,0.0057794000000008,0.0025052,0,sub_7
0.0014453999999998,-0.0077747999999987,-0.0036659999999998,-0.0116137999999994,0.0034260000000008,0.0012506,0,sub_7
0.0013601999999998,-0.0076125999999987,-0.0044305999999999,-0.0082103999999994,0.0008584000000008,0.001064,0,sub_7
0.0013735999999997,-0.0074395999999987,-0.0061997999999999,-0.0045925999999995,-0.0012847999999991,0.001092,0,sub_7
0.0018937999999997,-0.0073461999999987,-0.0076389999999999,-0.0009757999999995,-0.0034287999999991,0.0013336,0,sub_7
0.0031465999999997,-0.0076499999999987,-0.0085947999999999,0.0028616000000004,-0.0049331999999991,0.0011412,0,sub_7
0.0040391999999997,-0.0077537999999987,-0.0092375999999999,0.0067028000000004,-0.0060097999999991,0.0005208,0,sub_7
0.0044823999999997,-0.0072423999999987,-0.0088981999999999,0.0099144000000004,-0.0064381999999991,-0.0018137999999999,0,sub_7
0.0054835999999997,-0.0064561999999987,-0.0075943999999999,0.0124898000000004,-0.0066487999999991,-0.0047939999999999,0,sub_7
0.0062527999999997,-0.0058155999999987,-0.0064525999999999,0.0142136000000004,-0.0066423999999991,-0.0079941999999999,0,sub_7
0.0054861999999997,-0.0048261999999987,-0.0057671999999999,0.0140166000000004,-0.0055661999999991,-0.0105605999999999,0,sub_7
0.0028055999999997,-0.0038665999999987,-0.0066211999999999,0.0125296000000004,-0.0044939999999991,-0.0109995999999999,0,sub_7
0.0001183999999998,-0.0021869999999987,-0.0075433999999999,0.0108092000000004,-0.0042877999999991,-0.0078071999999999,0,sub_7
-0.0024594000000001,-0.0010599999999987,-0.0077667999999999,0.0112080000000004,-0.0051627999999991,-0.0024621999999999,0,sub_7
-0.0026486000000001,-0.0019585999999987,-0.0079745999999999,0.0133068000000004,-0.0053949999999991,0.0037278,0,sub_7
-0.0018286000000001,-0.0031481999999987,-0.0076229999999999,0.0145530000000004,-0.0056231999999991,0.009698,0,sub_7
0.0008199999999998,-0.0046083999999987,-0.0057647999999999,0.0145316000000004,-0.0058357999999991,0.0128822,0,sub_7
0.0043969999999998,-0.0066591999999987,-0.0050655999999999,0.0130444000000004,-0.0034721999999991,0.0124208,0,sub_7
0.0076487999999997,-0.0085145999999987,-0.0053497999999999,0.0090102000000004,-2.659999999915612e-05,0.0100174,0,sub_7
0.0083331999999997,-0.0080595999999987,-0.0064407999999999,0.0043486000000004,0.0036262000000008,0.0063482,0,sub_7
0.0087983999999997,-0.0063655999999987,-0.0081731999999999,0.0013922000000004,0.0064224000000008,0.0022648,0,sub_7
0.0090883999999997,-0.0045449999999987,-0.0103437999999999,-0.0011451999999995,0.0092104000000008,-0.0001065999999999,0,sub_7
0.0082711999999997,-0.0036989999999987,-0.0112071999999999,-0.0034823999999995,0.0102888000000008,-0.0013937999999999,0,sub_7
0.0071255999999997,-0.0032485999999987,-0.0115675999999999,-0.0056071999999995,0.0111534000000008,-0.0026791999999999,0,sub_7
0.0058093999999997,-0.0031425999999987,-0.0102399999999999,-0.0081643999999995,0.0113778000000008,-0.0033257999999999,0,sub_7
0.0042417999999997,-0.0042295999999987,-0.0085329999999999,-0.0105159999999995,0.0109582000000008,-0.0029019999999999,0,sub_7
0.0024103999999997,-0.0054475999999987,-0.0070635999999999,-0.0115881999999995,0.0096842000000008,-0.0031091999999999,0,sub_7
0.0014433999999997,-0.0065399999999987,-0.0060021999999998,-0.0109557999999995,0.0081898000000008,-0.0028891999999999,0,sub_7
0.0005831999999997,-0.0072615999999987,-0.0052597999999998,-0.0101155999999994,0.0064772000000008,-0.0015993999999999,0,sub_7
6.119999999979023e-05,-0.0073155999999987,-0.0051687999999998,-0.0092709999999994,0.0047478000000008,0.0001276,0,sub_7
-0.0002660000000001,-0.0065713999999987,-0.0049471999999998,-0.0084167999999994,0.0040878000000008,0.0007852,0,sub_7
0.0001993999999998,-0.0060901999999987,-0.0044415999999998,-0.0065015999999994,0.0032070000000008,0.0025188,0,sub_7
0.0014915999999998,-0.0052269999999987,-0.0047549999999998,-0.0037335999999994,0.0018978000000008,0.004045,0,sub_7
0.0027737999999998,-0.0049939999999987,-0.0061367999999998,-0.0018153999999995,0.0008074000000008,0.0049242,0,sub_7
0.0037943999999998,-0.0050987999999987,-0.0073803999999998,-0.0003293999999995,-0.0006899999999991,0.0051502,0,sub_7
0.0048837999999998,-0.0059779999999987,-0.0091219999999998,0.0020092000000004,-0.0028277999999991,0.0049556,0,sub_7
0.0063261999999998,-0.0068867999999987,-0.0109957999999999,0.0032924000000004,-0.0038907999999991,0.0032566,0,sub_7
0.0061501999999998,-0.0078003999999987,-0.0114989999999998,0.0026714000000004,-0.0045275999999991,0.000908,0,sub_7
0.0053595999999997,-0.0080017999999987,-0.0104421999999998,0.0026982000000004,-0.0047355999999991,-0.0027183999999999,0,sub_7
0.0041911999999997,-0.0083081999999987,-0.0096023999999998,0.0033690000000004,-0.0038811999999991,-0.0061281999999999,0,sub_7
0.0031503999999997,-0.0078891999999987,-0.0082449999999998,0.0040370000000004,-0.0028171999999991,-0.0086835999999999,0,sub_7
0.0015359999999997,-0.0072297999999987,-0.0072705999999998,0.0044896000000004,-0.0011175999999991,-0.0101729999999999,0,sub_7
0.0012997999999997,-0.0055371999999987,-0.0064179999999998,0.0049250000000004,0.0010106000000008,-0.0099589999999999,0,sub_7
0.0015687999999998,-0.0037137999999987,-0.0057971999999998,0.0047078000000004,0.0020690000000008,-0.0080389999999999,0,sub_7
0.0025859999999998,-0.0017857999999987,-0.0050091999999999,0.0051134000000004,0.0009876000000008,-0.0044027999999999,0,sub_7
0.0033051999999998,-0.0010135999999987,-0.0052131999999999,0.0052828000000004,-0.0007289999999991,-0.0001151999999999,0,sub_7
0.0042793999999997,-0.0001047999999987,-0.0051555999999999,0.0043826000000004,-0.0035053999999991,0.0037388,0,sub_7
0.0041923999999997,-0.0002099999999987,-0.0055753999999999,0.0032700000000004,-0.0071289999999991,0.0065244,0,sub_7
0.0035025999999997,-0.0021955999999987,-0.0072239999999999,0.0030184000000004,-0.0098999999999991,0.0084602,0,sub_7
0.0027229999999997,-0.0043877999999987,-0.0087843999999999,0.0015088000000005,-0.0101003999999991,0.008034,0,sub_7
0.0025605999999997,-0.0062353999999987,-0.0091057999999999,-0.0010381999999994,-0.0094429999999991,0.0056652,0,sub_7
0.0029453999999998,-0.0080947999999987,-0.0091683999999999,-0.0020867999999994,-0.0081497999999991,0.002879,0,sub_7
0.0036235999999998,-0.0102021999999987,-0.0093947999999999,-0.0012083999999994,-0.0064329999999991,-0.0009627999999999,0,sub_7
0.0044597999999998,-0.0105415999999987,-0.0083155999999999,0.0007360000000005,-0.0051451999999991,-0.0050101999999999,0,sub_7
0.0049087999999998,-0.0097625999999987,-0.0070737999999999,0.0039332000000004,-0.0047179999999991,-0.0086231999999999,0,sub_7
0.0050853999999998,-0.0080025999999987,-0.0064347999999999,0.0079782000000004,-0.0040865999999991,-0.0107347999999999,0,sub_7
0.0043903999999998,-0.0055959999999987,-0.0060365999999999,0.0113764000000004,-0.0036711999999991,-0.0115689999999999,0,sub_7
0.0041553999999998,-0.0031929999999987,-0.0062745999999999,0.0132752000000004,-0.0030435999999991,-0.0109181999999998,0,sub_7
0.0041933999999998,-0.0008541999999987,-0.0067019999999999,0.0138928000000004,-0.0017755999999991,-0.0094225999999998,0,sub_7
0.0047603999999998,-0.0001159999999987,-0.0078923999999999,0.0134584000000004,-0.0011441999999991,-0.0070761999999998,0,sub_7
0.0046435999999998,-0.0005289999999987,-0.0085693999999999,0.0113180000000004,-0.0007183999999991,-0.0051689999999998,0,sub_7
0.0046329999999998,-0.0014049999999987,-0.0094465999999999,0.0072686000000004,0.0005504000000008,-0.0039169999999999,0,sub_7
0.0035009999999998,-0.0023917999999987,-0.0089875999999999,0.0027936000000004,0.0016094000000008,-0.0030949999999999,0,sub_7
0.0028023999999998,-0.0029883999999987,-0.0084883999999999,-0.0016813999999995,0.0026684000000008,-0.0022729999999999,0,sub_7
0.0015985999999998,-0.0034823999999987,-0.0071471999999999,-0.0061515999999995,0.0039438000000008,-0.0023057999999998,0,sub_7
0.0015627999999997,-0.0040397999999987,-0.0061671999999999,-0.0099875999999995,0.0047876000000008,-0.0014789999999999,0,sub_7
0.0012223999999997,-0.0048405999999987,-0.0055693999999999,-0.0112745999999995,0.0043618000000008,-0.0004191999999999,0,sub_7
0.0013183999999997,-0.0051325999999987,-0.0059215999999999,-0.0112841999999995,0.0035046000000008,0.0008638,0,sub_7
0.0013209999999997,-0.0061779999999987,-0.0059893999999999,-0.0100183999999995,0.0017896000000008,0.0023704,0,sub_7
0.0017885999999997,-0.0070285999999987,-0.0064751999999999,-0.0078991999999995,0.0002838000000008,0.0040962,0,sub_7
0.0026161999999997,-0.0074273999999987,-0.0070509999999999,-0.0051285999999995,-0.0010153999999991,0.0045422,0,sub_7
0.0036483999999997,-0.0074259999999987,-0.0072953999999999,-0.0029933999999995,-0.0020959999999991,0.004129,0,sub_7
0.0046775999999997,-0.0076665999999987,-0.0065703999999999,-0.0012801999999995,-0.0029585999999991,0.0028578,0,sub_7
0.0052901999999997,-0.0072331999999987,-0.0064299999999999,1.2000000000489833e-05,-0.0033899999999991,0.0007286,0,sub_7
0.0053291999999997,-0.0068239999999987,-0.0064301999999999,0.0008796000000004,-0.0036059999999991,-0.0016173999999999,0,sub_7
0.0047919999999998,-0.0063957999999987,-0.0066569999999999,0.0023750000000004,-0.0042461999999991,-0.0026743999999999,0,sub_7
0.0036975999999998,-0.0057993999999987,-0.0065227999999999,0.0034382000000004,-0.0053143999999991,-0.0028793999999999,0,sub_7
0.0028521999999998,-0.0051319999999987,-0.0072211999999999,0.0040688000000004,-0.0057463999999991,-0.0026549999999999,0,sub_7
0.0022903999999998,-0.0053811999999987,-0.0071231999999999,0.0040574000000004,-0.0059655999999991,-0.0017945999999999,0,sub_7
0.0025247999999998,-0.0058131999999987,-0.0073033999999999,0.0042564000000004,-0.0064003999999991,-0.0005049999999999,0,sub_7
0.0032967999999998,-0.0063065999999987,-0.0076035999999999,0.0036096000000004,-0.0066129999999991,-0.0007171999999999,0,sub_7
0.0037047999999998,-0.0076289999999987,-0.0076157999999999,0.0040382000000004,-0.0059727999999991,-0.0019909999999999,0,sub_7
0.0029301999999998,-0.0089969999999987,-0.0080793999999999,0.0044754000000004,-0.0042671999999991,-0.0026311999999999,0,sub_7
0.0014473999999998,-0.0085917999999987,-0.0090959999999998,0.0044908000000004,-0.0010705999999991,-0.0028487999999999,0,sub_7
-0.0005152000000001,-0.0062255999999988,-0.0089373999999998,0.0057728000000004,0.0001998000000008,-0.0019869999999999,0,sub_7
