userAcceleration.x,userAcceleration.y,userAcceleration.z,rotationRate.x,rotationRate.y,rotationRate.z,label,subject
0.0206655999999998,0.0145344000000012,-0.0123093999999999,-0.0091755999999995,0.0014794000000009,-0.0014373999999999,0,sub_15
0.0219665999999997,0.0166726000000012,-0.0112445999999999,-0.0081267999999995,-0.003845599999999,-0.0027051999999999,0,sub_15
0.0227205999999997,0.0176732000000012,-0.0104123999999999,-0.0077153999999995,-0.008316999999999,-0.0037647999999999,0,sub_15
0.0208935999999997,0.0186642000000012,-0.0087445999999999,-0.0062293999999995,-0.010663199999999,-0.0043923999999998,0,sub_15
0.0179099999999997,0.0194358000000012,-0.0073505999999999,-0.0039501999999995,-0.011494399999999,-0.0032947999999998,0,sub_15
0.0132827999999997,0.0193508000000012,-0.0067675999999999,-0.0014623999999995,-0.011481999999999,-0.0002737999999999,0,sub_15
0.0098473999999997,0.0184818000000012,-0.0072095999999999,0.0014406000000004,-0.012754399999999,0.0040336,0,sub_15
0.0072543999999997,0.0182090000000012,-0.0071001999999999,0.0049770000000004,-0.015308199999999,0.0085606,0,sub_15
0.0065127999999997,0.0177632000000012,-0.0061475999999999,0.0085162000000004,-0.018071799999999,0.0122334,0,sub_15
0.0067273999999998,0.0169246000000012,-0.0053633999999999,0.0093592000000004,-0.018932999999999,0.013736,0,sub_15
0.0080257999999998,0.0153040000000012,-0.0054379999999999,0.0082982000000004,-0.018287599999999,0.0130868,0,sub_15
0.0098253999999997,0.0138832000000012,-0.0055063999999999,0.0074658000000004,-0.015931799999999,0.0107278,0,sub_15
0.0114235999999997,0.0128836000000012,-0.0049735999999999,0.0047324000000004,-0.011430199999999,0.0062164,0,sub_15
0.0122435999999997,0.0128598000000012,-0.0058977999999999,-0.0004631999999995,-0.007289399999999,0.0019112,0,sub_15
0.0127293999999997,0.0128742000000012,-0.0075905999999999,-0.0014173999999995,-0.006581799999999,-9.79999999991825e-06,0,sub_15
0.0129933999999997,0.0138042000000012,-0.0068249999999999,-0.0010913999999995,-0.005454199999999,-0.0014951999999999,0,sub_15
0.0125683999999997,0.0150570000000012,-0.0055787999999999,-0.0020417999999995,-0.002620999999999,-0.0021369999999999,0,sub_15
0.0121315999999997,0.0161076000000012,-0.0050497999999999,-0.0021463999999995,-0.000646399999999,-0.0019171999999999,0,sub_15
0.0112707999999997,0.0159508000000012,-0.0053339999999998,-4.99999999953038e-06,0.0012628000000009,-0.0016909999999999,0,sub_15
0.0102265999999997,0.0160420000000012,-0.0047751999999998,1.7000000000469636e-05,0.0053142000000009,-0.0025505999999999,0,sub_15
0.0085571999999997,0.0159918000000011,-0.0048399999999998,-0.0017795999999995,0.0092036000000009,-0.0029847999999999,0,sub_15
0.0075239999999997,0.0156264000000011,-0.0055395999999998,-0.0042297999999995,0.0105370000000009,-0.0029929999999999,0,sub_15
0.0068065999999997,0.0149028000000011,-0.0063379999999999,-0.0060495999999995,0.0103742000000009,-0.0023539999999999,0,sub_15
0.0086529999999997,0.0154016000000011,-0.0066501999999999,-0.0082911999999995,0.0110660000000009,-0.0019325999999999,0,sub_15
0.0114399999999997,0.0158356000000011,-0.0071435999999999,-0.0101059999999995,0.0117564000000009,-0.0015081999999999,0,sub_15
0.0147019999999997,0.0162590000000012,-0.0085777999999999,-0.0099041999999995,0.0100480000000009,-0.0006499999999999,0,sub_15
0.0179199999999997,0.0169196000000012,-0.0092543999999999,-0.0073599999999995,0.0072660000000009,0.000226,0,sub_15
0.0203483999999997,0.0173720000000012,-0.0098657999999999,-0.0041737999999995,0.0053322000000009,0.0015326,0,sub_15
0.0208659999999997,0.0169960000000011,-0.0094903999999999,-0.0022727999999995,0.0027620000000009,0.0032584,0,sub_15
0.0199409999999997,0.0167352000000011,-0.0087221999999999,-0.0008621999999995,-0.000227799999999,0.0045596,0,sub_15
0.0187197999999997,0.0165326000000011,-0.0087401999999998,-8.979999999955026e-05,-0.003213599999999,0.0054292,0,sub_15
0.0166915999999997,0.0171236000000011,-0.0089455999999998,-0.0012281999999995,-0.004698799999999,0.0056424,0,sub_15
0.0147773999999997,0.0183158000000011,-0.0083111999999998,-0.0040667999999995,-0.005535399999999,0.0049884,0,sub_15
0.0117221999999997,0.0191186000000012,-0.0074739999999998,-0.0056173999999995,-0.005520799999999,0.0034876,0,sub_15
0.0090757999999998,0.0197322000000012,-0.0071209999999999,-0.0077453999999995,-0.004659399999999,0.0030442,0,sub_15
0.0068379999999998,0.0190410000000012,-0.0066229999999999,-0.0111477999999995,-0.002090799999999,0.003017,0,sub_15
0.0059861999999998,0.0176586000000012,-0.0059181999999999,-0.0130903999999995,-0.000794799999999,0.0030074,0,sub_15
0.0061047999999998,0.0158546000000012,-0.0053827999999999,-0.0118371999999995,-0.000787399999999,0.0028082,0,sub_15
0.0077583999999998,0.0143208000000012,-0.0053237999999999,-0.0095229999999995,-0.001425399999999,0.0032582,0,sub_15
0.0094583999999997,0.0131774000000012,-0.0058041999999999,-0.0074219999999995,-0.002487199999999,0.00328,0,sub_15
0.0112555999999997,0.0134904000000012,-0.0060039999999999,-0.0044675999999995,-0.003764199999999,0.0030944,0,sub_15
0.0117421999999997,0.0145484000000012,-0.0054247999999999,-0.0012621999999995,-0.003558999999999,0.002262,0,sub_15
0.0121973999999997,0.0161374000000012,-0.0058915999999999,-0.0006113999999995,-0.002066399999999,0.00141,0,sub_15
0.0124327999999997,0.0172232000000012,-0.0068027999999999,-0.0008159999999995,-0.000996999999999,0.0005526,0,sub_15
0.0130715999999997,0.0175822000000012,-0.0068625999999999,0.0002326000000004,-0.000320199999999,-0.0005213999999999,0,sub_15
0.0125065999999998,0.0181322000000012,-0.0067541999999999,0.0014946000000004,0.0003558000000009,-0.0015937999999999,0,sub_15
0.0122395999999997,0.0176442000000012,-0.0066815999999998,0.0012612000000004,0.0012476000000009,-0.0020359999999999,0,sub_15
0.0118385999999997,0.0170342000000012,-0.0066631999999998,0.0010278000000004,0.0023514000000009,-0.0022647999999999,0,sub_15
0.0113507999999997,0.0160884000000012,-0.0065433999999998,0.0010086000000004,0.0036676000000009,-0.0024923999999999,0,sub_15
0.0099903999999997,0.0163514000000012,-0.0065235999999998,-0.0006887999999995,0.0055918000000009,-0.0027201999999999,0,sub_15
0.0103697999999997,0.0161760000000012,-0.0063065999999998,-0.0023869999999995,0.0073030000000009,-0.0029479999999999,0,sub_15
0.0106793999999997,0.0163646000000012,-0.0069611999999999,-0.0028117999999995,0.0079428000000009,-0.0027381999999999,0,sub_15
0.0117939999999997,0.0153654000000012,-0.0073057999999999,-0.0030411999999995,0.0077470000000009,-0.0018903999999999,0,sub_15
0.0128639999999998,0.0152760000000012,-0.0071183999999999,-0.0039097999999995,0.0069176000000009,-0.0019007999999999,0,sub_15
0.0145001999999997,0.0149420000000012,-0.0065693999999999,-0.0039219999999995,0.0060880000000009,-0.0025461999999999,0,sub_15
0.0155183999999997,0.0149884000000012,-0.0061675999999999,-0.0052087999999995,0.0061168000000009,-0.0036287999999999,0,sub_15
0.0160389999999997,0.0149642000000012,-0.0072103999999999,-0.0071297999999995,0.0065772000000009,-0.0055709999999999,0,sub_15
0.0154373999999997,0.0156874000000011,-0.0079045999999999,-0.0073383999999995,0.0061578000000009,-0.0070673999999999,0,sub_15
0.0143553999999997,0.0172664000000011,-0.0074145999999999,-0.0054179999999995,0.0057268000000009,-0.0074807999999999,0,sub_15
0.0126447999999998,0.0173098000000011,-0.0076225999999999,-0.0047863999999995,0.0044436000000009,-0.0068337999999999,0,sub_15
0.0113337999999998,0.0168860000000011,-0.0079451999999999,-0.0037327999999995,0.0029424000000009,-0.0053289999999999,0,sub_15
0.0105451999999997,0.0168292000000011,-0.0067537999999999,-0.0028923999999995,0.0016492000000009,-0.0023347999999999,0,sub_15
0.0102877999999997,0.0165836000000012,-0.0059409999999998,-0.0024719999999995,0.0012122000000009,1.4200000000041696e-05,0,sub_15
0.0105603999999997,0.0159570000000012,-0.0062349999999998,-0.0039679999999995,0.0007852000000009,0.0014954,0,sub_15
0.0116845999999997,0.0159314000000012,-0.0059343999999998,-0.0046029999999995,0.0012110000000009,0.0021268,0,sub_15
0.0122885999999997,0.0163006000000012,-0.0057733999999999,-0.0041681999999995,0.0014234000000009,0.0019114,0,sub_15
0.0124003999999997,0.0155820000000012,-0.0062475999999999,-0.0026697999999995,0.0009980000000009,0.0004268,0,sub_15
0.0124729999999997,0.0153616000000012,-0.0066647999999999,-0.0026669999999995,0.0003640000000009,-0.0008541999999999,0,sub_15
0.0131417999999997,0.0144664000000012,-0.0069259999999999,-0.0026467999999995,-0.000263999999999,-0.0017189999999999,0,sub_15
0.0129177999999997,0.0148650000000012,-0.0078909999999999,-0.0026283999999995,-0.000893799999999,-0.0021563999999999,0,sub_15
0.0117117999999997,0.0153482000000012,-0.0082919999999998,-0.0038903999999995,-3.379999999903321e-05,-0.0011091999999999,0,sub_15
0.0114481999999997,0.0156150000000012,-0.0073789999999998,-0.0062209999999995,0.0014648000000009,0.000998,0,sub_15
0.0114861999999997,0.0155668000000012,-0.0064525999999999,-0.0068445999999995,0.0021088000000009,0.0022636,0,sub_15
0.0110045999999998,0.0156694000000011,-0.0058795999999999,-0.0070587999999995,0.0025330000000009,0.0029026,0,sub_15
0.0106637999999998,0.0153510000000011,-0.0051345999999999,-0.0076969999999995,0.0029614000000009,0.0028976,0,sub_15
0.0110687999999998,0.0150444000000011,-0.0042845999999999,-0.0072691999999995,0.0021120000000009,0.0018336,0,sub_15
0.0114017999999998,0.0156682000000011,-0.0046499999999999,-0.0055593999999995,0.0010476000000009,0.0001378000000001,0,sub_15
0.0113857999999998,0.0159660000000011,-0.0051825999999999,-0.0042563999999995,0.0006290000000009,-0.0011437999999998,0,sub_15
0.0112559999999998,0.0167486000000012,-0.0056281999999999,-0.0029543999999995,0.0004218000000009,-0.0019983999999998,0,sub_15
0.0114815999999998,0.0167398000000011,-0.0056553999999999,-0.0012311999999995,-0.000428599999999,-0.0022083999999998,0,sub_15
0.0120615999999998,0.0162356000000011,-0.0064129999999999,6.420000000046961e-05,-0.001278399999999,-0.0022077999999998,0,sub_15
0.0119955999999998,0.0157078000000011,-0.0064067999999999,0.0002928000000004,-0.001699999999999,-0.0017877999999999,0,sub_15
0.0121977999999998,0.0153478000000011,-0.0065155999999999,0.0009292000000004,-0.0017055999999989,-0.0009287999999999,0,sub_15
0.0118313999999998,0.0146782000000011,-0.0058455999999999,0.0007130000000004,-0.0012829999999989,0.0001372,0,sub_15
0.0120257999999998,0.0140012000000011,-0.0061015999999998,0.0007256000000004,-0.0010809999999989,0.0012052,0,sub_15
0.0120949999999998,0.0140588000000011,-0.0060975999999998,0.0003144000000004,-0.001086999999999,0.0014158,0,sub_15
0.0123037999999998,0.0143018000000011,-0.0062387999999998,0.0003318000000004,-0.001092799999999,0.001202,0,sub_15
0.0122047999999998,0.0146550000000011,-0.0061209999999999,-0.0007155999999995,-0.000881199999999,0.000767,0,sub_15
0.0121681999999997,0.0147462000000011,-0.0070777999999999,-0.0009095999999995,-0.000672399999999,0.000338,0,sub_15
0.0117993999999997,0.0153996000000011,-0.0071405999999999,-0.0011191999999995,-0.000243799999999,-9.139999999995842e-05,0,sub_15
0.0113695999999997,0.0155608000000011,-0.0067391999999999,-0.0009019999999995,0.0003954000000009,-0.0003041999999999,0,sub_15
0.0112921999999997,0.0150844000000011,-0.0066153999999999,-0.0013267999999995,0.0008230000000009,-0.0003075999999999,0,sub_15
0.0106923999999997,0.0144942000000012,-0.0063889999999999,-0.0015159999999995,0.0014476000000009,-0.0003007999999999,0,sub_15
0.0104967999999997,0.0144760000000011,-0.0064091999999998,-0.0023441999999995,0.0022874000000009,-0.0002985999999999,0,sub_15
0.0104051999999997,0.0142864000000011,-0.0065987999999999,-0.0035981999999995,0.0031296000000009,-0.0005131999999999,0,sub_15
0.0112073999999997,0.0139320000000011,-0.0072087999999999,-0.0044283999999995,0.0033312000000009,-0.0007239999999999,0,sub_15
0.0114703999999998,0.0145710000000011,-0.0073491999999999,-0.0046213999999995,0.0031036000000009,-0.0007161999999999,0,sub_15
0.0120019999999998,0.0148740000000011,-0.0076047999999999,-0.0048367999999995,0.0026784000000009,-0.0007171999999999,0,sub_15
0.0126115999999998,0.0153964000000011,-0.0072533999999999,-0.0048425999999995,0.0016124000000009,-0.0005023999999999,0,sub_15
0.0126855999999998,0.0159808000000011,-0.0068391999999999,-0.0042081999999995,0.0007562000000009,-6.939999999995839e-05,0,sub_15
0.0122847999999998,0.0162474000000011,-0.0064927999999999,-0.0035543999999995,-0.000327199999999,0.0007976,0,sub_15
0.0118351999999997,0.0164242000000011,-0.0064191999999999,-0.0035319999999995,8.460000000094676e-05,0.001231,0,sub_15
0.0114063999999997,0.0168486000000011,-0.0061971999999999,-0.0035115999999995,-0.000354199999999,0.0012382,0,sub_15
0.0112517999999997,0.0162910000000011,-0.0061843999999999,-0.0026339999999995,-0.000367999999999,0.0008236,0,sub_15
0.0110209999999997,0.0155794000000011,-0.0063301999999999,-0.0023935999999995,-0.000376999999999,-0.0002365999999999,0,sub_15
0.0106963999999997,0.0152240000000011,-0.0070027999999999,-0.0040909999999995,0.0004862000000009,-0.0015313999999999,0,sub_15
0.0108989999999998,0.0144788000000012,-0.0070143999999999,-0.0060085999999995,0.0002832000000009,-0.0023991999999999,0,sub_15
0.0103169999999998,0.0142904000000011,-0.0078373999999999,-0.0064275999999995,0.0015648000000009,-0.0028309999999999,0,sub_15
0.0094373999999998,0.0137896000000011,-0.0081873999999999,-0.0079163999999995,0.0032718000000009,-0.0022025999999999,0,sub_15
0.0101807999999997,0.0131184000000011,-0.0083717999999999,-0.0098097999999995,0.0049660000000009,-0.0007199999999999,0,sub_15
0.0104589999999997,0.0130878000000011,-0.0072973999999999,-0.0102105999999995,0.0058054000000009,0.000133,0,sub_15
0.0105529999999997,0.0132286000000011,-0.0069883999999999,-0.0099701999999995,0.0060068000000009,0.0001368,0,sub_15
0.0113375999999997,0.0136692000000012,-0.0056955999999999,-0.0103739999999995,0.0049338000000009,-0.0002895999999999,0,sub_15
0.0122093999999997,0.0149380000000012,-0.0050519999999999,-0.0094935999999995,0.0040720000000009,-0.0013481999999998,0,sub_15
0.0117717999999997,0.0160348000000012,-0.0048187999999999,-0.0073607999999995,0.0027906000000009,-0.0023999999999998,0,sub_15
0.0111237999999997,0.0169426000000012,-0.0054191999999999,-0.0045897999999995,0.0017174000000009,-0.0028065999999998,0,sub_15
0.0107623999999998,0.0173182000000012,-0.0057005999999999,-0.0018023999999995,0.0012746000000009,-0.0023571999999998,0,sub_15
0.0107603999999998,0.0171736000000012,-0.0062287999999999,0.0001260000000004,0.0008296000000009,-0.0006319999999999,0,sub_15
0.0109009999999998,0.0165510000000011,-0.0061079999999999,0.0016246000000004,-0.000465199999999,0.0008776,0,sub_15
0.0109845999999997,0.0163630000000011,-0.0062469999999999,0.0024888000000004,-0.000903999999999,0.0019544,0,sub_15
0.0115605999999997,0.0153302000000011,-0.0062473999999999,0.0020766000000004,-0.001122599999999,0.0023812,0,sub_15
0.0118425999999997,0.0144060000000011,-0.0065453999999999,0.0014366000000004,-0.000908199999999,0.0025902,0,sub_15
0.0120411999999997,0.0140408000000011,-0.0063321999999999,0.0010126000000004,-0.000691799999999,0.0021598,0,sub_15
0.0120579999999997,0.0135120000000012,-0.0064485999999999,0.0008022000000004,-0.000688599999999,0.0015174,0,sub_15
0.0122631999999997,0.0133362000000012,-0.0065425999999999,-4.6399999999550384e-05,-0.000893399999999,0.00023,0,sub_15
0.0117525999999997,0.0139606000000012,-0.0056545999999999,-0.0010907999999995,0.0001714000000009,-0.0004177999999999,0,sub_15
0.0110157999999998,0.0141146000000012,-0.0061019999999999,-0.0019227999999995,0.0005980000000009,-0.0014905999999999,0,sub_15
0.0101205999999998,0.0139124000000012,-0.0064297999999999,-0.0038167999999995,0.0018812000000009,-0.0027855999999999,0,sub_15
0.0092055999999998,0.0139682000000012,-0.0067499999999999,-0.0061365999999995,0.0031670000000009,-0.0042971999999999,0,sub_15
0.0087371999999998,0.0136460000000012,-0.0061287999999999,-0.0078173999999995,0.0044496000000009,-0.0055907999999999,0,sub_15
0.0089585999999998,0.0134998000000012,-0.0065599999999999,-0.0090909999999995,0.0046722000000009,-0.0068819999999999,0,sub_15
0.0097053999999997,0.0141922000000012,-0.0059731999999999,-0.0099425999999995,0.0044648000000009,-0.0075285999999999,0,sub_15
0.0105215999999997,0.0149108000000012,-0.0058961999999999,-0.0086499999999995,0.0036016000000009,-0.0073043999999999,0,sub_15
0.0113321999999997,0.0158556000000012,-0.0062335999999999,-0.0071507999999995,0.0029438000000009,-0.0053697999999999,0,sub_15
0.0118791999999997,0.0173710000000012,-0.0065789999999999,-0.0050189999999995,0.0014280000000009,-0.0025749999999999,0,sub_15
0.0124253999999997,0.0180620000000012,-0.0067317999999999,-0.0026709999999995,0.0005508000000009,0.0002204,0,sub_15
0.0123961999999998,0.0180628000000012,-0.0062649999999999,-0.0013821999999995,0.0009572000000009,0.0025794,0,sub_15
0.0113091999999998,0.0169984000000012,-0.0059747999999999,-0.0011677999999995,0.0018062000000009,0.0032208,0,sub_15
0.0105619999999998,0.0154758000000012,-0.0058639999999999,-0.0018029999999995,0.0022370000000009,0.002575,0,sub_15
0.0095541999999998,0.0132564000000012,-0.0059281999999998,-0.0030717999999995,0.0033128000000009,0.0010692,0,sub_15
0.0090631999999998,0.0112800000000011,-0.0064037999999998,-0.0036823999999995,0.0033136000000009,-0.0002149999999999,0,sub_15
0.0088115999999998,0.0106352000000011,-0.0070159999999999,-0.0036605999999995,0.0020322000000009,-0.0010657999999999,0,sub_15
0.0102931999999998,0.0115624000000011,-0.0063629999999999,-0.0042845999999995,0.0007478000000009,-0.0006393999999999,0,sub_15
0.0116883999999997,0.0134948000000011,-0.0061705999999999,-0.0038389999999995,-0.000113199999999,-0.0004197999999999,0,sub_15
0.0128609999999997,0.0155732000000011,-0.0072053999999999,-0.0046715999999995,-0.000543799999999,-0.0002093999999999,0,sub_15
0.0133447999999997,0.0182534000000011,-0.0073737999999999,-0.0063813999999995,-0.000328199999999,0.000633,0,sub_15
0.0129649999999997,0.0197028000000011,-0.0074337999999999,-0.0068071999999995,9.86000000009666e-05,0.000843,0,sub_15
0.0109717999999997,0.0197196000000011,-0.0083915999999999,-0.0061623999999995,0.0011616000000009,0.0008462,0,sub_15
0.0091953999999997,0.0182442000000011,-0.0087255999999999,-0.0072301999999995,0.0024376000000009,0.0023328,0,sub_15
0.0085001999999997,0.0157828000000011,-0.0069829999999999,-0.0082703999999995,0.0037036000000009,0.0038234,0,sub_15
0.0080423999999997,0.0133402000000011,-0.0058265999999999,-0.0078103999999995,0.0041214000000009,0.0029756,0,sub_15
0.0083721999999997,0.0106880000000012,-0.0050653999999999,-0.0086285999999995,0.0053942000000009,0.002545,0,sub_15
0.0094791999999997,0.0102142000000011,-0.0052143999999999,-0.0090247999999995,0.0051760000000009,0.001692,0,sub_15
0.0105955999999998,0.0106246000000011,-0.0049001999999999,-0.0077093999999995,0.0047438000000009,-0.0004307999999999,0,sub_15
0.0105555999999998,0.0126348000000011,-0.0052205999999999,-0.0055737999999995,0.0041014000000009,-0.0014831999999999,0,sub_15
0.0105577999999998,0.0141514000000011,-0.0055013999999999,-0.0051469999999995,0.0038878000000009,-0.0016935999999999,0,sub_15
0.0107319999999998,0.0164576000000011,-0.0056757999999999,-0.0047037999999995,0.0028170000000009,-0.0023285999999999,0,sub_15
0.0111737999999998,0.0166438000000012,-0.0051039999999999,-0.0044691999999995,0.0028122000000009,-0.0029663999999999,0,sub_15
0.0107025999999998,0.0169576000000012,-0.0052127999999999,-0.0044505999999995,0.0025936000000009,-0.0031779999999999,0,sub_15
0.0109981999999998,0.0161654000000012,-0.0058599999999999,-0.0033671999999995,0.0017328000000009,-0.0035951999999999,0,sub_15
0.0109995999999998,0.0152824000000012,-0.0062233999999999,-0.0020751999999995,0.0010792000000009,-0.0027291999999999,0,sub_15
0.0111911999999998,0.0138378000000012,-0.0065055999999999,-0.0010129999999995,0.0010712000000009,-0.0016533999999999,0,sub_15
0.0112751999999998,0.0134900000000012,-0.0075059999999999,-0.0008091999999995,0.0006374000000009,5.780000000006145e-05,0,sub_15
0.0119201999999998,0.0130012000000012,-0.0079493999999999,-0.0014551999999995,0.0004222000000009,0.0011218,0,sub_15
0.0118495999999998,0.0137528000000011,-0.0078691999999999,-0.0029239999999995,0.0012670000000009,0.001976,0,sub_15
0.0117995999999998,0.0141038000000011,-0.0077197999999999,-0.0033249999999995,0.0016844000000009,0.0021972,0,sub_15
0.0113727999999998,0.0144858000000011,-0.0081545999999999,-0.0030887999999995,0.0016728000000009,0.002637,0,sub_15
0.0109121999999998,0.0144996000000011,-0.0083703999999999,-0.0030629999999994,0.0014522000000009,0.002221,0,sub_15
0.0101815999999998,0.0148058000000011,-0.0074907999999999,-0.0032505999999994,0.0012324000000009,0.0018034,0,sub_15
0.0102417999999998,0.0141894000000012,-0.0067311999999999,-0.0030361999999995,0.0003838000000009,0.0007376,0,sub_15
0.0098193999999998,0.0139166000000012,-0.0070741999999998,-0.0032467999999995,-3.7199999999033416e-05,-0.0003315999999999,0,sub_15
0.0094675999999998,0.0144080000000012,-0.0065781999999998,-0.0047355999999995,-2.7799999999033395e-05,-0.0014101999999999,0,sub_15
0.0092843999999998,0.0151402000000011,-0.0056531999999999,-0.0058005999999995,-0.000234399999999,-0.0020583999999999,0,sub_15
0.0099025999999998,0.0154432000000011,-0.0056243999999999,-0.0051361999999995,-0.000245999999999,-0.0022609999999999,0,sub_15
0.0097255999999998,0.0152676000000011,-0.0061455999999999,-0.0044709999999995,-4.459999999903339e-05,-0.0024637999999999,0,sub_15
0.0100645999999998,0.0149486000000011,-0.0059143999999999,-0.0048713999999995,0.0003736000000009,-0.0026743999999999,0,sub_15
0.0105227999999998,0.0144876000000011,-0.0058717999999999,-0.0044223999999995,0.0001488000000009,-0.0026645999999999,0,sub_15
0.0102303999999998,0.0141048000000012,-0.0060085999999998,-0.0050371999999995,0.0007790000000009,-0.0024495999999999,0,sub_15
0.0094707999999998,0.0139952000000012,-0.0064713999999998,-0.0063163999999995,0.0016332000000009,-0.0018185999999999,0,sub_15
0.0093759999999998,0.0146612000000012,-0.0063907999999998,-0.0065363999999995,0.0016280000000009,-0.0003245999999999,0,sub_15
0.0093821999999998,0.0154754000000012,-0.0061743999999999,-0.0050505999999995,0.0011916000000009,0.0009682,0,sub_15
0.0092885999999998,0.0156180000000011,-0.0058243999999999,-0.0033199999999995,0.0011712000000009,0.0022642,0,sub_15
0.0098871999999998,0.0154682000000011,-0.0059467999999999,-0.0013741999999995,0.0011516000000009,0.0031344,0,sub_15
0.0109431999999998,0.0152038000000011,-0.0057177999999999,-6.759999999953037e-05,0.0004984000000009,0.0031464,0,sub_15
0.0112213999999998,0.0157492000000011,-0.0054345999999999,0.0003902000000004,0.0002770000000009,0.002511,0,sub_15
0.0111979999999998,0.0154304000000011,-0.0057673999999999,-4.399999999530361e-06,0.0004838000000009,0.0020826,0,sub_15
0.0116737999999998,0.0157894000000011,-0.0067315999999999,-0.0017085999999995,0.0004922000000009,0.0014298,0,sub_15
0.0120825999999997,0.0152682000000012,-0.0069819999999999,-0.0023439999999995,0.0007110000000009,0.0005706,0,sub_15
0.0104035999999997,0.0149528000000012,-0.0068947999999999,-0.0037967999999995,0.0017700000000009,-7.97999999999386e-05,0,sub_15
0.0099287999999997,0.0137696000000011,-0.0070867999999999,-0.0061059999999995,0.0032538000000009,0.0003316,0,sub_15
0.0097479999999997,0.0134294000000011,-0.0067955999999999,-0.0081997999999995,0.0045264000000009,0.0001038,0,sub_15
0.0091949999999997,0.0126544000000011,-0.0060249999999999,-0.0088019999999995,0.0051554000000009,-0.0003265999999999,0,sub_15
0.0082623999999998,0.0130864000000011,-0.0056515999999999,-0.0089831999999995,0.0047168000000009,-0.0005389999999999,0,sub_15
0.0089467999999998,0.0135582000000011,-0.0055907999999999,-0.0079221999999995,0.0036470000000009,-0.0003165999999999,0,sub_15
0.0093131999999997,0.0138344000000011,-0.0053781999999999,-0.0060075999999995,0.0025740000000009,-8.81999999999385e-05,0,sub_15
0.0095639999999997,0.0145886000000011,-0.0052563999999999,-0.0036671999999995,0.0017110000000009,0.0005702,0,sub_15
0.0097479999999997,0.0154804000000011,-0.0053923999999999,-0.0013229999999995,0.0017004000000009,0.0012276,0,sub_15
0.0106975999999997,0.0163618000000011,-0.0049905999999999,-0.0002319999999995,0.0016820000000009,0.0018776,0,sub_15
0.0110993999999997,0.0163892000000011,-0.0055997999999999,0.0004352000000004,0.0018798000000009,0.002097,0,sub_15
0.0110499999999998,0.0165304000000011,-0.0062821999999999,0.0006806000000004,0.0016590000000009,0.0008184,0,sub_15
