userAcceleration.x,userAcceleration.y,userAcceleration.z,rotationRate.x,rotationRate.y,rotationRate.z,label,subject
-0.0333354000000001,0.0007668000000012,-0.0133073999999999,-0.0221973999999996,0.0023308000000008,0.0304268000000001,0,sub_14
-0.0308416000000001,-0.0014099999999987,-0.0130573999999999,-0.0219353999999996,0.0011062000000008,0.0208162000000001,0,sub_14
-0.0280004000000001,-0.0041339999999987,-0.0127831999999999,-0.0176191999999995,0.0002860000000008,0.0090970000000001,0,sub_14
-0.0257330000000001,-0.0061589999999987,-0.0128191999999999,-0.0113891999999996,-0.0013955999999991,-0.0019667999999998,0,sub_14
-0.0240320000000001,-0.0090827999999987,-0.0116777999999999,-0.0053947999999996,-0.0035205999999991,-0.0085451999999998,0,sub_14
-0.0232662000000001,-0.0101889999999987,-0.0116425999999999,-0.0013425999999995,-0.0054463999999991,-0.0100099999999998,0,sub_14
-0.0236416000000001,-0.0096125999999987,-0.0111251999999999,0.0001378000000003,-0.0075841999999991,-0.0065861999999998,0,sub_14
-0.0243402000000001,-0.0091505999999987,-0.0098525999999999,-0.0011555999999996,-0.0084391999999991,-0.0019013999999998,0,sub_14
-0.0250624000000001,-0.0103837999999987,-0.0086353999999999,-0.0032949999999996,-0.0073745999999991,0.0029886000000001,0,sub_14
-0.0260490000000001,-0.0095531999999987,-0.0083725999999999,-0.0034993999999996,-0.0050305999999991,0.0059676000000001,0,sub_14
-0.0267486000000001,-0.0086289999999986,-0.0089519999999999,0.0003740000000003,-0.0014061999999991,0.0049144000000001,0,sub_14
-0.0267800000000001,-0.0079331999999987,-0.0094149999999999,0.0061630000000003,0.0011448000000008,0.0013196000000001,0,sub_14
-0.0264028000000001,-0.0060763999999987,-0.0100473999999998,0.0121624000000003,0.0030558000000008,-0.0022727999999998,0,sub_14
-0.0254740000000001,-0.0026161999999987,-0.0116827999999998,0.0156030000000003,0.0026278000000008,-0.0045893999999998,0,sub_14
-0.0238540000000001,-0.0005721999999987,-0.0128857999999999,0.0139062000000003,0.0005056000000009,-0.0050169999999998,0,sub_14
-0.0237450000000001,0.0014020000000012,-0.0128893999999999,0.0074962000000003,-0.003102599999999,-0.0026981999999998,0,sub_14
-0.0247494000000001,0.0010942000000012,-0.0127427999999999,-0.0019029999999996,-0.005004399999999,0.0017340000000001,0,sub_14
-0.0265764000000001,-0.0002685999999987,-0.0132243999999999,-0.0119431999999996,-0.006692599999999,0.0065886000000001,0,sub_14
-0.0307768000000001,-0.0037001999999987,-0.0118677999999999,-0.0185739999999996,-0.006471799999999,0.0103876000000001,0,sub_14
-0.0343810000000001,-0.0065311999999987,-0.0110453999999999,-0.0174993999999996,-0.003497799999999,0.0116732000000001,0,sub_14
-0.0367304000000001,-0.0086009999999987,-0.0102849999999999,-0.0106493999999996,0.0001052000000008,0.0104344000000001,0,sub_14
-0.0361780000000001,-0.0083735999999987,-0.0111215999999999,-0.0014465999999996,0.0022198000000008,0.0064368000000001,0,sub_14
-0.0347890000000001,-0.0076427999999987,-0.0113745999999999,0.0064794000000003,0.0036814000000008,0.0014060000000001,0,sub_14
-0.0317640000000001,-0.0056261999999987,-0.0125557999999999,0.0116266000000003,0.0040876000000008,-0.0036429999999998,0,sub_14
-0.0288634000000001,-0.0041165999999987,-0.0127615999999999,0.0112060000000003,0.0015242000000008,-0.0072313999999998,0,sub_14
-0.0263352000000001,-0.0038529999999987,-0.0126503999999999,0.0058674000000003,-0.0012433999999991,-0.0087173999999998,0,sub_14
-0.0254222000000001,-0.0046873999999987,-0.0099815999999999,0.0003182000000003,-0.0020979999999991,-0.0089255999999998,0,sub_14
-0.0240168000000001,-0.0055685999999987,-0.0084289999999999,-0.0007449999999996,-0.0014543999999991,-0.0091475999999998,0,sub_14
-0.0221626000000001,-0.0058309999999987,-0.0072279999999999,0.0009698000000003,0.0004562000000008,-0.0089243999999998,0,sub_14
-0.0203992000000001,-0.0058801999999987,-0.0065547999999999,0.0033256000000003,0.0032144000000008,-0.0080569999999998,0,sub_14
-0.0189992000000001,-0.0061843999999987,-0.0069753999999999,0.0048112000000003,0.0052912000000008,-0.0058503999999998,0,sub_14
-0.0191964000000001,-0.0063457999999987,-0.0083005999999999,0.0039354000000003,0.0054536000000008,-0.0023759999999998,0,sub_14
-0.0218232000000001,-0.0060575999999987,-0.0093325999999999,0.0002762000000003,0.0041320000000008,0.0017220000000001,0,sub_14
-0.0258294000000001,-0.0056413999999987,-0.0105933999999999,-0.0038059999999996,0.0030274000000008,0.0051758000000001,0,sub_14
-0.0305136000000001,-0.0052855999999987,-0.0125727999999999,-0.0065973999999996,0.0021398000000008,0.0065018000000001,0,sub_14
-0.0352262000000001,-0.0040977999999987,-0.0140697999999999,-0.0070183999999996,0.0021464000000009,0.0052170000000001,0,sub_14
-0.0381648000000001,-0.0027391999999987,-0.0158083999999999,-0.0048683999999996,0.0030024000000009,0.0024536000000001,0,sub_14
-0.0376004000000001,-0.0014979999999987,-0.0164995999999999,-0.0014351999999996,0.0038562000000008,-0.0009417999999998,0,sub_14
-0.0356762000000001,-0.0011665999999987,-0.0162561999999999,0.0013664000000003,0.0036222000000008,-0.0038833999999998,0,sub_14
-0.0323672000000001,-0.0016433999999987,-0.0151777999999999,0.0039422000000003,0.0023170000000009,-0.0051159999999998,0,sub_14
-0.0272272000000001,-0.0030357999999987,-0.0134931999999999,0.0048024000000003,-5.0999999999085977e-05,-0.0055045999999998,0,sub_14
-0.0230636000000001,-0.0046917999999987,-0.0108353999999999,0.0043786000000003,-0.002842399999999,-0.0054743999999998,0,sub_14
-0.0209538000000001,-0.0066689999999987,-0.0087129999999999,0.0033154000000003,-0.004781799999999,-0.0048089999999998,0,sub_14
-0.0200968000000001,-0.0084993999999987,-0.0075503999999999,0.0020274000000003,-0.005845199999999,-0.0041757999999998,0,sub_14
-0.0203418000000001,-0.0096361999999987,-0.0069313999999999,0.0005300000000003,-0.006055599999999,-0.0035449999999998,0,sub_14
-0.0232426000000001,-0.0098923999999987,-0.0070411999999999,-0.0003311999999996,-0.005847199999999,-0.0016285999999998,0,sub_14
-0.0259914000000001,-0.0082339999999987,-0.0080865999999999,-0.0009765999999996,-0.004375399999999,0.0011618000000001,0,sub_14
-0.0279484000000001,-0.0065153999999987,-0.0098129999999999,-0.0018323999999996,-0.0020513999999991,0.0041632000000001,0,sub_14
-0.0284682000000001,-0.0050237999999986,-0.0113071999999999,-0.0029061999999996,-0.0007917999999991,0.0071646000000001,0,sub_14
-0.0299632000000001,-0.0044327999999986,-0.0126559999999999,-0.0037705999999996,3.900000000091419e-05,0.0105950000000001,0,sub_14
-0.0297466000000001,-0.0030349999999986,-0.0141277999999999,-0.0054817999999996,0.0013032000000009,0.0129510000000001,0,sub_14
-0.0298698000000001,-0.0025689999999986,-0.0149109999999999,-0.0071877999999996,0.0013102000000009,0.0127254000000001,0,sub_14
-0.0303776000000001,-0.0026343999999987,-0.0147677999999999,-0.0084631999999996,4.580000000091408e-05,0.0103680000000001,0,sub_14
-0.0311646000000001,-0.0024695999999987,-0.0144009999999999,-0.0092995999999996,-0.000148199999999,0.0063030000000001,0,sub_14
-0.0304660000000001,-0.0015465999999987,-0.0141345999999999,-0.0099027999999996,0.0003006000000008,0.0003194000000001,0,sub_14
-0.0295942000000001,-0.0016145999999986,-0.0132175999999999,-0.0092217999999996,0.0003238000000008,-0.0069367999999998,0,sub_14
-0.0281154000000001,-0.0029369999999986,-0.0124181999999999,-0.0079063999999996,0.0003396000000008,-0.0129065999999998,0,sub_14
-0.0277314000000001,-0.0044715999999986,-0.0113431999999999,-0.0070263999999996,0.0003492000000008,-0.0169565999999998,0,sub_14
-0.0275228000000001,-0.0059997999999986,-0.0105041999999999,-0.0059433999999996,0.0003488000000008,-0.0186549999999998,0,sub_14
-0.0273280000000001,-0.0075335999999987,-0.0096199999999999,-0.0044457999999996,0.0007712000000009,-0.0190723999999998,0,sub_14
-0.0275718000000001,-0.0088345999999987,-0.0088015999999999,-0.0023119999999996,0.0018248000000008,-0.0179905999999998,0,sub_14
-0.0273692000000001,-0.0094083999999987,-0.0080429999999999,0.0006762000000003,0.0037250000000008,-0.0162629999999998,0,sub_14
-0.0268442000000001,-0.0094503999999987,-0.0077181999999999,0.0040900000000003,0.0058310000000008,-0.0143053999999998,0,sub_14
-0.0261266000000001,-0.0090555999999987,-0.0084495999999999,0.0072846000000003,0.0066594000000008,-0.0123477999999998,0,sub_14
-0.0254916000000001,-0.0088131999999987,-0.0085999999999999,0.0087644000000003,0.0064260000000008,-0.0097597999999998,0,sub_14
-0.0257936000000001,-0.0084921999999987,-0.0088955999999999,0.0087450000000003,0.0053438000000008,-0.0067539999999998,0,sub_14
-0.0274270000000001,-0.0075411999999987,-0.0093207999999999,0.0089332000000003,0.0036192000000008,-0.0031049999999998,0,sub_14
-0.0286764000000001,-0.0058923999999987,-0.0117379999999999,0.0082682000000003,0.0012650000000008,9.800000000014224e-05,0,sub_14
-0.0303888000000001,-0.0048289999999987,-0.0133303999999999,0.0063286000000003,-0.0002307999999991,0.0028638000000001,0,sub_14
-0.0316310000000001,-0.0041073999999987,-0.0146471999999999,0.0048216000000003,-0.0017227999999991,0.0043506000000001,0,sub_14
-0.0313886000000001,-0.0037623999999987,-0.0146961999999998,0.0054568000000003,-0.0028009999999991,0.0047912000000001,0,sub_14
-0.0307310000000001,-0.0044089999999987,-0.0143955999999999,0.0065312000000003,-0.0028087999999991,0.0035244000000001,0,sub_14
-0.0300162000000001,-0.0057095999999987,-0.0130111999999999,0.0076086000000003,-0.0019651999999991,0.0024702000000001,0,sub_14
-0.0287270000000001,-0.0058277999999987,-0.0111937999999999,0.0093214000000003,-0.0019767999999991,0.0016350000000001,0,sub_14
-0.0275930000000001,-0.0058657999999987,-0.0102777999999999,0.0103864000000003,-0.0024175999999991,0.0020778000000001,0,sub_14
-0.0276800000000001,-0.0061685999999987,-0.0107633999999999,0.0084546000000003,-0.0032699999999991,0.0037746000000001,0,sub_14
-0.0281662000000001,-0.0055503999999987,-0.0116895999999999,0.0039498000000003,-0.0051853999999991,0.0071638000000001,0,sub_14
-0.0282014000000001,-0.0045793999999987,-0.0119041999999999,8.42000000003229e-05,-0.006679399999999,0.0111978000000001,0,sub_14
-0.0280974000000001,-0.0047781999999987,-0.0122157999999999,-0.0027043999999996,-0.006680999999999,0.0141784000000001,0,sub_14
-0.0283398000000001,-0.0057159999999987,-0.0119803999999999,-0.0033487999999996,-0.006043999999999,0.0154640000000001,0,sub_14
-0.0276696000000001,-0.0055599999999987,-0.0110421999999999,-0.0014277999999996,-0.005623999999999,0.0154860000000001,0,sub_14
-0.0268914000000001,-0.0062111999999987,-0.0101365999999999,0.0011362000000003,-0.005628199999999,0.0144448000000001,0,sub_14
-0.0260292000000001,-0.0075093999999987,-0.0104629999999999,0.0028446000000003,-0.006691999999999,0.0127582000000001,0,sub_14
-0.0261318000000001,-0.0088137999999987,-0.0109489999999999,0.0051916000000003,-0.0088223999999991,0.0106410000000001,0,sub_14
-0.0265476000000001,-0.0077177999999987,-0.0107985999999999,0.0088210000000003,-0.0105309999999991,0.0085322000000001,0,sub_14
-0.0272410000000001,-0.0059863999999987,-0.0117983999999999,0.0120468000000003,-0.010105999999999,0.0061988000000001,0,sub_14
-0.0268290000000001,-0.0039885999999987,-0.0124611999999999,0.0135704000000003,-0.008185199999999,0.0042790000000001,0,sub_14
-0.0269932000000001,-0.0024225999999987,-0.0130157999999999,0.0129546000000003,-0.006686599999999,0.0031992000000001,0,sub_14
-0.0266428000000001,-0.0006499999999987,-0.0123437999999999,0.0089258000000003,-0.004113999999999,0.0029488000000001,0,sub_14
-0.0265542000000001,-0.0002531999999987,-0.0125297999999999,0.0008438000000003,-0.000465599999999,0.0035232000000001,0,sub_14
-0.0266288000000001,-0.0020411999999987,-0.0118507999999999,-0.0072509999999996,0.0023334000000009,0.0032494000000001,0,sub_14
-0.0270148000000001,-0.0036369999999987,-0.0106569999999999,-0.0121363999999996,0.0049166000000008,0.0008618000000001,0,sub_14
-0.0263562000000001,-0.0045203999999986,-0.0084143999999999,-0.0127391999999996,0.0087716000000008,-0.0036337999999998,0,sub_14
-0.0259386000000001,-0.0054313999999986,-0.0081569999999999,-0.0105631999999996,0.0111196000000008,-0.0076541999999998,0,sub_14
-0.0253404000000001,-0.0070905999999986,-0.0089381999999999,-0.0079805999999996,0.0104776000000008,-0.0101723999999998,0,sub_14
-0.0251240000000001,-0.0082493999999987,-0.0100465999999999,-0.0073421999999996,0.0074866000000008,-0.0097101999999998,0,sub_14
-0.0255600000000001,-0.0098397999999987,-0.0117417999999999,-0.0069335999999996,0.0029964000000008,-0.0071111999999998,0,sub_14
-0.0277306000000001,-0.0099119999999987,-0.0127793999999999,-0.0061037999999996,-0.002136799999999,-0.0038675999999998,0,sub_14
-0.0296156000000001,-0.0092223999999987,-0.0129273999999999,-0.0039921999999996,-0.005771199999999,-0.0025663999999998,0,sub_14
-0.0305660000000001,-0.0075723999999987,-0.0124041999999999,-0.0005733999999996,-0.005778999999999,-0.0036107999999998,0,sub_14
-0.0301138000000001,-0.0057819999999987,-0.0121977999999999,0.0024348000000003,-0.003011999999999,-0.0055161999999998,0,sub_14
-0.0290046000000001,-0.0038375999999987,-0.0115599999999999,0.0026664000000003,0.0003988000000009,-0.0061599999999998,0,sub_14
-0.0263938000000001,-0.0020227999999987,-0.0107993999999999,-0.0003113999999996,0.0042360000000008,-0.0057361999999998,0,sub_14
-0.0241498000000001,-0.0022549999999987,-0.0104153999999999,-0.0058579999999996,0.0078622000000008,-0.0036207999999998,0,sub_14
-0.0233072000000001,-0.0037689999999987,-0.0108879999999999,-0.0105627999999996,0.0087166000000008,-0.0017095999999998,0,sub_14
-0.0255510000000001,-0.0058369999999987,-0.0105513999999999,-0.0124935999999996,0.0080758000000008,-0.0012725999999998,0,sub_14
-0.0301788000000001,-0.0078439999999987,-0.0096153999999999,-0.0097159999999996,0.0076436000000008,-0.0037939999999998,0,sub_14
-0.0360356000000001,-0.0125865999999987,-0.0099115999999999,-0.0011675999999996,0.0050792000000008,-0.0092857999999998,0,sub_14
-0.0402578000000001,-0.0174575999999987,-0.0101699999999999,0.0150688000000003,0.0010086000000008,-0.0177129999999998,0,sub_14
-0.0426226000000001,-0.0214303999999987,-0.0098599999999999,0.0387650000000003,-0.0022293999999991,-0.0265171999999998,0,sub_14
-0.0421954000000001,-0.0238983999999987,-0.0098035999999999,0.0675792000000003,-0.0059121999999991,-0.0350713999999998,0,sub_14
-0.0378906000000001,-0.0223059999999987,-0.0114499999999999,0.0953268000000003,-0.0087425999999991,-0.0427795999999998,0,sub_14
-0.0317558000000001,-0.0152963999999987,-0.0133259999999999,0.1147594000000003,-0.0075059999999991,-0.0479871999999998,0,sub_14
-0.0270772000000001,-0.0054525999999987,-0.0143921999999999,0.1207438000000003,-0.0026201999999991,-0.0483797999999998,0,sub_14
-0.0232450000000001,0.0066304000000012,-0.0135451999999999,0.1100704000000003,0.0033544000000008,-0.0414117999999998,0,sub_14
-0.0203826000000001,0.0162302000000012,-0.0131081999999999,0.0812392000000003,0.0112834000000008,-0.0279501999999998,0,sub_14
-0.0186026000000001,0.0207568000000012,-0.0127805999999999,0.0410724000000003,0.0168940000000008,-0.0109327999999998,0,sub_14
-0.0184842000000001,0.0165810000000012,-0.0109013999999999,0.0002368000000003,0.0163274000000008,0.0063014000000001,0,sub_14
-0.0191162000000001,0.0084124000000012,-0.0095023999999999,-0.0323029999999996,0.0106548000000008,0.0193058000000001,0,sub_14
-0.0210646000000001,-0.0025823999999987,-0.0094649999999999,-0.0488035999999996,0.0034734000000008,0.0228102000000001,0,sub_14
-0.0258372000000001,-0.0123475999999987,-0.0104785999999999,-0.0454171999999996,-0.0039511999999991,0.0166262000000001,0,sub_14
-0.0328356000000001,-0.0191361999999987,-0.0113799999999999,-0.0266345999999996,-0.008641199999999,0.0058460000000001,0,sub_14
-0.0391136000000001,-0.0196823999999987,-0.0135511999999998,-0.0007837999999996,-0.008451399999999,-0.0059591999999998,0,sub_14
-0.0413612000000001,-0.0160231999999987,-0.0154355999999998,0.0233896000000003,-0.0052971999999991,-0.0164765999999998,0,sub_14
-0.0402256000000001,-0.0124023999999987,-0.0162463999999999,0.0379470000000003,-0.0014857999999991,-0.0232163999999998,0,sub_14
-0.0350610000000001,-0.0082435999999987,-0.0156157999999998,0.0413782000000003,0.0014884000000008,-0.0240507999999998,0,sub_14
-0.0280886000000001,-0.0062661999999987,-0.0138995999999999,0.0353896000000003,0.0025680000000008,-0.0209011999999998,0,sub_14
-0.0218422000000001,-0.0053447999999987,-0.0113203999999999,0.0240522000000003,0.0023802000000008,-0.0158645999999998,0,sub_14
-0.0188994000000001,-0.0052573999999987,-0.0088201999999999,0.0114240000000003,0.0017630000000008,-0.0089135999999998,0,sub_14
-0.0192934000000001,-0.0044919999999987,-0.0082485999999999,0.0005018000000003,0.0015636000000008,-0.0013101999999998,0,sub_14
-0.0206854000000001,-0.0042449999999987,-0.0081415999999999,-0.0082817999999996,0.0007242000000008,0.0045996000000001,0,sub_14
-0.0223848000000001,-0.0038061999999987,-0.0085897999999999,-0.0134191999999996,9.100000000089512e-05,0.0075556000000001,0,sub_14
-0.0248178000000001,-0.0046937999999987,-0.0091105999999999,-0.0134259999999996,-0.0003393999999991,0.0086244000000001,0,sub_14
-0.0275340000000001,-0.0063225999999987,-0.0105255999999999,-0.0104313999999996,-0.0003451999999991,0.0080068000000001,0,sub_14
-0.0288348000000001,-0.0076935999999987,-0.0110725999999999,-0.0065803999999996,-0.0012003999999991,0.0059006000000001,0,sub_14
-0.0300114000000001,-0.0087003999999987,-0.0112609999999999,-0.0012299999999996,-0.0020555999999991,0.0025232000000001,0,sub_14
-0.0316712000000001,-0.0098949999999987,-0.0106545999999999,0.0045462000000003,-0.0024887999999991,-0.0002109999999998,0,sub_14
-0.0318882000000001,-0.0108135999999987,-0.0110013999999999,0.0094700000000003,-0.0022813999999991,-0.0025245999999998,0,sub_14
-0.0313734000000001,-0.0112825999999987,-0.0110123999999999,0.0135280000000003,-0.0029287999999991,-0.0039909999999998,0,sub_14
-0.0316466000000001,-0.0105465999999987,-0.0104693999999999,0.0186510000000003,-0.0033693999999991,-0.0048091999999998,0,sub_14
-0.0321946000000001,-0.0084433999999987,-0.0098731999999999,0.0252712000000003,-0.0023263999999991,-0.0049779999999998,0,sub_14
-0.0321102000000001,-0.0055861999999987,-0.0096199999999999,0.0304046000000003,-0.0002111999999991,-0.0055857999999998,0,sub_14
-0.0325544000000001,-0.0030189999999987,-0.0115941999999999,0.0312172000000003,0.0010646000000008,-0.0063961999999997,0,sub_14
-0.0338072000000001,-0.0004763999999987,-0.0126321999999999,0.0284004000000003,0.0017148000000008,-0.0074447999999997,0,sub_14
-0.0340632000000001,0.0002188000000012,-0.0143575999999999,0.0236594000000003,0.0015196000000008,-0.0085057999999998,0,sub_14
-0.0330772000000001,-0.0009343999999987,-0.0147141999999999,0.0191300000000003,4.880000000087505e-05,-0.0104181999999998,0,sub_14
-0.0308904000000001,-0.0025489999999987,-0.0157981999999999,0.0169506000000003,-0.0020643999999991,-0.0135951999999998,0,sub_14
-0.0297534000000001,-0.0031875999999987,-0.0134931999999999,0.0186662000000003,-0.0041845999999991,-0.0176397999999998,0,sub_14
-0.0304504000000001,-0.0041043999999987,-0.0119179999999999,0.0229386000000003,-0.0063171999999991,-0.0208117999999998,0,sub_14
-0.0325950000000001,-0.0042901999999987,-0.0105585999999999,0.0250744000000003,-0.0063229999999991,-0.0212241999999998,0,sub_14
-0.0351426000000001,-0.0037259999999987,-0.0122199999999999,0.0223696000000003,-0.0059081999999991,-0.0190411999999998,0,sub_14
-0.0378638000000001,-0.0038575999999986,-0.0106423999999999,0.0179444000000003,-0.0054993999999991,-0.0138791999999998,0,sub_14
-0.0385484000000001,-0.0050273999999986,-0.0083645999999999,0.0154452000000003,-0.0019091999999991,-0.0067849999999998,0,sub_14
-0.0348572000000001,-0.0076877999999987,-0.0062381999999999,0.0153122000000003,0.0055094000000008,-0.0001065999999998,0,sub_14
-0.0331382000000001,-0.0122157999999987,-0.0048627999999999,0.0175082000000003,0.0097208000000008,0.0074470000000001,0,sub_14
-0.0327946000000001,-0.0143783999999987,-0.0036007999999998,0.0195862000000003,0.0107248000000008,0.0209198000000001,0,sub_14
-0.0323612000000001,-0.0123461999999987,-0.0074021999999999,0.0177948000000003,0.0106558000000008,0.0397082000000001,0,sub_14
-0.0296002000000001,-0.0080389999999987,-0.0123439999999999,0.0103114000000003,0.0054758000000008,0.0613020000000001,0,sub_14
-0.0276130000000001,-0.0021971999999987,-0.0169461999999999,-0.0057479999999996,-0.0058645999999991,0.0858348000000001,0,sub_14
-0.0200910000000001,0.0030818000000012,-0.0206339999999998,-0.0286095999999996,-0.0150363999999991,0.1066852000000001,0,sub_14
-0.0115094000000001,0.0035778000000012,-0.0210685999999999,-0.0509743999999996,-0.0196909999999991,0.1164240000000001,0,sub_14
-0.0059034000000001,-0.0018801999999987,-0.0163293999999999,-0.0666661999999996,-0.0230435999999991,0.1144572000000001,0,sub_14
-0.0057270000000001,-0.0099183999999987,-0.0102927999999998,-0.0734451999999996,-0.0234005999999991,0.1030870000000001,0,sub_14
-0.0075244000000001,-0.0181953999999986,-0.0042925999999999,-0.0660649999999996,-0.0173727999999991,0.0811256000000001,0,sub_14
-0.0111784000000001,-0.0248733999999986,0.0002458,-0.0447723999999996,-0.0100817999999991,0.0509276000000001,0,sub_14
-0.0177778000000001,-0.0281877999999986,0.001455,-0.0151485999999996,-0.0049333999999991,0.0165174000000001,0,sub_14
-0.0243146000000001,-0.0266341999999986,-0.0011923999999999,0.0173934000000003,-1.0199999999126186e-05,-0.0184739999999998,0,sub_14
-0.0293322000000001,-0.0208365999999987,-0.0064189999999999,0.0492980000000003,0.0059788000000008,-0.0530437999999998,0,sub_14
-0.0352158000000001,-0.0134781999999987,-0.0128073999999999,0.0764826000000003,0.0115368000000008,-0.0823049999999998,0,sub_14
-0.0426078000000001,-0.0046321999999987,-0.0180093999999999,0.0942298000000003,0.0166598000000008,-0.1011629999999998,0,sub_14
-0.0466584000000001,0.0037080000000012,-0.0217541999999999,0.1006194000000003,0.0217786000000008,-0.1092043999999998,0,sub_14
-0.0474920000000001,0.0073978000000012,-0.0229785999999999,0.0980752000000003,0.0260460000000008,-0.1085867999999998,0,sub_14
-0.0463708000000001,0.0063592000000012,-0.0215663999999999,0.0892906000000003,0.0273174000000008,-0.0992493999999998,0,sub_14
-0.0429290000000001,0.0040970000000012,-0.0182365999999999,0.0783462000000003,0.0256024000000008,-0.0871459999999998,0,sub_14
-0.0383506000000001,0.0025838000000012,-0.0132683999999998,0.0707514000000003,0.0258016000000008,-0.0771245999999998,0,sub_14
-0.0331674000000001,0.0003574000000012,-0.0100135999999999,0.0678556000000003,0.0255644000000008,-0.0685651999999998,0,sub_14
-0.0292368000000001,-0.0002805999999987,-0.0092359999999999,0.0651808000000003,0.0272430000000008,-0.0597929999999998,0,sub_14
-0.0258412000000001,0.0008936000000012,-0.0107607999999999,0.0556704000000003,0.0278774000000008,-0.0504263999999998,0,sub_14
-0.0219238000000001,-0.0008287999999987,-0.0106401999999999,0.0395052000000003,0.0231942000000008,-0.0374675999999998,0,sub_14
-0.0191342000000001,-0.0057813999999987,-0.0107963999999999,0.0195332000000003,0.0133880000000008,-0.0187937999999998,0,sub_14
-0.0183804000000001,-0.0116815999999987,-0.0086709999999999,-0.0008847999999996,0.0039908000000008,0.0045764000000001,0,sub_14
-0.0185648000000001,-0.0187467999999987,-0.0054269999999999,-0.0160809999999996,-0.0081889999999991,0.0282518000000001,0,sub_14
-0.0202740000000001,-0.0258745999999987,-0.0018047999999999,-0.0197281999999996,-0.0188995999999991,0.0475194000000001,0,sub_14
-0.0238910000000001,-0.0299537999999987,-0.0004573999999999,-0.0100609999999996,-0.0196071999999991,0.0578942000000001,0,sub_14
-0.0264894000000001,-0.0267367999999987,-0.0019799999999999,0.0075786000000003,-0.0149683999999991,0.0563538000000001,0,sub_14
-0.0284022000000001,-0.0226737999999987,-0.0036515999999999,0.0314808000000003,-0.0081627999999991,0.0403266000000001,0,sub_14
-0.0276758000000001,-0.0124817999999987,-0.0068327999999999,0.0551138000000003,0.0010238000000008,0.0135606000000001,0,sub_14
-0.0274146000000001,-0.0054229999999987,-0.0093387999999999,0.0715094000000003,0.0110998000000008,-0.0162479999999998,0,sub_14
-0.0250308000000001,0.0046060000000012,-0.0159455999999999,0.0741764000000003,0.0111854000000008,-0.0399439999999998,0,sub_14
-0.0262940000000001,0.0053808000000012,-0.0193561999999999,0.0658118000000003,0.0067918000000008,-0.0522197999999998,0,sub_14
-0.0297580000000001,0.0061066000000012,-0.0239291999999999,0.0469182000000003,-0.0010261999999991,-0.0515323999999998,0,sub_14
-0.0359446000000001,0.0024046000000012,-0.0255405999999999,0.0236996000000003,-0.011851199999999,-0.0410435999999998,0,sub_14
-0.0403568000000001,0.0005194000000012,-0.0254065999999999,0.0043034000000003,-0.022705799999999,-0.0264689999999998,0,sub_14
-0.0448300000000001,-0.0049057999999987,-0.0205345999999999,-0.0071557999999996,-0.026759999999999,-0.0144111999999998,0,sub_14
-0.0479322000000001,-0.0203193999999987,-0.0137315999999999,-0.0142027999999996,-0.023557599999999,-0.0099779999999998,0,sub_14
-0.0448244000000001,-0.0174629999999987,-0.0097009999999998,-0.0167815999999996,-0.023352599999999,-0.0057233999999998,0,sub_14
-0.0411914000000001,-0.0157055999999987,-0.0069253999999998,-0.0225569999999996,-0.0218597999999991,-0.0010655999999998,0,sub_14
-0.0381870000000001,-0.0129369999999987,-0.0084877999999999,-0.0334639999999996,-0.0201461999999991,0.0061200000000001,0,sub_14
-0.0360086000000001,-0.0111713999999987,-0.0111277999999999,-0.0501663999999996,-0.0218161999999991,0.0176204000000001,0,sub_14
-0.0310410000000001,0.0022022000000012,-0.0157309999999998,-0.0688515999999996,-0.0311739999999991,0.0353126000000001,0,sub_14
