userAcceleration.x,userAcceleration.y,userAcceleration.z,rotationRate.x,rotationRate.y,rotationRate.z,label,subject
0.0150637999999998,0.0025592000000012,0.0177842,0.0026026000000003,0.0034370000000008,-0.0026661999999998,0,sub_13
0.0148803999999998,0.0019078000000012,0.0177026,0.0015506000000003,0.0055752000000008,-0.0018403999999998,0,sub_13
0.0146079999999998,0.0013956000000012,0.0171842,0.0004818000000003,0.0062138000000008,-0.0007803999999998,0,sub_13
0.0135539999999998,0.0025404000000012,0.0149856,-0.0003783999999996,0.0055742000000008,6.900000000015952e-05,0,sub_13
0.0129577999999997,0.0036066000000012,0.0126708,-0.0016709999999996,0.0030212000000008,0.0002768000000001,0,sub_13
0.0123817999999997,0.0039776000000012,0.0105048,-0.0027549999999996,-0.0008101999999991,0.0002742000000001,0,sub_13
0.0119895999999997,0.0037338000000012,0.010868,-0.0019075999999996,-0.004638799999999,-0.0001647999999998,0,sub_13
0.0112067999999997,0.0033692000000012,0.0118148,-0.0001913999999996,-0.005485999999999,-0.0010287999999998,0,sub_13
0.0112095999999997,0.0027396000000012,0.0131008,0.0017392000000003,-0.005696399999999,-0.0014647999999998,0,sub_13
0.0114119999999997,0.0016596000000012,0.0139872,0.0030324000000003,-0.004841199999999,-0.0014793999999998,0,sub_13
0.0113503999999997,0.0012854000000012,0.015171,0.0034682000000003,-0.004198399999999,-0.0008587999999998,0,sub_13
0.0121229999999997,0.0022994000000012,0.0149216,0.0030462000000003,-0.002919399999999,-0.0006497999999998,0,sub_13
0.0132717999999997,0.0036318000000012,0.015084,0.0021976000000003,-0.002063399999999,-0.0008705999999998,0,sub_13
0.0141069999999997,0.0040534000000012,0.015178,0.0015642000000003,-0.001630799999999,-0.0019437999999998,0,sub_13
0.0140795999999997,0.0040716000000012,0.0162294,0.0013564000000003,-0.001829799999999,-0.0025841999999998,0,sub_13
0.0143873999999997,0.0054784000000012,0.0167724,0.0022192000000003,-0.000755999999999,-0.0027915999999998,0,sub_13
0.0141333999999997,0.0060968000000012,0.016751,0.0028726000000003,0.0013830000000008,-0.0027879999999998,0,sub_13
0.0139025999999997,0.0065720000000012,0.015657,0.0022380000000003,0.0016098000000008,-0.0030045999999998,0,sub_13
0.0140371999999997,0.0052290000000012,0.0149736,0.0013852000000003,0.0011966000000009,-0.0027945999999998,0,sub_13
0.0136481999999997,0.0048848000000012,0.0146588,0.0013860000000003,0.0011976000000009,-0.0030081999999998,0,sub_13
0.0136357999999997,0.0027546000000012,0.0154558,0.0016080000000003,0.0014168000000009,-0.0047159999999998,0,sub_13
0.0129057999999998,-0.0007397999999987,0.0164078,0.0028956000000003,0.0022708000000008,-0.0066261999999998,0,sub_13
0.0115473999999998,-0.0022347999999987,0.0166484,0.0063112000000003,0.0043854000000008,-0.0059593999999998,0,sub_13
0.0116177999999998,0.0022648000000012,0.0151878,0.0088782000000003,0.0075682000000008,-0.0052999999999998,0,sub_13
0.0136465999999998,0.0043134000000012,0.0125168,0.0080274000000003,0.0084252000000008,-0.0061569999999998,0,sub_13
0.0135987999999998,0.0054814000000012,0.0108398,0.0060840000000003,0.0056556000000008,-0.0048803999999998,0,sub_13
0.0129701999999998,0.0093286000000012,0.0096736,0.0045578000000003,0.0005390000000009,-0.0027479999999998,0,sub_13
0.0141463999999998,0.0095266000000012,0.0101978,0.0024088000000003,-0.003923399999999,-0.0038253999999998,0,sub_13
0.0137299999999998,0.0049746000000012,0.0126294,4.540000000033836e-05,-0.008810399999999,-0.0051173999999998,0,sub_13
0.0122505999999998,0.0028300000000012,0.015668,0.0006722000000003,-0.010097799999999,-0.0034021999999998,0,sub_13
0.0122447999999998,0.0017972000000012,0.0162776,0.0023798000000003,-0.007122799999999,-0.0023185999999998,0,sub_13
0.0138401999999998,0.0002988000000012,0.0172204,0.0025988000000003,-0.0037139999999991,-0.0018869999999998,0,sub_13
0.0140739999999998,0.0005558000000012,0.0170234,0.0015298000000003,-0.0015805999999991,-0.0010353999999998,0,sub_13
0.0140999999999998,0.0014638000000012,0.0166894,0.0008818000000003,-9.03999999991096e-05,0.0004608000000001,0,sub_13
0.0142079999999998,0.0025248000000012,0.0158072,0.0002366000000003,0.0009780000000008,0.0008896000000001,0,sub_13
0.0143031999999998,0.0039394000000012,0.0154148,-0.0001871999999996,0.0011942000000008,0.0004590000000001,0,sub_13
0.0144857999999998,0.0047174000000012,0.014317,-0.0006101999999996,0.0009870000000008,-0.0006117999999998,0,sub_13
0.0141127999999998,0.0040608000000012,0.01375,0.0002432000000003,0.0007718000000008,-0.0008191999999998,0,sub_13
0.0120259999999998,0.0023248000000012,0.0141306,0.0010860000000003,0.0009760000000008,0.0004754000000001,0,sub_13
0.0104303999999998,0.0007262000000012,0.0141646,0.0021354000000003,0.0001126000000009,0.0021998000000001,0,sub_13
0.0112245999999998,0.0015564000000012,0.0135632,0.0019142000000003,-0.000313399999999,0.0022058000000001,0,sub_13
0.0115657999999998,0.0009428000000012,0.0133326,0.0006262000000003,-0.000947999999999,0.0019908000000001,0,sub_13
0.0114965999999998,0.0012996000000012,0.0134195999999999,-0.0008829999999996,-0.002225199999999,0.0028434000000001,0,sub_13
0.0126303999999998,0.0037130000000012,0.0128539999999999,-0.0008829999999996,-0.002861799999999,0.0022032000000001,0,sub_13
0.0146883999999998,0.0052148000000012,0.0132552,-0.0008685999999996,-0.002424599999999,-0.0005745999999998,0,sub_13
0.0144585999999998,0.0037668000000012,0.0149556,-0.0002255999999996,-0.003060799999999,-0.0018511999999998,0,sub_13
0.0140213999999997,0.0042144000000012,0.016359,0.0008356000000003,-0.002420199999999,-0.0018365999999998,0,sub_13
0.0144991999999997,0.0045688000000012,0.0168048,0.0008388000000003,-0.000282799999999,-0.0022587999999998,0,sub_13
0.0165899999999997,0.0035434000000012,0.016232,-0.0004413999999996,0.0005834000000009,-0.0033291999999998,0,sub_13
0.0164417999999997,0.0013776000000012,0.0158928,-0.0019491999999996,-0.000260199999999,-0.0029033999999998,0,sub_13
0.0146021999999998,0.0004366000000012,0.0151938,-0.0013281999999996,-0.001327599999999,-0.0016077999999998,0,sub_13
0.0142931999999998,0.0002766000000012,0.014724,0.0005940000000003,-0.000908199999999,-0.0015949999999998,0,sub_13
0.0139439999999998,0.0008932000000012,0.014193,0.0023134000000003,0.0001580000000009,-0.0032933999999998,0,sub_13
0.0122019999999998,0.0009270000000012,0.0134474,0.0023182000000003,0.0014354000000009,-0.0030813999999998,0,sub_13
0.0110697999999998,0.0033038000000013,0.012618,0.0025236000000003,0.0031350000000009,-0.0024273999999998,0,sub_13
0.0131161999999998,0.0041052000000012,0.011066,0.0014564000000003,0.0048458000000009,-0.0034915999999998,0,sub_13
0.0133623999999998,0.0034522000000012,0.0114452,0.0008046000000003,0.0037864000000009,-0.0047627999999998,0,sub_13
0.0138609999999998,0.0026480000000012,0.01259,0.0016366000000003,0.0018644000000009,-0.0047407999999998,0,sub_13
0.0143523999999998,0.0028668000000012,0.0149256,0.0035442000000003,0.0012196000000009,-0.0053537999999998,0,sub_13
0.0147033999999998,0.0028822000000012,0.015855,0.0048274000000003,0.0012178000000009,-0.0059857999999998,0,sub_13
0.0146951999999998,0.0036912000000012,0.0167798,0.0052552000000003,0.0018538000000009,-0.0055561999999998,0,sub_13
0.0152747999999998,0.0041992000000012,0.0154844,0.0046122000000003,0.0024902000000009,-0.0042795999999998,0,sub_13
0.0146631999999998,0.0042372000000012,0.0140116,0.0037328000000003,0.0016378000000009,-0.0027715999999998,0,sub_13
0.0143447999999997,0.0043702000000012,0.0130852,0.0026400000000003,0.0003616000000009,-0.0016917999999998,0,sub_13
0.0142133999999997,0.0043304000000012,0.0131468,0.0015518000000003,-6.159999999906952e-05,-0.0008267999999998,0,sub_13
0.0136647999999998,0.0045262000000012,0.012915,3.780000000037868e-05,-0.000906799999999,-0.0006051999999998,0,sub_13
0.0136413999999998,0.0041284000000012,0.0132248,-0.0014761999999996,-0.001751999999999,-0.0003835999999998,0,sub_13
0.0128205999999998,0.0024682000000012,0.014224,-0.0034033999999996,-0.002812399999999,3.1600000000159583e-05,0,sub_13
0.0115945999999998,0.0023914000000012,0.0143166,-0.0034063999999996,-0.002390399999999,0.0010992000000001,0,sub_13
0.0115517999999998,0.0015740000000012,0.0148274,-0.0019219999999996,-0.001541599999999,0.0013336000000001,0,sub_13
0.0125323999999998,0.0001552000000012,0.0156962,-0.0010785999999996,-0.000479199999999,0.0019906000000001,0,sub_13
0.0120769999999998,0.0006060000000012,0.0167452,-0.0004505999999996,0.0005822000000009,0.0030734000000001,0,sub_13
0.0127493999999998,0.0033520000000012,0.0163634,0.0012558000000003,0.0031356000000009,0.0030936000000001,0,sub_13
0.0139323999999998,0.0040364000000012,0.0156284,0.0018896000000003,0.0035654000000009,0.0022544000000001,0,sub_13
0.0145703999999998,0.0051360000000012,0.0144198,0.0010342000000003,0.0022934000000009,0.0013954000000001,0,sub_13
0.0135891999999998,0.0060178000000012,0.0141056,0.0008140000000003,0.0005906000000009,0.0011824000000001,0,sub_13
0.0136999999999998,0.0064316000000012,0.0135914,0.0008132000000003,-0.000258999999999,0.0005424000000001,0,sub_13
0.0144663999999998,0.0055922000000012,0.0137886,-0.0002507999999996,-0.000889399999999,-0.0007461999999998,0,sub_13
0.0146533999999998,0.0051636000000012,0.0142628,-0.0011119999999996,-0.001942399999999,-0.0018119999999998,0,sub_13
0.0147289999999998,0.0045662000000012,0.0138756,-0.0015455999999996,-0.002995999999999,-0.0030883999999998,0,sub_13
0.0162201999999998,0.0031118000000012,0.0133644,-0.0011197999999996,-0.003410999999999,-0.0050005999999998,0,sub_13
0.0171539999999998,0.0005514000000012,0.0133902,-5.7999999999661445e-05,-0.003407399999999,-0.0056269999999998,0,sub_13
0.0151669999999998,0.0024140000000012,0.0126208,0.0003600000000003,-0.002555999999999,-0.0045497999999998,0,sub_13
0.0144701999999998,0.0028070000000012,0.0123328,0.0005772000000003,-0.000855799999999,-0.0036957999999998,0,sub_13
0.0139055999999998,0.0026184000000012,0.0125056,0.0005696000000003,-0.000225999999999,-0.0013465999999998,0,sub_13
0.0124535999999998,0.0040324000000012,0.0131296,0.0005516000000003,-2.199999999908976e-05,0.0014406000000001,0,sub_13
0.0118933999999998,0.0062868000000012,0.013796,0.0003328000000003,0.0012550000000009,0.0025160000000001,0,sub_13
0.0141951999999998,0.0047682000000012,0.0147688,-0.0003077999999996,0.0023256000000009,0.0023068000000001,0,sub_13
0.0151895999999998,0.0046698000000012,0.0150782,-0.0011657999999996,0.0027568000000009,0.0023104000000001,0,sub_13
0.0161509999999998,0.0048142000000012,0.015947,-0.0013749999999996,0.0038300000000009,0.0010360000000001,0,sub_13
0.0161197999999998,0.0040202000000012,0.0161052,-0.0011519999999996,0.0046866000000008,-0.0002453999999998,0,sub_13
0.0159951999999998,0.0041878000000012,0.0156174,-0.0015719999999996,0.0049062000000008,-0.0015305999999998,0,sub_13
0.0164507999999998,0.0045874000000012,0.0149322,-0.0015691999999996,0.0038476000000008,-0.0032383999999998,0,sub_13
0.0153601999999998,0.0032564000000012,0.01509,-0.0024337999999996,0.0021506000000008,-0.0049357999999998,0,sub_13
0.0124573999999998,0.0018374000000012,0.0154168,-0.0035233999999996,-0.0012533999999991,-0.0057779999999998,0,sub_13
0.0120055999999998,0.0030672000000012,0.015656,-0.0028953999999996,-0.0025319999999991,-0.0068245999999998,0,sub_13
0.0138731999999998,0.0032020000000012,0.0168442,-0.0003133999999996,0.0027908000000008,-0.0087205999999998,0,sub_13
0.0135615999999998,0.0007024000000012,0.0166504,0.0014332000000003,0.0138622000000008,-0.0089205999999998,0,sub_13
0.0115617999999998,-0.0002713999999987,0.0134758,0.0016580000000003,0.0196012000000008,-0.0057215999999998,0,sub_13
0.0109867999999998,0.0009738000000012,0.0128662,0.0020684000000003,0.0200096000000008,-0.0016599999999998,0,sub_13
0.0110685999999998,0.0013228000000012,0.0130442,0.0039706000000003,0.0170160000000008,-0.0005745999999998,0,sub_13
0.0105781999999998,0.0009796000000012,0.0119884,0.0056364000000003,0.0074244000000009,-0.0009777999999998,0,sub_13
0.0114477999999998,0.0018714000000012,0.0127382,0.0083396000000003,-0.007498399999999,-0.0013571999999998,0,sub_13
0.0140819999999997,0.0031206000000012,0.0158016,0.0110898000000003,-0.013467199999999,-0.0032431999999998,0,sub_13
0.0156561999999997,0.0051212000000012,0.015973,0.0104710000000003,-0.008773999999999,-0.0045255999999998,0,sub_13
0.0140039999999998,0.0058578000000012,0.0124694,0.0038826000000003,0.0001884000000009,-0.0026503999999998,0,sub_13
0.0100749999999998,0.0055338000000012,0.007651,-0.0059361999999996,0.0068014000000009,0.0034780000000001,0,sub_13
0.0066063999999998,0.0056978000000012,0.0044906,-0.0183271999999996,0.0110750000000009,0.0110772000000001,0,sub_13
0.0050075999999998,0.0060124000000012,0.003113,-0.0311631999999996,0.0119388000000009,0.0193184000000001,0,sub_13
0.0058479999999998,0.0041462000000012,0.0038112,-0.0418691999999996,0.0108820000000009,0.0265090000000001,0,sub_13
0.0086727999999998,0.0026866000000012,0.0083808,-0.0493755999999996,0.0091764000000009,0.0332952000000001,0,sub_13
0.0142505999999998,0.0042334000000012,0.0168998,-0.0538671999999996,0.0110954000000009,0.0366856000000001,0,sub_13
0.0199909999999998,0.0061570000000012,0.0271388,-0.0566191999999996,0.0143106000000009,0.0341042000000001,0,sub_13
0.0270105999999998,0.0177370000000012,0.0438702,-0.0673517999999996,0.0395242000000009,0.0250298000000001,0,sub_13
0.0473445999999997,0.0151466000000012,0.0720964,-0.0467105999999996,0.1059926000000009,0.0082166000000001,0,sub_13
0.0729169999999997,-0.0053549999999987,0.075342,-0.0327333999999996,0.1219584000000008,-0.0006733999999998,0,sub_13
0.0574495999999998,-0.0200547999999987,0.0513838,-0.0148859999999996,0.1084598000000008,0.0028868000000001,0,sub_13
0.0158183999999998,-0.0077185999999987,0.025422,0.0322524000000003,0.0987344000000008,-0.0031737999999998,0,sub_13
0.0060969999999998,-0.0111001999999987,0.0053568,0.0702714000000003,0.0899394000000008,-0.0208361999999998,0,sub_13
-0.0062664000000001,-0.0058455999999987,-0.0344739999999999,0.0541878000000003,0.0222570000000008,-0.0238457999999998,0,sub_13
-0.0206956000000001,0.0112394000000012,-0.0542335999999998,0.0435030000000003,-0.0228935999999991,-0.0185143999999998,0,sub_13
-0.0180522000000001,0.0259952000000012,-0.0413935999999999,0.0239792000000003,-0.0454105999999991,-0.0179739999999998,0,sub_13
0.0099355999999998,0.0139186000000012,-0.0304317999999999,-0.0239311999999995,-0.0623217999999991,-0.0097411999999998,0,sub_13
0.0074605999999998,0.0100264000000012,-0.0262495999999999,-0.0465625999999996,-0.0949121999999991,0.0080886000000001,0,sub_13
-0.0004474000000001,0.0063834000000012,-0.0090991999999999,-0.0383329999999996,-0.1075429999999991,0.0160672000000001,0,sub_13
-0.0093738000000001,0.0071268000000012,0.0139464,-0.0260509999999996,-0.088168799999999,0.0088642000000001,0,sub_13
0.0054991999999998,0.0037490000000012,0.0297276,-0.0102909999999996,-0.059418799999999,-0.0028035999999998,0,sub_13
0.0208969999999998,0.0007944000000012,0.0419318,0.0034940000000003,-0.0372887999999991,-0.0089217999999998,0,sub_13
0.0313813999999998,-0.0038191999999987,0.045368,0.0095382000000003,-0.0221873999999991,-0.0088893999999998,0,sub_13
0.0326435999999998,-0.0032611999999987,0.0411506,0.0057260000000003,-0.0121809999999991,-0.0048601999999998,0,sub_13
0.0312647999999998,-0.0002345999999987,0.0346514,-0.0038721999999996,-0.0070573999999991,-0.0002241999999998,0,sub_13
0.0270915999999998,0.0027130000000012,0.0269394,-0.0106913999999996,-0.0023573999999991,0.0024996000000001,0,sub_13
0.0224705999999998,0.0048396000000012,0.0224632,-0.0117525999999996,0.0016832000000008,0.0052644000000001,0,sub_13
0.0204017999999998,0.0056602000000012,0.020094,-0.0102503999999996,0.0061418000000009,0.0078328000000001,0,sub_13
0.0205455999999998,0.0063774000000012,0.0199874,-0.0070239999999996,0.0118830000000008,0.0078480000000001,0,sub_13
0.0191889999999998,0.0058410000000012,0.019178,-0.0025131999999996,0.0178218000000009,0.0057508000000001,0,sub_13
0.0178097999999998,0.0038052000000012,0.018045,-0.0014537999999996,0.0169488000000009,0.0051336000000001,0,sub_13
0.0159433999999998,0.0022328000000012,0.0165602,-0.0046819999999996,0.0126776000000009,0.0055590000000001,0,sub_13
0.0122627999999998,0.0009840000000012,0.0138652,-0.0081235999999996,0.0081950000000009,0.0057696000000001,0,sub_13
0.0085451999999998,0.0009316000000013,0.0090734,-0.0094303999999996,0.0039178000000008,0.0059948000000001,0,sub_13
0.0060301999999998,0.0005546000000013,0.005153,-0.0073149999999996,-0.0009865999999991,0.0051612000000001,0,sub_13
0.0047187999999998,0.0009580000000012,0.0035922,-0.0025735999999996,-0.0018743999999991,0.0032514000000001,0,sub_13
0.0038471999999998,0.0020676000000012,0.0036904,0.0038864000000003,-0.0010603999999991,0.0004968000000001,0,sub_13
0.0050303999999998,0.0038266000000012,0.0045188,0.0094880000000003,-0.0008841999999991,-0.0018355999999998,0,sub_13
0.0081539999999998,0.0052590000000012,0.0078492,0.0127386000000003,-0.0009153999999991,-0.0035431999999998,0,sub_13
0.0113257999999997,0.0069960000000012,0.011081,0.0127762000000003,-0.002219599999999,-0.0037761999999998,0,sub_13
0.0138061999999998,0.0085884000000012,0.0134606,0.0101994000000003,-0.005195999999999,-0.0031493999999998,0,sub_13
0.0161873999999998,0.0087520000000012,0.0164532,0.0061318000000003,-0.007527999999999,-0.0025337999999998,0,sub_13
0.0179627999999998,0.0080388000000012,0.019313,0.0022874000000003,-0.007730199999999,-0.0019193999999998,0,sub_13
0.0186007999999998,0.0065358000000012,0.02057,-0.0006967999999996,-0.006868399999999,-0.0017277999999998,0,sub_13
0.0179929999999998,0.0045032000000012,0.0214116,-0.0031923999999996,-0.0048897999999991,-0.0015573999999998,0,sub_13
0.0170085999999998,0.0026694000000012,0.0211582,-0.0046193999999996,-0.0022765999999991,-0.0011667999999998,0,sub_13
0.0159287999999998,0.0019472000000012,0.0199084,-0.0054081999999996,0.0003328000000008,-0.0003443999999998,0,sub_13
0.0153279999999998,0.0011404000000012,0.017874,-0.0055625999999996,0.0018736000000008,0.0006974000000001,0,sub_13
0.0136523999999998,0.0008058000000012,0.0158758,-0.0065791999999996,0.0017124000000008,0.0019490000000001,0,sub_13
0.0129111999999998,0.0019850000000012,0.0141028,-0.0067983999999996,0.0019202000000008,0.0034426000000001,0,sub_13
0.0119167999999998,0.0030836000000012,0.0131184,-0.0068001999999996,0.0023430000000008,0.0042966000000001,0,sub_13
0.0113231999999998,0.0035970000000012,0.0117328,-0.0059541999999995,0.0006356000000008,0.0043046000000001,0,sub_13
0.0101161999999998,0.0046104000000012,0.0102832,-0.0048463999999995,-0.0017067999999991,0.0032374000000001,0,sub_13
0.0105633999999998,0.0058732000000012,0.0105554,-0.0022313999999996,-0.0019205999999991,0.0013234000000001,0,sub_13
0.0113711999999998,0.0049430000000012,0.0107816,0.0003864000000004,-0.0014951999999991,-0.0005913999999998,0,sub_13
0.0123373999999998,0.0038038000000012,0.0113282,0.0040796000000003,-4.799999999100315e-06,-0.0033545999999998,0,sub_13
0.0133767999999998,0.0022692000000012,0.0130546,0.0071336000000003,0.0021252000000009,-0.0056957999999998,0,sub_13
0.0150579999999998,0.0016180000000012,0.0161198,0.0088512000000003,0.0038262000000009,-0.0063269999999998,0,sub_13
0.0162329999999997,0.0015160000000012,0.0172284,0.0086396000000003,0.0040408000000008,-0.0065423999999998,0,sub_13
0.0162373999999997,0.0019818000000012,0.0180144,0.0065410000000003,0.0021478000000008,-0.0069915999999998,0,sub_13
0.0156581999999997,0.0031996000000012,0.0172272,0.0033630000000003,-0.0008137999999991,-0.0057377999999998,0,sub_13
0.0151161999999997,0.0051926000000012,0.0137672,0.0010290000000003,-0.0050599999999991,-0.0036217999999998,0,sub_13
0.0135541999999998,0.0062008000000012,0.0101636,-2.579999999961979e-05,-0.0107967999999991,-0.0027767999999998,0,sub_13
0.0078487999999998,0.0030876000000012,0.0080488,-0.0015215999999996,-0.0201523999999991,-0.0023575999999998,0,sub_13
0.0138223999999998,0.0103390000000012,0.0082184,0.0014464000000003,-0.0246361999999991,-0.0025445999999998,0,sub_13
0.0113819999999998,0.0055828000000012,0.0103236,0.0059436000000003,-0.0233639999999991,-0.0048649999999998,0,sub_13
0.0066695999999998,0.0021594000000012,0.0068392,0.0055618000000003,-0.0163197999999991,-0.0078677999999998,0,sub_13
0.0059667999999998,-0.0007375999999987,0.0079782,0.0034396000000003,-0.013543599999999,-0.0076725999999998,0,sub_13
0.0105155999999998,-0.0001565999999987,0.0105332,0.0024024000000003,-0.009508799999999,-0.0029991999999998,0,sub_13
0.0040715999999998,-0.0072107999999987,0.0116078,0.0005108000000003,-0.004622999999999,0.0027352000000001,0,sub_13
0.0087781999999998,-0.0016651999999987,0.0128038,-0.0037403999999996,-0.002286599999999,0.0086702000000001,0,sub_13
0.0168079999999998,0.0031306000000012,0.021553,-0.0043831999999996,-0.004011599999999,0.0148492000000001,0,sub_13
0.0207441999999998,0.0074286000000012,0.025057,-0.0034845999999996,0.0010912000000008,0.0171846000000001,0,sub_13
0.0233743999999998,0.0106340000000012,0.0251208,-0.0010875999999996,0.0089788000000008,0.0139866000000001,0,sub_13
0.0255805999999998,0.0109922000000012,0.0252458,-0.0010577999999996,0.0111272000000008,0.0094976000000001,0,sub_13
0.0241939999999998,0.0098676000000012,0.0237538,-0.0004089999999996,0.0094350000000008,0.0058724000000001,0,sub_13
0.0215301999999998,0.0068006000000012,0.0217632,0.0006884000000003,0.0092468000000009,0.0016024000000001,0,sub_13
0.0187037999999998,0.0032616000000012,0.020023,0.0013572000000003,0.0094828000000009,-0.0018165999999998,0,sub_13
0.0139561999999998,0.0006156000000012,0.0164422,0.0015896000000003,0.0097118000000008,-0.0031021999999998,0,sub_13
0.0094149999999998,-0.0012233999999987,0.0129812,0.0022460000000003,0.0103612000000008,-0.0033171999999998,0,sub_13
0.0069261999999997,-0.0018927999999987,0.0102514,0.0024688000000003,0.0103694000000008,-0.0026797999999998,0,sub_13
0.0058493999999998,-0.0011525999999987,0.0074066,0.0028812000000003,0.0084454000000008,-0.0013925999999998,0,sub_13
0.0053737999999998,7.220000000128018e-05,0.0048276,0.0039232000000003,0.0041756000000008,-9.799999999982175e-05,0,sub_13
0.0061387999999998,0.0019028000000012,0.0056606,0.0039086000000003,-0.0013625999999991,0.0016110000000001,0,sub_13
0.0072895999999997,0.0045358000000012,0.0066278,0.0028278000000003,-0.0060473999999991,0.0039526000000001,0,sub_13
0.0085569999999998,0.0058896000000012,0.0076988,0.0006880000000003,-0.0096605999999991,0.0056444000000001,0,sub_13
0.0090671999999998,0.0073896000000012,0.0092726,-0.0010183999999996,-0.0122083999999991,0.0069106000000001,0,sub_13
0.0100937999999998,0.0079646000000012,0.0118592,-0.0035715999999995,-0.0136863999999991,0.0077422000000001,0,sub_13
0.0115437999999998,0.0076664000000012,0.0139528,-0.0063455999999995,-0.0136767999999991,0.0077228000000001,0,sub_13
0.0129995999999998,0.0057434000000012,0.0159244,-0.0082553999999995,-0.0130241999999991,0.0059994000000001,0,sub_13
0.0148119999999998,0.0037796000000012,0.017936,-0.0073865999999995,-0.011528199999999,0.0040808000000001,0,sub_13
0.0157469999999998,0.0018818000000012,0.0200874,-0.0060881999999996,-0.008757999999999,0.0028044000000001,0,sub_13
0.0161769999999998,0.0013966000000012,0.0210736,-0.0047853999999996,-0.004495199999999,0.0025986000000001,0,sub_13
0.0165155999999998,0.0009158000000012,0.0200498,-0.0034853999999996,-0.000447199999999,0.0028204000000001,0,sub_13
