userAcceleration.x,userAcceleration.y,userAcceleration.z,rotationRate.x,rotationRate.y,rotationRate.z,label,subject
-0.0036658000000002,0.0032116000000012,-0.0076117999999998,0.0003892000000004,0.0006688000000009,0.000892,0,sub_6
-0.0038606000000002,0.0023650000000012,-0.0083095999999998,0.0001732000000004,-0.000392599999999,0.00068,0,sub_6
-0.0023118000000002,0.0009874000000012,-0.0084379999999998,0.0003876000000004,-0.000816799999999,4.120000000006363e-05,0,sub_6
-0.0002418000000002,-0.0002987999999987,-0.0078069999999998,0.0003868000000004,-0.001242199999999,-0.0001719999999999,0,sub_6
0.0015153999999997,-0.0014803999999987,-0.0070051999999998,0.0001716000000004,-0.001455399999999,4.04000000000836e-05,0,sub_6
0.0022717999999997,-0.0018943999999987,-0.0065239999999998,-0.0002557999999995,-0.001030199999999,0.0006752,0,sub_6
0.0023753999999997,-0.0020915999999987,-0.0055251999999998,-0.0006801999999995,3.4000000000938485e-05,0.0013092,0,sub_6
0.0019479999999997,-0.0013315999999987,-0.0058379999999998,-0.0015267999999995,0.0011040000000009,0.000872,0,sub_6
0.0001549999999997,0.0003432000000012,-0.0061043999999999,-0.0015149999999995,0.0025998000000009,-0.0002005999999999,0,sub_6
-0.0007972000000002,0.0018830000000012,-0.0069797999999999,-0.0004411999999995,0.0030266000000009,-0.0012643999999999,0,sub_6
-0.0013950000000002,0.0025988000000012,-0.0076949999999998,0.0004122000000004,0.0019626000000009,-0.0023251999999999,0,sub_6
-0.0011334000000002,0.0022362000000012,-0.0084871999999998,0.0008380000000004,0.0008994000000009,-0.0031753999999998,0,sub_6
-0.0014842000000001,0.0009784000000012,-0.0079667999999998,0.0008368000000004,0.0004718000000009,-0.0031753999999998,0,sub_6
-4.620000000020199e-05,-0.0003017999999987,-0.0080605999999998,0.0006172000000004,-0.000808199999999,-0.0029621999999998,0,sub_6
0.0007439999999997,-0.0014085999999987,-0.0080279999999998,-0.0002375999999995,-0.001020799999999,-0.0027547999999998,0,sub_6
0.0012961999999997,-0.0016427999999987,-0.0077439999999998,-0.0008713999999995,0.0002582000000009,-0.0027615999999998,0,sub_6
0.0011875999999997,-0.0009239999999987,-0.0069235999999998,-0.0008699999999995,0.0008940000000009,-0.0023357999999998,0,sub_6
0.0011181999999997,0.0003408000000012,-0.0065159999999998,-0.0004471999999995,0.0008890000000009,-0.0014783999999998,0,sub_6
0.0004123999999997,0.0017754000000012,-0.0064655999999998,-0.0002357999999995,0.0013110000000008,-0.0006227999999998,0,sub_6
-0.0007440000000002,0.0033326000000011,-0.0059075999999999,-2.4399999999576623e-05,0.0019452000000008,0.000446,0,sub_6
-0.0014542000000002,0.0040882000000011,-0.0060083999999999,0.0006120000000004,0.0012942000000008,0.001518,0,sub_6
-0.0021020000000002,0.0042562000000011,-0.0065351999999999,0.0014600000000004,4.000000000898598e-06,0.0023786,0,sub_6
-0.0021282000000002,0.0036010000000011,-0.0068461999999999,0.0023126000000004,-0.0008573999999991,0.0025978,0,sub_6
-0.0018110000000002,0.0019034000000011,-0.0068677999999999,0.0025242000000004,-0.001929599999999,0.0028126,0,sub_6
-0.0003894000000002,0.0002436000000012,-0.0070071999999999,0.0025244000000004,-0.002787199999999,0.0028122,0,sub_6
0.0004915999999997,-0.0007345999999987,-0.0074427999999999,0.0016738000000004,-0.002569599999999,0.0023788,0,sub_6
0.0013577999999997,-0.0016989999999987,-0.0075835999999999,-3.03999999995766e-05,-0.002136599999999,0.0021528,0,sub_6
0.0018541999999997,-0.0019429999999987,-0.0072091999999999,-0.0013095999999995,-0.001918999999999,0.0021436,0,sub_6
0.0017807999999997,-0.0008679999999988,-0.0066425999999999,-0.0017267999999995,-0.000642999999999,0.0019236,0,sub_6
0.0007089999999997,-2.939999999880139e-05,-0.0064119999999999,-0.0021459999999995,-5.199999999041507e-06,0.0014908,0,sub_6
-0.0011490000000002,0.0008928000000011,-0.0049727999999999,-0.0019289999999995,0.0002026000000009,0.0014902,0,sub_6
-0.0026664000000001,0.0019300000000011,-0.0048083999999999,-0.0008565999999995,0.0006212000000009,0.0012816,0,sub_6
-0.0036788000000001,0.0030514000000011,-0.0053665999999999,-0.0002089999999995,0.0014674000000009,0.0010696,0,sub_6
-0.0037224000000001,0.0028412000000012,-0.0063301999999999,-0.0004215999999995,0.0014690000000009,0.0008546,0,sub_6
-0.0032538000000001,0.0014830000000012,-0.0067049999999998,-0.0004235999999995,0.0008306000000009,0.0006418,0,sub_6
-0.0012670000000001,-5.039999999876159e-05,-0.0074311999999998,-0.0004263999999995,-0.000232999999999,0.0002158,0,sub_6
0.0004463999999997,-0.0004875999999987,-0.0070029999999998,-0.0006373999999995,-0.000872399999999,-0.0004273999999999,0,sub_6
0.0021407999999997,-0.0013441999999987,-0.0062579999999998,-0.0010635999999995,-0.001937199999999,-0.0010713999999999,0,sub_6
0.0026785999999997,-0.0011217999999987,-0.0053247999999998,-0.0006305999999995,-0.001938799999999,-0.0019245999999999,0,sub_6
0.0028899999999997,0.0001378000000012,-0.0053215999999999,-0.0004129999999995,-0.001304799999999,-0.0017117999999999,0,sub_6
0.0018861999999997,0.0017974000000011,-0.0057375999999999,2.00000000004431e-05,-0.000457599999999,-0.0017113999999999,0,sub_6
0.0005389999999997,0.0026970000000012,-0.0064109999999999,0.0004488000000004,-3.299999999906153e-05,-0.0017087999999999,0,sub_6
-0.0015608000000001,0.0034128000000012,-0.0070937999999999,0.0013070000000004,0.0008170000000009,-0.0019175999999999,0,sub_6
-0.0035604000000001,0.0038230000000012,-0.0073709999999999,0.0019442000000004,0.0003878000000009,-0.0016989999999999,0,sub_6
-0.0039696000000001,0.0035602000000012,-0.0076553999999999,0.0025844000000004,-0.000469599999999,-0.0021185999999999,0,sub_6
-0.0038626000000001,0.0024358000000012,-0.0075469999999999,0.0030054000000004,-0.001755799999999,-0.0016845999999999,0,sub_6
-0.0025202000000001,0.0008528000000012,-0.0071571999999999,0.0029996000000004,-0.002615999999999,-0.0008267999999999,0,sub_6
-0.0004502000000001,-0.0003507999999987,-0.0072209999999999,0.0023548000000004,-0.003048799999999,0.0002396,0,sub_6
0.0010993999999997,-0.0017503999999987,-0.0075041999999998,0.0008594000000004,-0.002839599999999,0.0012994,0,sub_6
0.0010015999999998,-0.0021669999999987,-0.0066839999999998,-0.0006331999999995,-0.001984799999999,0.0019288,0,sub_6
0.0006799999999998,-0.0022285999999987,-0.0064921999999998,-0.0016923999999995,-0.000276599999999,0.0019192,0,sub_6
-0.0002134000000001,-0.0010209999999987,-0.0066977999999998,-0.0021143999999995,0.0003656000000009,0.0014882,0,sub_6
-0.0011912000000001,0.0006014000000012,-0.0063953999999998,-0.0021115999999995,0.0001560000000009,0.000634,0,sub_6
-0.0019572000000001,0.0016464000000012,-0.0059457999999999,-0.0010397999999995,-5.979999999904154e-05,-0.0004233999999999,0,sub_6
-0.0023354000000001,0.0023180000000011,-0.0067979999999999,3.0200000000422987e-05,-0.000277399999999,-0.0010533999999999,0,sub_6
-0.0017316000000002,0.0023888000000011,-0.0068053999999999,0.0004562000000004,-0.001344999999999,-0.0016867999999998,0,sub_6
-0.0011028000000002,0.0017104000000011,-0.0068819999999999,0.0006698000000004,-0.001561999999999,-0.0016819999999998,0,sub_6
-0.0002896000000002,0.0009992000000011,-0.0069831999999999,0.0006690000000004,-0.001779199999999,-0.0014649999999998,0,sub_6
0.0003735999999997,0.0006256000000011,-0.0071591999999999,0.0002376000000004,-0.001994199999999,-0.0006131999999999,0,sub_6
0.0008021999999997,9.80000000121847e-06,-0.0067421999999999,0.0002346000000004,-0.002420999999999,-0.0003989999999999,0,sub_6
0.0008891999999997,0.0002090000000011,-0.0072269999999999,0.0004480000000004,-0.001997399999999,2.920000000008349e-05,0,sub_6
0.0002139999999997,0.0008030000000011,-0.0069273999999999,0.0004512000000004,-0.001569599999999,-0.0001865999999999,0,sub_6
-0.0008654000000001,0.0010672000000011,-0.0068121999999999,0.0008802000000004,-0.001568599999999,-0.0006125999999999,0,sub_6
-0.0013092000000001,0.0015976000000011,-0.0071641999999999,0.0010968000000004,-0.001565799999999,-0.0012535999999999,0,sub_6
-0.0011784000000002,0.0017286000000011,-0.0073071999999999,0.0011020000000004,-0.001136199999999,-0.0018965999999999,0,sub_6
-0.0010714000000001,0.0018866000000012,-0.0064297999999998,0.0013204000000004,-0.000707399999999,-0.0025381999999999,0,sub_6
-0.0005342000000001,0.0013306000000012,-0.0067315999999998,0.0015338000000004,-0.001132599999999,-0.0029633999999999,0,sub_6
-0.0003460000000002,0.0006538000000012,-0.0069227999999998,0.0013204000000004,-0.001131799999999,-0.0029647999999999,0,sub_6
-0.0001100000000002,0.0001640000000012,-0.0061599999999998,0.0011074000000004,-0.000918999999999,-0.0023263999999999,0,sub_6
0.0006953999999997,0.0002418000000012,-0.0066745999999998,0.0008876000000004,-0.001348799999999,-0.0008327999999999,0,sub_6
0.0008831999999997,0.0001142000000012,-0.0081673999999999,3.260000000042291e-05,-0.001347599999999,1.5000000000063596e-05,0,sub_6
0.0001615999999997,0.0003350000000012,-0.0078121999999999,-0.0008175999999995,-0.000917799999999,0.0002212,0,sub_6
-0.0003660000000002,0.0008110000000012,-0.0074879999999999,-0.0016647999999995,-0.000273199999999,8.352693536828326e-17,0,sub_6
-0.0007462000000002,0.0010246000000012,-0.0078577999999999,-0.0012313999999995,0.0003678000000009,-0.0008523999999998,0,sub_6
-0.0016820000000002,0.0017920000000012,-0.0072595999999998,-0.0001547999999995,0.0014336000000009,-0.0019143999999998,0,sub_6
-0.0022028000000002,0.0019536000000012,-0.0057827999999998,0.0004854000000004,0.0018558000000009,-0.0014831999999998,0,sub_6
-0.0016148000000002,0.0020812000000012,-0.0056569999999998,0.0011200000000004,0.0022764000000009,0.0002322000000001,0,sub_6
-0.0011936000000002,0.0017888000000012,-0.0059221999999998,0.0011116000000004,0.0022722000000009,0.0021572000000001,0,sub_6
-0.0011518000000002,0.0019650000000012,-0.0063629999999998,-0.0003883999999995,0.0018506000000009,0.0032178,0,sub_6
-0.0017266000000002,0.0018070000000012,-0.0067041999999999,-0.0020989999999995,0.0014322000000009,0.0036358,0,sub_6
-0.0021048000000002,0.0016202000000012,-0.0072353999999999,-0.0018881999999995,0.0005836000000009,0.003427,0,sub_6
-0.0016856000000002,0.0015620000000012,-0.0070491999999998,-0.0010335999999995,-5.519999999906152e-05,0.0025792,0,sub_6
-0.0010460000000002,0.0017744000000012,-0.0069673999999998,3.5200000000442865e-05,-0.000269399999999,0.001946,0,sub_6
2.899999999979811e-05,0.0011992000000012,-0.0066581999999998,0.0010992000000004,-0.000487999999999,0.002381,0,sub_6
0.0012223999999997,0.0005412000000012,-0.0058843999999998,0.0010982000000004,-0.000486399999999,0.0025948,0,sub_6
0.0016741999999997,0.0005648000000012,-0.0059337999999998,3.700000000042289e-05,0.0003736000000009,0.0021592,0,sub_6
0.0007407999999997,0.0007660000000012,-0.0065355999999999,-0.0008087999999995,0.0010224000000009,0.0010844,0,sub_6
0.0001895999999997,0.0010234000000012,-0.0066509999999999,-0.0003763999999995,0.0010284000000009,-0.0001943999999998,0,sub_6
-9.040000000020184e-05,0.0011038000000012,-0.0068801999999999,0.0002732000000004,0.0016738000000009,-0.0016861999999998,0,sub_6
-8.440000000020194e-05,0.0016630000000011,-0.0072045999999999,0.0007048000000004,0.0021010000000009,-0.0023245999999998,0,sub_6
0.0004527999999997,0.0020222000000011,-0.0070247999999999,0.0011296000000004,0.0016734000000009,-0.0023211999999998,0,sub_6
0.0009253999999997,0.0015768000000011,-0.0073979999999999,0.0006960000000004,0.0012446000000009,-0.0012555999999998,0,sub_6
0.0011983999999997,0.0012590000000012,-0.0072379999999999,-0.0005889999999995,0.0012528000000009,-0.0004065999999999,0,sub_6
0.0005141999999997,0.0012716000000012,-0.0071249999999998,-0.0014471999999995,0.0010472000000009,0.0002322,0,sub_6
-0.0002802000000002,0.0008422000000012,-0.0072487999999998,-0.0010271999999995,0.0001988000000009,0.000667,0,sub_6
-0.0011574000000002,0.0003234000000012,-0.0073989999999998,-0.0003899999999995,-1.01999999990815e-05,0.0008888,0,sub_6
-0.0010946000000002,0.0006752000000012,-0.0071557999999998,0.0004654000000003,0.0002086000000009,0.0004708,0,sub_6
-0.0009416000000002,0.0006664000000012,-0.0076817999999998,0.0004664000000003,0.0004216000000009,0.0004706,0,sub_6
-0.0004160000000002,0.0009168000000012,-0.0078289999999998,-0.0001737999999996,0.0006360000000009,0.0006794,0,sub_6
-0.0004226000000002,0.0010168000000011,-0.0078883999999998,-0.0010253999999995,0.0012772000000009,0.0008862,0,sub_6
1.239999999979827e-05,0.0012894000000011,-0.0073829999999998,-0.0018825999999995,0.0010748000000009,0.0008862,0,sub_6
0.0002119999999997,0.0010208000000011,-0.0071011999999998,-0.0023167999999995,0.0002310000000009,0.0011036,0,sub_6
0.0003487999999997,0.0011362000000011,-0.0063847999999998,-0.0016793999999995,2.420000000093863e-05,0.0009004000000001,0,sub_6
0.0008753999999997,0.0015898000000011,-0.0062729999999999,-0.0008285999999995,-0.000395399999999,0.0004854000000001,0,sub_6
0.0012489999999997,0.0017726000000012,-0.0053553999999999,-0.0001863999999995,-0.000173399999999,-0.0003591999999998,0,sub_6
0.0011581999999997,0.0013930000000012,-0.0054105999999999,3.1800000000422765e-05,0.0004668000000009,-0.0007857999999998,0,sub_6
0.0011973999999997,0.0014386000000012,-0.0055463999999998,0.0002490000000004,0.0011060000000009,-0.0009987999999998,0,sub_6
0.0008301999999997,0.0011208000000012,-0.0061225999999998,0.0002490000000004,0.0011060000000009,-0.0009987999999998,0,sub_6
0.0002251999999997,0.0005832000000012,-0.0060595999999998,3.5800000000422774e-05,0.0011102000000009,-0.0009969999999998,0,sub_6
-0.0002666000000001,0.0007836000000012,-0.0068163999999998,-0.0001781999999995,0.0013258000000009,-0.0005681999999998,0,sub_6
-0.0010586000000001,0.0010750000000012,-0.0068373999999998,3.1600000000422773e-05,0.0009006000000009,-0.0001353999999998,0,sub_6
-0.0008510000000001,0.0012298000000012,-0.0072095999999999,-0.0006131999999995,0.0002656000000009,0.0002916000000001,0,sub_6
0.0001155999999998,0.0015338000000012,-0.0072865999999999,-0.0014683999999995,5.820000000093871e-05,0.000503,0,sub_6
6.219999999983826e-05,0.0017074000000012,-0.0072655999999999,-0.0016787999999995,0.0004860000000009,0.0002874000000001,0,sub_6
-8.000000001817317e-07,0.0011128000000012,-0.0070247999999999,-0.0025313999999995,0.0002776000000009,-0.0001453999999999,0,sub_6
0.0007829999999997,0.0014136000000012,-0.0065827999999999,-0.0031655999999995,0.0011338000000009,-0.0005781999999999,0,sub_6
0.0009555999999997,0.0012774000000012,-0.0058909999999999,-0.0027301999999995,0.0024134000000009,-0.0010059999999998,0,sub_6
0.0011717999999997,0.0014178000000012,-0.0058281999999999,-0.0018777999999995,0.0021978000000009,-0.0007881999999998,0,sub_6
0.0019057999999997,0.0014080000000012,-0.0056983999999999,-0.0014529999999995,0.0019826000000009,-0.0003595999999998,0,sub_6
0.0023213999999997,0.0014198000000012,-0.0058333999999999,-0.0003861999999995,0.0021914000000009,7.280000000012372e-05,0,sub_6
0.0020933999999998,0.0011316000000011,-0.0069667999999999,0.0004642000000004,0.0015496000000009,0.0002912000000001,0,sub_6
0.0013653999999998,0.0012962000000011,-0.0073781999999999,0.0004642000000004,0.0013374000000009,7.780000000010366e-05,0,sub_6
-5.800000000141716e-06,0.0014552000000011,-0.0077995999999999,4.240000000042296e-05,0.0019796000000009,-0.0003531999999998,0,sub_6
-0.0004404000000001,0.0011120000000011,-0.0081495999999999,0.0004642000000004,0.0011252000000009,-0.0001355999999999,0,sub_6
-0.0006586000000001,0.0012180000000011,-0.0082361999999999,0.0004588000000004,-0.000154999999999,-0.0001345999999999,0,sub_6
-0.0009382000000001,0.0010174000000012,-0.0073321999999999,-0.0001819999999995,-0.000367599999999,-0.0001393999999999,0,sub_6
-0.0001920000000001,0.0009160000000012,-0.0070013999999999,2.780000000042293e-05,-0.001010199999999,7.600000000008373e-05,0,sub_6
0.0006565999999998,0.0004284000000012,-0.0068103999999999,0.0006662000000004,-0.001440399999999,8.060000000008374e-05,0,sub_6
0.0007301999999998,0.0008392000000012,-0.0068643999999998,3.500000000044288e-05,-0.000159199999999,-0.0005667999999998,0,sub_6
0.0011141999999998,0.0014010000000012,-0.0065107999999998,4.160000000044289e-05,0.0009078000000009,-0.0009953999999998,0,sub_6
0.0018817999999997,0.0020358000000012,-0.0064633999999998,0.0008952000000004,0.0006926000000009,-0.0012027999999999,0,sub_6
0.0014743999999997,0.0026442000000012,-0.0064287999999998,0.0008952000000004,0.0004804000000009,-0.0014161999999998,0,sub_6
0.0004517999999997,0.0030476000000012,-0.0059413999999998,4.5800000000442885e-05,0.0006932000000009,-0.0016377999999998,0,sub_6
-5.680000000022173e-05,0.0025140000000012,-0.0057077999999998,0.0002586000000004,0.0002614000000008,-0.0014239999999998,0,sub_6
-0.0005738000000002,0.0018040000000012,-0.0063033999999998,0.0004712000000004,-0.0001703999999991,-0.0012099999999998,0,sub_6
-0.0010850000000001,0.0013676000000012,-0.0069589999999998,0.0002600000000004,-0.0001737999999991,-0.0012131999999998,0,sub_6
-0.0011530000000001,0.0005276000000012,-0.0074381999999998,4.880000000042287e-05,3.500000000089868e-05,-0.0010029999999998,0,sub_6
-0.0002076000000002,0.0003454000000012,-0.0071205999999999,0.0004736000000004,-0.000180399999999,-0.0007861999999999,0,sub_6
0.0001999999999997,0.0009650000000012,-0.0067409999999999,-0.0001675999999995,-0.000178999999999,-0.0005769999999999,0,sub_6
0.0004757999999998,0.0013024000000012,-0.0066659999999999,-0.0008075999999995,3.540000000093872e-05,-0.0003681999999999,0,sub_6
0.0008281999999997,0.0014718000000011,-0.0064745999999999,-0.0012353999999995,0.0002482000000009,5.580000000008372e-05,0,sub_6
0.0009595999999997,0.0014682000000011,-0.0063655999999998,-0.0012345999999995,0.0002440000000009,5.440000000008371e-05,0,sub_6
0.0004397999999998,0.0015142000000011,-0.0065695999999998,-0.0010185999999995,0.0004530000000009,-0.0001593999999999,0,sub_6
0.0001255999999998,0.0016416000000011,-0.0067713999999998,-0.0001633999999995,0.0002344000000009,-0.0005817999999999,0,sub_6
-0.0001076000000001,0.0016412000000011,-0.0068025999999998,0.0002622000000004,-0.000197399999999,-0.0005795999999999,0,sub_6
-0.0002214000000001,0.0016646000000011,-0.0065869999999998,0.0002640000000004,-0.000200799999999,-0.0007943999999999,0,sub_6
-0.0005172000000001,0.0015734000000011,-0.0065061999999998,0.0004792000000004,1.2400000000918709e-05,-0.0010067999999999,0,sub_6
-0.0003702000000002,0.0011826000000012,-0.0065647999999998,0.0004792000000004,1.2400000000918709e-05,-0.0010067999999999,0,sub_6
-0.0001870000000002,0.0004456000000012,-0.0064645999999998,0.0004810000000004,-0.000418799999999,-0.0010069999999999,0,sub_6
0.0001823999999997,0.0004066000000012,-0.0059251999999998,0.0004856000000004,1.4000000009387149e-06,-0.0007945999999999,0,sub_6
0.0002521999999997,0.0002700000000012,-0.0060421999999998,0.0007016000000004,-0.000217399999999,-0.0007937999999999,0,sub_6
0.0002551999999997,0.0004946000000012,-0.0057463999999998,0.0004900000000004,-0.000223399999999,-0.0003687999999999,0,sub_6
1.199999999979811e-05,0.0009506000000012,-0.0054989999999998,0.0002794000000004,-0.000228599999999,-0.0001573999999999,0,sub_6
-0.0001558000000002,0.0013240000000012,-0.0055319999999998,6.800000000042292e-05,0.0001982000000009,-0.0001593999999999,0,sub_6
-0.0001146000000002,0.0014286000000011,-0.0061039999999998,0.0002774000000004,-0.000654799999999,-0.0001567999999999,0,sub_6
-0.0005082000000001,0.0013758000000011,-0.0060169999999998,0.0004888000000004,-0.000869399999999,5.860000000008366e-05,0,sub_6
-0.0007594000000002,0.0014062000000011,-0.0059181999999999,0.0007046000000004,-0.000876199999999,6.020000000008366e-05,0,sub_6
-0.0007518000000002,0.0008788000000011,-0.0061457999999999,0.0009128000000004,-0.001738599999999,0.0009174,0,sub_6
-0.0002628000000002,0.0005970000000011,-0.0069145999999999,0.0009066000000004,-0.003025399999999,0.00156,0,sub_6
0.0001199999999997,0.0002456000000012,-0.0061295999999999,0.0006986000000004,-0.002603599999999,0.0013444,0,sub_6
0.0003301999999997,-2.8799999998781515e-05,-0.0068213999999998,-0.0001495999999995,-0.002391999999999,0.000911,0,sub_6
0.0011275999999997,0.0002310000000012,-0.0068533999999998,-0.0010039999999995,-0.002814199999999,0.000692,0,sub_6
0.0016301999999997,0.0006020000000012,-0.0066961999999998,-0.0009991999999995,-0.002173199999999,0.000264,0,sub_6
0.0017497999999997,0.0013470000000012,-0.0060157999999998,-0.0009953999999995,-0.001108799999999,0.0004762,0,sub_6
0.0009153999999997,0.0015992000000012,-0.0060777999999998,-0.0012091999999995,-0.001113799999999,0.000903,0,sub_6
0.0009009999999997,0.0017100000000012,-0.0056613999999999,-0.0001417999999995,-0.000909999999999,0.0013386,0,sub_6
0.0006181999999997,0.0013630000000012,-0.0058371999999999,0.0011428000000004,-0.000491399999999,0.0011344,0,sub_6
-0.0002180000000002,0.0008310000000012,-0.0067369999999999,0.0013586000000003,-0.000707599999999,0.0007098,0,sub_6
-0.0010584000000002,-0.0001547999999987,-0.0073297999999999,0.0013610000000003,-0.000922799999999,0.000284,0,sub_6
-0.0008760000000002,-0.0004747999999987,-0.0077861999999999,0.0013630000000003,-0.001133199999999,-0.0003565999999999,0,sub_6
-0.0009676000000002,-0.0002467999999987,-0.0072263999999998,0.0007220000000003,-0.001343999999999,-0.0003607999999999,0,sub_6
-0.0016314000000002,-0.0003267999999987,-0.0064959999999998,7.700000000040295e-05,-0.002194999999999,-0.0001505999999999,0,sub_6
-0.0007682000000002,0.0002024000000012,-0.0059177999999998,-0.0001373999999995,-0.002622399999999,-0.0001499999999999,0,sub_6
-0.0003216000000002,0.0008952000000012,-0.0050921999999998,0.0002922000000004,-0.002412199999999,-0.0003593999999999,0,sub_6
-0.0004402000000002,0.0007130000000012,-0.0052579999999998,0.0009370000000004,-0.001776599999999,-0.0005677999999999,0,sub_6
0.0003707999999997,0.0004004000000012,-0.0055895999999998,0.0011504000000004,-0.001992599999999,-0.0005643999999999,0,sub_6
0.0012783999999997,0.0005396000000012,-0.0063721999999998,0.0013676000000004,-0.001568399999999,-0.0007753999999999,0,sub_6
0.0009389999999997,0.0007262000000012,-0.0064747999999998,0.0011562000000004,-0.001141599999999,-0.0007773999999999,0,sub_6
0.0011245999999997,0.0006344000000012,-0.0071999999999998,0.0005142000000004,-0.001353199999999,-0.0005679999999999,0,sub_6
0.0011365999999997,0.0010448000000012,-0.0072563999999998,0.0002960000000004,-0.002205399999999,-0.0003547999999999,0,sub_6
0.0001267999999997,0.0012502000000012,-0.0074255999999999,0.0002972000000004,-0.001993799999999,-0.0003533999999999,0,sub_6
-0.0003552000000002,0.0014060000000012,-0.0076429999999999,-0.0001301999999995,-0.001782599999999,7.220000000008357e-05,0,sub_6
-0.0001752000000002,0.0012292000000012,-0.0073893999999998,8.440000000042305e-05,-0.001571799999999,7.520000000008356e-05,0,sub_6
-0.0004818000000002,0.0013016000000012,-0.0067565999999998,0.0003000000000004,-0.001360199999999,-0.0001353999999999,0,sub_6
-0.0002682000000002,0.0016882000000012,-0.0063285999999998,9.0800000000423e-05,-0.000720999999999,-0.0003495999999999,0,sub_6
-0.0003514000000002,0.0017224000000012,-0.0058771999999998,0.0005194000000004,-0.000720799999999,-0.0007739999999999,0,sub_6
-0.0010544000000002,0.0016288000000012,-0.0057263999999998,0.0011606000000004,-0.000934399999999,-0.0011963999999999,0,sub_6
-0.0009068000000002,0.0014370000000012,-0.0058917999999998,0.0009452000000004,-0.001359799999999,-0.0011973999999999,0,sub_6
-0.0005476000000002,0.0013008000000012,-0.0063169999999998,0.0007304000000004,-0.001571599999999,-0.0011975999999999,0,sub_6
-0.0006592000000002,0.0005432000000012,-0.0060425999999998,0.0005128000000004,-0.001998199999999,-0.0007701999999999,0,sub_6
-0.0002046000000002,0.0006116000000012,-0.0064407999999998,8.280000000042295e-05,-0.002210999999999,-0.0003443999999999,0,sub_6
0.0006795999999997,0.0004842000000012,-0.0061187999999998,8.1200000000423e-05,-0.002635799999999,-0.0005563999999999,0,sub_6
0.0005033999999997,0.0010886000000012,-0.0058813999999999,0.0002950000000004,-0.002422999999999,-0.0005539999999999,0,sub_6
0.0002649999999997,0.0008730000000012,-0.0054233999999999,0.0005102000000004,-0.001997799999999,-0.0005529999999999,0,sub_6
0.0003683999999997,0.0014850000000011,-0.0058415999999998,0.0011522000000004,-0.001786199999999,-0.0007623999999999,0,sub_6
0.0006193999999997,0.0012088000000011,-0.0056713999999998,0.0011530000000004,-0.001997599999999,-0.0011893999999998,0,sub_6
0.0003899999999997,0.0014506000000011,-0.0059571999999998,0.0007280000000004,-0.001355199999999,-0.0009809999999998,0,sub_6
-0.0001882000000002,0.0010084000000011,-0.0060341999999998,0.0007298000000004,-0.000926599999999,-0.0009829999999998,0,sub_6
-0.0005894000000002,0.0012632000000011,-0.0061367999999998,0.0009430000000004,-0.001136999999999,-0.0011961999999998,0,sub_6
-0.0006360000000002,0.0011366000000012,-0.0061869999999998,0.0007284000000004,-0.001134599999999,-0.0009853999999998,0,sub_6
