userAcceleration.x,userAcceleration.y,userAcceleration.z,rotationRate.x,rotationRate.y,rotationRate.z,label,subject
-0.0028548000000001,-0.0031975999999987,-0.0037941999999998,0.0105938000000004,-0.009346599999999,0.0006668,0,sub_5
-0.0027252000000001,-0.0012667999999987,-0.0034111999999998,0.0106130000000004,-0.006783199999999,-0.0010455999999998,0,sub_5
-0.0015852000000001,0.0003242000000012,-0.0041661999999998,0.0087108000000004,-0.003577399999999,-0.0019173999999998,0,sub_5
-0.0007324000000001,0.0022676000000012,-0.0050727999999998,0.0057370000000004,-0.000796399999999,-0.0021551999999998,0,sub_5
-0.0012008000000002,0.0033002000000012,-0.0065171999999998,0.0012620000000004,0.0013464000000009,-0.0013345999999998,0,sub_5
-0.0021384000000002,0.0031874000000012,-0.0071241999999998,-0.0032289999999995,0.0021976000000009,0.0001472000000001,0,sub_5
-0.0032228000000002,0.0024310000000012,-0.0076875999999998,-0.0072991999999995,0.0021934000000009,0.0020604,0,sub_5
-0.0055826000000002,0.0012294000000012,-0.0073877999999999,-0.0100871999999995,0.0021864000000009,0.0035552,0,sub_5
-0.0082758000000002,-0.0002683999999987,-0.0069733999999998,-0.0120215999999995,0.0017520000000009,0.0046292,0,sub_5
-0.0091892000000002,-0.0014481999999987,-0.0067949999999998,-0.0131025999999995,0.0006780000000009,0.005069,0,sub_5
-0.0087856000000002,-0.0018885999999987,-0.0074131999999998,-0.0135341999999995,-0.000810199999999,0.0046406,0,sub_5
-0.0078680000000002,-0.0016773999999987,-0.0070051999999998,-0.0133255999999995,-0.002937199999999,0.0035766,0,sub_5
-0.0066250000000002,-0.0010603999999987,-0.0069717999999998,-0.0131247999999995,-0.004642399999999,0.0025256,0,sub_5
-0.0042012000000002,-0.0007621999999987,-0.0070947999999999,-0.0127113999999995,-0.006349199999999,0.0016896,0,sub_5
-0.0023744000000002,-0.0001681999999987,-0.0067285999999999,-0.0116541999999995,-0.007418199999999,0.0006438000000001,0,sub_5
-0.0018580000000002,-0.0002945999999987,-0.0054625999999999,-0.0095271999999995,-0.007427599999999,3.1400000000100815e-05,0,sub_5
-0.0018802000000002,-0.0012083999999987,-0.0049285999999999,-0.0073981999999995,-0.006374199999999,5.8600000000100805e-05,0,sub_5
-0.0019536000000002,-0.0022087999999987,-0.0037615999999999,-0.0052595999999995,-0.005104199999999,0.0002854000000001,0,sub_5
-0.0026950000000002,-0.0023667999999987,-0.0026735999999999,-0.0033325999999995,-0.002770799999999,0.0011506,0,sub_5
-0.0032378000000001,-0.0026511999999987,-0.0022221999999999,-0.0018293999999995,0.0002032000000009,0.0020118,0,sub_5
-0.0033850000000001,-0.0018439999999987,-0.0024831999999999,-0.0020369999999995,0.0029678000000009,0.0035024,0,sub_5
-0.0037386000000001,-0.0003971999999987,-0.0035527999999999,-0.0029031999999995,0.0057266000000009,0.0047834,0,sub_5
-0.0046042000000001,0.0013614000000012,-0.0048661999999999,-0.0039825999999995,0.0080618000000009,0.0056364,0,sub_5
-0.0054150000000001,0.0028912000000012,-0.0065689999999999,-0.0054907999999995,0.0093358000000009,0.0058466000000001,0,sub_5
-0.0064546000000001,0.0036096000000012,-0.0079207999999999,-0.0074389999999995,0.0082652000000009,0.0066978000000001,0,sub_5
-0.0078178000000001,0.0037480000000012,-0.0092349999999999,-0.0089623999999995,0.0061302000000009,0.0069122000000001,0,sub_5
-0.0085490000000001,0.0032394000000012,-0.0093023999999999,-0.0104693999999995,0.0027282000000009,0.0064788000000001,0,sub_5
-0.0088388000000002,0.0013066000000012,-0.0088419999999999,-0.0124069999999995,-0.001312399999999,0.0062566000000001,0,sub_5
-0.0088878000000002,-0.0013841999999987,-0.0074563999999999,-0.0128471999999995,-0.004930399999999,0.0056172,0,sub_5
-0.0083788000000002,-0.0021389999999987,-0.0061369999999998,-0.0119957999999995,-0.006208799999999,0.0043488,0,sub_5
-0.0076108000000002,-0.0027987999999987,-0.0048551999999998,-0.0102851999999995,-0.005787399999999,0.0035116,0,sub_5
-0.0066238000000001,-0.0030723999999987,-0.0039669999999998,-0.0075113999999995,-0.005585199999999,0.0033228,0,sub_5
-0.0049064000000001,-0.0019245999999987,-0.0041263999999998,-0.0045213999999995,-0.004532399999999,0.0033482,0,sub_5
-0.0032474000000001,-0.0005059999999987,-0.0056231999999998,-0.0030259999999995,-0.003262999999999,0.0037902000000001,0,sub_5
-0.0013278000000001,-0.0002747999999987,-0.0064303999999998,-0.0015391999999995,-0.003274199999999,0.0052960000000001,0,sub_5
-0.0004586000000001,-3.619999999877268e-05,-0.0063437999999998,-0.0004799999999995,-0.004133599999999,0.0061590000000001,0,sub_5
0.0002625999999997,7.700000000122732e-05,-0.0057169999999998,-0.0011241999999995,-0.002846199999999,0.0063682000000001,0,sub_5
-0.0003118000000002,5.660000000122732e-05,-0.0047951999999998,-0.0013301999999995,0.0001476000000009,0.0057236,0,sub_5
-0.0017128000000001,0.0001760000000012,-0.0035543999999998,-0.0013225999999995,0.0029284000000009,0.004867,0,sub_5
-0.0034866000000001,0.0007826000000012,-0.0033477999999998,-0.0023741999999995,0.0063564000000009,0.0029342,0,sub_5
-0.0045744000000001,0.0011974000000012,-0.0043739999999998,-0.0034239999999995,0.0102106000000009,0.0010008,0,sub_5
-0.0064092000000001,0.0019562000000012,-0.0065191999999998,-0.0038381999999995,0.0114964000000009,-0.0004991999999999,0,sub_5
-0.0076432000000001,0.0024914000000012,-0.0083951999999998,-0.0044849999999995,0.0093706000000009,-0.0011417999999998,0,sub_5
-0.0083432000000001,0.0032706000000012,-0.0094915999999999,-0.0051337999999995,0.0068188000000009,-0.0017839999999998,0,sub_5
-0.0091996000000001,0.0024480000000012,-0.0098921999999999,-0.0049113999999995,0.0040596000000009,-0.0024265999999998,0,sub_5
-0.0093776000000001,0.0017898000000012,-0.0095443999999998,-0.0040563999999995,-0.000193999999999,-0.0028491999999998,0,sub_5
-0.0091394000000001,0.0004794000000012,-0.0083989999999998,-0.0023441999999995,-0.003598399999999,-0.0032667999999998,0,sub_5
-0.0084744000000001,-0.0007673999999987,-0.0076431999999998,-0.0004079999999995,-0.005084199999999,-0.0041125999999998,0,sub_5
-0.0070888000000002,-0.0024565999999987,-0.0063535999999998,0.0023798000000003,-0.006574799999999,-0.0045249999999998,0,sub_5
-0.0053042000000002,-0.0029757999999987,-0.0049811999999998,0.0049336000000003,-0.008287199999999,-0.0047185999999998,0,sub_5
-0.0036578000000002,-0.0032917999999987,-0.0038563999999999,0.0074940000000003,-0.008932799999999,-0.0053407999999998,0,sub_5
-0.0022004000000002,-0.0027395999999987,-0.0027473999999999,0.0094228000000004,-0.007446399999999,-0.0057565999999998,0,sub_5
-0.0011836000000002,-0.0017563999999987,-0.0018667999999999,0.0107390000000004,-0.0059473999999991,-0.0066141999999998,0,sub_5
-0.0010088000000002,4.520000000122742e-05,-0.0020503999999999,0.0109912000000004,-0.0035933999999991,-0.0072667999999999,0,sub_5
-0.0008022000000002,0.0016312000000012,-0.0031573999999999,0.0103948000000004,4.120000000089989e-05,-0.0077131999999998,0,sub_5
-0.0016372000000002,0.0028798000000011,-0.0049957999999999,0.0087286000000004,0.0034648000000009,-0.0077393999999998,0,sub_5
-0.0025434000000002,0.0033098000000011,-0.0065089999999999,0.0066272000000004,0.0051846000000009,-0.0075529999999998,0,sub_5
-0.0039900000000002,0.0031944000000011,-0.0072279999999999,0.0040648000000004,0.0060406000000009,-0.0062901999999998,0,sub_5
-0.0055248000000002,0.0022332000000011,-0.0075337999999999,0.0012882000000004,0.0062600000000009,-0.0054551999999998,0,sub_5
-0.0074510000000002,0.0011900000000012,-0.0071153999999999,-0.0014923999999995,0.0056270000000009,-0.0046191999999999,0,sub_5
-0.0081496000000002,0.0003624000000012,-0.0069557999999999,-0.0033813999999995,0.0047834000000009,-0.0042237999999998,0,sub_5
-0.0081170000000002,-0.0008329999999987,-0.0069429999999999,-0.0042083999999995,0.0030830000000009,-0.0036059999999998,0,sub_5
-0.0079172000000002,-0.0020691999999987,-0.0068831999999999,-0.0033283999999995,0.0009522000000009,-0.0034029999999998,0,sub_5
-0.0072490000000002,-0.0023195999999987,-0.0069419999999999,-0.0009557999999995,-0.000972399999999,-0.0027625999999998,0,sub_5
-0.0065792000000002,-0.0025889999999987,-0.0070735999999999,0.0029114000000004,-0.002689199999999,-0.0021119999999998,0,sub_5
-0.0054704000000002,-0.0025299999999987,-0.0059639999999999,0.0065272000000004,-0.004409799999999,-0.0012297999999998,0,sub_5
-0.0049232000000002,-0.0014635999999987,-0.0045193999999999,0.0092952000000004,-0.005485599999999,-0.0009953999999998,0,sub_5
-0.0036368000000002,-0.0002025999999987,-0.0042319999999999,0.0103630000000004,-0.005063999999999,-0.0007747999999998,0,sub_5
-0.0019202000000002,0.0003846000000012,-0.0040061999999999,0.0101572000000003,-0.003995399999999,-0.0014185999999998,0,sub_5
-0.0007352000000002,0.0014476000000012,-0.0041153999999999,0.0084936000000003,-0.002698199999999,-0.0025229999999998,0,sub_5
-0.0009048000000001,0.0024084000000012,-0.0045521999999999,0.0057680000000003,-0.000331999999999,-0.0036361999999998,0,sub_5
-0.0010654000000001,0.0029900000000012,-0.0062415999999999,0.0021898000000003,0.0024624000000009,-0.0045421999999998,0,sub_5
-0.0018924000000001,0.0030642000000012,-0.0070063999999999,-0.0007511999999996,0.0046154000000009,-0.0054429999999998,0,sub_5
-0.0036984000000001,0.0032708000000012,-0.0073015999999999,-0.0028501999999995,0.0052698000000009,-0.0052675999999998,0,sub_5
-0.0053286000000001,0.0026456000000012,-0.0074069999999999,-0.0045647999999995,0.0046324000000009,-0.0042103999999998,0,sub_5
-0.0062710000000001,0.0017358000000012,-0.0081477999999999,-0.0054307999999995,0.0031390000000009,-0.0029325999999998,0,sub_5
-0.0069828000000001,0.0003088000000012,-0.0074861999999999,-0.0048077999999995,0.0009994000000009,-0.0012163999999998,0,sub_5
-0.0077508000000001,-0.0013289999999987,-0.0070509999999999,-0.0037279999999995,-0.001142799999999,6.06000000000806e-05,0,sub_5
-0.0077508000000001,-0.0031545999999987,-0.0058357999999999,-0.0020011999999996,-0.002220199999999,0.0009134,0,sub_5
-0.0072412000000001,-0.0038309999999987,-0.0052443999999999,0.0005866000000004,-0.002444999999999,0.0009164,0,sub_5
-0.0065220000000001,-0.0041743999999987,-0.0043579999999999,0.0038174000000004,-0.002457199999999,0.0004964,0,sub_5
-0.0058402000000001,-0.0036057999999987,-0.0040509999999999,0.0070568000000003,-0.001400799999999,-0.0007793999999999,0,sub_5
-0.0048730000000001,-0.0018125999999987,-0.0041919999999998,0.0096240000000004,-0.000767199999999,-0.0016167999999998,0,sub_5
-0.0035242000000002,5.52000000012271e-05,-0.0054099999999998,0.0109098000000004,-0.000554399999999,-0.0026763999999998,0,sub_5
-0.0026986000000002,0.0018040000000012,-0.0054737999999998,0.0107012000000004,-0.000337199999999,-0.0035325999999998,0,sub_5
-0.0023028000000002,0.0032136000000012,-0.0054639999999998,0.0085774000000004,0.0003162000000009,-0.0035457999999998,0,sub_5
-0.0020000000000001,0.0039922000000012,-0.0056237999999998,0.0055992000000004,0.0011842000000009,-0.0031377999999998,0,sub_5
-0.0023406000000001,0.0041618000000012,-0.0056955999999999,0.0024096000000004,0.0029034000000009,-0.0023051999999998,0,sub_5
-0.0035626000000001,0.0035802000000012,-0.0062243999999999,-0.0003589999999995,0.0037672000000009,-0.0010411999999998,0,sub_5
-0.0042816000000001,0.0021492000000012,-0.0068301999999999,-0.0031285999999995,0.0044180000000009,0.0002230000000001,0,sub_5
-0.0053088000000001,0.0005224000000012,-0.0068323999999999,-0.0044145999999995,0.0042052000000009,0.0012826000000001,0,sub_5
-0.0066274000000002,-0.0006039999999987,-0.0067579999999999,-0.0048509999999995,0.0031372000000009,0.0023490000000001,0,sub_5
-0.0071972000000002,-0.0021381999999987,-0.0061173999999999,-0.0040097999999995,0.0016366000000009,0.0032252000000001,0,sub_5
-0.0071304000000002,-0.0030521999999987,-0.0054181999999999,-0.0029495999999995,0.0007770000000009,0.0034612,0,sub_5
-0.0068802000000002,-0.0029263999999987,-0.0044029999999999,0.0002482000000004,0.0003378000000009,0.0032844,0,sub_5
-0.0064952000000002,-0.0028311999999987,-0.0041715999999999,0.0038748000000004,0.0005354000000009,0.0033234,0,sub_5
-0.0055256000000001,-0.0029467999999987,-0.0037661999999999,0.0068630000000003,0.0013734000000009,0.0035708,0,sub_5
-0.0041462000000001,-0.0023297999999987,-0.0034169999999999,0.0096358000000003,0.0022118000000009,0.0046574,0,sub_5
-0.0036642000000001,-0.0023157999999987,-0.0034957999999999,0.0134746000000003,0.0045308000000009,0.0074588000000001,0,sub_5
-0.0039968000000001,-0.0032499999999987,-0.0044183999999998,0.0155948000000004,0.0064212000000009,0.012385,0,sub_5
-0.0052466000000001,-0.0047219999999987,-0.0029907999999998,0.0168382000000004,0.0061854000000009,0.0175374,0,sub_5
-0.0089618000000001,-0.0059675999999987,-0.0003225999999998,0.0180884000000004,0.0072286000000009,0.0224746,0,sub_5
-0.0124516000000001,-0.0059795999999987,8.100000000011433e-05,0.0176574000000004,0.0112716000000009,0.0246188,0,sub_5
-0.0128642000000002,-0.0028603999999987,-0.0011863999999998,0.0138212000000003,0.0134244000000009,0.0228958,0,sub_5
-0.0106408000000002,0.0015792000000012,-0.0021329999999999,0.0102050000000003,0.0130360000000009,0.0171184,0,sub_5
-0.0074950000000002,0.0072140000000012,-0.0046267999999998,0.0074724000000003,0.0160530000000009,0.0108998000000001,0,sub_5
-0.0026256000000002,0.0116718000000011,-0.0093391999999998,0.0021756000000003,0.0188636000000009,0.0053044000000001,0,sub_5
0.0010181999999998,0.0133078000000011,-0.0120767999999998,-0.0027213999999996,0.0174046000000008,0.0014264000000001,0,sub_5
0.0010027999999998,0.0126616000000011,-0.0119547999999998,-0.0057173999999995,0.0155016000000008,-7.03999999999001e-05,0,sub_5
-0.0029720000000001,0.0097664000000011,-0.0109165999999998,-0.0095571999999995,0.0150954000000008,-0.0022159999999998,0,sub_5
-0.0074404000000001,0.0068646000000011,-0.0096797999999998,-0.0146735999999995,0.0121506000000008,-0.0077855999999998,0,sub_5
-0.0090194000000001,0.0037956000000012,-0.0098655999999998,-0.0180637999999995,0.0075192000000009,-0.0193229999999999,0,sub_5
-0.0081350000000002,0.0027302000000012,-0.0108181999999998,-0.0227369999999995,0.0007678000000009,-0.0323621999999999,0,sub_5
-0.0041914000000002,0.0044812000000012,-0.0123547999999998,-0.0291217999999995,-0.008319999999999,-0.0452137999999998,0,sub_5
0.0009947999999997,0.0067056000000012,-0.0118623999999998,-0.0395693999999995,-0.017401399999999,-0.0561709999999998,0,sub_5
0.0072171999999997,0.0074530000000012,-0.0110629999999999,-0.0512979999999995,-0.023508199999999,-0.0639363999999998,0,sub_5
0.0124327999999997,0.0084734000000012,-0.0091731999999999,-0.0637047999999995,-0.028782799999999,-0.0661381999999998,0,sub_5
0.0167951999999997,0.0077220000000012,-0.0063803999999999,-0.0752417999999995,-0.028952999999999,-0.0668449999999998,0,sub_5
0.0181367999999997,0.0044958000000012,-0.0019621999999999,-0.0816195999999995,-0.022104399999999,-0.0690201999999998,0,sub_5
0.0160793999999997,0.0041058000000012,-4.819999999990561e-05,-0.0817777999999995,-0.009731999999999,-0.0726543999999998,0,sub_5
0.0140391999999997,0.0051836000000012,0.0008416,-0.0836133999999995,0.0050070000000009,-0.0805763999999998,0,sub_5
0.0099917999999997,0.0052700000000012,-0.0021485999999999,-0.0867017999999995,0.0199720000000009,-0.0906583999999998,0,sub_5
0.0030855999999997,0.0061640000000012,-0.0046861999999999,-0.0893777999999995,0.0308908000000009,-0.1015867999999999,0,sub_5
-0.0043884000000002,0.0058156000000012,-0.0075111999999999,-0.0972033999999995,0.0356480000000009,-0.1123297999999998,0,sub_5
-0.0086020000000002,0.0034060000000012,-0.0098831999999999,-0.1086919999999995,0.0344448000000009,-0.1211679999999998,0,sub_5
-0.0151492000000001,-0.0011123999999987,-0.0124343999999999,-0.1189583999999995,0.0268232000000009,-0.1254943999999999,0,sub_5
-0.0208888000000001,-0.0031175999999987,-0.0107973999999999,-0.1271177999999995,0.0155630000000009,-0.1274513999999999,0,sub_5
-0.0246924000000001,-0.0040633999999987,-0.0110173999999999,-0.1323101999999995,0.0010916000000009,-0.1281017999999999,0,sub_5
-0.0265138000000001,-0.0034963999999987,-0.0111923999999999,-0.1336829999999995,-0.017019399999999,-0.1276525999999998,0,sub_5
-0.0270692000000001,-0.0023941999999987,-0.0126997999999998,-0.1331363999999995,-0.035774599999999,-0.1276163999999999,0,sub_5
-0.0244682000000001,-0.0001877999999987,-0.0142569999999998,-0.1312877999999995,-0.051547999999999,-0.1273695999999999,0,sub_5
-0.0211368000000001,0.0027502000000012,-0.0145739999999998,-0.1255985999999995,-0.069456799999999,-0.1292297999999999,0,sub_5
-0.0153094000000002,0.0047968000000012,-0.0111823999999998,-0.1183793999999995,-0.082670199999999,-0.1345035999999999,0,sub_5
-0.0082704000000002,0.0062020000000011,-0.0076677999999998,-0.1141227999999995,-0.085866799999999,-0.1415373999999999,0,sub_5
-0.0014288000000002,0.0068586000000011,-0.0058709999999999,-0.1141305999999995,-0.087772799999999,-0.1479617999999999,0,sub_5
0.0060475999999997,0.0072752000000011,-0.0029443999999999,-0.1151861999999995,-0.087960399999999,-0.1569593999999999,0,sub_5
0.0145501999999997,0.0045456000000012,0.0013582,-0.1170253999999995,-0.074714199999999,-0.1681159999999998,0,sub_5
0.0155865999999997,-0.0020093999999987,0.0052622,-0.1174071999999995,-0.062566599999999,-0.1722107999999999,0,sub_5
0.0110051999999997,-0.0089493999999987,0.0075852,-0.1180281999999995,-0.053634999999999,-0.1675263999999999,0,sub_5
0.0055583999999998,-0.0140171999999987,0.0070786000000001,-0.1167143999999995,-0.037694599999999,-0.1589917999999999,0,sub_5
-0.0004960000000001,-0.0181219999999987,0.0066968000000001,-0.1128803999999995,-0.028164999999999,-0.1478677999999998,0,sub_5
-0.0093852000000001,-0.0206403999999987,0.0056746000000001,-0.1099515999999995,-0.024407799999999,-0.1309741999999998,0,sub_5
-0.0144454000000001,-0.0192295999999987,0.0015174000000001,-0.1067653999999995,-0.014670399999999,-0.1179319999999998,0,sub_5
-0.0189088000000001,-0.0177627999999987,-0.0021127999999998,-0.0937639999999995,-0.012606599999999,-0.1125025999999998,0,sub_5
-0.0228180000000001,-0.0162425999999987,-0.0013257999999998,-0.0775917999999995,-0.017583199999999,-0.1074693999999998,0,sub_5
-0.0225022000000001,-0.0073785999999987,-0.0066505999999998,-0.0637465999999995,-0.017652999999999,-0.1020313999999998,0,sub_5
-0.0174948000000002,0.0014998000000012,-0.0115469999999998,-0.0443757999999995,-0.026886399999999,-0.1008161999999998,0,sub_5
-0.0107122000000002,0.0099310000000012,-0.0140539999999998,-0.0280113999999995,-0.042916799999999,-0.1021769999999998,0,sub_5
0.0001529999999997,0.0133550000000012,-0.0139187999999999,-0.0250577999999995,-0.049959799999999,-0.1017201999999998,0,sub_5
0.0092841999999997,0.0108248000000012,-0.0120427999999999,-0.0229413999999995,-0.052316799999999,-0.1002069999999998,0,sub_5
0.0131745999999997,5.000000000124627e-05,-0.0050213999999999,-0.0133817999999995,-0.055358599999999,-0.0937269999999998,0,sub_5
0.0126829999999997,-0.0092233999999987,0.0010208,-0.0067585999999995,-0.040307799999999,-0.0804539999999998,0,sub_5
0.0105981999999997,-0.0155949999999987,0.005232,-0.0022701999999995,-0.018672199999999,-0.0603677999999998,0,sub_5
0.0071751999999997,-0.0172541999999987,0.0042848,0.0043512000000004,0.0044406000000009,-0.0385593999999999,0,sub_5
0.0029155999999997,-0.0152285999999987,-0.0013021999999999,0.0105304000000004,0.0228728000000009,-0.0180299999999999,0,sub_5
-0.0055990000000002,-0.0105997999999987,-0.0056983999999999,0.0115886000000004,0.0379276000000009,-0.0009503999999999,0,sub_5
-0.0147322000000002,-0.0066607999999987,-0.0103851999999999,0.0076972000000004,0.0383202000000009,0.0107724,0,sub_5
-0.0194268000000002,-0.0061061999999987,-0.0152535999999998,0.0023084000000004,0.0325608000000009,0.0171516,0,sub_5
-0.0199482000000001,-0.0044429999999987,-0.0191983999999998,-0.0065347999999995,0.0163798000000009,0.0220244,0,sub_5
-0.0192618000000001,-0.0025019999999987,-0.0176687999999998,-0.0154143999999995,-0.011928999999999,0.0228534,0,sub_5
-0.0121088000000001,-0.0044409999999987,-0.0136901999999998,-0.0255425999999995,-0.036597799999999,0.0202506,0,sub_5
-0.0028572000000001,-0.0051607999999987,-0.0084755999999999,-0.0330729999999995,-0.050844599999999,0.019789,0,sub_5
0.0053905999999998,-0.0035945999999987,-0.0023823999999999,-0.0379969999999995,-0.054024999999999,0.0201858,0,sub_5
0.0100163999999997,-2.9799999998732923e-05,0.0012934000000001,-0.0396713999999995,-0.048260599999999,0.0186712,0,sub_5
0.0139799999999997,0.0054430000000012,0.0026318000000001,-0.0368103999999995,-0.032489999999999,0.015039,0,sub_5
0.0159941999999997,0.0118042000000012,0.0012264000000001,-0.0294185999999995,-0.010536799999999,0.0065166000000001,0,sub_5
0.0140685999999998,0.0150200000000012,-0.0023477999999998,-0.0241855999999995,0.0020650000000009,-0.0058543999999999,0,sub_5
0.0104179999999998,0.0138800000000012,-0.0091307999999998,-0.0222123999999995,0.0004076000000009,-0.0192979999999998,0,sub_5
0.0061489999999998,0.0097342000000012,-0.0126751999999998,-0.0166387999999995,-0.007015799999999,-0.0324953999999998,0,sub_5
0.0013895999999998,0.0007458000000012,-0.0118673999999998,-0.0123395999999995,-0.010185599999999,-0.0427161999999998,0,sub_5
-0.0059758000000001,-0.0036455999999987,-0.0101375999999998,-0.0155757999999995,-0.019967199999999,-0.0446489999999998,0,sub_5
-0.0077610000000002,-0.0069317999999987,-0.0108423999999999,-0.0269343999999995,-0.029308799999999,-0.0430071999999998,0,sub_5
-0.0090722000000002,-0.0091989999999987,-0.0117097999999999,-0.0376691999999995,-0.035908599999999,-0.0349551999999998,0,sub_5
-0.0135708000000002,-0.0096559999999987,-0.0065243999999999,-0.0493951999999995,-0.025885799999999,-0.0271451999999998,0,sub_5
-0.0150334000000002,-0.0053577999999987,-0.0041945999999999,-0.0705487999999995,-0.022018799999999,-0.0168293999999999,0,sub_5
-0.0125756000000002,-0.0079275999999987,-0.0044147999999998,-0.0906929999999995,-0.028392399999999,-0.0039295999999999,0,sub_5
-0.0106014000000002,-0.0110581999999987,-0.0026829999999998,-0.0997245999999995,-0.028635599999999,0.01139,0,sub_5
-0.0102648000000002,-0.0101763999999987,0.0007656,-0.1022697999999995,-0.014819999999999,0.021823,0,sub_5
-0.0064586000000002,-0.0046835999999987,0.0002534000000001,-0.0997275999999995,-0.009115599999999,0.031661,0,sub_5
-0.0015606000000002,-0.0003185999999987,-0.0026579999999998,-0.0914031999999995,-0.003880199999999,0.0413190000000001,0,sub_5
0.0013285999999997,0.0090608000000012,-0.0065287999999998,-0.0772937999999995,0.0017808000000008,0.0461030000000001,0,sub_5
0.0003339999999997,0.0177564000000012,-0.0088195999999998,-0.0588851999999995,0.0049086000000008,0.0413062000000001,0,sub_5
-0.0018322000000002,0.0205428000000012,-0.0093369999999998,-0.0442991999999995,0.0044586000000009,0.0287962000000001,0,sub_5
-0.0035060000000002,0.0131354000000012,-0.0092535999999999,-0.0372079999999995,-0.004689599999999,0.0134676000000001,0,sub_5
-0.0052382000000002,0.0029390000000012,-0.0073495999999999,-0.0307761999999995,-0.014658199999999,-0.0033525999999998,0,sub_5
-0.0077266000000002,-0.0098377999999987,-0.0039831999999999,-0.0283407999999995,-0.010131799999999,-0.0185101999999998,0,sub_5
-0.0081400000000002,-0.0205403999999987,-0.0004917999999999,-0.0329803999999995,-0.003276399999999,-0.0238923999999998,0,sub_5
-0.0060044000000001,-0.0258967999999987,0.0027466,-0.0398523999999995,-0.004564999999999,-0.0153929999999998,0,sub_5
-0.0047948000000001,-0.0236903999999987,0.0018244,-0.0426645999999995,0.0030498000000008,0.0008146000000001,0,sub_5
-0.0044226000000001,-0.0178061999999987,0.0005508,-0.0416177999999995,0.0176702000000009,0.0200310000000001,0,sub_5
-0.0040810000000001,-0.0083653999999987,-0.0023207999999999,-0.0395541999999995,0.0216324000000009,0.0396956000000001,0,sub_5
-0.0023396000000001,0.0020760000000012,-0.0060627999999999,-0.0373039999999995,0.0153842000000009,0.0551016000000001,0,sub_5
-0.0016374000000001,0.0092194000000012,-0.0109233999999999,-0.0294301999999995,0.0142768000000009,0.0587900000000001,0,sub_5
-0.0003576000000001,0.0114210000000012,-0.0091843999999999,-0.0207057999999995,0.0057370000000009,0.0556572,0,sub_5
0.0015715999999997,0.0104560000000012,-0.0086807999999999,-0.0140873999999995,-0.002982999999999,0.0461006000000001,0,sub_5
0.0040387999999997,0.0065198000000012,-0.0067639999999999,-0.0078573999999995,-0.006150199999999,0.0335432000000001,0,sub_5
0.0022643999999997,0.0028992000000012,-0.0062539999999999,-0.0007527999999995,-0.004208799999999,0.0214126000000001,0,sub_5
0.0011407999999997,0.0026278000000012,-0.0034919999999999,0.0024640000000004,-0.008873799999999,0.0131090000000001,0,sub_5
-0.0003952000000002,0.0037890000000012,-0.0049311999999999,-0.0009297999999995,-0.011178199999999,0.0062516000000001,0,sub_5
-0.0033200000000002,0.0055630000000012,-0.0072075999999999,-0.0115907999999995,-0.012407399999999,0.0031878,0,sub_5
