userAcceleration.x,userAcceleration.y,userAcceleration.z,rotationRate.x,rotationRate.y,rotationRate.z,label,subject
0.0215501999999997,0.0201952000000012,0.0231008,0.0707138000000003,0.0167372000000008,-0.0149045999999998,0,sub_18
0.0209775999999997,0.0188854000000012,0.0165254,0.0818628000000003,0.0360564000000008,-0.0073739999999998,0,sub_18
0.0243279999999997,0.0222506000000012,0.0129656,0.0844568000000003,0.0509314000000008,0.0001026000000001,0,sub_18
0.0296859999999997,0.0237460000000012,0.0119238,0.0895894000000003,0.0600484000000008,0.0067498,0,sub_18
0.0318297999999997,0.0226100000000012,0.011231,0.0934196000000003,0.0640574000000008,0.0131808,0,sub_18
0.0316363999999997,0.0253950000000012,0.0108096,0.0950730000000003,0.0582742000000009,0.0193954,0,sub_18
0.0329777999999997,0.0243664000000012,0.0145816,0.1009938000000003,0.0516274000000008,0.0247864,0,sub_18
0.0321737999999998,0.0189740000000012,0.0197102,0.1143922000000003,0.0487826000000008,0.031934,0,sub_18
0.0332499999999998,0.0188838000000012,0.021922,0.1179934000000003,0.0468242000000008,0.0388046,0,sub_18
0.0372617999999997,0.0198894000000012,0.0232992,0.1175578000000003,0.0470174000000008,0.0439352,0,sub_18
0.0413313999999997,0.0164910000000012,0.0247532,0.1184398000000003,0.0519078000000008,0.045437,0,sub_18
0.0434345999999997,0.0138210000000012,0.0195938,0.1161068000000003,0.0495816000000008,0.0428664,0,sub_18
0.0465587999999997,0.0107910000000012,0.0101322,0.1020010000000003,0.0368654000000008,0.0380904,0,sub_18
0.0461263999999997,0.0086152000000012,0.0019206,0.0840326000000003,0.0199120000000008,0.0309364,0,sub_18
0.0426329999999997,0.0073162000000012,-0.0027693999999999,0.0671512000000003,0.0055190000000008,0.0218638,0,sub_18
0.0388855999999997,0.0101024000000012,-0.0054235999999999,0.0475114000000003,-0.0058797999999991,0.0123408,0,sub_18
0.0372235999999998,0.0153666000000012,-0.0018595999999999,0.0285250000000003,-0.011751599999999,0.005379,0,sub_18
0.0349281999999998,0.0218066000000012,0.0088298,0.0176880000000003,-0.006580599999999,0.0003828,0,sub_18
0.0319639999999998,0.0293550000000012,0.022246,0.0175532000000003,0.0072830000000009,-0.0032679999999999,0,sub_18
0.0312501999999998,0.0380388000000012,0.0343564,0.0246578000000003,0.0206834000000009,-0.0038765999999999,0,sub_18
0.0304885999999998,0.0452644000000012,0.046691,0.0449732000000003,0.0357188000000009,0.0013736,0,sub_18
0.0308515999999998,0.0483228000000012,0.0543986,0.0748752000000003,0.0511314000000008,0.0105358,0,sub_18
0.0312915999999998,0.0517974000000012,0.055135,0.1062112000000003,0.0554514000000008,0.0218586,0,sub_18
0.0335375999999998,0.0466732000000012,0.0478002,0.1344910000000003,0.0461398000000009,0.0348868,0,sub_18
0.0351749999999998,0.0359234000000012,0.0347008,0.1589100000000003,0.0289722000000009,0.0444798,0,sub_18
0.0424975999999998,0.0155002000000012,0.0129774000000001,0.1643264000000003,0.0014622000000009,0.046262,0,sub_18
0.0477517999999998,0.0018332000000012,-0.0105179999999999,0.1473366000000003,-0.034883599999999,0.0393532,0,sub_18
0.0511901999999997,-0.0080595999999987,-0.0299371999999999,0.1165170000000003,-0.069872799999999,0.0248686,0,sub_18
0.0515539999999997,-0.0121301999999987,-0.0393117999999999,0.0793796000000003,-0.089911399999999,0.0066888,0,sub_18
0.0498097999999997,-0.0107773999999987,-0.0373993999999999,0.0348384000000003,-0.092254199999999,-0.0081471999999999,0,sub_18
0.0418257999999997,0.0050002000000012,-0.0221975999999999,-0.0090031999999996,-0.074175199999999,-0.0157405999999999,0,sub_18
0.0309361999999997,0.0216400000000012,0.0029248,-0.0387169999999996,-0.039978199999999,-0.0170601999999999,0,sub_18
0.0211311999999997,0.0359090000000012,0.0344732,-0.0477011999999996,0.0071198000000008,-0.0124831999999999,0,sub_18
0.0160907999999997,0.0488664000000012,0.0613136,-0.0394251999999996,0.0515906000000008,-0.0052185999999999,0,sub_18
0.0166399999999997,0.0585304000000012,0.0763074,-0.0158679999999996,0.0783226000000009,0.002603,0,sub_18
0.0199191999999997,0.0602050000000012,0.0756928,0.0203842000000003,0.0809358000000008,0.0103306,0,sub_18
0.0265735999999997,0.0516290000000012,0.0633076,0.0623120000000003,0.0641428000000008,0.0176954,0,sub_18
0.0338777999999997,0.0337828000000012,0.039558,0.0982204000000003,0.0343862000000009,0.0220436,0,sub_18
0.0408005999999997,0.0133780000000012,0.0089106,0.1157404000000003,-0.005525999999999,0.0245672,0,sub_18
0.0459977999999997,0.0005648000000012,-0.0169733999999999,0.1087582000000003,-0.038105999999999,0.0262692,0,sub_18
0.0486325999999997,-0.0025359999999987,-0.0306207999999999,0.0873864000000003,-0.047823399999999,0.0239958,0,sub_18
0.0480185999999997,0.0026080000000012,-0.0330247999999999,0.0599400000000003,-0.035774199999999,0.0182338,0,sub_18
0.0452067999999997,0.0136106000000012,-0.0185255999999999,0.0321350000000003,-0.0075355999999991,0.013517,0,sub_18
0.0398893999999998,0.0269746000000012,0.010004,0.0122814000000003,0.0340942000000008,0.0096932,0,sub_18
0.0335077999999998,0.0377420000000012,0.0346532,0.0064976000000003,0.0731174000000008,0.0061846,0,sub_18
0.0303853999999998,0.0386026000000012,0.0487422,0.0115058000000003,0.0941976000000009,0.0049108,0,sub_18
0.0297849999999998,0.0324058000000012,0.0550702,0.0217688000000003,0.0986368000000008,0.0047632,0,sub_18
0.0316511999999998,0.0237388000000012,0.048261,0.0311350000000003,0.0896720000000008,0.0007808,0,sub_18
0.0372521999999998,0.0169886000000012,0.025838,0.0272272000000003,0.0703156000000008,-0.0037083999999999,0,sub_18
0.0419557999999998,0.0124288000000012,0.003863,0.0229014000000003,0.0537268000000008,-0.0073493999999999,0,sub_18
0.0447815999999998,0.0127518000000012,-0.0098357999999999,0.0196912000000003,0.0496976000000008,-0.0092895999999999,0,sub_18
0.0433945999999998,0.0176788000000012,-0.0121461999999999,0.0165040000000003,0.0537526000000009,-0.0082487999999999,0,sub_18
0.0395853999999997,0.0253560000000012,-0.0093901999999999,0.0169338000000003,0.0618172000000008,-0.0007785999999999,0,sub_18
0.0304099999999997,0.0324796000000012,0.0078754,0.0250314000000003,0.0689944000000008,0.0088828,0,sub_18
0.0257771999999997,0.0375552000000012,0.0261218,0.0358874000000003,0.0708432000000008,0.0166476,0,sub_18
0.0216981999999997,0.0396358000000012,0.0416288,0.0482304000000003,0.0665270000000008,0.0197304,0,sub_18
0.0236029999999997,0.0334940000000012,0.0456094,0.0599200000000003,0.0556228000000008,0.019185,0,sub_18
0.0291607999999998,0.0264930000000012,0.0439358,0.0684226000000003,0.0398440000000008,0.0145846,0,sub_18
0.0413647999999998,0.0231034000000012,0.0306696,0.0766898000000003,0.0202266000000008,0.0110558,0,sub_18
0.0514069999999998,0.0212448000000012,0.0163888,0.0834490000000003,-0.0017325999999991,0.0083738,0,sub_18
0.0572947999999998,0.0205324000000012,0.0061736,0.0887242000000003,-0.0207071999999991,0.0065324,0,sub_18
0.0542925999999997,0.0271628000000012,0.0018594,0.0865494000000003,-0.0324245999999991,0.0078342,0,sub_18
0.0478685999999997,0.0342664000000012,0.0015064,0.0762604000000003,-0.0387965999999991,0.0118298,0,sub_18
0.0364929999999997,0.0380560000000012,0.0113606,0.0690248000000003,-0.0321759999999991,0.0141208,0,sub_18
0.0249319999999997,0.0364562000000012,0.0246378,0.0597036000000003,-0.0153195999999991,0.015957,0,sub_18
0.0185111999999997,0.0326916000000012,0.0363258,0.0468150000000003,-0.0035179999999991,0.018878,0,sub_18
0.0205985999999998,0.0256368000000012,0.0392212,0.0366618000000003,-0.0051289999999991,0.0169216,0,sub_18
0.0246833999999998,0.0204908000000012,0.033968,0.0318170000000003,-0.017391599999999,0.010102,0,sub_18
0.0308275999999998,0.0162168000000012,0.0203126,0.0310080000000003,-0.0347773999999991,0.002249,0,sub_18
0.0356433999999998,0.0149022000000012,0.0078702,0.0338168000000003,-0.051547799999999,-0.0028021999999999,0,sub_18
0.0373781999999998,0.0176534000000012,-0.0023211999999999,0.0395528000000003,-0.058380599999999,-0.0040351999999999,0,sub_18
0.0361411999999998,0.0233596000000012,-0.0038319999999999,0.0446958000000003,-0.048193399999999,0.0013288,0,sub_18
0.0342805999999998,0.0297186000000012,0.0069896,0.0452080000000003,-0.019896399999999,0.0106964,0,sub_18
0.0317999999999998,0.0347222000000012,0.02265,0.0395506000000003,0.0126824000000008,0.0202292,0,sub_18
0.0320131999999998,0.0346552000000012,0.0341512,0.0315124000000003,0.0363272000000008,0.0282612,0,sub_18
0.0342413999999998,0.0302780000000012,0.0398226,0.0221442000000003,0.0435928000000008,0.0309638,0,sub_18
0.0382687999999997,0.0249354000000012,0.0351764,0.0152914000000003,0.0344700000000008,0.0272956,0,sub_18
0.0439507999999997,0.0193236000000012,0.0210242,0.0139152000000003,0.0087130000000008,0.0228326,0,sub_18
0.0488273999999997,0.0137850000000012,0.0062686,0.0178504000000003,-0.0209027999999991,0.0196934,0,sub_18
0.0492537999999997,0.0137896000000012,-0.0040541999999999,0.0205466000000003,-0.0411405999999991,0.0167472,0,sub_18
0.0473595999999997,0.0176726000000012,-0.0074903999999999,0.0207446000000003,-0.0443379999999991,0.0169664,0,sub_18
0.0425623999999997,0.0238946000000012,0.0015766,0.0169528000000003,-0.0294269999999991,0.0209802,0,sub_18
0.0358039999999997,0.0285180000000012,0.0153976,0.0106466000000003,-0.0042805999999991,0.0249632,0,sub_18
0.0310051999999997,0.0295206000000012,0.0276208,0.0028390000000003,0.0159836000000008,0.0257372,0,sub_18
0.0288983999999997,0.0268640000000012,0.0343224,-0.0033045999999996,0.0226226000000008,0.0224812,0,sub_18
0.0293711999999997,0.0235988000000012,0.0343544,-0.0090541999999996,0.0171356000000008,0.0143296,0,sub_18
0.0322379999999998,0.0205280000000012,0.0245158,-0.0122787999999996,0.0020592000000008,0.0044986,0,sub_18
0.0364231999999998,0.0179818000000012,0.0129304,-0.0112551999999996,-0.0151711999999991,-0.0031633999999999,0,sub_18
0.0382377999999998,0.0176288000000012,0.0042756,-0.0104237999999996,-0.0241061999999991,-0.0072053999999999,0,sub_18
0.0374789999999998,0.0184356000000012,-0.0002063999999999,-0.0125469999999996,-0.0219673999999991,-0.0074367999999999,0,sub_18
0.0349293999999998,0.0197790000000012,0.0003452,-0.0172141999999996,-0.0125901999999991,-0.0040631999999999,0,sub_18
0.0325577999999998,0.0224232000000012,0.0067816,-0.0227129999999996,0.0019022000000008,-0.0004881999999999,0,sub_18
0.0296831999999998,0.0249392000000012,0.013752,-0.0279905999999996,0.0161886000000009,0.0011658,0,sub_18
0.0305595999999998,0.0260654000000012,0.0193874,-0.0317975999999996,0.0234468000000008,0.0009162,0,sub_18
0.0328317999999998,0.0278110000000012,0.0242864,-0.0328509999999996,0.0247358000000008,-0.0008017999999999,0,sub_18
0.0362927999999998,0.0298710000000012,0.0253352,-0.0302915999999996,0.0219674000000008,-0.0033439999999999,0,sub_18
0.0390821999999997,0.0290616000000012,0.0243938,-0.0247629999999996,0.0153528000000008,-0.0056469999999999,0,sub_18
0.0412073999999998,0.0276006000000012,0.0220536,-0.0198841999999996,0.0072464000000008,-0.0073117999999999,0,sub_18
0.0403409999999997,0.0274080000000012,0.0191028,-0.0167085999999996,0.0012714000000008,-0.0077091999999999,0,sub_18
0.0380413999999997,0.0267124000000012,0.0165112,-0.0148035999999996,-0.0006587999999991,-0.0061979999999999,0,sub_18
0.0355809999999997,0.0254752000000012,0.0156782,-0.0128899999999996,-3.4999999999120804e-05,-0.0040489999999999,0,sub_18
0.0331285999999997,0.0252798000000012,0.0154898,-0.0116173999999996,0.0010146000000008,-0.0012639999999999,0,sub_18
0.0321361999999997,0.0246794000000012,0.016773,-0.0107725999999996,0.0016406000000008,0.0013048,0,sub_18
0.0311957999999997,0.0243692000000012,0.0184294,-0.0082207999999996,0.0018362000000008,0.0034588,0,sub_18
0.0324259999999997,0.0252166000000012,0.0192694,-0.0045983999999996,0.0018192000000008,0.0045524,0,sub_18
0.0341433999999997,0.0249884000000012,0.0206102,-0.0007651999999996,0.0017990000000008,0.0062884,0,sub_18
0.0363991999999997,0.0243572000000012,0.0211628,0.0032898000000003,0.0024224000000008,0.0067432,0,sub_18
0.0368421999999997,0.0251554000000012,0.0204868,0.0069220000000003,0.0041116000000008,0.0074074,0,sub_18
0.0371927999999997,0.0258482000000012,0.0193064,0.0090484000000003,0.0074936000000009,0.0082746,0,sub_18
0.0363159999999997,0.0251576000000012,0.0184238,0.0105348000000003,0.0106656000000009,0.0089238,0,sub_18
0.0355483999999998,0.0243402000000012,0.0167698,0.0111570000000003,0.0108604000000008,0.0089298,0,sub_18
0.0349279999999998,0.0235828000000012,0.0144136,0.0100646000000003,0.0097812000000008,0.009353,0,sub_18
0.0356339999999997,0.0221688000000012,0.0127664,0.0079034000000003,0.0076430000000008,0.009129,0,sub_18
0.0360401999999997,0.0214630000000012,0.0124498,0.0061916000000003,0.0055226000000008,0.0080516,0,sub_18
0.0372539999999997,0.0211022000000012,0.0126016,0.0038416000000003,0.0029818000000008,0.0061158,0,sub_18
0.0374621999999997,0.0216672000000012,0.0128262,0.0021366000000003,0.0010798000000008,0.0037562000000001,0,sub_18
0.0370955999999997,0.0225326000000012,0.0142454,0.0012668000000003,-0.0002053999999991,0.0017394000000001,0,sub_18
0.0361829999999997,0.0232292000000012,0.0159662,0.0018982000000003,-3.599999999100807e-06,-0.0004821999999998,0,sub_18
0.0359759999999997,0.0232864000000012,0.0168476,0.0025270000000003,-0.0004409999999991,-0.0027031999999998,0,sub_18
0.0352333999999998,0.0242842000000012,0.0178176,0.0037910000000003,-0.0017335999999991,-0.0047049999999998,0,sub_18
0.0353985999999998,0.0245216000000012,0.0181998,0.0050596000000003,-0.0023853999999991,-0.0071345999999998,0,sub_18
0.0360135999999998,0.0248716000000012,0.0183424,0.0069962000000002,-0.0011045999999991,-0.0094727999999998,0,sub_18
0.0367059999999998,0.0251638000000012,0.0181944,0.0093644000000002,0.0016646000000008,-0.0113825999999998,0,sub_18
0.0368467999999998,0.0250854000000012,0.0177708,0.0123754000000002,0.0050708000000009,-0.0132885999999999,0,sub_18
0.0384313999999998,0.0243668000000012,0.0176558,0.0152694000000003,0.0103786000000009,-0.0141909999999999,0,sub_18
0.0397709999999998,0.0239222000000012,0.0179794,0.0177300000000003,0.0161062000000008,-0.0131743999999999,0,sub_18
0.0399845999999997,0.0235730000000012,0.0180604,0.0201762000000003,0.0192748000000009,-0.0115133999999999,0,sub_18
0.0399667999999997,0.0229466000000012,0.0173532,0.0204782000000003,0.0201072000000009,-0.0098643999999999,0,sub_18
0.0394073999999997,0.0219020000000012,0.0171424,0.0186408000000003,0.0200932000000009,-0.0078021999999999,0,sub_18
0.0376555999999997,0.0219454000000012,0.0161996,0.0164974000000003,0.0194556000000009,-0.0063207999999999,0,sub_18
0.0360315999999997,0.0225366000000012,0.0150598,0.0150048000000003,0.0200984000000008,-0.0059045999999999,0,sub_18
0.0354555999999997,0.0219430000000012,0.014536,0.0135170000000003,0.0215942000000008,-0.0057031999999999,0,sub_18
0.0357313999999997,0.0216498000000012,0.014894,0.0122050000000003,0.0228494000000008,-0.0053205999999999,0,sub_18
0.0362463999999997,0.0223738000000012,0.0148938,0.0102480000000003,0.0228292000000008,-0.0051543999999998,0,sub_18
0.0367799999999997,0.0226878000000012,0.0151658,0.0082854000000003,0.0217430000000008,-0.0047733999999998,0,sub_18
0.0364147999999997,0.0229054000000012,0.0162076,0.0061054000000003,0.0198054000000008,-0.0043927999999998,0,sub_18
0.0361635999999997,0.0236340000000012,0.0169614,0.0019956000000003,0.0163806000000008,-0.0033827999999998,0,sub_18
0.0353869999999997,0.0242916000000012,0.0176096,-0.0007993999999996,0.0127640000000008,-0.0023293999999998,0,sub_18
0.0350151999999997,0.0246652000000012,0.0171056,-0.0006003999999996,0.0104164000000008,-0.0014703999999999,0,sub_18
0.0346401999999998,0.0244862000000012,0.0171102,0.0004510000000003,0.0080648000000008,-0.0003917999999999,0,sub_18
0.0354081999999998,0.0234292000000012,0.0162524,-1.3799999999644826e-05,0.0054802000000009,0.0006438,0,sub_18
0.0362931999999998,0.0231912000000012,0.0149442,0.0012378000000003,0.0043836000000009,0.0010484,0,sub_18
0.0365007999999998,0.0231388000000012,0.0135564,0.0027096000000003,0.0047778000000008,0.0014526,0,sub_18
0.0370389999999997,0.0234854000000012,0.0136742,0.0009816000000003,0.0064570000000008,0.0029012,0,sub_18
0.0373505999999997,0.0232310000000012,0.0142456,-0.0009499999999996,0.0096310000000008,0.0037054,0,sub_18
0.0369127999999997,0.0228118000000012,0.0152968,-0.0009433999999996,0.0115468000000008,0.0041302,0,sub_18
0.0367415999999997,0.0216860000000012,0.0156528,-0.0011643999999996,0.0098432000000008,0.004131,0,sub_18
0.0374041999999997,0.0208024000000012,0.0157978,-0.0011807999999996,0.0055848000000009,0.0034954000000001,0,sub_18
0.0374283999999998,0.0194088000000012,0.0154682,-0.0007913999999996,0.0008768000000009,0.0021910000000001,0,sub_18
0.0373815999999998,0.0189962000000012,0.0145278,-0.0010449999999996,-0.004467999999999,0.0008830000000001,0,sub_18
0.0374579999999997,0.0199598000000012,0.0129062,-0.0021471999999996,-0.008320199999999,-5.399999999893143e-06,0,sub_18
0.0368189999999997,0.0210458000000012,0.0137734,-0.0030197999999996,-0.008763599999999,-0.0011103999999998,0,sub_18
0.0358077999999997,0.0217510000000012,0.014641,-0.0045333999999996,-0.0081445999999991,-0.0009391999999999,0,sub_18
0.0348643999999997,0.0227628000000012,0.0159656,-0.0041083999999996,-0.008359999999999,-0.0007223999999999,0,sub_18
0.0346261999999997,0.0234638000000012,0.0165672,-0.0028339999999996,-0.0092183999999991,-0.0002849999999999,0,sub_18
0.0344517999999997,0.0239848000000012,0.018317,-0.0004925999999996,-0.010504999999999,-0.0002669999999999,0,sub_18
0.0348019999999998,0.0249472000000012,0.0180718,0.0018198000000003,-0.0101145999999991,0.0006014,0,sub_18
0.0352021999999998,0.0256106000000012,0.018049,0.0041390000000003,-0.0084451999999991,0.0012544,0,sub_18
0.0356601999999998,0.0250082000000012,0.0174758,0.0064610000000003,-0.0061363999999991,0.0019068,0,sub_18
0.0364503999999998,0.0245618000000012,0.0174608,0.0085660000000003,-0.0046793999999991,0.0025588,0,sub_18
0.0369311999999998,0.0237682000000012,0.016014,0.0093886000000003,-0.003219399999999,0.003629,0,sub_18
0.0373051999999998,0.0224512000000012,0.0158114,0.0096000000000003,-0.002797599999999,0.0044844,0,sub_18
0.0379569999999997,0.0210758000000012,0.0151198,0.0093846000000003,-0.003222999999999,0.0044836,0,sub_18
0.0390919999999997,0.0204012000000012,0.0142772,0.0087406000000003,-0.004285199999999,0.0042668,0,sub_18
0.0390299999999997,0.0193566000000012,0.013162,0.0071960000000003,-0.004973199999999,0.0032050000000001,0,sub_18
0.0398629999999997,0.0182432000000012,0.0122918,0.0045866000000003,-0.006080399999999,0.0012816000000001,0,sub_18
0.0401847999999997,0.0167886000000012,0.010529,0.0002722000000003,-0.008028599999999,-0.0019343999999998,0,sub_18
0.0404255999999998,0.0154822000000012,0.0091334,-0.0059625999999996,-0.0095455999999991,-0.0047371999999998,0,sub_18
0.0402829999999998,0.0154392000000012,0.0083636,-0.0130499999999996,-0.011483399999999,-0.0081861999999998,0,sub_18
0.0400887999999998,0.0160768000000012,0.007672,-0.0198701999999996,-0.012725999999999,-0.0112233999999998,0,sub_18
0.0389403999999998,0.0167440000000012,0.0077496,-0.0260455999999996,-0.012056599999999,-0.0134037999999998,0,sub_18
0.0377447999999998,0.0190094000000012,0.0094278,-0.0300861999999996,-0.009271799999999,-0.0136491999999998,0,sub_18
0.0358189999999997,0.0218966000000012,0.0117554,-0.0307537999999996,-0.006565999999999,-0.0138551999999998,0,sub_18
0.0340913999999997,0.0249632000000012,0.013804,-0.0288667999999996,-0.003237599999999,-0.0121213999999998,0,sub_18
0.0331939999999997,0.0262476000000012,0.0191136,-0.0246345999999996,0.0011418000000009,-0.0088771999999998,0,sub_18
0.0323017999999997,0.0283994000000012,0.0227022,-0.0174179999999996,0.0044472000000009,-0.0060379999999998,0,sub_18
0.0322055999999997,0.0304046000000012,0.0238126,-0.0085127999999996,0.0043352000000009,-0.0025415999999998,0,sub_18
0.0334851999999998,0.0316802000000012,0.0245962,0.0012870000000003,0.0059848000000009,0.0026522,0,sub_18
0.0339501999999997,0.0313266000000012,0.0247984,0.0102382000000003,0.0084906000000008,0.0076254,0,sub_18
0.0354267999999997,0.0299518000000012,0.0205874,0.0183244000000003,0.0073818000000008,0.011529,0,sub_18
0.0372919999999997,0.0272400000000012,0.017183,0.0250944000000003,0.0040928000000008,0.0154316,0,sub_18
0.0394087999999997,0.0236156000000012,0.0146838,0.0297470000000003,0.0020990000000009,0.0169676,0,sub_18
0.0409897999999997,0.0198926000000012,0.0110046,0.0314162000000003,-0.001578399999999,0.015921,0,sub_18
0.0431683999999997,0.0165646000000012,0.0078992,0.0303164000000003,-0.005241999999999,0.0137868,0,sub_18
0.0437915999999997,0.0155966000000012,0.0066126,0.0264608000000003,-0.005484599999999,0.0109882,0,sub_18
0.0440979999999997,0.0160038000000012,0.0062604,0.0202912000000003,-0.004810199999999,0.0075258,0,sub_18
0.0431029999999997,0.0155326000000012,0.0064546,0.0134796000000003,-0.004135199999999,0.0044862,0,sub_18
0.0418041999999997,0.0153308000000012,0.0072352,0.0051686000000003,-0.0040967999999991,0.002078,0,sub_18
0.0400855999999997,0.0155018000000012,0.0081806,-0.0016701999999996,-0.005784799999999,-0.0007421999999999,0,sub_18
0.0384995999999997,0.0160150000000012,0.0085866,-0.0083001999999996,-0.0087509999999991,-0.0037729999999999,0,sub_18
0.0368255999999997,0.0164958000000012,0.008508,-0.0144957999999996,-0.009589799999999,-0.0063761999999999,0,sub_18
0.0357105999999997,0.0178068000000012,0.0091712,-0.0196169999999996,-0.0074547999999991,-0.0076937999999999,0,sub_18
0.0342831999999997,0.0195604000000012,0.0105916,-0.0221719999999996,-0.0034137999999991,-0.0083549999999999,0,sub_18
0.0334045999999997,0.0215602000000012,0.0126388,-0.0232195999999996,0.0010630000000008,-0.0081543999999999,0,sub_18
0.0329767999999997,0.0231498000000012,0.0146248,-0.0208619999999996,0.0048838000000008,-0.0066473999999999,0,sub_18
0.0333899999999998,0.0243434000000012,0.0173066,-0.0159543999999996,0.0072008000000008,-0.0042659999999999,0,sub_18
0.0337161999999998,0.0250170000000012,0.018751,-0.0110807999999996,0.0071752000000008,-0.0020991999999999,0,sub_18
0.0357303999999998,0.0255800000000012,0.0185266,-0.0051461999999996,0.0060798000000009,0.00029,0,sub_18
0.0374057999999998,0.0253426000000012,0.0172676,0.0005740000000003,0.0049844000000009,0.0028914,0,sub_18
0.0392445999999998,0.0246458000000012,0.0154908,0.0048064000000003,0.0049602000000009,0.0052674,0,sub_18
