userAcceleration.x,userAcceleration.y,userAcceleration.z,rotationRate.x,rotationRate.y,rotationRate.z,label,subject
-0.0057956000000002,-0.0135195999999987,0.0012488,0.0052624000000004,0.0003258000000009,0.0019524,0,sub_5
-0.0057600000000002,-0.0141865999999987,0.00174,0.0048348000000004,-0.000522399999999,0.0013096,0,sub_5
-0.0053592000000001,-0.0140121999999987,0.0015074,0.0035434000000004,-0.000516199999999,0.0010962,0,sub_5
-0.0049106000000001,-0.0132795999999987,0.00169,0.0020404000000004,-0.000295399999999,0.0006672,0,sub_5
-0.0046748000000001,-0.0126957999999987,0.001947,0.0016034000000004,-0.000291399999999,0.000246,0,sub_5
-0.0048630000000001,-0.0122655999999987,0.0027402,0.0011682000000004,0.0001388000000008,-0.0001757999999999,0,sub_5
-0.0049698000000001,-0.0119809999999987,0.0025208,0.0005196000000004,0.0003576000000008,-0.0008123999999999,0,sub_5
-0.0053876000000002,-0.0127921999999987,0.0019376,0.0005224000000004,0.0005722000000008,-0.0012399999999999,0,sub_5
-0.0055334000000002,-0.0138453999999987,0.0018902,0.0005252000000004,0.0012114000000008,-0.0012407999999999,0,sub_5
-0.0058476000000002,-0.0144073999999987,0.0021088,-0.0003273999999995,0.0020640000000008,-0.0006067999999999,0,sub_5
-0.0063028000000001,-0.0142081999999987,0.002236,-0.0011847999999995,0.0018514000000008,2.84000000000876e-05,0,sub_5
-0.0068022000000001,-0.0141119999999987,0.0020218,-0.0011963999999995,0.0016336000000008,0.0004636,0,sub_5
-0.0065468000000001,-0.0137249999999987,0.0021458,-0.0005667999999995,0.0014146000000008,0.0006896,0,sub_5
-0.0063486000000001,-0.0133871999999987,0.0019428,6.280000000042472e-05,0.0009832000000008,0.0007024,0,sub_5
-0.0062728000000001,-0.0134415999999987,0.0021824,0.0009076000000004,0.0003408000000008,7.580000000008755e-05,0,sub_5
-0.0059426000000002,-0.0135563999999987,0.0022122,0.0011104000000004,-0.000301199999999,-0.0001277999999999,0,sub_5
-0.0055160000000002,-0.0132763999999987,0.0018218,0.0011094000000004,-0.000514199999999,-0.0001275999999999,0,sub_5
-0.0049886000000001,-0.0129437999999987,0.001753,0.0006826000000004,-0.000724999999999,-0.0003437999999999,0,sub_5
-0.0048634000000001,-0.0130013999999987,0.0026602,0.0008860000000004,-0.001154399999999,-0.0003347999999999,0,sub_5
-0.0049118000000001,-0.0131095999999987,0.0024046,0.0010924000000004,-0.000944599999999,-0.0003263999999999,0,sub_5
-0.0049890000000001,-0.0133215999999987,0.0023332,0.0015150000000003,-9.63999999990875e-05,-0.0003175999999999,0,sub_5
-0.0052828000000001,-0.0136363999999987,0.0030456,0.0017204000000003,0.0003246000000009,0.0001178,0,sub_5
-0.0053560000000002,-0.0139655999999987,0.0034212,0.0017134000000003,0.0009596000000009,0.0005512,0,sub_5
-0.0057584000000001,-0.0141053999999987,0.0027924,0.0012876000000003,0.0013864000000009,0.0007612,0,sub_5
-0.0058458000000001,-0.0142643999999987,0.002238,0.0015010000000004,0.0018100000000009,0.0011894,0,sub_5
-0.0057908000000001,-0.0142265999999987,0.0018326,0.0019258000000004,0.0015946000000009,0.0014064,0,sub_5
-0.0049754000000001,-0.0139367999999987,0.0014836,0.0021382000000004,0.0013808000000009,0.001408,0,sub_5
-0.0055564000000001,-0.0139539999999987,0.0021156,0.0021290000000004,0.0005232000000009,0.001199,0,sub_5
-0.0057256000000002,-0.0135133999999987,0.0020588,0.0027658000000004,0.0011540000000009,0.0012064000000001,0,sub_5
-0.0055544000000002,-0.0133981999999987,0.0020404,0.0025480000000004,0.0013624000000009,0.0009946000000001,0,sub_5
-0.0058752000000001,-0.0131677999999987,0.0026596,0.0025446000000004,0.0015710000000009,0.0005706000000001,0,sub_5
-0.0065836000000001,-0.0130051999999987,0.0035398,0.0023270000000004,0.0013552000000009,-6.779999999989247e-05,0,sub_5
-0.0066166000000001,-0.0123715999999987,0.00276,0.0014764000000004,0.0017852000000009,-0.0002879999999999,0,sub_5
-0.0057444000000001,-0.0124669999999987,0.0022466,0.0001980000000004,0.0013670000000009,-0.0011509999999999,0,sub_5
-0.0051756000000001,-0.0120873999999987,0.002649,-0.0008649999999995,0.0011620000000009,-0.0022263999999999,0,sub_5
-0.0047888000000002,-0.0117429999999987,0.0021536,-0.0027919999999995,0.0009552000000009,-0.0035223999999999,0,sub_5
-0.0044822000000001,-0.0114009999999987,0.001525,-0.0047189999999995,0.0011728000000009,-0.0043917999999999,0,sub_5
-0.0040150000000001,-0.0116423999999987,0.0012084,-0.0053657999999995,0.0018104000000009,-0.0048253999999999,0,sub_5
-0.0047916000000001,-0.0119557999999987,0.0007452,-0.0049493999999995,0.0024408000000009,-0.0043969999999999,0,sub_5
-0.0059016000000001,-0.0135345999999987,0.0010166,-0.0030491999999995,0.0019964000000008,-0.0028887999999999,0,sub_5
-0.0065594000000001,-0.0157693999999987,0.0023528,-0.0002867999999995,0.0013398000000008,-0.0009459999999999,0,sub_5
-0.0070334000000001,-0.0179699999999987,0.0034366,0.0026840000000004,0.0002538000000008,0.0016398,0,sub_5
-0.0075646000000001,-0.0195117999999987,0.0053554,0.0056476000000004,-0.0006255999999991,0.0044398,0,sub_5
-0.0080310000000001,-0.0197873999999987,0.0072342,0.0077596000000004,-0.0015001999999991,0.0068064,0,sub_5
-0.0073644000000001,-0.0184625999999987,0.0072936,0.0081782000000004,-0.000871399999999,0.0076638,0,sub_5
-0.0058468000000001,-0.0160725999999987,0.005435,0.0086042000000004,0.0006130000000009,0.0076656,0,sub_5
-0.0047312000000001,-0.0130837999999987,0.0032968,0.0092534000000004,0.0027418000000009,0.0061726,0,sub_5
-0.0041128000000001,-0.0092125999999987,0.000797,0.0088420000000004,0.0033936000000009,0.0033914,0,sub_5
-0.0029460000000001,-0.0069653999999987,-0.0012121999999999,0.0069360000000004,0.0036252000000009,0.0003868,0,sub_5
-0.0025774000000001,-0.0052631999999987,-0.0029583999999999,0.0048108000000004,0.0030036000000009,-0.0021909999999999,0,sub_5
-0.0034182000000001,-0.0054769999999987,-0.0027189999999999,0.0013962000000004,0.0025930000000009,-0.0039223999999998,0,sub_5
-0.0048930000000001,-0.0072017999999987,-0.0010145999999999,-0.0024499999999995,0.0019674000000009,-0.0048019999999998,0,sub_5
-0.0058064000000001,-0.0105657999999987,0.0008206,-0.0056607999999995,0.0013354000000009,-0.0046087999999998,0,sub_5
-0.0068136000000001,-0.0141293999999987,0.002155,-0.0075943999999995,0.0006964000000009,-0.0037657999999998,0,sub_5
-0.0081898000000001,-0.0178199999999987,0.0044208,-0.0082485999999995,0.0004766000000009,-0.0022733999999998,0,sub_5
-0.0088264000000001,-0.0196903999999987,0.0060422,-0.0069787999999995,-0.000173799999999,-0.0005545999999998,0,sub_5
-0.0084316000000002,-0.0201915999999987,0.0058852,-0.0044297999999995,-0.001253799999999,0.0009602000000001,0,sub_5
-0.0077270000000002,-0.0201189999999987,0.004885,-0.0012349999999995,-0.001482199999999,0.0020510000000001,0,sub_5
-0.0068138000000002,-0.0188121999999987,0.0043258,0.0030326000000004,-0.001284799999999,0.0022942,0,sub_5
-0.0056370000000002,-0.0163621999999987,0.003593,0.0070774000000004,-0.001728399999999,0.002322,0,sub_5
-0.0042186000000002,-0.0144519999999987,0.0021842,0.0089932000000004,-0.001735799999999,0.0016936,0,sub_5
-0.0033198000000002,-0.0130709999999987,0.0019698,0.0094162000000004,-0.001524999999999,0.0010544,0,sub_5
-0.0031342000000002,-0.0113101999999987,0.001984,0.0085600000000004,-0.0008845999999991,0.0006194,0,sub_5
-0.0039384000000002,-0.0098563999999987,0.0020814,0.0062092000000004,0.0001846000000008,0.0008142,0,sub_5
-0.0044086000000002,-0.0099941999999987,0.0014416,0.0019504000000004,0.0016926000000008,0.0003552,0,sub_5
-0.0051596000000002,-0.0110481999999987,0.0014408,-0.0016731999999995,0.0021330000000008,-9.799999999991222e-05,0,sub_5
-0.0060590000000002,-0.0116833999999987,0.0009486,-0.0055099999999995,0.0025742000000008,-0.0005525999999999,0,sub_5
-0.0069006000000001,-0.0132867999999987,0.0013366,-0.0099953999999995,0.0023720000000008,-0.0007961999999999,0,sub_5
-0.0069030000000001,-0.0145351999999987,0.0011194,-0.0151217999999995,0.0013224000000008,-0.0016839999999999,0,sub_5
-0.0074600000000001,-0.0147875999999987,0.0005604,-0.0191785999999995,0.0006960000000008,-0.0027785999999999,0,sub_5
-0.0078946000000001,-0.0138423999999987,0.000481,-0.0230189999999995,0.0002836000000008,-0.0042991999999999,0,sub_5
-0.0072508000000001,-0.0134119999999987,0.0003986,-0.0277111999999995,-0.000124199999999,-0.0062531999999999,0,sub_5
-0.0060074000000002,-0.0123567999999987,-0.0005259999999999,-0.0306897999999995,-0.000318199999999,-0.0084101999999999,0,sub_5
-0.0050918000000002,-0.0116579999999987,-0.0012001999999999,-0.0317537999999995,-0.000311999999999,-0.0090585999999999,0,sub_5
-0.0042182000000002,-0.0122671999999987,0.0001362,-0.0304859999999995,-0.001176399999999,-0.0071257999999999,0,sub_5
-0.0039964000000002,-0.0141321999999987,0.0017186,-0.0268755999999995,-0.000993399999999,-0.0041103999999999,0,sub_5
-0.0052892000000002,-0.0173481999999987,0.0033008,-0.0200681999999995,-0.000824999999999,-0.0002179999999999,0,sub_5
-0.0070278000000002,-0.0212165999999987,0.005195,-0.0122093999999995,-0.002159599999999,0.0056064,0,sub_5
-0.0075234000000002,-0.0246343999999987,0.0079596,-0.0020045999999995,-0.003715199999999,0.0114474,0,sub_5
-0.0076562000000002,-0.0272003999999987,0.009047,0.0071410000000004,-0.004835999999999,0.0159986,0,sub_5
-0.0075026000000002,-0.0280395999999987,0.0090596,0.0158596000000004,-0.006378399999999,0.0211888,0,sub_5
-0.0067094000000002,-0.0251467999999987,0.0091322,0.0241552000000004,-0.007279399999999,0.0261616,0,sub_5
-0.0052424000000002,-0.0213031999999987,0.0085546,0.0301258000000004,-0.006454799999999,0.0279114,0,sub_5
-0.0040200000000002,-0.0177093999999987,0.0063914,0.0320472000000004,-0.004335799999999,0.0272784,0,sub_5
-0.0027166000000002,-0.0125221999999987,0.0039144,0.0329084000000004,-0.002206999999999,0.0251426,0,sub_5
-0.0015982000000002,-0.0075291999999987,0.0017442,0.0310062000000004,0.0001530000000009,0.0208508,0,sub_5
-0.0007470000000002,-0.0053021999999987,-0.0008905999999999,0.0263370000000004,0.0025288000000009,0.015044,0,sub_5
-0.0012824000000002,-0.0038927999999987,-0.0028025999999999,0.0203856000000004,0.0051194000000009,0.0098688,0,sub_5
-0.0026526000000002,-0.0027873999999987,-0.0035673999999999,0.0125148000000004,0.0062294000000009,0.0055394,0,sub_5
-0.0049592000000002,-0.0037539999999987,-0.0034343999999999,0.0025064000000004,0.0069190000000009,0.0016230000000001,0,sub_5
-0.0071078000000002,-0.0053603999999987,-0.0033191999999999,-0.0083611999999995,0.0071820000000009,-0.0014443999999998,0,sub_5
-0.0092068000000002,-0.0079647999999987,-0.0025137999999999,-0.0186011999999995,0.0065822000000009,-0.0034391999999998,0,sub_5
-0.0099688000000002,-0.0100993999999987,-0.0010031999999999,-0.0275627999999995,0.0051274000000009,-0.0058513999999998,0,sub_5
-0.0102698000000002,-0.0118911999999987,6.60000000000968e-05,-0.0350279999999995,0.0038822000000009,-0.0086805999999999,0,sub_5
-0.0089832000000002,-0.0134039999999987,0.0011978,-0.0399353999999995,0.0028376000000009,-0.0106377999999998,0,sub_5
-0.0078794000000002,-0.0147469999999987,0.0024552,-0.0414317999999995,0.0019908000000009,-0.0117165999999998,0,sub_5
-0.0063288000000002,-0.0155151999999987,0.0033072,-0.0397277999999995,0.0015578000000009,-0.0114905999999998,0,sub_5
-0.0056830000000002,-0.0178665999999987,0.0030856,-0.0348383999999995,0.0004636000000009,-0.0084639999999998,0,sub_5
-0.0058588000000002,-0.0206469999999987,0.0056962,-0.0254835999999995,-0.001936599999999,-0.0034827999999998,0,sub_5
-0.0072976000000002,-0.0233103999999987,0.0091156,-0.0133531999999995,-0.004769199999999,0.0006638000000001,0,sub_5
-0.0079480000000002,-0.0253769999999987,0.011903,-0.0024951999999995,-0.007166199999999,0.0035188000000001,0,sub_5
-0.0073460000000002,-0.0263315999999987,0.0123972,0.0064570000000004,-0.007845999999999,0.004863,0,sub_5
-0.0053704000000002,-0.0243647999999987,0.0126696,0.0141412000000003,-0.007236999999999,0.0047012,0,sub_5
-0.0027500000000002,-0.0212947999999987,0.0105528,0.0184260000000003,-0.004477999999999,0.0036592,0,sub_5
-0.0002522000000002,-0.0168669999999987,0.0062278,0.0190902000000004,-2.59999999908736e-06,0.0028034,0,sub_5
0.0010069999999997,-0.0127201999999987,0.0016434,0.0182558000000004,0.0040492000000009,0.0025788,0,sub_5
0.0002137999999997,-0.0086529999999987,-0.0011169999999999,0.0161336000000004,0.0066134000000009,0.0025606,0,sub_5
-0.0019824000000002,-0.0056095999999987,-0.0032285999999999,0.0123560000000004,0.0083328000000009,0.0014714,0,sub_5
-0.0045324000000002,-0.0044441999999987,-0.0048151999999999,0.0079334000000004,0.0083526000000009,-0.0002607999999999,0,sub_5
-0.0068752000000002,-0.0054829999999987,-0.0045199999999999,0.0030764000000004,0.0066694000000009,-0.0019939999999999,0,sub_5
-0.0085880000000002,-0.0072221999999987,-0.0030847999999999,-0.0015689999999995,0.0047716000000009,-0.0035117999999999,0,sub_5
-0.0097902000000001,-0.0105183999999987,-0.0009437999999999,-0.0066431999999995,0.0026614000000009,-0.0048185999999999,0,sub_5
-0.0102848000000001,-0.0142457999999987,0.0007132,-0.0107067999999995,0.0003328000000009,-0.0050575999999999,0,sub_5
-0.0112248000000001,-0.0169743999999987,0.001757,-0.0124233999999995,-0.001155199999999,-0.0044267999999999,0,sub_5
-0.0106078000000001,-0.0188487999999987,0.0021368,-0.0122143999999995,-0.002858799999999,-0.0029581999999999,0,sub_5
-0.0094830000000001,-0.0200151999999987,0.0026888,-0.0096651999999995,-0.005637399999999,-0.0010445999999999,0,sub_5
-0.0080370000000002,-0.0200755999999987,0.0039402,-0.0037057999999995,-0.008855799999999,0.0013206,0,sub_5
-0.0065532000000002,-0.0201795999999987,0.0057134,0.0029004000000004,-0.010797399999999,0.003475,0,sub_5
-0.0041100000000002,-0.0197815999999987,0.0073618,0.0084484000000004,-0.011241999999999,0.0051928,0,sub_5
-0.0023398000000002,-0.0186377999999987,0.0079832,0.0131396000000004,-0.010411999999999,0.00672,0,sub_5
-0.0011296000000002,-0.0172009999999987,0.0071344,0.0174186000000004,-0.007233599999999,0.0073866,0,sub_5
-0.0001970000000002,-0.0156295999999987,0.0054188,0.0191448000000004,-0.002766399999999,0.0076066,0,sub_5
-0.0001388000000002,-0.0132397999999987,0.0037564,0.0193782000000004,0.0012826000000009,0.0071758,0,sub_5
-0.0012854000000002,-0.0114499999999987,0.002049,0.0187470000000004,0.0040578000000009,0.0056354,0,sub_5
-0.0031070000000002,-0.0101393999999987,0.0011568,0.0170518000000004,0.0062026000000009,0.0028064,0,sub_5
-0.0049480000000001,-0.0093757999999987,0.000912,0.0140744000000003,0.0075014000000009,-0.0004575999999999,0,sub_5
-0.0062478000000002,-0.0091557999999987,-6.839999999990249e-05,0.0106636000000004,0.0073104000000009,-0.0037227999999999,0,sub_5
-0.0066546000000002,-0.0094627999999987,-0.0009987999999999,0.0063936000000004,0.0062686000000009,-0.0065655999999999,0,sub_5
-0.0064488000000001,-0.0103001999999987,-0.0016043999999999,0.0025540000000004,0.0050096000000009,-0.0080861999999999,0,sub_5
-0.0071912000000001,-0.0115011999999987,-0.0012349999999999,0.0002022000000004,0.0041648000000009,-0.0078877999999998,0,sub_5
-0.0078088000000001,-0.0132117999999987,-0.0011151999999999,-0.0013085999999995,0.0020328000000009,-0.0061863999999998,0,sub_5
-0.0078980000000001,-0.0152263999999987,0.0009416,-0.0006363999999995,-0.000322399999999,-0.0044823999999998,0,sub_5
-0.0089830000000001,-0.0172885999999987,0.0036352,0.0028106000000004,-0.002474199999999,-0.0027591999999998,0,sub_5
-0.0089596000000002,-0.0189363999999987,0.0060142,0.0062566000000003,-0.004838999999999,-0.0010357999999998,0,sub_5
-0.0077114000000002,-0.0205653999999987,0.0069936,0.0097074000000003,-0.006350799999999,0.0004730000000001,0,sub_5
-0.0060496000000002,-0.0202629999999987,0.0083054,0.0129536000000003,-0.006156599999999,0.0017644000000001,0,sub_5
-0.0047648000000001,-0.0187821999999987,0.008289,0.0146596000000004,-0.0044657999999991,0.003697,0,sub_5
-0.0029774000000001,-0.0173985999999987,0.006291,0.0140224000000004,-0.0017023999999991,0.0058256,0,sub_5
-0.0019632000000001,-0.0150739999999987,0.0037878,0.0125490000000004,0.0021280000000008,0.0075062,0,sub_5
-0.0010108000000001,-0.0119013999999987,0.0020052,0.0093686000000004,0.0053278000000008,0.0085346,0,sub_5
-0.0008242000000001,-0.0096165999999987,0.000216,0.0051232000000004,0.0078964000000008,0.0084884,0,sub_5
-0.0015894000000002,-0.0082769999999987,-0.0012847999999999,0.0004530000000004,0.0089828000000009,0.0065182,0,sub_5
-0.0026388000000002,-0.0071465999999987,-0.0017799999999999,-0.0037913999999995,0.0087936000000009,0.0034842,0,sub_5
-0.0045620000000001,-0.0083815999999987,-0.0010345999999999,-0.0078377999999995,0.0079658000000009,0.0008932,0,sub_5
-0.0064046000000001,-0.0103937999999987,-0.0006149999999999,-0.0103895999999995,0.0069214000000008,-0.0021141999999998,0,sub_5
-0.0073032000000001,-0.0132825999999987,-4.799999999922574e-06,-0.0114563999999995,0.0050152000000008,-0.0040419999999998,0,sub_5
-0.0088394000000001,-0.0160821999999987,0.000995,-0.0112351999999995,0.0028838000000008,-0.0046825999999998,0,sub_5
-0.0095664000000001,-0.0188271999999987,0.0021156,-0.0097375999999995,0.0005322000000008,-0.0046729999999998,0,sub_5
-0.0089824000000001,-0.0197691999999987,0.0029256,-0.0067481999999995,-0.0018261999999991,-0.0042257999999998,0,sub_5
-0.0080790000000001,-0.0204075999999987,0.0040192,-0.0035531999999995,-0.004828799999999,-0.0027079999999999,0,sub_5
-0.0081200000000001,-0.0204577999999987,0.0049186,-0.0009905999999995,-0.006548999999999,-0.0016235999999999,0,sub_5
-0.0059330000000001,-0.0194541999999987,0.0045894,0.0013528000000004,-0.006772799999999,-0.0009659999999998,0,sub_5
-0.0041408000000001,-0.0171579999999987,0.0045336,0.0032722000000004,-0.005931399999999,0.0001146000000001,0,sub_5
-0.0024564000000002,-0.0146251999999987,0.003904,0.0041314000000004,-0.004868399999999,-9.439999999987393e-05,0,sub_5
-0.0016858000000001,-0.0124741999999987,0.0032052,0.0039324000000004,-0.002520599999999,-0.0009533999999998,0,sub_5
-0.0007696000000001,-0.0105819999999987,0.0019586,0.0032900000000004,-0.000590399999999,-0.0020411999999998,0,sub_5
-0.0009856000000001,-0.0100295999999987,0.0016172,0.0017884000000004,0.0007012000000009,-0.0024931999999998,0,sub_5
-0.0023120000000001,-0.0110885999999987,0.0016526,-0.0005683999999995,0.0017818000000009,-0.0027373999999998,0,sub_5
-0.0039422000000001,-0.0131751999999987,0.0018564,-0.0024985999999995,0.0034976000000009,-0.0023383999999999,0,sub_5
-0.0056372000000002,-0.0153129999999987,0.0018476,-0.0033713999999995,0.0035034000000009,-0.0015025999999999,0,sub_5
-0.0069898000000002,-0.0174225999999987,0.0025764,-0.0033809999999995,0.0030706000000009,0.000207,0,sub_5
-0.0084068000000002,-0.0189543999999987,0.0039744,-0.0016853999999995,0.0024178000000009,0.0021424,0,sub_5
-0.0089144000000002,-0.0197245999999987,0.0044368,0.0010534000000004,0.0021836000000009,0.0042978,0,sub_5
-0.0094382000000002,-0.0199373999999987,0.0044268,0.0044256000000004,0.0008802000000009,0.0068864,0,sub_5
-0.0087630000000002,-0.0182897999999987,0.0051204,0.0073758000000004,-0.000205199999999,0.008617,0,sub_5
-0.0077730000000001,-0.0165947999999987,0.00514,0.0099070000000004,-0.001282399999999,0.0086356,0,sub_5
-0.0062400000000001,-0.0145517999999987,0.0038826,0.0100948000000004,-0.002347799999999,0.0077832,0,sub_5
-0.0042916000000001,-0.0118979999999987,0.0020958,0.0088192000000004,-0.003187799999999,0.0058526,0,sub_5
-0.0026292000000001,-0.0093427999999987,0.0011136,0.0067018000000004,-0.002953599999999,0.0024192,0,sub_5
-0.0014090000000002,-0.0087421999999987,-0.0006159999999999,0.0035242000000004,-0.001860999999999,-0.0016635999999999,0,sub_5
-0.0010714000000002,-0.0086213999999987,-0.0007929999999999,-0.0009785999999995,-0.001408399999999,-0.0044807999999999,0,sub_5
-0.0018442000000002,-0.0089843999999987,-0.0001353999999999,-0.0041991999999995,-0.000534399999999,-0.0072893999999999,0,sub_5
-0.0029286000000002,-0.0100595999999987,0.0013954,-0.0069947999999995,0.0003364000000008,-0.0096677999999999,0,sub_5
-0.0045080000000001,-0.0128265999999987,0.0024006,-0.0102249999999995,0.0005654000000008,-0.0109801999999999,0,sub_5
-0.0064916000000001,-0.0153059999999987,0.0042152,-0.0123997999999995,0.0003560000000008,-0.0101481999999999,0,sub_5
-0.0079360000000001,-0.0173209999999987,0.0050036,-0.0126179999999995,0.0005646000000008,-0.0088679999999999,0,sub_5
-0.0083554000000001,-0.0189811999999987,0.0048182,-0.0121969999999995,0.0014068000000008,-0.0067297999999999,0,sub_5
-0.0088874000000001,-0.0203139999999987,0.0044108,-0.0109263999999995,0.0009694000000009,-0.0050111999999999,0,sub_5
-0.0087916000000002,-0.0196533999999987,0.0043486,-0.0083803999999995,-0.000113399999999,-0.0028555999999999,0,sub_5
-0.0082834000000002,-0.0185955999999987,0.0038176,-0.0045611999999995,-0.001205999999999,-0.0019779999999998,0,sub_5
-0.0068834000000002,-0.0170997999999987,0.003475,-0.0009493999999995,-0.002292799999999,-0.0023837999999998,0,sub_5
-0.0061538000000002,-0.0157991999999987,0.003263,0.0022344000000004,-0.004015599999999,-0.0032187999999998,0,sub_5
-0.0053988000000002,-0.0145545999999987,0.0034018,0.0047800000000004,-0.004885599999999,-0.0036321999999998,0,sub_5
-0.0042096000000002,-0.0130153999999987,0.0029102,0.0058398000000004,-0.004470399999999,-0.0044849999999998,0,sub_5
-0.0029166000000002,-0.0118975999999987,0.0024748,0.0043500000000004,-0.004461799999999,-0.0053499999999998,0,sub_5
-0.0030106000000002,-0.0116739999999987,0.0021232,0.0026438000000004,-0.004030599999999,-0.0051487999999998,0,sub_5
-0.0032732000000002,-0.0121089999999987,0.0014918,0.0002908000000004,-0.003384999999999,-0.0049513999999998,0,sub_5
-0.0036158000000001,-0.0128575999999987,0.0014532,-0.0020669999999995,-0.003592399999999,-0.0045393999999998,0,sub_5
-0.0039288000000001,-0.0135921999999987,0.002288,-0.0050707999999995,-0.005288199999999,-0.0043435999999998,0,sub_5
-0.0049270000000001,-0.0154715999999987,0.0025852,-0.0074343999999995,-0.006773999999999,-0.0039297999999998,0,sub_5
-0.0058268000000001,-0.0171465999999987,0.0028566,-0.0087301999999995,-0.007838399999999,-0.0032955999999999,0,sub_5
-0.0065408000000001,-0.0174943999999987,0.0043152,-0.0072461999999995,-0.009125399999999,-0.0024289999999999,0,sub_5
-0.0068998000000001,-0.0172023999999987,0.0052904,-0.0046877999999995,-0.009348399999999,-0.0021971999999999,0,sub_5
-0.0065860000000001,-0.0174549999999987,0.0058106,-0.0006289999999995,-0.008297199999999,-0.0021701999999999,0,sub_5
-0.0053790000000002,-0.0169775999999987,0.0060906,0.0032238000000004,-0.004690999999999,-0.0025777999999999,0,sub_5
-0.0053992000000002,-0.0158925999999987,0.0058666,0.0051602000000004,-0.000650199999999,-0.0034263999999999,0,sub_5
-0.0057980000000002,-0.0147029999999987,0.0049962,0.0045400000000004,0.0046762000000009,-0.0038673999999999,0,sub_5
-0.0061060000000002,-0.0142011999999987,0.0027876,0.0022032000000004,0.0087268000000008,-0.0034639999999999,0,sub_5
-0.0070278000000002,-0.0129223999999987,0.0010694000000001,-0.0003573999999995,0.0100100000000008,-0.0034859999999999,0,sub_5
-0.0086994000000001,-0.0122109999999987,0.0008250000000001,-0.0014261999999995,0.0087388000000008,-0.0043463999999999,0,sub_5
