userAcceleration.x,userAcceleration.y,userAcceleration.z,rotationRate.x,rotationRate.y,rotationRate.z,label,subject
0.0021411999999997,0.0011410000000012,-0.0074643999999999,-0.0007383999999995,0.0025688000000008,1.5800000000130163e-05,0,sub_3
0.0025333999999997,0.0011868000000012,-0.0067667999999999,-0.0007399999999995,0.0027866000000008,-0.0002007999999998,0,sub_3
0.0022559999999997,0.0013290000000012,-0.0071899999999999,-0.0005319999999995,0.0032124000000008,0.000652,0,sub_3
0.0017371999999997,0.0007094000000012,-0.0073717999999998,-0.0011793999999995,0.0032152000000008,0.0014994,0,sub_3
0.0020731999999997,-0.0002039999999987,-0.0065157999999998,-0.0011697999999995,0.0042846000000008,0.00043,0,sub_3
0.0027021999999997,-9.119999999877756e-05,-0.0072847999999998,-0.0011583999999995,0.0057802000000008,-0.0006401999999999,0,sub_3
0.0027411999999997,6.900000000122245e-05,-0.0073759999999998,-0.0017897999999995,0.0070634000000008,-0.0012871999999999,0,sub_3
0.0023531999999997,0.0002190000000012,-0.0071501999999998,-0.0026355999999995,0.0081342000000008,-0.0019353999999999,0,sub_3
0.0025235999999997,-0.0002155999999987,-0.0070079999999998,-0.0039145999999995,0.0081466000000008,-0.0030157999999999,0,sub_3
0.0028293999999997,0.0004152000000012,-0.0073823999999998,-0.0060461999999995,0.0090118000000008,-0.0034621999999998,0,sub_3
0.0024375999999997,0.0006532000000012,-0.0070923999999998,-0.0068993999999995,0.0096586000000008,-0.0036857999999998,0,sub_3
0.0025241999999997,0.0004328000000012,-0.0067811999999998,-0.0071115999999995,0.0103038000000008,-0.0041185999999998,0,sub_3
0.0026961999999997,0.0001282000000012,-0.0070053999999999,-0.0077515999999995,0.0103132000000008,-0.0049807999999998,0,sub_3
0.0029229999999997,0.0002518000000012,-0.0067479999999999,-0.0081755999999996,0.0107416000000008,-0.0051979999999998,0,sub_3
0.0030759999999997,0.0004638000000012,-0.0066117999999999,-0.0071077999999996,0.0107388000000008,-0.0054041999999999,0,sub_3
0.0028781999999997,0.0007952000000012,-0.0063629999999999,-0.0062539999999996,0.0107380000000008,-0.0056127999999999,0,sub_3
0.0024415999999997,0.0013784000000012,-0.0061487999999999,-0.0060423999999996,0.0103134000000008,-0.0058253999999999,0,sub_3
0.0026275999999997,0.0020454000000012,-0.0055871999999999,-0.0058297999999996,0.0103140000000008,-0.0058249999999999,0,sub_3
0.0031145999999997,0.0026150000000012,-0.0058415999999999,-0.0056189999999996,0.0101008000000008,-0.0056105999999999,0,sub_3
0.0025935999999997,0.0020396000000012,-0.0057949999999999,-0.0062645999999996,0.0094634000000008,-0.0051879999999999,0,sub_3
0.0025853999999997,0.0013318000000012,-0.0060069999999999,-0.0071219999999996,0.0092506000000008,-0.0045527999999999,0,sub_3
0.0028365999999997,0.0009696000000012,-0.0063045999999999,-0.0077649999999996,0.0090380000000008,-0.0041297999999999,0,sub_3
0.0027801999999997,0.0008472000000012,-0.0063229999999999,-0.0075543999999996,0.0090346000000008,-0.0034873999999999,0,sub_3
0.0024649999999997,0.0001026000000012,-0.0065697999999998,-0.0069155999999996,0.0090328000000008,-0.0032691999999998,0,sub_3
0.0027565999999997,7.960000000122235e-05,-0.0064217999999998,-0.0064843999999996,0.0096734000000008,-0.0036941999999998,0,sub_3
0.0029115999999997,0.0005316000000012,-0.0059971999999998,-0.0064817999999996,0.0096772000000008,-0.0043349999999998,0,sub_3
0.0032823999999997,0.0006572000000012,-0.0060425999999998,-0.0058381999999995,0.0098920000000008,-0.0049715999999998,0,sub_3
0.0029375999999997,0.0007356000000012,-0.0057341999999998,-0.0049841999999995,0.0094668000000008,-0.0056059999999998,0,sub_3
0.0029277999999997,0.0009738000000012,-0.0057959999999998,-0.0054119999999995,0.0090430000000008,-0.0058219999999998,0,sub_3
0.0029133999999997,0.0013790000000012,-0.0059207999999998,-0.0056291999999995,0.0084038000000008,-0.0056091999999998,0,sub_3
0.0024399999999997,0.0011340000000012,-0.0068675999999998,-0.0052081999999995,0.0079728000000008,-0.0047511999999998,0,sub_3
0.0019353999999997,0.0008176000000012,-0.0076663999999998,-0.0054301999999995,0.0071170000000008,-0.0036833999999998,0,sub_3
0.0017991999999997,0.0001252000000012,-0.0079293999999999,-0.0056473999999995,0.0066898000000008,-0.0032569999999998,0,sub_3
0.0018247999999997,0.0006808000000012,-0.0077473999999999,-0.0050013999999995,0.0075372000000008,-0.0034651999999999,0,sub_3
0.0019285999999997,0.0016574000000012,-0.0077375999999999,-0.0047889999999996,0.0073190000000008,-0.0032477999999998,0,sub_3
0.0028823999999997,0.0015230000000012,-0.0069537999999998,-0.0047889999999996,0.0071026000000008,-0.0032453999999998,0,sub_3
0.0032139999999997,0.0017280000000012,-0.0056005999999998,-0.0039363999999996,0.0068822000000008,-0.0030235999999998,0,sub_3
0.0034763999999997,0.0017832000000012,-0.0062833999999998,-0.0030885999999996,0.0060210000000008,-0.0023735999999998,0,sub_3
0.0032737999999997,0.0011062000000012,-0.0061367999999998,-0.0022447999999996,0.0049484000000008,-0.0012981999999998,0,sub_3
0.0029147999999997,0.0005288000000012,-0.0058623999999998,-0.0016017999999996,0.0049290000000008,-0.0006483999999998,0,sub_3
0.0024117999999997,0.0008748000000012,-0.0060801999999998,-0.0013817999999995,0.0049144000000008,-0.0008561999999999,0,sub_3
0.0025217999999997,0.0011468000000012,-0.0062741999999998,-0.0020115999999995,0.0055430000000008,-0.0012843999999999,0,sub_3
0.0025013999999997,0.0012348000000012,-0.0054763999999999,-0.0032785999999995,0.0066006000000008,-0.0019311999999999,0,sub_3
0.0028927999999997,0.0013930000000012,-0.0057269999999999,-0.0041263999999995,0.0061646000000008,-0.0023595999999999,0,sub_3
0.0027609999999997,0.0009544000000012,-0.0058557999999998,-0.0045531999999995,0.0059540000000008,-0.0025757999999999,0,sub_3
0.0032625999999997,0.0007638000000012,-0.0060801999999998,-0.0047637999999995,0.0061696000000008,-0.0030047999999999,0,sub_3
0.0035679999999997,0.0004032000000012,-0.0065603999999998,-0.0053999999999995,0.0061752000000008,-0.0038637999999999,0,sub_3
0.0040875999999997,0.0005288000000012,-0.0069091999999998,-0.0055935999999995,0.0063576000000008,-0.0040657999999999,0,sub_3
0.0039403999999997,0.0007080000000012,-0.0070579999999998,-0.0055701999999995,0.0069668000000008,-0.0046939999999998,0,sub_3
0.0040569999999997,0.0008510000000012,-0.0071501999999998,-0.0053343999999996,0.0073622000000008,-0.0053205999999998,0,sub_3
0.0032069999999997,0.0011792000000012,-0.0071297999999998,-0.0053147999999996,0.0077558000000008,-0.0053077999999998,0,sub_3
0.0030737999999997,0.0014526000000012,-0.0068863999999998,-0.0055113999999996,0.0079354000000008,-0.0048687999999998,0,sub_3
0.0027335999999997,0.0017762000000012,-0.0065547999999999,-0.0050847999999996,0.0079338000000008,-0.0048657999999998,0,sub_3
0.0025927999999997,0.0016502000000012,-0.0065073999999999,-0.0050885999999996,0.0072938000000008,-0.0046513999999998,0,sub_3
0.0025851999999997,0.0014548000000012,-0.0065903999999999,-0.0053057999999995,0.0066546000000008,-0.0044385999999998,0,sub_3
0.0031625999999997,0.0013742000000012,-0.0063347999999999,-0.0050707999999995,0.0059706000000008,-0.0042025999999998,0,sub_3
0.0029859999999997,0.0006474000000012,-0.0064131999999998,-0.0046215999999995,0.0057112000000008,-0.0037519999999998,0,sub_3
0.0031971999999997,0.0002136000000012,-0.0069323999999998,-0.0043865999999995,0.0052394000000008,-0.0033025999999998,0,sub_3
0.0029383999999997,-2.2799999998797534e-05,-0.0068865999999998,-0.0043611999999995,0.0054084000000008,-0.0030689999999998,0,sub_3
0.0034875999999997,0.0002306000000012,-0.0074163999999998,-0.0043377999999995,0.0049390000000008,-0.0030481999999998,0,sub_3
0.0030383999999997,0.0003334000000012,-0.0070047999999998,-0.0045531999999995,0.0045136000000008,-0.0030489999999998,0,sub_3
0.0028941999999997,0.0011930000000012,-0.0069389999999998,-0.0037035999999995,0.0036584000000008,-0.0030417999999998,0,sub_3
0.0026307999999997,0.0013042000000012,-0.0071361999999998,-0.0037093999999995,0.0028046000000008,-0.0026133999999998,0,sub_3
0.0032071999999997,0.0021560000000012,-0.0066499999999999,-0.0030493999999996,0.0008376000000008,-0.0023703999999998,0,sub_3
0.0030379999999997,0.0029960000000012,-0.0057409999999999,-0.0011043999999996,-0.000492999999999,-0.0025465999999998,0,sub_3
0.0037695999999997,0.0042420000000011,-0.0059761999999999,0.0014664000000003,-0.003536199999999,-0.0012205999999998,0,sub_3
0.0035111999999997,0.0046480000000011,-0.0056075999999999,0.0040276000000003,-0.007436799999999,0.0013882,0,sub_3
0.0036369999999997,0.0056574000000011,-0.0048525999999999,0.0070154000000003,-0.010702199999999,0.0046402,0,sub_3
0.0032847999999997,0.0059154000000011,-0.0054211999999999,0.0095518000000003,-0.0128543999999991,0.0078652,0,sub_3
0.0027207999999997,0.0047954000000011,-0.0058043999999999,0.0112348000000003,-0.0145791999999991,0.0115112,0,sub_3
0.0019657999999997,0.0028794000000012,-0.0062577999999999,0.0114424000000003,-0.0145849999999991,0.0127944,0,sub_3
0.0021911999999997,0.0019280000000012,-0.0069545999999999,0.0112366000000003,-0.0137285999999991,0.0119372,0,sub_3
0.0026071999999997,0.0004608000000012,-0.0076567999999999,0.0108458000000003,-0.0135509999999991,0.0102446,0,sub_3
0.0024835999999997,-0.0007979999999987,-0.0075405999999998,0.0104540000000003,-0.013161999999999,0.0089792,0,sub_3
0.0022085999999997,-0.0011901999999987,-0.0079289999999998,0.0094212000000003,-0.012771599999999,0.0079228,0,sub_3
0.0026693999999997,-0.0011151999999987,-0.0075105999999998,0.0083854000000003,-0.012595799999999,0.007294,0,sub_3
0.0024211999999997,-0.0009655999999987,-0.0074711999999998,0.0065010000000003,-0.011139599999999,0.0068714,0,sub_3
0.0021393999999997,-8.559999999881735e-05,-0.0068551999999998,0.0043796000000003,-0.009423399999999,0.0057862,0,sub_3
0.0025439999999997,0.0001968000000011,-0.0066713999999999,0.0026840000000003,-0.0083461999999991,0.0042774,0,sub_3
0.0033073999999997,0.0010474000000011,-0.0060955999999999,0.0016510000000003,-0.0079541999999991,0.0032202,0,sub_3
0.0033189999999997,0.0019012000000011,-0.0063801999999999,0.0021078000000003,-0.0077831999999991,0.0028146,0,sub_3
0.0041673999999997,0.0025490000000011,-0.0059227999999999,0.0031960000000003,-0.0091073999999991,0.0028424,0,sub_3
0.0040029999999997,0.0030248000000012,-0.0056767999999999,0.0044958000000003,-0.0100095999999991,0.0037258,0,sub_3
0.0039499999999997,0.0036544000000012,-0.0059661999999999,0.0053698000000003,-0.0106971999999991,0.004606,0,sub_3
0.0038433999999997,0.0035024000000011,-0.0059101999999998,0.0057926000000003,-0.0113387999999991,0.0048234,0,sub_3
0.0035203999999997,0.0024762000000012,-0.0059485999999998,0.0057898000000003,-0.0119779999999991,0.0048242,0,sub_3
0.0026217999999997,0.0015454000000012,-0.0067633999999998,0.0055756000000003,-0.0119781999999991,0.0050364,0,sub_3
0.0025091999999997,-0.0001563999999987,-0.0075003999999998,0.0049672000000003,-0.0118029999999991,0.004625,0,sub_3
0.0026187999999997,-0.0009681999999987,-0.0077947999999998,0.0039388000000003,-0.0103469999999991,0.0039954,0,sub_3
0.0023211999999997,-0.0016579999999987,-0.0081447999999999,0.0031248000000003,-0.0084663999999991,0.0035802,0,sub_3
0.0020933999999997,-0.0008563999999987,-0.0080811999999998,0.0021010000000003,-0.006157199999999,0.0027358,0,sub_3
0.0025567999999997,-0.0008119999999987,-0.0074667999999998,0.0008698000000003,-0.003205599999999,0.0012482,0,sub_3
0.0024623999999997,0.0003756000000012,-0.0074527999999998,-0.0003891999999996,-0.0004237999999991,-0.0006869999999999,0,sub_3
0.0022931999999997,0.0007542000000012,-0.0074043999999998,-0.0014397999999996,0.0017164000000008,-0.0021925999999999,0,sub_3
0.0025965999999997,0.0013956000000012,-0.0075505999999998,-0.0027055999999996,0.0032190000000008,-0.0039123999999999,0,sub_3
0.0036705999999997,0.0018148000000012,-0.0066339999999998,-0.0020281999999996,0.0044690000000008,-0.0053865999999999,0,sub_3
0.0038329999999997,0.0034714000000012,-0.0059865999999998,-0.0009405999999996,0.0033688000000008,-0.0055729999999999,0,sub_3
0.0042373999999997,0.0044126000000012,-0.0049417999999998,0.0001308000000003,0.0005568000000008,-0.0038345999999999,0,sub_3
0.0049663999999997,0.0047580000000012,-0.0040743999999998,0.0016272000000003,-0.0024707999999991,-0.0018791999999999,0,sub_3
0.0049061999999997,0.0046362000000012,-0.0039147999999998,0.0035492000000003,-0.0050761999999991,0.0007196,0,sub_3
0.0041797999999997,0.0039090000000012,-0.0048997999999998,0.0037396000000003,-0.0072193999999991,0.0037146,0,sub_3
0.0036595999999997,0.0023778000000012,-0.0058357999999998,0.0037300000000003,-0.0076521999999991,0.0054242,0,sub_3
0.0031481999999997,0.0009496000000012,-0.0066319999999998,0.0039472000000003,-0.0070129999999991,0.0052114,0,sub_3
0.0020985999999997,0.0003332000000012,-0.0069379999999998,0.0039510000000003,-0.0065851999999991,0.0047836,0,sub_3
0.0016781999999997,0.0003916000000012,-0.0069859999999998,0.0041700000000003,-0.0057269999999991,0.0041394,0,sub_3
0.0011381999999997,0.0008090000000012,-0.0068073999999998,0.0039612000000003,-0.0055047999999991,0.0030658,0,sub_3
0.0010019999999997,0.0009146000000012,-0.0065995999999998,0.0033240000000003,-0.0059193999999991,0.0017764,0,sub_3
0.0014675999999997,0.0011528000000012,-0.0060693999999998,0.0022618000000003,-0.005481999999999,0.00091,0,sub_3
0.0022433999999997,0.0013298000000012,-0.0057877999999998,0.0012016000000003,-0.004406199999999,0.0002566,0,sub_3
0.0029663999999997,0.0015924000000012,-0.0055655999999998,-7.179999999961393e-05,-0.003759199999999,-0.0006077999999999,0,sub_3
0.0034615999999997,0.0007536000000012,-0.0054445999999998,-0.0015595999999996,-0.002899999999999,-0.0010465999999999,0,sub_3
0.0041355999999997,0.0011622000000012,-0.0050631999999998,-0.0024233999999996,-0.001592199999999,-0.0006417999999999,0,sub_3
0.0044295999999997,0.0011616000000012,-0.0056591999999998,-0.0020135999999996,-0.001143599999999,0.000414,0,sub_3
0.0037717999999997,0.0015740000000012,-0.0062609999999998,-0.0009637999999996,-0.001333799999999,0.000834,0,sub_3
0.0035193999999997,0.0019268000000011,-0.0058795999999998,-0.0003425999999996,-0.001948599999999,0.0012516,0,sub_3
0.0035971999999997,0.0031076000000011,-0.0062501999999998,0.0007092000000003,-0.002136999999999,0.0012444,0,sub_3
0.0029561999999997,0.0037142000000012,-0.0060293999999998,0.0017740000000003,-0.002991199999999,0.0008256,0,sub_3
0.0023355999999997,0.0039476000000012,-0.0056429999999998,0.0021988000000003,-0.003630999999999,0.0006158,0,sub_3
0.0022673999999997,0.0036046000000012,-0.0051743999999998,0.0019796000000003,-0.0046963999999991,0.0008294,0,sub_3
0.0018673999999997,0.0029986000000012,-0.0055893999999998,0.0019776000000003,-0.0049103999999991,0.0010434,0,sub_3
0.0019299999999997,0.0022972000000012,-0.0055287999999998,0.0019518000000003,-0.0055107999999991,0.0016652,0,sub_3
0.0021659999999997,0.0015968000000012,-0.0055019999999998,0.0021414000000003,-0.0054733999999991,0.0025012,0,sub_3
0.0025183999999997,0.0015078000000012,-0.0055869999999998,0.0027616000000003,-0.0054341999999991,0.0024856,0,sub_3
0.0029439999999997,0.0014534000000012,-0.0055425999999998,0.0031704000000003,-0.0047559999999991,0.0026814,0,sub_3
0.0030719999999997,0.0019688000000012,-0.0049817999999998,0.0031524000000003,-0.0042883999999991,0.0026608,0,sub_3
0.0028359999999997,0.0019054000000012,-0.0048715999999998,0.0031544000000003,-0.0040743999999991,0.0024468,0,sub_3
0.0030601999999997,0.0016704000000012,-0.0056381999999998,0.0027286000000003,-0.0038599999999991,0.0024436,0,sub_3
0.0033767999999997,0.0017634000000012,-0.0052635999999998,0.0020798000000003,-0.0027607999999991,0.0022126,0,sub_3
0.0030191999999997,0.0028532000000012,-0.0049485999999998,0.0018578000000003,-0.0016631999999991,0.0019846,0,sub_3
0.0029819999999997,0.0028762000000012,-0.0055825999999998,0.0026892000000003,-0.0024909999999991,0.0028346,0,sub_3
0.0033183999999997,0.0025316000000012,-0.0052201999999998,0.0033082000000003,-0.0031049999999991,0.003683,0,sub_3
0.0034863999999997,0.0022208000000012,-0.0051431999999999,0.0043522000000003,-0.0045709999999991,0.004108,0,sub_3
0.0034905999999997,0.0019324000000012,-0.0058299999999999,0.0058352000000003,-0.0058587999999991,0.0051882,0,sub_3
0.0032221999999997,0.0006406000000012,-0.0062597999999998,0.0068944000000003,-0.0067179999999991,0.0060512,0,sub_3
0.0033573999999997,0.0002442000000012,-0.0064095999999998,0.0066868000000003,-0.0058633999999991,0.0056214,0,sub_3
0.0032551999999997,0.0007894000000012,-0.0067803999999998,0.0058262000000003,-0.0049737999999991,0.0045332,0,sub_3
0.0032051999999997,0.0012962000000012,-0.0063853999999998,0.0051816000000003,-0.0032333999999991,0.0036592,0,sub_3
0.0024245999999997,0.0018702000000011,-0.0059109999999998,0.0038942000000003,-0.0023421999999991,0.0025682,0,sub_3
0.0028529999999997,0.0020688000000011,-0.0054277999999998,0.0023876000000003,-0.0027285999999991,0.0014772,0,sub_3
0.0030597999999997,0.0021080000000011,-0.0054765999999998,0.0010944000000003,-0.0026911999999991,0.0008144,0,sub_3
0.0033933999999997,0.0022290000000011,-0.0052353999999998,0.0006694000000003,-0.0026879999999991,0.0003842,0,sub_3
0.0034813999999997,0.0024980000000012,-0.0052825999999998,0.0004570000000003,-0.0022619999999991,0.0005958,0,sub_3
0.0040903999999997,0.0025718000000012,-0.0056333999999999,0.0006684000000003,-0.0024765999999991,0.0008112,0,sub_3
0.0042669999999997,0.0028372000000012,-0.0061611999999999,0.0008694000000003,-0.002238999999999,0.0010166,0,sub_3
0.0042481999999997,0.0027134000000012,-0.0056087999999999,0.0017076000000003,-0.002430599999999,0.0014408,0,sub_3
0.0040605999999997,0.0028192000000012,-0.0059375999999998,0.0025430000000003,-0.003048999999999,0.002079,0,sub_3
0.0039693999999997,0.0026838000000012,-0.0058447999999998,0.0031650000000003,-0.003878999999999,0.0025024,0,sub_3
0.0037535999999997,0.0024050000000012,-0.0053753999999998,0.0031508000000003,-0.004278799999999,0.0024934,0,sub_3
0.0039099999999997,0.0022306000000012,-0.0050529999999998,0.0031488000000003,-0.004492599999999,0.0027074,0,sub_3
0.0039855999999997,0.0022082000000012,-0.0051375999999998,0.0029354000000003,-0.004491799999999,0.0027058,0,sub_3
0.0035949999999997,0.0013812000000012,-0.0048529999999998,0.0027230000000003,-0.004277999999999,0.0027042,0,sub_3
0.0030073999999997,0.0012038000000012,-0.0054843999999998,0.0018714000000003,-0.004273199999999,0.002271,0,sub_3
0.0029735999999997,0.0008816000000012,-0.0057287999999998,0.0014346000000003,-0.0040343999999991,0.0022598,0,sub_3
0.0028293999999997,0.0011708000000012,-0.0056053999999998,0.0014274000000003,-0.0033699999999991,0.0020372,0,sub_3
0.0027583999999997,0.0012780000000012,-0.0053523999999999,0.0014192000000003,-0.0029185999999991,0.001815,0,sub_3
0.0026963999999997,0.0018912000000012,-0.0051237999999999,0.0009862000000003,-0.0020397999999991,0.0015892,0,sub_3
0.0031341999999997,0.0021288000000012,-0.0046573999999999,0.0009800000000003,-0.001374599999999,0.001153,0,sub_3
0.0033093999999997,0.0024716000000012,-0.0049685999999999,0.0005590000000003,-0.000731399999999,0.0005082,0,sub_3
0.0029681999999997,0.0023390000000012,-0.0051359999999999,0.0007754000000003,-0.000305199999999,0.0002956,0,sub_3
0.0027143999999997,0.0021264000000012,-0.0056279999999998,-9.119999999959345e-05,-0.000488799999999,6.46000000000904e-05,0,sub_3
0.0033779999999997,0.0016850000000012,-0.0061503999999998,-0.0005281999999996,-0.000458999999999,-0.0005911999999999,0,sub_3
0.0038689999999997,0.0017908000000012,-0.0057609999999998,-0.0007451999999996,0.0010612000000008,-0.0012471999999999,0,sub_3
0.0036329999999997,0.0020918000000012,-0.0049905999999998,-0.0001231999999996,0.0008682000000008,-0.0003995999999999,0,sub_3
0.0039705999999997,0.0020892000000012,-0.0045277999999998,-0.0003575999999996,3.880000000089402e-05,0.0004426,0,sub_3
0.0047011999999997,0.0020840000000012,-0.0040185999999998,0.0009178000000003,-0.0006065999999991,0.0008796,0,sub_3
0.0044447999999997,0.0022708000000012,-0.0036163999999998,0.0024028000000003,-0.0012559999999991,0.0021728,0,sub_3
0.0038515999999997,0.0024888000000012,-0.0041825999999998,0.0034544000000003,-0.0029707999999991,0.0038914,0,sub_3
0.0038045999999997,0.0018274000000012,-0.0043709999999998,0.0038634000000003,-0.0031585999999991,0.0036642,0,sub_3
0.0037349999999997,0.0017338000000012,-0.0049167999999998,0.0038524000000003,-0.0027021999999991,0.0025788,0,sub_3
0.0032549999999997,0.0017310000000012,-0.0053831999999999,0.0034136000000003,-0.0018209999999991,0.0021306,0,sub_3
0.0031665999999997,0.0021848000000011,-0.0055625999999999,0.0027604000000003,-0.0013643999999991,0.0014678,0,sub_3
0.0030029999999997,0.0018160000000011,-0.0050359999999999,0.0016814000000003,-0.0009053999999991,0.0005886,0,sub_3
0.0031081999999997,0.0020346000000011,-0.0055287999999998,0.0004042000000003,-0.0006861999999991,0.0001522,0,sub_3
0.0031369999999997,0.0024514000000011,-0.0054761999999998,-0.0002339999999996,-0.0002579999999991,0.0001472000000001,0,sub_3
0.0031747999999997,0.0027210000000011,-0.0052395999999998,-0.0002299999999996,0.0001698000000008,-0.0002805999999998,0,sub_3
0.0032203999999997,0.0027188000000012,-0.0049407999999998,-0.0004403999999996,0.0003854000000008,-0.0007095999999998,0,sub_3
0.0033125999999997,0.0027854000000012,-0.0055171999999998,-0.0002399999999996,0.0008336000000008,-0.0007233999999998,0,sub_3
0.0033669999999997,0.0031372000000011,-0.0054723999999998,-4.079999999961328e-05,0.0010688000000008,-0.0007369999999998,0,sub_3
0.0030635999999997,0.0029142000000011,-0.0053531999999998,0.0003690000000003,0.0006642000000008,-0.0007481999999999,0,sub_3
0.0030705999999997,0.0026410000000011,-0.0055983999999998,-7.579999999961329e-05,0.0004738000000008,-0.0003381999999999,0,sub_3
0.0029613999999997,0.0026878000000011,-0.0059369999999998,0.0001206000000003,0.0002820000000008,-0.0001373999999999,0,sub_3
0.0032811999999997,0.0028642000000011,-0.0057079999999998,0.0003310000000003,-0.0003577999999991,-0.0001349999999999,0,sub_3
0.0036671999999997,0.0026314000000012,-0.0050177999999999,0.0001168000000003,-0.0005701999999991,-0.0001361999999999,0,sub_3
0.0035843999999997,0.0024154000000012,-0.0051097999999999,0.0003164000000003,-0.0003357999999991,6.42000000000902e-05,0,sub_3
0.0031905999999997,0.0027132000000012,-0.0050875999999999,0.0003036000000003,-0.0003119999999991,-0.0001639999999999,0,sub_3
0.0031557999999997,0.0026394000000012,-0.0051317999999999,0.0002888000000003,-0.0005021999999991,-0.0001783999999998,0,sub_3
0.0028411999999997,0.0019838000000012,-0.0049969999999999,6.160000000034673e-05,-0.0004785999999991,-0.0001943999999998,0,sub_3
0.0023367999999997,0.0021700000000012,-0.0058309999999998,0.0002620000000003,-0.0002433999999991,-0.0002075999999998,0,sub_3
0.0028825999999997,0.0021672000000012,-0.0058769999999998,4.560000000036672e-05,-0.0008817999999991,-0.0002083999999998,0,sub_3
0.0032585999999997,0.0024306000000012,-0.0055099999999998,0.0004714000000003,-0.0010961999999991,-0.0002051999999998,0,sub_3
0.0031543999999997,0.0022338000000012,-0.0053139999999998,0.0002590000000003,-0.0006701999999991,6.400000000090231e-06,0,sub_3
0.0034095999999997,0.0025190000000012,-0.0053509999999998,3.660000000036668e-05,-0.0006503999999991,-0.0002195999999999,0,sub_3
0.0035331999999997,0.0024454000000012,-0.0051079999999999,0.0002400000000003,-0.0006329999999991,-0.0002287999999998,0,sub_3
0.0033837999999997,0.0027872000000012,-0.0051933999999999,0.0004454000000003,2.2600000000874057e-05,-2.5199999999889763e-05,0,sub_3
0.0036979999999997,0.0024042000000012,-0.0054797999999999,9.600000000386707e-06,0.0002552000000008,-3.919999999988978e-05,0,sub_3
0.0036707999999997,0.0027854000000012,-0.0053773999999999,-0.0002127999999996,6.280000000087407e-05,-0.0004783999999998,0,sub_3
0.0031405999999997,0.0027940000000012,-0.0057285999999998,6.00000000386717e-07,0.0004864000000008,-4.999999999988976e-05,0,sub_3
0.0033817999999997,0.0026308000000012,-0.0061401999999998,-0.0010671999999996,0.0007016000000008,0.0003694,0,sub_3
0.0036803999999997,0.0026132000000012,-0.0058045999999998,-0.0012719999999996,0.0015588000000008,-0.0007011999999999,0,sub_3
0.0032467999999997,0.0039808000000012,-0.0053027999999998,-0.0002141999999996,0.0017840000000008,-0.0009179999999998,0,sub_3
