userAcceleration.x,userAcceleration.y,userAcceleration.z,rotationRate.x,rotationRate.y,rotationRate.z,label,subject
0.0002179999999998,0.0144026000000011,-0.0024293999999999,0.0091150000000004,-0.009937999999999,-0.0026419999999999,0,sub_9
-0.0001216000000001,0.0118396000000011,-0.0035055999999998,0.0103770000000004,-0.014009199999999,-0.0015513999999999,0,sub_9
0.0005129999999998,0.0097742000000011,-0.0055859999999998,0.0118506000000004,-0.016154199999999,0.0008116,0,sub_9
0.0010335999999998,0.0079528000000011,-0.0070335999999998,0.0122696000000004,-0.014676999999999,0.0040172,0,sub_9
0.0012963999999998,0.0063454000000011,-0.0074133999999998,0.0105540000000004,-0.010840799999999,0.0082448,0,sub_9
0.0017655999999997,0.0043568000000011,-0.0080575999999998,0.0084260000000004,-0.004443999999999,0.0118254,0,sub_9
0.0015773999999997,0.0035462000000011,-0.0072703999999999,0.0052380000000004,0.0019626000000009,0.013903,0,sub_9
0.0009447999999997,0.0022820000000011,-0.0053513999999999,0.0018384000000004,0.0064618000000009,0.0136314,0,sub_9
0.0017841999999997,0.0022410000000011,-0.0032487999999999,-0.0011391999999995,0.0079844000000009,0.0114438,0,sub_9
0.0031787999999997,0.0037514000000011,-0.0026891999999999,-0.0026183999999995,0.0075780000000009,0.007802,0,sub_9
0.0044159999999997,0.0068530000000011,-0.0010837999999999,-0.0032497999999995,0.0054660000000009,0.003741,0,sub_9
0.0055779999999997,0.0083252000000011,0.0004736,-0.0023905999999995,0.0035582000000009,0.0005448,0,sub_9
0.0073959999999997,0.0096076000000011,0.0012864,-0.0006811999999995,0.0016314000000009,-0.0013647999999999,0,sub_9
0.0088493999999997,0.0091380000000011,0.0013972,0.0012380000000004,-0.000935999999999,-0.0030583999999999,0,sub_9
0.0094931999999997,0.0069004000000011,0.0024458,0.0023056000000004,-0.003074199999999,-0.0047585999999999,0,sub_9
0.0101429999999997,0.0035540000000011,0.0017698,0.0029434000000004,-0.005001399999999,-0.0056073999999999,0,sub_9
0.0108663999999997,0.0022052000000011,-4.3399999999925615e-05,0.0027268000000004,-0.0077751999999989,-0.0071021999999999,0,sub_9
0.0099439999999997,0.0015550000000011,-0.0013939999999999,0.0008056000000004,-0.0094667999999989,-0.0086087999999999,0,sub_9
0.0079755999999997,0.0025782000000011,-0.0017569999999999,-0.0002575999999995,-0.0090353999999989,-0.0090441999999999,0,sub_9
0.0060861999999997,0.0055982000000011,-0.0034783999999999,-0.0004699999999995,-0.007548399999999,-0.0077657999999999,0,sub_9
0.0033155999999997,0.0093182000000011,-0.0039123999999999,-0.0011029999999995,-0.005214599999999,-0.0060787999999999,0,sub_9
0.0006097999999997,0.0121724000000011,-0.0040117999999999,-0.0010977999999995,-0.002460399999999,-0.0035329999999999,0,sub_9
-0.0018250000000002,0.0140060000000011,-0.0039653999999998,0.0006076000000004,-0.000991399999999,-0.0007601999999999,0,sub_9
-0.0032930000000001,0.0148052000000011,-0.0043431999999998,0.0012444000000004,-0.000581199999999,0.0013656,0,sub_9
-0.0028470000000002,0.0138624000000011,-0.0032027999999998,0.0025154000000004,-0.002300399999999,0.002644,0,sub_9
-0.0010676000000002,0.0117852000000011,-0.0027273999999998,0.0042052000000004,-0.004443599999999,0.0043678,0,sub_9
0.0012903999999997,0.0093092000000011,-0.0025785999999998,0.0054700000000004,-0.005946999999999,0.0063012,0,sub_9
0.0042819999999997,0.0066852000000011,-0.0023981999999998,0.0054548000000004,-0.006597199999999,0.0090792,0,sub_9
0.0071485999999997,0.0042210000000011,-0.0024529999999998,0.0048078000000004,-0.005541199999999,0.0118432,0,sub_9
0.0078109999999997,0.0025796000000011,-0.0026117999999998,0.0028922000000004,-0.002348599999999,0.0141684,0,sub_9
0.0074703999999997,0.0011594000000011,-0.0028361999999998,0.0005564000000004,0.0008514000000009,0.0149952,0,sub_9
0.0058293999999997,0.0015032000000011,-0.0028221999999998,-0.0017743999999995,0.0034192000000009,0.0141136,0,sub_9
0.0041569999999998,0.0030702000000011,-0.0028155999999998,-0.0034555999999995,0.0057812000000009,0.0108868,0,sub_9
0.0023803999999998,0.0050566000000011,-0.0025153999999998,-0.0047127999999995,0.0066550000000009,0.006604,0,sub_9
0.0014743999999998,0.0067464000000011,-0.0027477999999999,-0.0051185999999995,0.0066752000000009,0.001901,0,sub_9
0.0017947999999998,0.0086944000000011,-0.0028279999999998,-0.0044591999999995,0.0060534000000009,-0.0030075999999999,0,sub_9
0.0029231999999997,0.0092898000000011,-0.0025705999999998,-0.0035921999999995,0.0054256000000009,-0.0066325999999999,0,sub_9
0.0042259999999997,0.0092870000000011,-0.0027409999999998,-0.0027495999999995,0.0048060000000009,-0.0085595999999999,0,sub_9
0.0052969999999997,0.0089944000000011,-0.0034355999999998,-0.0016961999999995,0.0050320000000009,-0.0089905999999998,0,sub_9
0.0062933999999997,0.0088460000000011,-0.0031443999999998,-0.0012887999999995,0.0052552000000009,-0.0081443999999998,0,sub_9
0.0060043999999997,0.0086346000000011,-0.0029095999999998,-0.0013167999999995,0.0052600000000009,-0.0055915999999998,0,sub_9
0.0058849999999997,0.0086376000000011,-0.0025925999999998,-0.0013495999999995,0.0041996000000009,-0.0030375999999998,0,sub_9
0.0056027999999997,0.0092952000000011,-0.0029383999999998,-0.0011533999999995,0.0026980000000009,-0.0006841999999998,0,sub_9
0.0052165999999997,0.0099214000000011,-0.0019803999999999,-0.0005315999999995,0.0007696000000009,0.0014592,0,sub_9
0.0045091999999997,0.0102684000000011,-0.0020749999999999,0.0005052000000004,-0.001791799999999,0.002949,0,sub_9
0.0039387999999997,0.0102552000000011,-0.0025961999999999,0.0017600000000004,-0.0041373999999989,0.0035854,0,sub_9
0.0034187999999997,0.0097524000000011,-0.0030213999999999,0.0025958000000004,-0.005201599999999,0.00379,0,sub_9
0.0035085999999997,0.0083350000000011,-0.0028521999999999,0.0030106000000004,-0.005410199999999,0.0035632,0,sub_9
0.0038281999999997,0.0064594000000011,-0.0032987999999998,0.0032150000000004,-0.005615399999999,0.0026938,0,sub_9
0.0043165999999997,0.0057000000000011,-0.0037863999999998,0.0030044000000004,-0.005399999999999,0.0022648,0,sub_9
0.0049119999999997,0.0047556000000011,-0.0032941999999998,0.0027996000000004,-0.004754999999999,0.0009806,0,sub_9
0.0058161999999997,0.0047038000000011,-0.0029403999999998,0.0025948000000004,-0.003685599999999,0.0001232,0,sub_9
0.0055911999999997,0.0047680000000011,-0.0027889999999998,0.0019634000000004,-0.002614599999999,-0.0007371999999999,0,sub_9
0.0051257999999997,0.0050182000000011,-0.0025395999999999,0.0006794000000004,-0.000892599999999,-0.0003201999999999,0,sub_9
0.0048631999999997,0.0046514000000011,-0.0016951999999999,-0.0008147999999994,0.0014696000000009,9.44000000000873e-05,0,sub_9
0.0049853999999997,0.0062562000000011,-0.0021955999999999,-0.0023129999999994,0.0040404000000009,0.001577,0,sub_9
0.0040915999999997,0.0083798000000011,-0.0033657999999999,-0.0027491999999994,0.0057546000000009,0.0032816,0,sub_9
0.0028509999999997,0.0094042000000011,-0.0037251999999999,-0.0038303999999994,0.0066178000000009,0.0051966,0,sub_9
0.0010331999999998,0.0099038000000011,-0.0044311999999998,-0.0034141999999994,0.0051216000000009,0.006056,0,sub_9
8.37999999998075e-05,0.0092232000000011,-0.0048395999999998,-0.0025731999999994,0.0021366000000009,0.005852,0,sub_9
-0.0008344000000001,0.0068852000000011,-0.0057297999999998,-0.0019497999999994,-0.000397399999999,0.003923,0,sub_9
-0.0007478000000001,0.0043254000000011,-0.0055589999999998,-0.0028131999999994,-0.001859399999999,0.001555,0,sub_9
0.0007059999999998,0.0040962000000011,-0.0057205999999998,-0.0025991999999995,-0.001830199999999,-0.0016621999999998,0,sub_9
0.0028937999999997,0.0046850000000011,-0.0058633999999998,-0.0023785999999995,0.0001148000000009,-0.0044543999999998,0,sub_9
0.0034065999999997,0.0054636000000011,-0.0058729999999998,-0.0023657999999994,0.0044000000000009,-0.0061827999999998,0,sub_9
0.0030251999999997,0.0067816000000011,-0.0045117999999998,-0.0021341999999994,0.0080228000000009,-0.0066131999999998,0,sub_9
0.0034605999999997,0.0070350000000011,-0.0032029999999999,-0.0034087999999994,0.0090934000000009,-0.0068371999999998,0,sub_9
0.0040217999999997,0.0071490000000011,-0.0027483999999999,-0.0025553999999994,0.0095148000000009,-0.0064043999999999,0,sub_9
0.0045397999999997,0.0074078000000011,-0.0018623999999999,-0.0023493999999994,0.0086624000000009,-0.0062021999999999,0,sub_9
0.0055899999999997,0.0088744000000011,-0.0007583999999999,-0.0019375999999994,0.0063170000000009,-0.0057829999999999,0,sub_9
0.0079165999999997,0.0098838000000011,-0.0004583999999999,-0.0006811999999995,0.0024756000000009,-0.0049287999999999,0,sub_9
0.0086441999999997,0.0109410000000011,-0.0005341999999999,0.0029262000000004,0.0001148000000009,-0.0034189999999999,0,sub_9
0.0080037999999997,0.0102056000000011,-0.0008923999999999,0.0039694000000004,-0.002664799999999,-0.0014993999999999,0,sub_9
0.0069235999999997,0.0093960000000011,-0.0018555999999999,0.0045874000000004,-0.005020799999999,0.0010716,0,sub_9
0.0053503999999997,0.0074706000000011,-0.0032283999999999,0.0049988000000004,-0.006309199999999,0.0032124,0,sub_9
0.0031859999999997,0.0058030000000011,-0.0044463999999998,0.0043512000000004,-0.006313799999999,0.004917,0,sub_9
0.0011859999999997,0.0045870000000011,-0.0057109999999998,0.0024272000000004,-0.006311999999999,0.0055386,0,sub_9
-0.0002258000000002,0.0039836000000011,-0.0057763999999998,0.0009328000000004,-0.005672799999999,0.0061624,0,sub_9
-0.0008476000000002,0.0033598000000011,-0.0060721999999998,-0.0007615999999995,-0.003110999999999,0.0057142,0,sub_9
-0.0010596000000002,0.0043226000000011,-0.0070411999999998,-0.0024531999999995,-0.000758799999999,0.0044118,0,sub_9
-0.0013546000000002,0.0056308000000011,-0.0063471999999998,-0.0037161999999995,0.0018058000000009,0.0028984,0,sub_9
-0.0011080000000002,0.0068248000000011,-0.0060107999999999,-0.0034817999999995,0.0052190000000009,0.0016138,0,sub_9
-0.0001266000000002,0.0081812000000011,-0.0055023999999999,-0.0032511999999995,0.0077800000000009,0.0003302000000001,0,sub_9
0.0007111999999997,0.0089132000000011,-0.0049661999999999,-0.0028147999999995,0.0086358000000009,-0.0009497999999998,0,sub_9
0.0018725999999997,0.0088438000000011,-0.0041241999999999,-0.0021737999999994,0.0082100000000009,-0.0015857999999998,0,sub_9
0.0033825999999997,0.0079324000000011,-0.0033625999999999,-0.0026007999999994,0.0082210000000009,-0.0026627999999998,0,sub_9
0.0046365999999997,0.0057830000000011,-0.0024207999999999,-0.0043089999999994,0.0084478000000009,-0.0033217999999998,0,sub_9
0.0056323999999997,0.0036546000000012,-0.0015251999999999,-0.0062287999999994,0.0088894000000009,-0.0041959999999999,0,sub_9
0.0074279999999997,0.0023632000000012,-0.0009893999999999,-0.0087887999999994,0.0095452000000009,-0.0048613999999999,0,sub_9
0.0082181999999997,0.0021596000000012,-0.0003761999999999,-0.0121943999999995,0.0110598000000009,-0.0063883999999999,0,sub_9
0.0083759999999997,0.0031806000000012,-0.0003309999999999,-0.0138859999999994,0.0127770000000009,-0.0081115999999999,0,sub_9
0.0074899999999997,0.0055714000000012,-0.0002747999999999,-0.0134497999999994,0.0129962000000009,-0.0100315999999999,0,sub_9
0.0058589999999997,0.0091180000000011,-0.0009511999999999,-0.0106757999999994,0.0108608000000009,-0.0117283999999998,0,sub_9
0.0026557999999997,0.0128586000000011,-0.0013725999999999,-0.0051365999999994,0.0072228000000009,-0.0129765999999998,0,sub_9
-1.7400000000212384e-05,0.0154020000000011,-0.0021451999999999,0.0016750000000005,0.0035734000000009,-0.0125067999999998,0,sub_9
-0.0027362000000002,0.0164714000000011,-0.0036629999999999,0.0069796000000004,-0.001143599999999,-0.0101233999999998,0,sub_9
-0.0042288000000001,0.0157104000000011,-0.0050823999999998,0.0109916000000004,-0.006716199999999,-0.0058251999999999,0,sub_9
-0.0045058000000001,0.0126812000000011,-0.0056193999999998,0.0111636000000004,-0.010785399999999,-0.0006913999999999,0,sub_9
-0.0034280000000001,0.0083566000000011,-0.0060757999999998,0.0081438000000004,-0.012713799999999,0.004631,0,sub_9
-0.0018052000000002,0.0043890000000011,-0.0064459999999998,0.0038534000000004,-0.013355999999999,0.0090884,0,sub_9
0.0002037999999997,0.0015744000000011,-0.0060109999999998,-0.0010597999999995,-0.0123001999999989,0.0126896,0,sub_9
0.0026503999999997,0.0008174000000012,-0.0053377999999999,-0.0050973999999994,-0.0084689999999989,0.014157,0,sub_9
0.0047039999999997,0.0022876000000012,-0.0050413999999999,-0.0067705999999994,-0.0029331999999989,0.0135022,0,sub_9
0.0060385999999997,0.0045128000000012,-0.0037661999999999,-0.0067319999999994,0.0023888000000009,0.0115778,0,sub_9
0.0059587999999997,0.0058960000000011,-0.0027363999999999,-0.0045557999999994,0.0070700000000009,0.0081736,0,sub_9
0.0059631999999997,0.0066524000000011,-0.0024029999999999,-0.0013225999999994,0.0100586000000009,0.0039196,0,sub_9
0.0053843999999997,0.0070186000000011,-0.0025573999999999,0.0006246000000004,0.0111366000000009,-0.0009819999999999,0,sub_9
0.0044551999999997,0.0068024000000011,-0.0021319999999999,0.0012782000000004,0.0105096000000009,-0.0046085999999998,0,sub_9
0.0032059999999997,0.0067166000000011,-0.0021851999999999,0.0014982000000004,0.0094538000000009,-0.0071693999999998,0,sub_9
0.0031785999999997,0.0070560000000011,-0.0024375999999999,0.0002068000000004,0.0069010000000009,-0.0073887999999998,0,sub_9
0.0029443999999997,0.0081590000000011,-0.0025677999999999,-0.0015209999999995,0.0039166000000009,-0.0059013999999998,0,sub_9
0.0027667999999997,0.0088286000000011,-0.0026047999999999,-0.0030391999999995,0.0013526000000009,-0.0031311999999998,0,sub_9
0.0026837999999997,0.0088200000000011,-0.0032075999999998,-0.0032723999999995,-0.000362799999999,-0.0005667999999999,0,sub_9
0.0029919999999997,0.0086446000000011,-0.0036959999999998,-0.0035045999999995,-0.002077599999999,0.0017838,0,sub_9
0.0026527999999997,0.0081658000000011,-0.0037129999999998,-0.0026587999999995,-0.002723999999999,0.0028588,0,sub_9
0.0025345999999997,0.0067900000000011,-0.0038873999999998,-0.0018051999999995,-0.002726999999999,0.0028646,0,sub_9
0.0022511999999997,0.0060004000000011,-0.0041083999999998,-9.139999999950906e-05,-0.001878199999999,0.0022346,0,sub_9
0.0013853999999997,0.0058640000000011,-0.0044025999999998,0.0005616000000004,-0.000612399999999,0.0020226,0,sub_9
0.0002373999999997,0.0058428000000011,-0.0048783999999998,0.0010032000000004,0.0010804000000009,0.0018086,0,sub_9
-0.0004356000000001,0.0061110000000011,-0.0053209999999998,0.0008026000000004,0.0025614000000009,0.001804,0,sub_9
-0.0007228000000001,0.0064884000000011,-0.0051735999999998,0.0006022000000004,0.0038302000000009,0.001586,0,sub_9
-0.0003984000000001,0.0066990000000011,-0.0044841999999998,0.0001806000000004,0.0036076000000009,0.0015818,0,sub_9
0.0008251999999997,0.0063256000000011,-0.0040061999999999,-0.0004613999999995,0.0029716000000009,0.0013644,0,sub_9
0.0022131999999997,0.0063204000000011,-0.0034525999999999,-0.0008861999999995,0.0025504000000009,0.0005074,0,sub_9
0.0044365999999997,0.0069118000000011,-0.0024651999999999,-0.0023601999999994,0.0014676000000009,-0.0005531999999998,0,sub_9
0.0051455999999997,0.0066034000000011,-0.0012573999999999,-0.0025559999999995,-0.000257999999999,-0.0018177999999998,0,sub_9
0.0050425999999997,0.0060362000000011,-0.0011577999999999,-0.0025363999999995,-0.001345999999999,-0.0028679999999998,0,sub_9
0.0050905999999997,0.0064514000000011,-0.0021005999999999,-0.0020851999999995,-0.001794799999999,-0.0043431999999998,0,sub_9
0.0046059999999997,0.0068020000000011,-0.0029507999999999,-0.0014263999999995,-0.002249399999999,-0.0045351999999998,0,sub_9
0.0033653999999997,0.0067166000000011,-0.0041903999999999,0.0002768000000004,-0.001834399999999,-0.0032419999999998,0,sub_9
0.0020465999999997,0.0070506000000011,-0.0056979999999999,0.0011264000000004,-0.000143199999999,-0.0006743999999998,0,sub_9
0.0014691999999997,0.0076072000000011,-0.0063325999999999,0.0011264000000004,0.0019788000000009,0.0014594000000001,0,sub_9
0.0003231999999997,0.0074348000000011,-0.0055969999999999,0.0013340000000004,0.0028218000000009,0.0035962000000001,0,sub_9
-0.0003702000000002,0.0073072000000011,-0.0057939999999999,0.0011246000000004,0.0030262000000009,0.0044546,0,sub_9
-0.0012790000000001,0.0070310000000011,-0.0051935999999998,0.0007030000000004,0.0023832000000009,0.0042444,0,sub_9
-0.0005360000000002,0.0071982000000011,-0.0048417999999998,-0.0001433999999995,0.0013192000000009,0.0031772,0,sub_9
0.0002151999999997,0.0073864000000011,-0.0048917999999998,-0.0007793999999994,3.960000000096434e-05,0.002539,0,sub_9
0.0016363999999997,0.0074242000000011,-0.0046875999999998,-0.0018411999999994,-0.000600999999999,0.0023244,0,sub_9
0.0026765999999997,0.0068818000000011,-0.0041495999999998,-0.0024831999999994,-0.000600399999999,0.0027472,0,sub_9
0.0037551999999997,0.0058000000000011,-0.0045015999999999,-0.0026985999999994,-0.000176799999999,0.0035998,0,sub_9
0.0045551999999997,0.0048706000000011,-0.0050699999999999,-0.0024823999999994,0.0006738000000009,0.0038138,0,sub_9
0.0045087999999997,0.0039592000000011,-0.0046141999999999,-0.0028945999999995,0.0017256000000009,0.0035976,0,sub_9
0.0037495999999997,0.0037104000000011,-0.0050787999999999,-0.0024485999999995,0.0034154000000009,0.0029592,0,sub_9
0.0032769999999997,0.0038104000000011,-0.0052749999999998,-0.0020053999999995,0.0042538000000009,0.0021084000000001,0,sub_9
0.0025339999999997,0.0053206000000011,-0.0052509999999998,-0.0017717999999995,0.0050964000000009,0.0004014000000001,0,sub_9
0.0013917999999997,0.0070670000000011,-0.0048919999999998,-0.0015437999999995,0.0052972000000009,-0.0006637999999998,0,sub_9
0.0004031999999998,0.0084894000000011,-0.0049211999999998,-0.0002605999999995,0.0050832000000009,-0.0015089999999998,0,sub_9
8.419999999980726e-05,0.0097168000000011,-0.0044155999999998,0.0005880000000004,0.0033782000000009,-0.0021417999999998,0,sub_9
-0.0001986000000001,0.0104830000000011,-0.0039895999999999,0.0014418000000004,0.0014482000000009,-0.0023469999999999,0,sub_9
0.0006237999999997,0.0097882000000011,-0.0036149999999999,0.0020796000000004,-0.000483799999999,-0.0019125999999999,0,sub_9
0.0020773999999997,0.0087186000000011,-0.0034281999999999,0.0027172000000004,-0.002203399999999,-0.0012647999999999,0,sub_9
0.0033607999999997,0.0076762000000011,-0.0033073999999998,0.0029252000000004,-0.003924199999999,2.0800000000087157e-05,0,sub_9
0.0040551999999997,0.0061232000000011,-0.0037509999999998,0.0029256000000004,-0.004577999999999,0.00109,0,sub_9
0.0042215999999997,0.0055278000000011,-0.0038899999999998,0.0024960000000004,-0.004366999999999,0.0019414,0,sub_9
0.0035265999999997,0.0052260000000011,-0.0042171999999998,0.0018558000000004,-0.003727999999999,0.002577,0,sub_9
0.0018191999999997,0.0053528000000011,-0.0045897999999998,0.0012186000000004,-0.002662199999999,0.0029984,0,sub_9
0.0008481999999997,0.0053842000000011,-0.0053753999999998,0.0003806000000004,-0.001174399999999,0.0023488,0,sub_9
-0.0002614000000002,0.0058382000000011,-0.0055991999999998,-3.3399999999509086e-05,9.720000000096432e-05,0.0021296,0,sub_9
-0.0005848000000002,0.0061870000000011,-0.0058267999999998,-0.0002331999999995,0.0013690000000009,0.0016984,0,sub_9
-0.0007538000000002,0.0066644000000011,-0.0062079999999998,-9.999999999509055e-06,0.0017870000000009,0.0012712,0,sub_9
-4.1200000000232695e-05,0.0064126000000011,-0.0054375999999998,-0.0002117999999995,0.0019960000000009,0.0002004,0,sub_9
0.0001601999999997,0.0069226000000011,-0.0049675999999998,-0.0002109999999995,0.0017848000000009,-0.0002265999999999,0,sub_9
0.0010057999999997,0.0071286000000011,-0.0045713999999998,-0.0004233999999995,0.0013620000000009,-0.0008683999999998,0,sub_9
0.0015799999999997,0.0065856000000011,-0.0040115999999998,-0.0004281999999995,0.0005090000000009,-0.0006537999999998,0,sub_9
0.0027597999999997,0.0067566000000011,-0.0032237999999999,-0.0006401999999995,0.0002894000000009,-0.0004401999999999,0,sub_9
0.0031635999999997,0.0072216000000011,-0.0037189999999999,-0.0006443999999995,-0.000147999999999,0.0008434,0,sub_9
0.0033363999999997,0.0069114000000011,-0.0037193999999999,-0.0004331999999995,-0.000372399999999,0.0019144,0,sub_9
0.0023877999999998,0.0068626000000011,-0.0037377999999999,-0.0004345999999995,-0.000382799999999,0.0029838,0,sub_9
0.0020979999999997,0.0070270000000011,-0.0038207999999999,-0.0002167999999995,-0.000176799999999,0.0029862,0,sub_9
0.0009177999999997,0.0067840000000011,-0.0042717999999999,-0.0004301999999995,-0.000388199999999,0.0027714,0,sub_9
0.0001667999999997,0.0068882000000011,-0.0042505999999999,-0.0004263999999995,-0.000596999999999,0.0017034,0,sub_9
-0.0004492000000002,0.0071848000000011,-0.0043323999999998,-0.0004207999999995,-0.000591999999999,0.0004216,0,sub_9
-4.4800000000232695e-05,0.0074728000000011,-0.0046573999999998,-0.0004083999999995,-0.000379399999999,-0.0010797999999999,0,sub_9
-6.320000000021266e-05,0.0070354000000011,-0.0048227999999998,-0.0006111999999994,4.440000000096429e-05,-0.0019419999999999,0,sub_9
0.0002857999999997,0.0069950000000011,-0.0047405999999998,-0.0006005999999994,0.0006798000000009,-0.0025893999999999,0,sub_9
0.0009203999999997,0.0068444000000011,-0.0048473999999998,-0.0003805999999994,0.0013110000000009,-0.0023805999999999,0,sub_9
0.0015463999999997,0.0066554000000011,-0.0047017999999998,-0.0008005999999994,0.0017324000000009,-0.0023897999999999,0,sub_9
0.0010955999999997,0.0061276000000011,-0.0040589999999998,-0.0005871999999994,0.0023682000000009,-0.0017481999999998,0,sub_9
0.0017249999999997,0.0067602000000011,-0.0041499999999998,-0.0003795999999994,0.0021502000000009,-0.0006781999999998,0,sub_9
0.0020625999999998,0.0069724000000011,-0.0040487999999998,-0.0003853999999995,0.0012962000000009,-0.0002497999999998,0,sub_9
0.0021687999999998,0.0074454000000011,-0.0041277999999998,-0.0008159999999994,0.0008698000000009,0.0001750000000001,0,sub_9
0.0022339999999998,0.0084462000000011,-0.0046349999999999,-0.0008159999999994,0.0006450000000009,0.0005996000000001,0,sub_9
0.0021383999999997,0.0088036000000011,-0.0051987999999999,-0.0010313999999994,-0.000429399999999,0.0005966,0,sub_9
0.0009441999999997,0.0084564000000011,-0.0058135999999999,-0.0010343999999994,-0.001929799999999,0.000382,0,sub_9
0.0004939999999997,0.0078260000000011,-0.0063437999999999,-0.0008209999999994,-0.002367399999999,0.0005946,0,sub_9
0.0003309999999997,0.0066810000000011,-0.0067203999999999,-0.0008189999999995,-0.002802599999999,0.0003786,0,sub_9
0.0005227999999997,0.0055542000000011,-0.0064187999999998,-0.0006065999999995,-0.002379799999999,0.0010206,0,sub_9
0.0011623999999997,0.0050390000000011,-0.0062259999999998,-0.0006065999999995,-0.001743199999999,0.0016606,0,sub_9
0.0017139999999997,0.0047952000000011,-0.0058601999999998,-0.0010285999999995,-3.979999999905591e-05,0.0022964,0,sub_9
0.0018931999999997,0.0051758000000011,-0.0052305999999998,-0.0010275999999995,0.0012340000000009,0.0029302,0,sub_9
0.0015963999999997,0.0061116000000011,-0.0046229999999998,-0.0005977999999995,0.0025080000000009,0.0031396,0,sub_9
0.0012139999999997,0.0062234000000011,-0.0041973999999999,-0.0003833999999995,0.0027200000000009,0.002708,0,sub_9
0.0005757999999997,0.0068502000000011,-0.0038481999999999,-0.0003821999999995,0.0029328000000009,0.002275,0,sub_9
0.0006363999999997,0.0071990000000011,-0.0036831999999999,4.5800000000490935e-05,0.0025074000000009,0.0012046,0,sub_9
0.0002745999999997,0.0070126000000011,-0.0032471999999999,0.0002602000000004,0.0018710000000009,0.0003524,0,sub_9
0.0002735999999997,0.0065758000000011,-0.0038647999999999,0.0006860000000004,0.0010198000000009,-0.0002843999999998,0,sub_9
0.0003273999999997,0.0064686000000011,-0.0046541999999999,0.0006824000000004,0.0001652000000009,-0.0005027999999998,0,sub_9
0.0010977999999997,0.0056946000000011,-0.0049863999999999,0.0008930000000004,-0.000264999999999,-0.0005065999999998,0,sub_9
0.0013225999999997,0.0053674000000011,-0.0050095999999999,0.0006788000000004,-5.539999999903595e-05,-0.0003003999999998,0,sub_9
0.0017679999999997,0.0056008000000011,-0.0058649999999999,0.0004656000000004,0.0003672000000009,-9.45999999998929e-05,0,sub_9
