userAcceleration.x,userAcceleration.y,userAcceleration.z,rotationRate.x,rotationRate.y,rotationRate.z,label,subject
0.0064219999999998,0.0007286000000011,-0.0019075999999999,0.0916520000000004,0.0538336000000009,0.0450788,0,sub_6
0.0066425999999998,-0.0002855999999988,-0.0034117999999999,0.1063612000000004,0.0510084000000009,0.0453996,0,sub_6
0.0057629999999997,0.0012954000000011,-0.0073303999999999,0.1191960000000004,0.0584162000000009,0.0456942,0,sub_6
0.0043187999999997,0.0036158000000011,-0.0110987999999999,0.1292376000000004,0.0649680000000009,0.0493886,0,sub_6
0.0011871999999997,0.0031966000000011,-0.0130539999999998,0.1362566000000004,0.0693766000000009,0.0588332,0,sub_6
-0.0015308000000001,0.0011710000000012,-0.0131119999999998,0.1372880000000004,0.0729486000000009,0.0703726,0,sub_6
-0.0065732000000001,-0.0013805999999987,-0.0116173999999998,0.1345046000000004,0.0752838000000009,0.0748366,0,sub_6
-0.0096636000000001,-0.0024869999999987,-0.0129275999999998,0.1285714000000004,0.0802220000000009,0.070516,0,sub_6
-0.0114260000000001,-0.0034323999999987,-0.0112651999999998,0.1173368000000004,0.0875394000000009,0.0608146,0,sub_6
-0.0111704000000001,-0.0008115999999987,-0.0102789999999999,0.1058764000000004,0.0891170000000009,0.0481278,0,sub_6
-0.0100744000000001,-0.0023059999999987,-0.0083267999999999,0.0967822000000004,0.0887938000000009,0.0292646,0,sub_6
-0.0055018000000001,-0.0062281999999987,-0.0076085999999999,0.0847056000000004,0.0903952000000009,0.0112326,0,sub_6
0.0017005999999998,-0.0098395999999987,-0.0048785999999999,0.0685548000000003,0.0924170000000009,-0.0019145999999999,0,sub_6
0.0105633999999998,-0.0105419999999987,-0.0006525999999999,0.0502250000000004,0.0886794000000009,-0.0103699999999999,0,sub_6
0.0214805999999998,-0.0125173999999987,0.0052768,0.0325324000000004,0.0866346000000009,-0.0164729999999999,0,sub_6
0.0306529999999997,-0.0072033999999987,0.006638,0.0154242000000004,0.0815674000000008,-0.0131677999999999,0,sub_6
0.0375131999999997,-0.0034063999999987,0.0063284,-4.01999999995982e-05,0.0707084000000008,-0.0015113999999999,0,sub_6
0.0356819999999997,-0.0051049999999987,0.0067818,-0.0203825999999995,0.0643494000000009,0.0079686,0,sub_6
0.0252609999999997,-0.0023139999999987,0.0067278,-0.0408865999999995,0.0597348000000009,0.0076176,0,sub_6
0.0094199999999997,0.0042254000000012,-0.0018985999999999,-0.0537483999999995,0.0501778000000009,0.011172,0,sub_6
0.0024753999999997,0.0048020000000011,-0.0108067999999999,-0.0632393999999995,0.0407826000000009,0.0245774,0,sub_6
-0.0007266000000002,0.0109594000000011,-0.0140185999999998,-0.0714175999999995,0.0365048000000009,0.0358488,0,sub_6
-0.0034200000000001,0.0175968000000011,-0.0135313999999998,-0.0674875999999995,0.0263918000000009,0.0544772,0,sub_6
-0.0053156000000001,0.0184916000000011,-0.0163355999999998,-0.0550715999999995,0.0130226000000009,0.0808602,0,sub_6
-0.0010900000000002,0.0157252000000011,-0.0130113999999998,-0.0527061999999995,0.0011542000000009,0.1135804,0,sub_6
-0.0028246000000002,0.0122698000000012,-0.0059715999999998,-0.0520035999999995,-0.013639799999999,0.133474,0,sub_6
-0.0054474000000001,0.0045752000000012,-0.0035423999999998,-0.0506581999999995,-0.031404399999999,0.149744,0,sub_6
-0.0010966000000002,0.0022290000000012,-0.0092603999999998,-0.0516679999999995,-0.055943399999999,0.1600232000000001,0,sub_6
0.0066451999999997,-0.0020395999999987,-0.0100731999999998,-0.0560543999999995,-0.071736999999999,0.1706950000000001,0,sub_6
0.0073105999999997,-0.0042781999999987,-0.0065701999999999,-0.0597841999999995,-0.078237199999999,0.1704392,0,sub_6
-0.0020272000000001,0.0003636000000012,-0.0033271999999999,-0.0657843999999995,-0.072141199999999,0.1656648,0,sub_6
-0.0185046000000001,0.0034382000000012,0.0002898,-0.0698515999999995,-0.065191999999999,0.15898,0,sub_6
-0.0367070000000001,0.0022190000000012,0.0065362,-0.0685125999999995,-0.053529199999999,0.1410038,0,sub_6
-0.0507852000000001,0.0015142000000012,0.0085228,-0.0630581999999995,-0.042250599999999,0.1089564,0,sub_6
-0.0519300000000001,-0.0007065999999987,0.0058126,-0.0572649999999995,-0.025500199999999,0.0709466,0,sub_6
-0.0370162000000002,-0.0008151999999987,0.0055106,-0.0455299999999995,-0.012831599999999,0.0361882,0,sub_6
-0.0130140000000002,0.0013768000000012,0.0067114,-0.0257577999999995,-0.009803199999999,0.0076942,0,sub_6
0.0108157999999997,0.0072032000000012,0.0062932,-0.0113755999999995,-0.004683599999999,-0.0063123999999999,0,sub_6
0.0309591999999997,0.0138806000000012,0.0042236,-0.0062401999999995,-0.000868999999999,-0.0056405999999999,0,sub_6
0.0388981999999998,0.0200722000000012,-0.0005855999999999,-0.0024953999999995,-0.010940999999999,0.0057216,0,sub_6
0.0341727999999997,0.0175692000000012,-0.0094033999999999,-0.0092355999999995,-0.020578399999999,0.0240604,0,sub_6
0.0228481999999997,0.0147988000000012,-0.0198091999999999,-0.0297989999999995,-0.018243399999999,0.0439962,0,sub_6
0.0121041999999997,0.0097024000000012,-0.0290767999999999,-0.0529159999999995,-0.016105599999999,0.0622054,0,sub_6
0.0025511999999997,0.0047224000000011,-0.0299709999999999,-0.0813041999999995,-0.007102599999999,0.0731052,0,sub_6
-0.0040420000000002,0.0006420000000011,-0.0171959999999999,-0.1093619999999995,0.0185552000000009,0.0745856,0,sub_6
-0.0091272000000002,0.0002064000000011,-0.0084011999999999,-0.1184161999999995,0.0418244000000009,0.0708606,0,sub_6
-0.0031334000000002,0.0015370000000011,-0.0035657999999999,-0.1108637999999995,0.0514224000000009,0.0617144,0,sub_6
0.0040183999999997,0.0024316000000011,0.0026258,-0.0962231999999995,0.0691012000000009,0.0502572,0,sub_6
0.0056991999999997,0.0031452000000011,0.005983,-0.0739787999999995,0.0752252000000009,0.0446362,0,sub_6
0.0046977999999997,0.0070776000000011,-6.199999999990692e-05,-0.0466795999999995,0.0755432000000009,0.048031,0,sub_6
0.0046349999999997,0.0084010000000012,-0.0036525999999999,-0.0249365999999995,0.0748118000000009,0.052243,0,sub_6
-0.0057950000000002,0.0087570000000012,-0.0019197999999999,-0.0078667999999995,0.0783594000000009,0.0559896,0,sub_6
-0.0232928000000002,0.0094578000000012,-0.0034727999999999,0.0162060000000004,0.0727238000000009,0.059156,0,sub_6
-0.0274094000000002,0.0085446000000012,-0.0089915999999999,0.0490308000000004,0.0568602000000009,0.0559892,0,sub_6
-0.0216514000000002,0.0047546000000012,-0.0184443999999999,0.0793592000000004,0.0503994000000009,0.047879,0,sub_6
-0.0191834000000002,0.0045826000000012,-0.0205329999999999,0.0975360000000004,0.0541760000000009,0.0475756,0,sub_6
-0.0194588000000002,0.0067890000000012,-0.0148633999999999,0.1134572000000004,0.0408760000000009,0.0573196,0,sub_6
-0.0117278000000002,0.0092822000000012,-0.0044257999999999,0.1254016000000004,0.0034896000000009,0.0732624,0,sub_6
-0.0060408000000002,0.0131054000000012,-0.0044273999999999,0.1390676000000004,-0.018171799999999,0.0971,0,sub_6
-0.0121180000000002,0.0174386000000012,0.0018742,0.1558336000000004,-0.055848999999999,0.1273894,0,sub_6
-0.0114884000000002,0.0225242000000012,0.0015786,0.1815544000000004,-0.099504999999999,0.1532624,0,sub_6
0.0022957999999997,0.0172486000000012,-0.0036135999999999,0.2112436000000004,-0.130329199999999,0.1635506,0,sub_6
0.0109213999999997,0.0120534000000012,-0.0077879999999999,0.2348800000000004,-0.138093799999999,0.1667166,0,sub_6
0.0077287999999998,0.0023644000000012,0.0030554,0.2507822000000004,-0.158822799999999,0.1685634,0,sub_6
0.0062831999999997,-0.0011099999999987,0.0074892,0.2619442000000004,-0.204827999999999,0.1552406000000001,0,sub_6
0.0021289999999997,-0.0086433999999987,0.0031396,0.2647890000000004,-0.2198407999999991,0.1243012,0,sub_6
-0.0091746000000002,-0.0059415999999987,-0.0009553999999999,0.2581364000000004,-0.207353399999999,0.0975332,0,sub_6
-0.0182348000000002,-0.0020815999999987,-0.0035975999999999,0.2512744000000004,-0.191042199999999,0.07375,0,sub_6
-0.0201700000000002,0.0014996000000012,-0.0118537999999999,0.2367262000000004,-0.179588999999999,0.0460736,0,sub_6
-0.0205800000000002,4.780000000121944e-05,-0.0195571999999999,0.2126874000000003,-0.135961199999999,0.0257672,0,sub_6
-0.0228438000000002,0.0160208000000012,-0.0195093999999999,0.1967716000000003,-0.122883399999999,0.01923,0,sub_6
-0.0170138000000002,0.0163920000000011,-0.0184259999999999,0.1840210000000003,-0.121307199999999,0.0090976,0,sub_6
-0.0149060000000002,0.0143536000000011,-0.0162899999999999,0.1693538000000004,-0.118872199999999,-0.0010493999999999,0,sub_6
-0.0128122000000002,0.0166782000000011,-0.0120219999999999,0.1637058000000004,-0.105382799999999,-0.0128565999999999,0,sub_6
-0.0109096000000002,0.0152050000000011,-0.0079459999999999,0.1725672000000004,-0.094066199999999,-0.0266959999999999,0,sub_6
-0.0034894000000002,-0.0014071999999987,-0.0017269999999999,0.1764914000000004,-0.093581199999999,-0.0448289999999999,0,sub_6
-0.0078690000000002,0.0100576000000012,-0.0064331999999999,0.1779860000000004,-0.101224799999999,-0.0527135999999998,0,sub_6
0.0033365999999997,-0.0012699999999987,-0.0041073999999999,0.1721550000000003,-0.114211199999999,-0.0501737999999998,0,sub_6
0.0048403999999997,-0.0065595999999987,-0.0064065999999999,0.1740696000000004,-0.1188913999999989,-0.0535725999999998,0,sub_6
0.0140815999999997,-0.0093319999999987,-0.0043809999999999,0.1673630000000004,-0.134652799999999,-0.0488991999999998,0,sub_6
0.0181405999999997,-0.0146979999999987,-0.0036599999999999,0.1519216000000003,-0.139973999999999,-0.0368225999999999,0,sub_6
0.0214173999999997,-0.0365143999999987,0.0086128,0.1322846000000004,-0.131210999999999,-0.0267159999999999,0,sub_6
0.0115767999999997,-0.0316425999999987,0.0096956,0.1159124000000004,-0.118158199999999,-0.0266335999999999,0,sub_6
0.0058857999999997,-0.0321817999999987,0.0158032,0.0873052000000004,-0.112766999999999,-0.0180809999999999,0,sub_6
-0.0067546000000001,-0.0336561999999987,0.0145814,0.0594494000000003,-0.091364199999999,-0.0183029999999999,0,sub_6
-0.0148500000000001,-0.0291023999999987,0.0152742,0.0357184000000004,-0.064182799999999,-0.0285447999999999,0,sub_6
-0.0153470000000001,-0.0180487999999987,0.011854,0.0110766000000004,-0.054874599999999,-0.0438975999999999,0,sub_6
-0.0172820000000001,-0.0079901999999987,0.0058556,-0.0112563999999995,-0.051125799999999,-0.0562359999999999,0,sub_6
-0.0178570000000001,-2.199999998779914e-06,-0.0038075999999999,-0.0320499999999995,-0.037579999999999,-0.0690035999999999,0,sub_6
-0.0154842000000001,0.0064194000000012,-0.0053351999999999,-0.0492353999999995,-0.027246999999999,-0.0806735999999999,0,sub_6
-0.0093008000000001,0.0107884000000012,-0.0057777999999999,-0.0643531999999995,-0.025892799999999,-0.0865493999999999,0,sub_6
-0.0023476000000002,0.0087750000000012,-0.0045469999999999,-0.0741481999999995,-0.022233199999999,-0.0874769999999999,0,sub_6
0.0089091999999997,0.0023548000000012,-0.0021035999999999,-0.0773391999999995,-0.017544999999999,-0.0849415999999999,0,sub_6
0.0203675999999998,-0.0034345999999987,0.0047492,-0.0756877999999995,-0.021207799999999,-0.0761659999999999,0,sub_6
0.0340203999999998,-0.0007013999999987,-0.0027979999999999,-0.0664153999999995,-0.027709799999999,-0.0566511999999999,0,sub_6
0.0364785999999997,0.0002766000000012,-0.0146083999999999,-0.0396837999999995,-0.036640399999999,-0.0310291999999999,0,sub_6
0.0322941999999997,0.0052612000000012,-0.0268773999999999,-0.0087049999999995,-0.045815999999999,-0.0011045999999999,0,sub_6
0.0196099999999998,0.0104636000000012,-0.0243837999999999,0.0076134000000004,-0.049155399999999,0.0205918,0,sub_6
0.0052713999999997,0.0136774000000012,-0.0212449999999999,0.0120358000000004,-0.049223199999999,0.0336552,0,sub_6
-0.0115976000000001,0.0075712000000012,-0.0080845999999999,0.0085892000000004,-0.056242799999999,0.0338538,0,sub_6
-0.0191548000000002,0.0012028000000012,0.0042262,-0.0060913999999995,-0.059124599999999,0.0213636,0,sub_6
-0.0247306000000002,-0.0070939999999987,0.0117864000000001,-0.0168381999999995,-0.051114999999999,-0.0009407999999999,0,sub_6
-0.0221736000000001,-0.0127471999999987,0.0063246000000001,-0.0034835999999995,-0.047229799999999,-0.0249943999999999,0,sub_6
-0.0132310000000001,-0.0155901999999987,-0.0007063999999998,0.0237932000000004,-0.039344599999999,-0.0463903999999999,0,sub_6
-0.0073790000000001,-0.0131741999999987,-0.0089117999999998,0.0534526000000004,-0.019765199999999,-0.0639389999999999,0,sub_6
-0.0055242000000001,-0.0120357999999987,-0.0107321999999998,0.0744774000000003,-0.014249799999999,-0.0734115999999999,0,sub_6
-0.0014914000000002,-0.0115161999999987,-0.0080967999999999,0.0764420000000004,-0.021249999999999,-0.0800099999999999,0,sub_6
0.0029303999999997,-0.0101399999999987,-0.0070629999999999,0.0568378000000004,-0.025432599999999,-0.0799261999999999,0,sub_6
0.0036753999999997,-0.0117397999999987,-0.0072877999999999,0.0342116000000004,-0.026846799999999,-0.0796549999999999,0,sub_6
0.0084247999999997,-0.0116831999999987,-0.0070485999999999,0.0147084000000004,-0.040436399999999,-0.0742191999999999,0,sub_6
0.0100535999999997,-0.0066231999999987,-0.0054061999999999,-0.0002813999999995,-0.045524799999999,-0.0674805999999999,0,sub_6
0.0084051999999998,-0.0051339999999987,-0.0027665999999999,-0.0150749999999995,-0.049780399999999,-0.0560415999999999,0,sub_6
0.0063609999999998,-0.0108105999999987,0.0035296,-0.0300761999999995,-0.054666799999999,-0.0465259999999999,0,sub_6
0.0081883999999997,0.0077422000000012,-0.0035621999999999,-0.0435837999999995,-0.054465399999999,-0.0318791999999998,0,sub_6
0.0067465999999997,0.0234994000000012,-0.0086741999999999,-0.0417477999999995,-0.057305799999999,-0.0158393999999998,0,sub_6
0.0025681999999997,0.0250010000000012,-0.0077747999999999,-0.0418167999999995,-0.061398999999999,-0.0045115999999998,0,sub_6
-0.0029890000000002,0.0236332000000012,-0.0023665999999999,-0.0448117999999995,-0.059485599999999,-0.0009029999999999,0,sub_6
-0.0052782000000002,0.0235380000000012,-0.0035359999999999,-0.0388383999999995,-0.060568399999999,-0.0017145999999999,0,sub_6
-0.0055128000000002,0.0202642000000012,-0.0109677999999999,-0.0267001999999995,-0.069756999999999,-0.0054635999999999,0,sub_6
-0.0131676000000002,0.0135426000000012,-0.0110367999999999,-0.0166353999999995,-0.068910799999999,-0.0126581999999999,0,sub_6
-0.0163320000000002,0.0090994000000012,-0.0137249999999999,-0.0052719999999995,-0.061898999999999,-0.0177151999999999,0,sub_6
-0.0121266000000001,0.0039754000000012,-0.0169399999999999,0.0048514000000004,-0.044449199999999,-0.0212989999999999,0,sub_6
-0.0100664000000002,0.0097548000000012,-0.0186571999999999,0.0134630000000004,-0.028495799999999,-0.0223273999999999,0,sub_6
-0.0108260000000002,-0.0013163999999987,-0.0013503999999999,0.0185926000000004,-0.029142599999999,-0.0248545999999999,0,sub_6
0.0007591999999997,-0.0058895999999987,0.0020380000000001,0.0077654000000004,-0.022053399999999,-0.0300667999999999,0,sub_6
0.0127363999999997,-0.0012263999999988,4.880000000011125e-05,-0.0008899999999995,-0.005176399999999,-0.0339945999999999,0,sub_6
0.0184599999999997,0.0085080000000011,-0.0035805999999998,0.0023098000000004,-0.002854199999999,-0.0314113999999999,0,sub_6
0.0208083999999998,0.0112598000000011,-0.0051529999999998,0.0069800000000004,-0.000981999999999,-0.0241173999999999,0,sub_6
0.0212729999999998,0.0149442000000012,-0.0087715999999998,0.0057112000000004,0.0100672000000009,-0.0155945999999999,0,sub_6
0.0153825999999998,0.0128192000000012,-0.0049683999999998,0.0069578000000004,0.0121550000000009,-0.0059745999999999,0,sub_6
0.0101507999999998,0.0079068000000012,-0.0026101999999998,0.0090332000000004,0.0065784000000009,0.0015246,0,sub_6
0.0037281999999998,0.0035170000000012,-0.0053249999999998,0.0115878000000004,0.0063520000000009,0.002611,0,sub_6
-0.0032266000000001,-0.0020255999999987,-0.0071581999999998,0.0188712000000004,0.0076254000000009,-0.0024671999999999,0,sub_6
-0.0096634000000001,-0.0083155999999987,-0.0058701999999998,0.0268016000000004,0.0082660000000009,-0.0096763999999999,0,sub_6
-0.0136526000000001,-0.0126929999999987,-0.0060129999999998,0.0289756000000004,0.0099918000000009,-0.0169273999999999,0,sub_6
-0.0144192000000001,-0.0140165999999987,-0.0082817999999998,0.0283498000000004,0.0070360000000009,-0.0231235999999999,0,sub_6
-0.0091366000000002,-0.0113393999999987,-0.0102419999999998,0.0296262000000004,0.0042696000000009,-0.0250339999999999,0,sub_6
-0.0028822000000002,-0.0080995999999987,-0.0110809999999998,0.0238614000000004,0.0049228000000009,-0.0235795999999999,0,sub_6
0.0003609999999998,-0.0018123999999987,-0.0115405999999999,0.0142788000000004,0.0121882000000009,-0.0206649999999999,0,sub_6
0.0046273999999998,0.0032100000000012,-0.0093039999999999,0.0063734000000004,0.0162382000000009,-0.0143159999999999,0,sub_6
0.0095289999999998,0.0071628000000012,-0.0066999999999999,0.0018898000000004,0.0228294000000009,-0.0070917999999999,0,sub_6
0.0105193999999998,0.0084362000000012,-0.0036437999999999,-0.0049475999999995,0.0270888000000009,-0.0007355999999999,0,sub_6
0.0084891999999998,0.0099794000000012,-0.0009709999999999,-0.0083863999999995,0.0279274000000009,0.0056488,0,sub_6
0.0074361999999998,0.0052314000000012,0.0014598,-0.0073827999999995,0.0193794000000009,0.0112216,0,sub_6
0.0057347999999998,0.0007844000000012,0.0013046,-0.0054911999999995,0.0136178000000009,0.0118832,0,sub_6
0.0025139999999998,-0.0033361999999987,0.0016578,-0.0052989999999995,0.0074446000000009,0.0103968,0,sub_6
-3.720000000019975e-05,-0.0063197999999987,-0.0001839999999999,-0.0023329999999995,0.0008372000000009,0.0085032,0,sub_6
-0.0002270000000001,-0.0076643999999987,-0.0018479999999999,-0.0019293999999995,-0.006187399999999,0.0065922,0,sub_6
0.0002979999999998,-0.0071483999999987,-0.0032291999999999,-0.0034421999999995,-0.009169999999999,0.0078674,0,sub_6
-0.0002354000000001,-0.0061499999999987,-0.0050949999999998,-0.0070819999999995,-0.013368199999999,0.0108592,0,sub_6
-0.0024126000000001,-0.0063469999999987,-0.0055425999999998,-0.0124439999999995,-0.019908399999999,0.0149104,0,sub_6
-0.0048258000000001,-0.0063077999999987,-0.0040731999999998,-0.0188709999999995,-0.026655399999999,0.0183134,0,sub_6
-0.0043094000000001,-0.0075645999999987,-0.0025387999999998,-0.0244109999999995,-0.028070399999999,0.0195792,0,sub_6
-0.0037152000000001,-0.0081195999999987,-0.0014433999999998,-0.0339743999999995,-0.025624399999999,0.017821,0,sub_6
-0.0026024000000001,-0.0073607999999987,5.240000000011152e-05,-0.0435617999999995,-0.021546399999999,0.0186034,0,sub_6
-9.580000000019972e-05,-0.0030389999999987,-0.0013917999999999,-0.0488951999999995,-0.020253599999999,0.0196328,0,sub_6
0.0027667999999998,0.0011368000000012,-0.0037865999999999,-0.0484539999999995,-0.018332599999999,0.0183514,0,sub_6
0.0033253999999998,0.0059426000000012,-0.0068255999999999,-0.0433253999999995,-0.018980199999999,0.016038,0,sub_6
0.0050175999999998,0.0100712000000012,-0.0088869999999998,-0.0346993999999995,-0.019925799999999,0.0139102,0,sub_6
0.0071167999999998,0.0122608000000012,-0.0101789999999998,-0.0251995999999995,-0.018946399999999,0.0092224,0,sub_6
0.0069327999999998,0.0097164000000012,-0.0079353999999998,-0.0180277999999995,-0.013697999999999,0.0045128,0,sub_6
0.0066125999999997,0.0070564000000012,-0.0063011999999998,-0.0159885999999995,-0.008017199999999,0.002758,0,sub_6
0.0055867999999998,0.0043744000000012,-0.0051285999999998,-0.0182175999999995,-0.000624999999999,0.0028938,0,sub_6
0.0037977999999998,0.0006174000000012,-0.0046371999999999,-0.0169189999999995,0.0040552000000009,0.0035378,0,sub_6
0.0011709999999998,-0.0034449999999987,-0.0049481999999999,-0.0128581999999995,0.0055324000000009,0.0035642,0,sub_6
-0.0004704000000001,-0.0050807999999987,-0.0068347999999999,-0.0079381999999995,0.0065874000000009,0.001888,0,sub_6
-0.0026782000000001,-0.0064227999999987,-0.0079541999999999,-0.0023731999999995,0.0082808000000009,-0.0002117999999999,0,sub_6
-0.0046032000000001,-0.0060285999999987,-0.0082491999999999,0.0021182000000004,0.0089112000000009,-0.0018903999999999,0,sub_6
-0.0063370000000001,-0.0042807999999987,-0.0080295999999999,0.0038328000000004,0.0099730000000009,-0.0025205999999999,0,sub_6
-0.0065234000000002,-0.0016887999999987,-0.0084837999999999,0.0038338000000003,0.0106104000000009,-0.0020939999999999,0,sub_6
-0.0064094000000001,0.0001506000000012,-0.0081211999999998,0.0021152000000004,0.0101818000000009,3.1000000000072114e-05,0,sub_6
-0.0058182000000001,0.0018308000000012,-0.0071651999999998,-0.0008873999999995,0.0093298000000009,0.0025748,0,sub_6
-0.0036458000000002,0.0022250000000012,-0.0062703999999998,-0.0021809999999995,0.0093222000000009,0.0055568,0,sub_6
-0.0012064000000002,0.0009922000000012,-0.0054791999999998,-0.0028317999999995,0.0080420000000009,0.006622,0,sub_6
0.0012601999999997,-0.0004365999999987,-0.0035785999999998,-0.0032565999999995,0.0078330000000009,0.0059784,0,sub_6
0.0036243999999997,-0.0010081999999987,-0.0024533999999998,-0.0019609999999995,0.0084786000000009,0.0032092,0,sub_6
0.0055335999999997,-0.0021897999999987,-0.0020187999999998,0.0001814000000004,0.0078422000000009,0.0006612,0,sub_6
0.0062601999999997,-0.0025005999999987,-0.0019157999999998,0.0012510000000004,0.0059312000000009,-0.0018925999999999,0,sub_6
0.0060663999999998,-0.0021899999999987,-0.0023987999999998,0.0021036000000004,0.0046540000000009,-0.0029531999999999,0,sub_6
0.0045949999999998,-0.0019169999999987,-0.0036343999999999,0.0023074000000004,0.0025228000000009,-0.0029491999999999,0,sub_6
0.0024797999999998,-0.0020539999999987,-0.0047029999999999,0.0007194000000004,0.0005792000000009,-0.0013603999999999,0,sub_6
0.0002773999999997,-0.0014213999999987,-0.0057607999999999,-0.0017173999999995,0.0001282000000009,0.0006478,0,sub_6
-0.0021142000000002,-0.0017345999999987,-0.0071809999999999,-0.0037225999999995,0.0005288000000009,0.0024442,0,sub_6
-0.0035952000000001,-0.0013361999999987,-0.0077751999999998,-0.0050857999999995,0.0002922000000009,0.0031776,0,sub_6
-0.0042344000000001,-0.0007235999999987,-0.0076319999999998,-0.0051581999999995,0.0015458000000009,0.0030636,0,sub_6
-0.0039146000000001,-0.0004867999999987,-0.0075205999999998,-0.0038701999999995,0.0026092000000009,0.0024302,0,sub_6
-0.0030582000000001,-0.0004977999999987,-0.0067239999999998,-0.0021505999999995,0.0036754000000009,0.0007316,0,sub_6
-0.0021694000000001,-0.0004677999999987,-0.0053909999999998,-0.0006335999999995,0.0044182000000009,-0.0005261999999999,0,sub_6
-0.0011156000000002,-0.0008999999999987,-0.0050509999999999,0.0002404000000004,0.0051608000000009,-0.0011473999999999,0,sub_6
-0.0005556000000002,-0.0014593999999987,-0.0048217999999999,3.980000000044191e-05,0.0052636000000009,-0.0007071999999999,0,sub_6
-0.0001474000000002,-0.0017147999999987,-0.0045903999999999,-0.0010171999999995,0.0051544000000009,0.0001546,0,sub_6
-0.0002960000000002,-0.0017753999999987,-0.0052901999999999,-0.0020789999999995,0.0048288000000009,0.0018712,0,sub_6
-7.080000000024022e-05,-0.0017045999999987,-0.0058491999999998,-0.0025133999999994,0.0041868000000009,0.0029372,0,sub_6
-0.0006658000000002,-0.0016035999999987,-0.0056223999999998,-0.0031563999999994,0.0039742000000009,0.0033602,0,sub_6
-0.0009438000000002,-0.0007163999999987,-0.0057753999999998,-0.0040021999999994,0.0050450000000009,0.002712,0,sub_6
-0.0013414000000001,-0.0003145999999987,-0.0063901999999998,-0.0045765999999995,0.0068342000000009,0.0027004,0,sub_6
-0.0010720000000001,-0.0002347999999987,-0.0065981999999998,-0.0045127999999995,0.0075584000000009,0.0020538,0,sub_6
-0.0010112000000001,-0.0001285999999987,-0.0069687999999999,-0.0035963999999995,0.0076422000000009,0.0009868,0,sub_6
-0.0008708000000001,-0.0001921999999987,-0.0075681999999999,-0.0024627999999995,0.0081530000000009,-0.0005065999999999,0,sub_6
-0.0009400000000001,-0.0008763999999987,-0.0075147999999999,-0.0013321999999995,0.0086612000000009,-0.0013591999999999,0,sub_6
