userAcceleration.x,userAcceleration.y,userAcceleration.z,rotationRate.x,rotationRate.y,rotationRate.z,label,subject
-0.0014478000000002,0.0148116000000012,0.0072536,0.0898076000000004,-0.0001293999999991,0.015563,0,sub_7
0.0001993999999997,0.0176800000000012,0.0038038,0.1007056000000004,-0.0111917999999991,0.012793,0,sub_7
-0.0004624000000001,0.0216554000000012,0.0008108,0.0988126000000004,-0.0234723999999991,0.0060898,0,sub_7
0.0059481999999998,0.0170984000000011,-0.0057077999999999,0.0589014000000004,-0.0350133999999991,-0.0035745999999999,0,sub_7
0.0095421999999997,0.0121780000000011,-0.0102251999999999,0.0187462000000004,-0.0527345999999991,-0.0125917999999999,0,sub_7
0.0083181999999997,0.0052238000000011,-0.0097105999999999,-0.0152113999999995,-0.0674993999999991,-0.0207139999999999,0,sub_7
0.0065125999999997,-0.0017999999999988,-0.0078609999999999,-0.0357159999999994,-0.0776333999999991,-0.0263979999999999,0,sub_7
0.0055749999999997,-0.0069093999999988,-0.0056631999999999,-0.0468197999999994,-0.0835451999999991,-0.0305261999999999,0,sub_7
0.0035363999999997,-0.0109631999999987,-0.0026059999999999,-0.0499913999999994,-0.0792655999999991,-0.0326893999999999,0,sub_7
0.0018557999999998,-0.0152887999999987,-0.0010385999999999,-0.0490973999999994,-0.0705337999999991,-0.0329069999999998,0,sub_7
0.0001727999999997,-0.0146001999999987,-0.0005063999999999,-0.0492713999999995,-0.0607369999999991,-0.0318525999999998,0,sub_7
-0.0004402000000002,-0.0130999999999987,-0.0019715999999999,-0.0517915999999995,-0.0477479999999991,-0.0278275999999998,0,sub_7
0.0022181999999997,-0.0139481999999987,-0.0025899999999999,-0.0504901999999995,-0.0328795999999991,-0.0175825999999998,0,sub_7
0.0038701999999997,-0.0129365999999987,-0.0052569999999999,-0.0483987999999995,-0.0291049999999991,-0.0043267999999998,0,sub_7
0.0014993999999997,-0.0088373999999987,-0.0042177999999999,-0.0435689999999995,-0.0291911999999991,0.0130122,0,sub_7
5.03999999997895e-05,-0.0050479999999987,-0.0017147999999999,-0.0344583999999995,-0.0239751999999991,0.0327244,0,sub_7
-0.0003304000000002,-0.0017995999999987,0.0026098,-0.0225535999999995,-0.0151437999999991,0.051597,0,sub_7
-0.0031710000000002,0.0003182000000012,0.0048426,-0.0129527999999995,-0.0041437999999991,0.062973,0,sub_7
-0.0069718000000001,0.0022170000000011,0.0082988,-0.0080335999999995,0.0032762000000008,0.0679116,0,sub_7
-0.0094968000000001,0.0002344000000011,0.0075406,-0.0086189999999995,0.0128760000000008,0.0653314,0,sub_7
-0.0136208000000001,-0.0017493999999988,0.006636,-0.0136851999999995,0.0178230000000008,0.0580258,0,sub_7
-0.0174336000000001,-0.0046103999999988,0.0053004,-0.0232351999999995,0.0196002000000008,0.0481292,0,sub_7
-0.0196852000000001,-0.0076021999999988,0.0039106,-0.0309223999999995,0.0094362000000008,0.0391154,0,sub_7
-0.0197016000000001,-0.0121363999999987,0.0016082,-0.0407107999999995,0.0082212000000008,0.0317848,0,sub_7
-0.0159712000000001,-0.0144311999999987,-0.0010321999999999,-0.0534757999999995,0.0085114000000008,0.0235768,0,sub_7
-0.0117522000000001,-0.0167039999999987,-0.0035169999999999,-0.0681533999999995,0.0119982000000008,0.0168468,0,sub_7
-0.0093390000000001,-0.0189377999999987,-0.0069267999999999,-0.0811393999999995,0.0167386000000008,0.0148272,0,sub_7
-0.0073174000000001,-0.0208067999999987,-0.0103657999999998,-0.0900817999999994,0.0293068000000008,0.0230808,0,sub_7
-0.0068444000000001,-0.0226757999999987,-0.0125911999999998,-0.0862773999999994,0.0362636000000008,0.0382672,0,sub_7
-0.0071046000000001,-0.0251965999999987,-0.0143101999999998,-0.0735659999999994,0.0346524000000008,0.0571588,0,sub_7
-0.0051796000000001,-0.0276283999999987,-0.0149731999999998,-0.0568447999999994,0.0247120000000008,0.0775846,0,sub_7
-0.0029526000000001,-0.0290173999999987,-0.0062279999999999,-0.0319559999999995,0.0164938000000008,0.0865284,0,sub_7
0.0002047999999998,-0.0254435999999987,0.0048334,0.0123928000000004,-0.0010905999999991,0.0766058,0,sub_7
0.0062733999999998,-0.0197879999999987,0.0141178,0.0710116000000004,-0.0346631999999991,0.0565484,0,sub_7
0.0117977999999998,-0.0129503999999987,0.0206806,0.1186510000000004,-0.0470859999999991,0.031687,0,sub_7
0.0072497999999998,-0.0070891999999987,0.0180866,0.1577518000000004,-0.0584213999999991,0.0086874,0,sub_7
0.0015655999999998,-0.0038825999999987,0.0146686,0.1941522000000004,-0.0853629999999991,0.001285,0,sub_7
-0.0029108000000001,-0.0022333999999987,0.0042668,0.1933236000000004,-0.0721813999999991,0.0089536,0,sub_7
-0.0048422000000001,0.0025328000000012,-0.0035999999999999,0.1614300000000004,-0.0401395999999991,0.01574,0,sub_7
-0.0040122000000001,0.0020784000000012,-0.0084109999999999,0.1382252000000004,-0.0179425999999991,0.026018,0,sub_7
0.0071405999999998,0.0138580000000012,-0.0073099999999999,0.1114112000000004,0.0032224000000008,0.0311448,0,sub_7
0.0204459999999997,0.0263566000000012,-0.0148923999999999,0.0624966000000004,0.0357916000000008,0.027343,0,sub_7
0.0232097999999997,0.0308202000000011,-0.0129243999999999,0.0179268000000004,0.0372428000000008,0.0227568,0,sub_7
0.0192601999999998,0.0272288000000011,-0.0118673999999999,-0.0204945999999995,0.0399106000000008,0.0282534,0,sub_7
0.0108917999999998,0.0261684000000011,-0.0111467999999999,-0.0630045999999995,0.0368326000000008,0.0356516,0,sub_7
5.739999999981038e-05,0.0124918000000011,-0.0077551999999999,-0.0916491999999994,0.0332782000000008,0.0435744,0,sub_7
-0.0112532000000001,-0.0013769999999988,-0.0015735999999999,-0.1023705999999994,0.0275392000000008,0.049489,0,sub_7
-0.0145226000000001,-0.0104473999999987,-0.0012873999999999,-0.1000719999999995,0.0181690000000008,0.0484982,0,sub_7
-0.0163588000000001,-0.0173433999999987,-0.0042799999999999,-0.0907253999999994,0.0036874000000008,0.0409402,0,sub_7
-0.0165076000000001,-0.0247741999999987,-0.0071589999999999,-0.0745403999999995,-0.0116575999999991,0.0302264,0,sub_7
-0.0152666000000001,-0.0311563999999987,-0.0109053999999999,-0.0572529999999995,-0.0212453999999991,0.0173766,0,sub_7
-0.0128058000000001,-0.0359769999999987,-0.0153483999999999,-0.0369399999999995,-0.0252921999999991,0.0015496,0,sub_7
-0.0094682000000001,-0.0424949999999987,-0.0194445999999999,-0.0114661999999995,-0.0263687999999991,-0.0177127999999998,0,sub_7
-0.0030636000000001,-0.0394727999999987,-0.0237777999999999,0.0013452000000004,-0.0170905999999991,-0.0580139999999999,0,sub_7
-0.0141588000000001,-0.0493209999999987,-0.0342645999999999,0.0156958000000004,-0.0491341999999991,-0.1023107999999999,0,sub_7
-0.0140882000000001,-0.0638185999999987,-0.0383385999999999,-0.1321123999999995,-0.0175391999999991,-0.0881453999999999,0,sub_7
0.0156155999999998,-0.0477887999999987,-0.0269185999999999,-0.2975127999999995,0.2566806000000008,-0.0474945999999999,0,sub_7
0.0430877999999998,-0.0360011999999987,-0.0004365999999999,-0.2692887999999995,0.3020466000000009,-0.1130883999999999,0,sub_7
0.0425165999999998,-0.0314517999999987,0.0212174,-0.1929503999999995,0.2779926000000008,-0.1761207999999999,0,sub_7
0.0190261999999998,0.0028828000000012,0.0464048,-0.1222501999999995,0.2575066000000009,-0.1676261999999999,0,sub_7
-0.0170520000000001,0.0404538000000011,0.0603346,0.0818596000000005,0.1992306000000009,-0.1567255999999999,0,sub_7
-0.0506440000000001,0.0462856000000011,0.0557378,0.2634178000000005,-0.0909465999999991,-0.1552991999999999,0,sub_7
-0.0743172000000001,0.0687756000000011,0.0314502,0.2190158000000004,-0.1367919999999991,-0.0540695999999999,0,sub_7
-0.0642812000000001,0.0752782000000012,0.0182562,0.1177208000000004,-0.1300479999999991,0.0504152,0,sub_7
-0.0256006000000001,0.0627080000000012,0.010507,0.0143294000000004,-0.0870205999999991,0.0875408,0,sub_7
0.0065873999999998,0.0476818000000012,0.0063664,-0.0453881999999995,-0.0597185999999991,0.076708,0,sub_7
0.0017187999999998,0.0300868000000012,0.0020382,-0.0496443999999995,-0.0379289999999991,0.0643468,0,sub_7
-0.0075318000000001,0.0006870000000012,-0.0001245999999999,-0.0166743999999995,-0.0242227999999991,0.069775,0,sub_7
-0.0185674000000001,-0.0145545999999987,-0.0111289999999999,0.0249648000000004,-0.0005735999999991,0.0869134,0,sub_7
-0.0160414000000001,-0.0262249999999987,-0.0192149999999999,0.0465432000000004,0.0203836000000008,0.1019924000000001,0,sub_7
-0.0072814000000001,-0.0342225999999987,-0.0209945999999998,0.0355006000000004,0.0336256000000008,0.1033938,0,sub_7
0.0024053999999998,-0.0372201999999987,-0.0179929999999998,0.0044414000000005,0.0415066000000008,0.0892844,0,sub_7
0.0071425999999998,-0.0360583999999987,-0.0095891999999998,-0.0315275999999994,0.0368832000000008,0.062979,0,sub_7
0.0044733999999998,-0.0315143999999987,0.004248,-0.0483273999999994,0.0236740000000008,0.035964,0,sub_7
-0.0003388000000001,-0.0249211999999987,0.0113024,-0.0367429999999994,0.0139782000000008,0.0114928,0,sub_7
-0.0031928000000001,-0.0150795999999987,0.0099514000000001,-0.0083395999999994,0.0020682000000008,-0.0066623999999999,0,sub_7
-0.0019868000000001,-0.0062313999999987,0.0047214,0.0195930000000004,-0.0122639999999991,-0.0164901999999999,0,sub_7
0.0007095999999998,-0.0006337999999987,-0.0028049999999999,0.0361978000000004,-0.0221173999999991,-0.0176433999999999,0,sub_7
0.0036357999999998,0.0030680000000012,-0.0108939999999999,0.0389390000000004,-0.0247023999999991,-0.0129207999999999,0,sub_7
0.0065039999999998,0.0047548000000012,-0.0163175999999999,0.0322986000000004,-0.0249145999999991,-0.0074121999999998,0,sub_7
0.0086629999999998,0.0025866000000012,-0.0166163999999999,0.0209822000000004,-0.0225475999999991,-0.0034349999999998,0,sub_7
0.0083591999999998,-0.0019583999999987,-0.0133887999999999,0.0092620000000004,-0.0174001999999991,-0.0018141999999998,0,sub_7
0.0056089999999998,-0.0063485999999987,-0.0079707999999999,-0.0007309999999995,-0.0105431999999991,-0.0029609999999998,0,sub_7
0.0020009999999998,-0.0097879999999987,-0.0016845999999999,-0.0075195999999995,-0.0043305999999991,-0.0055801999999999,0,sub_7
-0.0014040000000001,-0.0121797999999987,0.0036222,-0.0113265999999995,0.0001688000000008,-0.0086035999999999,0,sub_7
-0.0042352000000001,-0.0134869999999987,0.0068482,-0.0125809999999995,0.0023182000000008,-0.0122469999999999,0,sub_7
-0.0051668000000001,-0.0127833999999987,0.0066252,-0.0119263999999994,0.0027532000000008,-0.0150203999999999,0,sub_7
-0.0045472000000001,-0.0115509999999987,0.0032636,-0.0106461999999994,0.0018998000000008,-0.0158649999999999,0,sub_7
-0.0033612000000001,-0.0112295999999987,-0.0006749999999999,-0.0100155999999994,0.0012524000000008,-0.0143641999999999,0,sub_7
-0.0023366000000001,-0.0114615999999987,-0.0052165999999999,-0.0093851999999994,0.0023028000000008,-0.0111563999999999,0,sub_7
-0.0016304000000001,-0.0117423999999987,-0.0074691999999999,-0.0085421999999994,0.0042002000000008,-0.0068799999999999,0,sub_7
-0.0011894000000001,-0.0122359999999987,-0.0079417999999999,-0.0062047999999995,0.0060932000000008,-0.0028067999999999,0,sub_7
-0.0014628000000001,-0.0132831999999987,-0.0061495999999999,-0.0013135999999995,0.0064860000000008,0.0012862,0,sub_7
-0.0020214000000001,-0.0138309999999987,-0.0036809999999999,0.0046398000000004,0.0047488000000008,0.004321,0,sub_7
-0.0020900000000001,-0.0143247999999987,-0.0005149999999999,0.0099616000000004,0.0030214000000008,0.0054286,0,sub_7
-0.0027234000000001,-0.0146403999999987,0.0003698,0.0142232000000004,0.0017282000000008,0.00546,0,sub_7
-0.0035724000000001,-0.0147069999999987,0.0009634,0.0163530000000004,0.0004442000000008,0.0050492,0,sub_7
-0.0040116000000001,-0.0144843999999987,0.000912,0.0169922000000004,1.6800000000822376e-05,0.0048404,0,sub_7
-0.0038552000000001,-0.0135723999999987,-0.0002191999999999,0.0174208000000004,0.0002292000000008,0.0046294,0,sub_7
-0.0042102000000001,-0.0120183999999987,-0.0006645999999999,0.0180524000000004,-0.0006295999999991,0.0057032,0,sub_7
-0.0038426000000001,-0.0110673999999987,-0.0010281999999999,0.0193174000000004,-0.0023453999999991,0.0074234,0,sub_7
-0.0031858000000001,-0.0099295999999987,-0.0014759999999999,0.0207938000000004,-0.0040635999999991,0.0095724,0,sub_7
-0.0018486000000001,-0.0089455999999987,-0.0020383999999998,0.0205718000000004,-0.0049193999999991,0.0106402,0,sub_7
-0.0009918000000001,-0.0088383999999987,-0.0017767999999998,0.0190744000000004,-0.0055541999999991,0.0108442,0,sub_7
0.0002233999999998,-0.0091903999999987,-0.0023199999999998,0.0173694000000004,-0.0059707999999991,0.0099782,0,sub_7
0.0007457999999998,-0.0090139999999987,-0.0024457999999998,0.0145994000000004,-0.0061697999999991,0.0088908,0,sub_7
0.0011759999999998,-0.0095125999999987,-0.0027607999999998,0.0118304000000004,-0.0063679999999991,0.0075898,0,sub_7
0.0009895999999998,-0.0101719999999987,-0.0036439999999999,0.0090690000000004,-0.0063541999999991,0.0060598,0,sub_7
0.0006295999999998,-0.0106917999999987,-0.0040177999999999,0.0063094000000004,-0.0059141999999991,0.0045292,0,sub_7
0.0008067999999998,-0.0110901999999987,-0.0042139999999999,0.0031268000000004,-0.0046205999999991,0.0029944,0,sub_7
0.0012475999999998,-0.0118845999999987,-0.0041421999999999,0.0010084000000004,-0.0037575999999991,0.0016814,0,sub_7
0.0013211999999998,-0.0120035999999987,-0.0035135999999999,-0.0004699999999995,-0.0031089999999991,0.0001594,0,sub_7
0.0012075999999998,-0.0118073999999987,-0.0022933999999999,-0.0004603999999995,-0.0022515999999991,-0.0011235999999999,0,sub_7
0.0016995999999998,-0.0114089999999987,-0.0023951999999999,0.0001884000000004,-0.0016095999999991,-0.0024017999999999,0,sub_7
0.0006513999999998,-0.0111935999999987,-0.0022445999999999,0.0008314000000004,-0.0018213999999991,-0.0032515999999999,0,sub_7
-0.0004780000000001,-0.0111317999999987,-0.0023383999999999,0.0012638000000004,-0.0013933999999991,-0.0041037999999999,0,sub_7
-0.0014762000000001,-0.0114357999999987,-0.0028397999999999,0.0014820000000004,-0.0005411999999991,-0.0043169999999999,0,sub_7
-0.0018178000000001,-0.0118989999999987,-0.0033993999999999,0.0008398000000004,-0.0003283999999991,-0.0036807999999999,0,sub_7
-0.0024056000000001,-0.0125471999999987,-0.0028489999999999,0.0001958000000004,-0.0003295999999991,-0.0028305999999999,0,sub_7
-0.0024422000000001,-0.0132535999999987,-0.0024005999999999,0.0001930000000004,9.220000000086242e-05,-0.0017627999999999,0,sub_7
-0.0027984000000001,-0.0130825999999987,-0.0021877999999999,0.0010426000000004,0.0002980000000008,-0.0006887999999999,0,sub_7
-0.0027418000000001,-0.0126157999999987,-0.0023965999999999,0.0021056000000004,0.0005032000000008,0.0003866,0,sub_7
-0.0022794000000001,-0.0124391999999987,-0.0020621999999999,0.0029544000000004,7.140000000084236e-05,0.001034,0,sub_7
-0.0018772000000001,-0.0121109999999987,-0.0023633999999999,0.0046576000000004,0.0002742000000008,0.0021138,0,sub_7
-0.0013904000000001,-0.0118969999999987,-0.0029383999999999,0.0065722000000004,5.0200000000822375e-05,0.0031956,0,sub_7
-0.0012852000000001,-0.0119199999999987,-0.0030803999999999,0.0074210000000004,-0.0003813999999991,0.003843,0,sub_7
-0.0008346000000001,-0.0124563999999987,-0.0025797999999999,0.0076324000000004,-0.0005961999999991,0.0040584,0,sub_7
-0.0003368000000002,-0.0126103999999987,-0.0029659999999999,0.0080620000000004,-0.0003827999999991,0.0036338,0,sub_7
0.0001761999999997,-0.0127731999999987,-0.0022995999999999,0.0080628000000004,-0.0005939999999991,0.0032068,0,sub_7
1.3399999999790577e-05,-0.0121573999999987,-0.0020197999999999,0.0084896000000004,-0.0010197999999991,0.002783,0,sub_7
0.0008691999999997,-0.0108275999999987,-0.0014011999999999,0.0097592000000004,-0.0020945999999991,0.004075,0,sub_7
0.0015403999999997,-0.0085407999999987,-0.0008321999999999,0.0114414000000004,-0.0046689999999991,0.007081,0,sub_7
0.0016373999999998,-0.0067847999999987,-0.0007719999999999,0.0126910000000004,-0.0070349999999991,0.0115794,0,sub_7
0.0008429999999998,-0.0052179999999987,-0.0019101999999999,0.0124518000000004,-0.0085427999999991,0.0158526,0,sub_7
0.0001123999999998,-0.0047341999999987,-0.0025155999999999,0.0111484000000004,-0.0094075999999991,0.0201176,0,sub_7
-7.020000000018957e-05,-0.0055999999999987,-0.0032889999999999,0.0085688000000004,-0.0102645999999991,0.023519,0,sub_7
-0.0007906000000001,-0.0077189999999987,-0.0042261999999999,0.0057922000000004,-0.0089877999999991,0.0251932,0,sub_7
-0.0011712000000001,-0.0097473999999987,-0.0045005999999999,0.0028138000000004,-0.0070633999999991,0.0249422,0,sub_7
-0.0014926000000001,-0.0113939999999987,-0.0046575999999999,0.0002680000000004,-0.0051351999999991,0.0234124,0,sub_7
-0.0003834000000001,-0.0125407999999987,-0.0041867999999999,-0.0018519999999995,-0.0040583999999991,0.0212458,0,sub_7
-0.0002226000000001,-0.0131909999999987,-0.0043585999999999,-0.0022563999999995,-0.0023429999999991,0.0178086,0,sub_7
-3.660000000018943e-05,-0.0129405999999987,-0.0040503999999999,-0.0018141999999995,-0.0016941999999991,0.0150334,0,sub_7
-0.0009598000000001,-0.0122873999999987,-0.0030379999999999,0.0005416000000004,-0.0016945999999991,0.0131272,0,sub_7
-0.0006744000000001,-0.0113331999999987,-0.0022389999999999,0.0039650000000004,-0.0010613999999991,0.0116548,0,sub_7
-0.0009266000000001,-0.0106713999999987,-0.0030225999999999,0.0065332000000004,-0.0006389999999991,0.0103902,0,sub_7
-0.0017806000000001,-0.0102719999999987,-0.0027393999999999,0.0080008000000004,0.0006264000000008,0.0095312,0,sub_7
-0.0026604000000001,-0.0103577999999987,-0.0032743999999999,0.0088294000000004,0.0021070000000008,0.0086676,0,sub_7
-0.0026850000000001,-0.0103437999999987,-0.0047455999999998,0.0083786000000004,0.0033808000000008,0.007368,0,sub_7
-0.0031036000000001,-0.0111931999999987,-0.0050893999999998,0.0068564000000004,0.0038052000000008,0.0062756,0,sub_7
-0.0039570000000001,-0.0117673999999987,-0.0039437999999998,0.0051302000000005,0.0059366000000008,0.0047524,0,sub_7
-0.0045248000000001,-0.0118969999999987,-0.0038477999999998,0.0032262000000005,0.0078676000000008,0.0030276,0,sub_7
-0.0044786000000001,-0.0118351999999987,-0.0029291999999998,0.0008954000000005,0.0095880000000008,0.0010864,0,sub_7
-0.0025662000000001,-0.0118243999999987,-0.0018211999999999,-0.0006177999999994,0.0106538000000008,0.0004288,0,sub_7
-0.0006984000000001,-0.0115281999999987,-0.0012601999999999,-0.0010727999999994,0.0104350000000008,0.0004212,0,sub_7
0.0008455999999998,-0.0110339999999987,-0.0018531999999999,0.0003820000000004,0.0093512000000008,0.0019236,0,sub_7
0.0017299999999998,-0.0100331999999987,-0.0020403999999999,0.0011948000000004,0.0086924000000008,0.0042754,0,sub_7
0.0030549999999998,-0.0087463999999987,-0.0025145999999999,0.0007388000000004,0.0099580000000008,0.005975,0,sub_7
0.0032885999999998,-0.0082477999999987,-0.0035859999999999,-0.0011699999999995,0.0129456000000008,0.0063852,0,sub_7
0.0030875999999998,-0.0078155999999987,-0.0042377999999999,-0.0034989999999995,0.0157286000000008,0.0050836,0,sub_7
0.0031037999999997,-0.0080007999999987,-0.0046161999999999,-0.0066775999999995,0.0176692000000008,0.0020678,0,sub_7
0.0037559999999997,-0.0091669999999987,-0.0053703999999999,-0.0086101999999995,0.0183298000000008,-0.0022297999999999,0,sub_7
0.0026971999999997,-0.0105357999999987,-0.0071461999999999,-0.0086299999999995,0.0168550000000008,-0.0069387999999999,0,sub_7
0.0001247999999997,-0.0111985999999987,-0.0070171999999999,-0.0080155999999995,0.0138874000000008,-0.0118549999999999,0,sub_7
-0.0026544000000002,-0.0116387999999987,-0.0064015999999999,-0.0057025999999995,0.0106938000000008,-0.0150499999999999,0,sub_7
-0.0045670000000001,-0.0115295999999987,-0.0043515999999999,-0.0021141999999995,0.0077038000000008,-0.0169541999999999,0,sub_7
-0.0059750000000001,-0.0110237999999987,-0.0018273999999999,0.0019236000000004,0.0040676000000008,-0.0169213999999999,0,sub_7
-0.0068398000000001,-0.0106455999999987,0.0012936,0.0065938000000004,0.0002102000000008,-0.0153881999999999,0,sub_7
-0.0066676000000001,-0.0101545999999987,0.0027692,0.0116832000000004,-0.0038675999999991,-0.0123563999999999,0,sub_7
-0.0053004000000001,-0.0093787999999987,0.0028122,0.0150314000000004,-0.0066479999999991,-0.0093813999999999,0,sub_7
-0.0038914000000001,-0.0090741999999987,0.0014824,0.0181586000000004,-0.0096467999999991,-0.0049121999999999,0,sub_7
-0.0024202000000001,-0.0091039999999987,-0.0013011999999999,0.0221326000000004,-0.0130787999999991,0.0006318,0,sub_7
-0.0003916000000001,-0.0090739999999987,-0.0033747999999999,0.0256894000000004,-0.0150153999999991,0.00553,0,sub_7
0.0018799999999998,-0.0086375999999987,-0.0056613999999999,0.0277698000000004,-0.0148095999999991,0.0087058,0,sub_7
0.0038413999999998,-0.0079661999999987,-0.0079245999999999,0.0273354000000004,-0.0139661999999991,0.0112656,0,sub_7
0.0046701999999998,-0.0078043999999987,-0.0083757999999999,0.0235082000000004,-0.0109699999999991,0.011235,0,sub_7
0.0041967999999998,-0.0078115999999987,-0.0077557999999999,0.0175636000000004,-0.0062543999999991,0.0092646,0,sub_7
0.0032343999999998,-0.0079977999999987,-0.0072561999999999,0.0105160000000004,-0.0023745999999991,0.007014,0,sub_7
0.0016899999999998,-0.0091473999999987,-0.0049575999999999,0.0041008000000005,1.080000000086229e-05,0.0049834,0,sub_7
-0.0001698000000001,-0.0109491999999987,-0.0024517999999999,0.0004556000000005,0.0015344000000008,0.0029732,0,sub_7
-0.0025166000000001,-0.0118237999999987,-0.0009657999999999,-0.0004235999999994,0.0015558000000008,0.001198,0,sub_7
-0.0029948000000001,-0.0125027999999987,6.440000000007766e-05,-0.0002387999999994,0.0007224000000008,-0.0007823999999999,0,sub_7
-0.0032950000000001,-0.0127189999999987,0.0003878,0.0008280000000004,-0.0005545999999991,-0.0020551999999999,0,sub_7
-0.0027656000000001,-0.0126185999999987,-0.0005943999999999,0.0016806000000004,-0.0014071999999991,-0.0026889999999999,0,sub_7
-0.0018666000000001,-0.0123663999999987,-0.0013997999999999,0.0025340000000004,-0.0016223999999991,-0.0028963999999999,0,sub_7
-0.0001508000000001,-0.0116449999999987,-0.0035517999999999,0.0033596000000004,-0.0007805999999991,-0.0025141999999999,0,sub_7
0.0010745999999998,-0.0103321999999987,-0.0048641999999999,0.0033336000000004,0.0009146000000008,-0.0017115999999999,0,sub_7
0.0024987999999998,-0.0094103999999987,-0.0053017999999999,0.0024626000000004,0.0036816000000008,-0.0017707999999999,0,sub_7
0.0028447999999998,-0.0085315999999987,-0.0050349999999999,0.0017994000000004,0.0055938000000008,-0.0014001999999999,0,sub_7
0.0025981999999998,-0.0079677999999987,-0.0047267999999999,0.0004942000000004,0.0070822000000008,-0.0010335999999999,0,sub_7
0.0025321999999998,-0.0080591999999987,-0.0040069999999999,-0.0018509999999995,0.0073044000000008,-0.0012637999999999,0,sub_7
0.0018135999999998,-0.0089845999999987,-0.0032271999999999,-0.0035569999999995,0.0070990000000008,-0.0017027999999999,0,sub_7
0.0006171999999998,-0.0095487999999987,-0.0026047999999999,-0.0052667999999995,0.0062536000000008,-0.0019273999999999,0,sub_7
-0.0006402000000001,-0.0103511999999987,-0.0025019999999999,-0.0057057999999995,0.0055844000000008,-0.0023899999999999,0,sub_7
-0.0016012000000001,-0.0110219999999987,-0.0023819999999999,-0.0057189999999994,0.0047006000000008,-0.0028493999999999,0,sub_7
-0.0027584000000001,-0.0117905999999987,-0.0022919999999999,-0.0046661999999994,0.0042366000000008,-0.0026609999999999,0,sub_7
-0.0030818000000001,-0.0122255999999987,-0.0022665999999999,-0.0025493999999994,0.0035542000000008,-0.0020375999999999,0,sub_7
-0.0030978000000001,-0.0128499999999987,-0.0027233999999998,0.0002056000000005,0.0024434000000008,-0.0014091999999999,0,sub_7
-0.0026830000000001,-0.0128589999999987,-0.0034893999999998,0.0027594000000005,0.0017918000000008,-0.0005359999999999,0,sub_7
-0.0023218000000001,-0.0125189999999987,-0.0041681999999998,0.0053170000000005,0.0019924000000008,0.0003362,0,sub_7
-0.0015862000000001,-0.0117465999999987,-0.0046135999999999,0.0072344000000004,0.0024076000000008,0.0014172,0,sub_7
