userAcceleration.x,userAcceleration.y,userAcceleration.z,rotationRate.x,rotationRate.y,rotationRate.z,label,subject
0.0106129999999997,0.0008280000000012,-0.0005023999999999,-0.0019181999999996,0.0173184000000008,-0.0103133999999999,0,sub_24
0.0055335999999997,-0.0038013999999987,-0.0033521999999999,-0.0017317999999996,0.0096540000000008,-0.0120115999999998,0,sub_24
0.0002349999999997,-0.0077255999999987,-0.0048635999999999,-0.0008903999999996,0.0058156000000009,-0.0130733999999998,0,sub_24
0.0003393999999997,-0.0079089999999987,-0.0054507999999999,-0.0015465999999996,0.0002816000000009,-0.0149979999999998,0,sub_24
0.0008215999999997,-0.0056671999999987,-0.0063297999999998,0.0012210000000003,-0.006104599999999,-0.0198885999999998,0,sub_24
-0.0031242000000002,-0.0070093999999987,-0.0070437999999998,0.0061374000000003,-0.010149599999999,-0.0258355999999998,0,sub_24
-0.0062108000000002,-0.0101937999999987,-0.0079967999999998,0.0097524000000003,-0.012723399999999,-0.0255977999999999,0,sub_24
-0.0102484000000002,-0.0112591999999987,-0.0070255999999998,0.0107932000000003,-0.011898599999999,-0.0191829999999999,0,sub_24
-0.0084490000000002,-0.0086235999999987,-0.0062041999999998,0.0092420000000004,-0.014700799999999,-0.0093631999999999,0,sub_24
-0.0074708000000002,-0.0036789999999987,-0.0057417999999998,0.0074624000000004,-0.022396599999999,-0.0010339999999999,0,sub_24
-0.0027706000000002,0.0029846000000012,-0.0044283999999998,0.0093808000000004,-0.022833399999999,-0.0005961999999999,0,sub_24
0.0003639999999997,0.0074868000000012,-0.0020735999999998,0.0145392000000004,-0.022397999999999,-0.0080413999999999,0,sub_24
0.0020093999999997,0.0089776000000012,-0.0020477999999999,0.0181996000000004,-0.024932799999999,-0.0174159999999999,0,sub_24
0.0005697999999997,0.0055590000000012,-0.0031653999999999,0.0199450000000004,-0.023211199999999,-0.0238185999999999,0,sub_24
0.0024205999999997,0.0011066000000012,-0.0029331999999999,0.0190942000000004,-0.022997999999999,-0.0238281999999999,0,sub_24
0.0054941999999997,-0.0002749999999987,-0.0030455999999999,0.0136994000000004,-0.032794399999999,-0.0202211999999999,0,sub_24
0.0094473999999997,-0.0004245999999987,-0.0026247999999999,0.0055270000000004,-0.043009599999999,-0.0162059999999999,0,sub_24
0.0120407999999997,-0.0006497999999987,-0.0016581999999999,-0.0011135999999995,-0.048315399999999,-0.0158181999999999,0,sub_24
0.0117877999999997,-0.0015453999999988,-0.0007381999999999,-0.0043123999999995,-0.050645399999999,-0.0181919999999998,0,sub_24
0.0099309999999997,-0.0015479999999988,-0.0005515999999999,-0.0040465999999995,-0.043180399999999,-0.0220497999999998,0,sub_24
0.0079107999999997,-0.0024075999999988,-0.0009837999999999,-0.0014079999999996,-0.027848999999999,-0.0237647999999999,0,sub_24
0.0059359999999997,-0.0027877999999987,-0.0022169999999999,0.0016402000000003,-0.012745999999999,-0.0218445999999998,0,sub_24
0.0078205999999997,-0.0031815999999987,-0.0016407999999999,0.0036090000000003,0.0031980000000008,-0.0163009999999998,0,sub_24
0.0112571999999997,-0.0021195999999987,-0.0002879999999999,0.0012922000000003,0.0189354000000008,-0.0073643999999999,0,sub_24
0.0128147999999997,-0.0014845999999987,-0.0006405999999999,-0.0036347999999996,0.0248760000000008,0.0028486,0,sub_24
0.0077419999999997,-0.0015799999999987,-0.0024403999999999,-0.0068631999999995,0.0295302000000008,0.013716,0,sub_24
0.0036393999999997,-0.0011371999999987,-0.0037013999999999,-0.0096359999999995,0.0373866000000008,0.0218002,0,sub_24
-0.0017174000000002,0.0001716000000012,-0.0075293999999999,-0.0111589999999995,0.0337532000000008,0.0252076,0,sub_24
-0.0074680000000002,0.0010202000000012,-0.0102529999999998,-0.0105921999999995,0.0137348000000008,0.0220276,0,sub_24
-0.0135650000000002,0.0016238000000012,-0.0108243999999998,-0.0078895999999995,-0.0113817999999991,0.0133144,0,sub_24
-0.0124150000000002,0.0019106000000012,-0.0080635999999998,-0.0042963999999995,-0.0307387999999991,0.0020362000000001,0,sub_24
-0.0083212000000002,0.0009934000000012,-0.0052219999999998,-0.0006859999999995,-0.043921799999999,-0.0073219999999998,0,sub_24
-0.0020144000000002,-0.0002825999999987,-0.0024273999999998,0.0018870000000004,-0.045191999999999,-0.0113615999999998,0,sub_24
0.0054427999999997,-0.0022875999999987,-0.0002035999999999,0.0021308000000004,-0.036677799999999,-0.0096615999999998,0,sub_24
0.0130923999999997,-0.0029929999999987,0.0021216,0.0011100000000004,-0.019454799999999,-0.0022179999999998,0,sub_24
0.0165995999999997,-0.0024849999999987,0.0017672,-0.0009869999999995,-0.002449399999999,0.0071414000000001,0,sub_24
0.0142351999999997,-0.0002733999999987,-0.0008569999999999,-0.0020295999999995,0.0100852000000009,0.0148048,0,sub_24
0.0067941999999997,0.0019598000000012,-0.0023683999999998,-0.0022239999999995,0.0164588000000009,0.0175682,0,sub_24
-0.0015704000000002,0.0045406000000012,-0.0049857999999998,-0.0002661999999996,0.0217810000000009,0.0152206,0,sub_24
-0.0088242000000002,0.0055942000000012,-0.0083431999999998,0.0012530000000003,0.0215868000000009,0.0094634,0,sub_24
-0.0115976000000001,0.0042828000000012,-0.0105137999999998,0.0023186000000003,0.0145806000000009,0.002857,0,sub_24
-0.0092748000000001,0.0022408000000012,-0.0095591999999999,0.0014310000000003,0.0011860000000009,-0.0029003999999998,0,sub_24
-0.0030016000000001,0.0001282000000012,-0.0075577999999999,-0.0018173999999996,-0.012857999999999,-0.0058993999999998,0,sub_24
0.0025621999999998,-0.0019005999999987,-0.0035705999999999,-0.0037847999999995,-0.021388999999999,-0.0035553999999998,0,sub_24
0.0060711999999997,-0.0023835999999987,-0.0011301999999999,-0.0048441999999995,-0.014171999999999,0.0024066000000001,0,sub_24
0.0085287999999997,-0.0014103999999987,0.0007844,-0.0062959999999995,0.0009280000000009,0.0085696000000001,0,sub_24
0.0081279999999997,-0.0005515999999987,-0.0005285999999999,-0.0051965999999995,0.0113420000000009,0.0121928,0,sub_24
0.0040163999999997,-5.959999999878431e-05,-0.0040481999999999,-0.0022075999999995,0.0130306000000009,0.0134936,0,sub_24
-0.0005442000000002,-0.0003773999999987,-0.0073195999999999,-0.0009187999999995,0.0134588000000009,0.0120066,0,sub_24
-0.0020874000000002,-0.0023201999999987,-0.0080641999999998,-0.0020049999999995,0.0060194000000009,0.0088038,0,sub_24
-0.0044080000000002,-0.0025499999999987,-0.0083001999999998,-0.0026837999999995,-0.005473599999999,0.0060356,0,sub_24
-0.0056354000000002,-0.0024141999999987,-0.0065701999999998,-0.0035395999999995,-0.007808599999999,0.0043226,0,sub_24
-0.0038442000000002,-0.0012109999999987,-0.0038791999999998,-0.0035177999999995,-0.003335399999999,0.0041026,0,sub_24
0.0017397999999997,0.0009670000000012,-0.0013349999999999,-0.0037233999999995,-0.000997199999999,0.0049522,0,sub_24
0.0069405999999997,0.0038084000000011,-0.0006359999999999,-0.0030791999999995,0.0017586000000009,0.0070894,0,sub_24
0.0102029999999997,0.0056290000000011,-2.459999999992971e-05,-0.0041231999999995,0.0089956000000009,0.0094234,0,sub_24
0.0116023999999997,0.0067598000000011,-0.0002833999999999,-0.0062167999999995,0.0202832000000009,0.0119586,0,sub_24
0.0093777999999997,0.0073726000000011,-0.0018379999999999,-0.0078663999999995,0.0330704000000009,0.0121448,0,sub_24
0.0032049999999997,0.0058728000000011,-0.0043547999999999,-0.0071763999999995,0.0403256000000009,0.00851,0,sub_24
-0.0036906000000002,0.0043386000000011,-0.0060535999999999,-0.0058731999999995,0.0377938000000009,0.0010462,0,sub_24
-0.0074510000000002,0.0019850000000011,-0.0074363999999999,-0.0033187999999995,0.0265326000000009,-0.0087477999999999,0,sub_24
-0.0089036000000002,-0.0015841999999987,-0.0079389999999999,0.0009078000000004,0.0092936000000009,-0.0168133999999999,0,sub_24
-0.0065836000000002,-0.0066911999999987,-0.0067443999999999,0.0042766000000004,-0.004126599999999,-0.0201899999999999,0,sub_24
-0.0021976000000002,-0.0079965999999987,-0.0038601999999999,0.0059644000000004,-0.005208999999999,-0.0171861999999999,0,sub_24
0.0024655999999997,-0.0076787999999987,-0.0029085999999999,0.0076792000000004,0.0017956000000009,-0.0120559999999999,0,sub_24
0.0042987999999997,-0.0070037999999987,-0.0034959999999999,0.0100294000000004,0.0090054000000009,-0.0056397999999999,0,sub_24
0.0038677999999997,-0.0056665999999987,-0.0041527999999999,0.0106778000000004,0.0158028000000009,-0.0007281999999999,0,sub_24
0.0022361999999997,-0.0034847999999987,-0.0038443999999999,0.0102576000000004,0.0213294000000009,0.003323,0,sub_24
0.0006275999999997,-0.0022317999999987,-0.0053077999999999,0.0078972000000004,0.0204788000000009,0.0054462,0,sub_24
-0.0008454000000002,-0.0017483999999987,-0.0060439999999999,0.0046700000000004,0.0177098000000009,0.008634,0,sub_24
-0.0012022000000002,-0.0001719999999987,-0.0056335999999999,0.0016648000000004,0.0155846000000009,0.0105408,0,sub_24
0.0004371999999997,0.0022618000000011,-0.0046353999999999,-0.0002649999999995,0.0143100000000009,0.0113836,0,sub_24
0.0020253999999997,0.0051076000000011,-0.0055193999999999,-0.0024327999999995,0.0051624000000009,0.009885,0,sub_24
0.0015853999999997,0.0067990000000011,-0.0052625999999998,-0.0020377999999995,-0.005053399999999,0.0069102,0,sub_24
0.0028675999999997,0.0058402000000011,-0.0039387999999998,-0.0026799999999995,-0.010570799999999,0.0019994,0,sub_24
0.0076509999999997,0.0027978000000011,-0.0024797999999998,-0.0056789999999995,-0.016511999999999,-0.0012155999999999,0,sub_24
0.0080777999999997,0.0003860000000012,-0.0024637999999998,-0.0071989999999995,-0.023107999999999,-0.0018559999999999,0,sub_24
0.0060585999999997,-0.0020339999999987,-0.0016347999999998,-0.0052439999999995,-0.014170599999999,-0.0005691999999999,0,sub_24
0.0059771999999997,-0.0043451999999987,-0.0012845999999998,-0.0032663999999995,0.0007288000000009,0.0015646,0,sub_24
0.0024311999999997,-0.0046223999999987,-0.0017175999999998,-4.319999999960831e-05,0.0085910000000009,0.0043568,0,sub_24
-0.0024394000000002,-0.0034427999999987,-0.0031941999999998,0.0042488000000003,0.0156014000000009,0.005873,0,sub_24
-0.0008196000000002,-0.0038235999999987,-0.0041903999999998,0.0049040000000003,0.0185844000000009,0.0054464000000001,0,sub_24
0.0002205999999997,-0.0039515999999987,-0.0054733999999998,0.0029568000000003,0.0126292000000009,0.0054418000000001,0,sub_24
-0.0002314000000002,-0.0014597999999988,-0.0060915999999998,0.0029524000000003,0.0092338000000009,0.0030974000000001,0,sub_24
0.0012667999999997,0.0006878000000011,-0.0059985999999998,0.0036084000000004,0.0088244000000008,-0.0007413999999998,0,sub_24
0.0022269999999997,0.0022334000000011,-0.0046943999999999,0.0031862000000004,0.0054376000000008,-0.0050111999999998,0,sub_24
0.0006243999999997,0.0029444000000011,-0.0040747999999999,0.0031878000000003,0.0031076000000008,-0.0075701999999998,0,sub_24
0.0020567999999997,0.0029276000000011,-0.0032867999999998,0.0029702000000004,0.0011946000000008,-0.0084235999999998,0,sub_24
0.0022055999999997,0.0011960000000011,-0.0028279999999998,0.0003822000000004,-0.0022165999999991,-0.0056597999999998,0,sub_24
0.0022525999999997,0.0010108000000011,-0.0030399999999998,-0.0004949999999995,-0.004569199999999,-0.0026717999999999,0,sub_24
0.0020851999999997,0.0003214000000012,-0.0041441999999998,0.0001242000000004,-0.007770999999999,-0.0009529999999999,0,sub_24
0.0014105999999997,-0.0009127999999987,-0.0038501999999998,-9.859999999956778e-05,-0.008837399999999,0.0003296000000001,0,sub_24
0.0008019999999997,-0.0012625999999987,-0.0040165999999998,-0.0005119999999995,-0.006699599999999,-0.0003159999999998,0,sub_24
0.0018511999999997,-0.0031913999999987,-0.0041635999999999,-0.0007189999999995,-0.005417199999999,-0.0003181999999998,0,sub_24
0.0016657999999997,-0.0040015999999987,-0.0050101999999998,-0.0011479999999995,-0.0056271999999991,0.0001072000000001,0,sub_24
0.0003057999999997,-0.0026755999999987,-0.0055757999999998,-0.0011453999999995,-0.0054119999999991,-0.0003205999999998,0,sub_24
0.0007803999999997,-0.0009363999999987,-0.0051765999999998,-0.0011319999999995,-0.0047629999999991,-0.0026713999999999,0,sub_24
0.0011437999999997,-0.0005603999999987,-0.0039493999999998,0.0001454000000004,-0.0079525999999991,-0.0052221999999999,0,sub_24
0.0018001999999997,0.0006674000000012,-0.0038911999999998,0.0020592000000004,-0.0128451999999991,-0.0084061999999999,0,sub_24
0.0034889999999997,4.0000000123595684e-07,-0.0026291999999998,0.0016316000000004,-0.014541599999999,-0.0096879999999999,0,sub_24
0.0050187999999997,-0.0015207999999987,-0.0015811999999998,0.0003628000000004,-0.009858399999999,-0.0073517999999999,0,sub_24
0.0044911999999997,-0.0011577999999987,-0.0014061999999999,0.0016486000000003,-0.005613599999999,-0.0041427999999999,0,sub_24
0.0034067999999997,-0.0002403999999987,-0.0019303999999999,0.0027336000000003,0.0001284000000009,-0.0022187999999999,0,sub_24
0.0031661999999997,-0.0003271999999987,-0.0024577999999999,0.0021194000000003,0.0065196000000009,-0.0015903999999999,0,sub_24
0.0013113999999997,-0.0003277999999987,-0.0042901999999999,0.0019164000000003,0.0090764000000009,-0.0013813999999999,0,sub_24
-0.0005124000000002,-0.0002027999999987,-0.0060443999999999,0.0002036000000003,0.0067436000000009,-0.0024587999999999,0,sub_24
-0.0020650000000002,0.0007594000000012,-0.0069265999999998,-0.0042801999999996,0.0046344000000009,-0.0037687999999999,0,sub_24
-0.0010994000000002,0.0013834000000012,-0.0073459999999998,-0.0094345999999996,-0.004289999999999,-0.0050747999999999,0,sub_24
-0.0006178000000002,0.0031896000000012,-0.0071189999999998,-0.0116283999999995,-0.020675999999999,-0.0078457999999999,0,sub_24
0.0007123999999997,0.0033146000000012,-0.0031413999999998,-0.0120737999999995,-0.028119199999999,-0.0108297999999999,0,sub_24
0.0032963999999997,0.0028580000000012,0.0004982000000001,-0.0109777999999995,-0.021095799999999,-0.0099757999999999,0,sub_24
0.0050897999999997,0.0009442000000012,0.0012472000000001,-0.0081797999999995,-0.013232999999999,-0.0074023999999999,0,sub_24
0.0033747999999997,-0.0006407999999987,0.0009712000000001,-0.0032511999999996,-0.006441199999999,-0.0052401999999999,0,sub_24
0.0005069999999997,-0.0019459999999987,0.0001920000000001,-2.5799999999607733e-05,0.0016334000000009,-0.0026643999999999,0,sub_24
-0.0015808000000002,-0.0021749999999987,-0.0024951999999998,0.0016846000000003,0.0045994000000009,-0.0003063999999999,0,sub_24
-0.0048644000000002,-0.0017655999999987,-0.0048315999999998,0.0031558000000003,-0.002005199999999,-0.0017833999999998,0,sub_24
-0.0072218000000002,-0.0021237999999987,-0.0055827999999998,0.0054960000000003,-0.006476999999999,-0.0045389999999998,0,sub_24
-0.0061214000000002,-0.0027721999999987,-0.0051719999999998,0.0055024000000004,-0.004774999999999,-0.0041141999999999,0,sub_24
-0.0030708000000002,-0.0027843999999987,-0.0041259999999999,0.0048712000000004,0.0001146000000008,-0.0011341999999999,0,sub_24
0.0013577999999997,-0.0009459999999987,-0.0038513999999999,0.0048824000000004,0.0052180000000008,0.001423,0,sub_24
0.0061953999999997,0.0014110000000012,-0.0029201999999998,0.0051218000000004,0.0122426000000008,0.0026976,0,sub_24
0.0095747999999997,0.0026392000000012,-0.0018543999999998,0.0036446000000004,0.0169300000000008,0.0037498,0,sub_24
0.0095767999999997,0.0036128000000012,-0.0018391999999998,0.0021668000000004,0.0201310000000008,0.0035222,0,sub_24
0.0064071999999997,0.0033456000000012,-0.0030427999999998,0.0011136000000004,0.0220532000000008,0.0026578,0,sub_24
0.0020431999999997,0.0017980000000012,-0.0036789999999998,-0.0010353999999995,0.0186490000000008,0.0028606,0,sub_24
-0.0014352000000002,-0.0010123999999987,-0.0047793999999998,-0.0034337999999995,0.0094850000000008,0.0052054,0,sub_24
-0.0038136000000002,-0.0029949999999987,-0.0059607999999998,-0.0047749999999995,-0.0020249999999991,0.0073466,0,sub_24
-0.0039764000000002,-0.0030581999999987,-0.0059005999999998,-0.0041797999999995,-0.011404999999999,0.008003,0,sub_24
-0.0015364000000002,-0.0019059999999987,-0.0050093999999998,-0.0029229999999995,-0.018219599999999,0.0063112,0,sub_24
0.0010653999999997,-0.0012207999999987,-0.0037673999999998,-0.0003397999999995,-0.016510199999999,0.0029088000000001,0,sub_24
0.0035201999999997,-0.0018689999999987,-0.0023567999999999,0.0020708000000004,-0.0056419999999991,-0.0002929999999998,0,sub_24
0.0054869999999997,-0.0013565999999987,-0.0017999999999999,0.0036308000000004,0.0088388000000008,-0.0005143999999998,0,sub_24
0.0065193999999997,-0.0003117999999987,-0.0021981999999999,0.0038780000000004,0.0182022000000008,0.0013982000000001,0,sub_24
0.0057323999999997,0.0005580000000012,-0.0024263999999999,0.0041006000000004,0.0220262000000008,0.0033176000000001,0,sub_24
0.0047139999999997,0.0007838000000011,-0.0038565999999999,0.0028056000000003,0.0201050000000008,0.0048066,0,sub_24
0.0026587999999997,0.0018626000000011,-0.0052979999999999,0.0006462000000003,0.0139358000000008,0.0043722,0,sub_24
0.0023101999999997,0.0026302000000011,-0.0055547999999999,-0.0012947999999996,0.0060726000000009,0.0011644000000001,0,sub_24
0.0025335999999997,0.0018072000000011,-0.0055615999999999,-0.0030137999999996,-0.001995999999999,-0.0041781999999998,0,sub_24
0.0041681999999997,0.0001526000000011,-0.0057681999999999,-0.0053721999999995,-0.008576199999999,-0.0082451999999998,0,sub_24
0.0046963999999997,-0.0005567999999987,-0.0046679999999999,-0.0081695999999995,-0.015168399999999,-0.0095377999999998,0,sub_24
0.0051799999999997,-0.0014255999999987,-0.0028279999999999,-0.0101239999999995,-0.022409799999999,-0.0091145999999998,0,sub_24
0.0047475999999997,-0.0023841999999987,-0.0016061999999999,-0.0118691999999995,-0.029230999999999,-0.0074085999999999,0,sub_24
0.0039363999999997,-0.0042019999999987,-0.0008035999999999,-0.0136001999999995,-0.029673199999999,-0.0025059999999999,0,sub_24
0.0016125999999997,-0.0041351999999987,-0.0011603999999999,-0.0150977999999995,-0.023944199999999,0.0040992,0,sub_24
-0.0004578000000002,-0.0038329999999987,-0.0025993999999999,-0.0140093999999995,-0.014166799999999,0.0090078,0,sub_24
-0.0027124000000002,-0.0019361999999987,-0.0043911999999999,-0.0116301999999995,-0.004808599999999,0.0111488,0,sub_24
-0.0048386000000002,0.0003912000000012,-0.0058653999999999,-0.0075427999999995,0.0009358000000009,0.0096754,0,sub_24
-0.0070344000000002,0.0034174000000012,-0.0064633999999999,-0.0028033999999996,0.0039296000000009,0.002869,0,sub_24
-0.0056606000000002,0.0038532000000012,-0.0056179999999999,0.0010720000000003,0.0026730000000009,-0.0058605999999999,0,sub_24
-0.0025866000000002,0.0032860000000012,-0.0036889999999999,0.0027840000000003,-0.002422799999999,-0.0118227999999999,0,sub_24
0.0008493999999997,0.0021466000000012,-0.0019953999999999,0.0025766000000003,-0.002842799999999,-0.0133179999999999,0,sub_24
0.0050405999999997,0.0015670000000012,-0.0009939999999999,0.0006536000000004,-0.001353799999999,-0.0111967999999999,0,sub_24
0.0072061999999997,0.0008420000000012,-0.0005339999999999,-0.0017181999999995,-0.002005199999999,-0.0062983999999999,0,sub_24
0.0065913999999997,0.0005586000000012,-3.739999999990944e-05,-0.0029991999999995,0.0013928000000009,-0.0026793999999998,0,sub_24
0.0027377999999997,-0.0006905999999987,-0.0013667999999999,-0.0019219999999995,0.0043672000000009,-0.0018195999999998,0,sub_24
-0.0001280000000002,-0.0021699999999987,-0.0024603999999999,0.0019182000000004,0.0030786000000009,-0.0028577999999998,0,sub_24
-0.0033660000000002,-0.0038715999999987,-0.0034855999999999,0.0059774000000003,0.0026436000000009,-0.0043229999999998,0,sub_24
-0.0054520000000002,-0.0051049999999987,-0.0035607999999999,0.0106630000000003,0.0004974000000009,-0.0044999999999998,0,sub_24
-0.0069520000000002,-0.0065695999999987,-0.0035683999999999,0.0153276000000003,-0.004001799999999,-0.0023241999999999,0,sub_24
-0.0037906000000002,-0.0055289999999987,-0.0025067999999999,0.0191706000000003,0.0012930000000009,0.0023958,0,sub_24
0.0008583999999997,-0.0038321999999987,-0.0019129999999999,0.0194278000000003,0.0168222000000009,0.0081458,0,sub_24
0.0045875999999997,-0.0020083999999987,-0.0018043999999999,0.0171428000000004,0.0364082000000009,0.013873,0,sub_24
0.0072747999999997,0.0011676000000012,-0.0033293999999998,0.0135892000000004,0.0551582000000009,0.0163894,0,sub_24
0.0075659999999997,0.0054082000000012,-0.0057457999999998,0.0106396000000003,0.0619906000000008,0.01508,0,sub_24
0.0046417999999997,0.0065220000000012,-0.0069415999999998,0.0054838000000003,0.0496678000000008,0.0107886,0,sub_24
0.0002791999999997,0.0052428000000012,-0.0080607999999998,0.0004826000000003,0.0247732000000009,0.0069418,0,sub_24
-0.0031428000000002,0.0029492000000012,-0.0077743999999998,-0.0026117999999996,-0.000988599999999,0.0052458,0,sub_24
-0.0034196000000002,6.9600000001216e-05,-0.0075033999999999,-0.0054793999999996,-0.020583799999999,0.0065328,0,sub_24
-0.0012480000000002,-0.0022033999999988,-0.0059735999999999,-0.0078745999999995,-0.028681199999999,0.00909,0,sub_24
0.0013179999999997,-0.0025917999999988,-0.0047891999999999,-0.0074413999999995,-0.026342199999999,0.0099446,0,sub_24
0.0020295999999997,-0.0021285999999988,-0.0034389999999999,-0.0050561999999995,-0.020162399999999,0.0076032,0,sub_24
0.0030603999999997,-0.0017537999999988,-0.0030813999999999,-0.0018061999999995,-0.014825999999999,0.0020658,0,sub_24
0.0035261999999997,-0.0016971999999988,-0.0021755999999999,0.0014390000000004,-0.010554999999999,-0.0034701999999999,0,sub_24
0.0051265999999997,-0.0011557999999987,-0.0013795999999999,0.0033926000000004,-0.007775199999999,-0.0079449999999999,0,sub_24
0.0071831999999997,0.0002234000000012,-0.0016895999999998,0.0048762000000004,-0.013308199999999,-0.0111305999999999,0,sub_24
0.0097199999999997,0.0013542000000012,-0.0017193999999998,0.0046320000000004,-0.021188599999999,-0.0119751999999999,0,sub_24
0.0089331999999997,0.0024750000000012,-0.0017651999999998,0.0037730000000004,-0.021615799999999,-0.0111259999999999,0,sub_24
0.0067107999999997,0.0025882000000012,-0.0018367999999998,0.0029370000000004,-0.017566199999999,-0.0109231999999999,0,sub_24
0.0046751999999997,0.0011914000000012,-0.0027809999999998,-0.0004591999999995,-0.013720799999999,-0.0107369999999999,0,sub_24
0.0029947999999997,-0.0012835999999987,-0.0035307999999998,-0.0059767999999995,-0.006249399999999,-0.0097157999999999,0,sub_24
0.0013955999999997,-0.0022927999999987,-0.0044477999999998,-0.0102219999999995,-0.001335399999999,-0.0095369999999999,0,sub_24
0.0007795999999997,-0.0018489999999987,-0.0046307999999998,-0.0123707999999995,-0.004737799999999,-0.0093327999999999,0,sub_24
0.0006261999999997,-0.0019501999999987,-0.0048251999999998,-0.0138745999999995,-0.006864799999999,-0.0089121999999999,0,sub_24
-0.0018542000000002,-0.0010939999999987,-0.0043389999999998,-0.0132211999999995,-0.002822599999999,-0.0078445999999999,0,sub_24
-0.0053094000000002,0.0023044000000012,-0.0054323999999999,-0.0093455999999995,0.0048352000000009,-0.0078271999999999,0,sub_24
-0.0064738000000002,0.0043598000000012,-0.0064643999999999,-0.0039971999999995,0.0054666000000009,-0.0101405999999998,0,sub_24
-0.0049660000000002,0.0036940000000012,-0.0070563999999999,-0.0001655999999995,-0.001345799999999,-0.0143761999999998,0,sub_24
-0.0038318000000002,0.0025756000000012,-0.0054907999999999,0.0023798000000003,-0.007946999999999,-0.0171255999999998,0,sub_24
-0.0008318000000002,0.0001312000000012,-0.0050191999999999,0.0040590000000003,-0.014556799999999,-0.0171037999999998,0,sub_24
0.0030789999999997,-0.0045651999999987,-0.0024733999999999,0.0042296000000003,-0.019477199999999,-0.0121811999999998,0,sub_24
0.0045263999999997,-0.0064583999999987,-0.0002275999999999,0.0033782000000003,-0.009924599999999,-0.0027977999999999,0,sub_24
0.0044353999999997,-0.0048581999999987,-3.95999999999298e-05,0.0029958000000003,0.0094266000000008,0.0065748,0,sub_24
0.0046637999999997,-0.0018079999999987,-0.0015065999999999,0.0034490000000004,0.0204830000000008,0.0116912,0,sub_24
0.0034701999999997,0.0004776000000011,-0.0026989999999998,0.0047398000000004,0.0226096000000008,0.0114838,0,sub_24
0.0025763999999997,0.0010568000000011,-0.0036289999999998,0.0047662000000004,0.0247528000000008,0.0080646,0,sub_24
0.0022771999999997,-8.039999999880365e-05,-0.0051439999999998,0.0047638000000004,0.0213534000000008,0.0055068,0,sub_24
6.979999999979468e-05,-0.0012543999999988,-0.0062063999999998,0.0055898000000004,0.0145340000000008,0.0050954,0,sub_24
-0.0009184000000002,-0.0019735999999988,-0.0066577999999998,0.0059928000000004,0.0100540000000008,0.0061734000000001,0,sub_24
-0.0004356000000002,-0.0021149999999987,-0.0055885999999999,0.0053232000000003,0.0059970000000009,0.0089528,0,sub_24
-0.0001772000000002,-0.0016563999999987,-0.0056409999999999,0.0044122000000003,-0.005084999999999,0.0106696,0,sub_24
