userAcceleration.x,userAcceleration.y,userAcceleration.z,rotationRate.x,rotationRate.y,rotationRate.z,label,subject
-0.0015396000000001,0.0095694000000011,-0.0045211999999999,-0.0119705999999995,0.0786690000000008,-0.0193553999999999,0,sub_4
0.0009003999999998,0.0147586000000011,-0.0011087999999999,-0.0066459999999995,0.0746100000000008,-0.0212357999999999,0,sub_4
0.0046917999999998,0.0199662000000011,0.0013592,0.0041458000000004,0.0536962000000008,-0.0219881999999999,0,sub_4
0.0075627999999998,0.0233558000000011,0.0032328,0.0193380000000004,0.0167800000000008,-0.0207665999999999,0,sub_4
0.0096339999999998,0.0224594000000011,0.006537,0.0366284000000004,-0.0276019999999991,-0.0190933999999999,0,sub_4
0.0116711999999998,0.0151308000000012,0.0116888,0.0460566000000004,-0.0634393999999991,-0.0162041999999999,0,sub_4
0.0127985999999998,0.0041126000000012,0.0122136,0.0419288000000004,-0.0753739999999991,-0.0117311999999999,0,sub_4
0.0099255999999998,-0.0074059999999987,0.0095452,0.0219390000000004,-0.0546605999999991,-0.0061289999999999,0,sub_4
0.0024785999999998,-0.0160525999999987,0.0031544,-0.0115801999999995,-0.0059887999999991,-0.0008707999999999,0,sub_4
-0.0072972000000001,-0.0188171999999987,-0.0060647999999999,-0.0507893999999995,0.0538004000000008,-0.0003667999999999,0,sub_4
-0.0143506000000001,-0.0103845999999987,-0.0159927999999999,-0.0801901999999994,0.1065468000000008,-0.0053397999999999,0,sub_4
-0.0170998000000001,0.0036422000000011,-0.0216433999999999,-0.0906813999999994,0.1366620000000008,-0.0148519999999999,0,sub_4
-0.0145984000000002,0.0187434000000011,-0.0206587999999999,-0.0816641999999995,0.1366800000000008,-0.0271803999999999,0,sub_4
-0.0078018000000002,0.0343608000000011,-0.0165141999999999,-0.0548463999999995,0.1106380000000008,-0.0380691999999999,0,sub_4
0.0004409999999997,0.0448130000000011,-0.0074765999999999,-0.0145145999999995,0.0589580000000008,-0.0428487999999999,0,sub_4
0.0083613999999997,0.0436270000000011,0.0048232,0.0248860000000004,-0.0023369999999991,-0.0399313999999999,0,sub_4
0.0131421999999997,0.0308246000000011,0.0150412,0.0476894000000004,-0.0467691999999991,-0.0305283999999999,0,sub_4
0.0141943999999997,0.0143724000000011,0.0177002,0.0460760000000004,-0.0593903999999991,-0.0164227999999999,0,sub_4
0.0121049999999997,-0.0007437999999987,0.013967,0.0215316000000004,-0.0459419999999991,-0.0016563999999999,0,sub_4
0.0084049999999997,-0.0126897999999987,0.0052784,-0.0161087999999994,-0.0053793999999991,0.0104202,0,sub_4
-0.0005776000000002,-0.0133541999999987,-0.0080159999999999,-0.0489879999999994,0.0422290000000008,0.014616,0,sub_4
-0.0081626000000001,0.0010202000000012,-0.0187289999999999,-0.0593395999999994,0.0601824000000008,0.0093932,0,sub_4
-0.0136510000000001,0.0179100000000012,-0.0229707999999999,-0.0376177999999994,0.0396976000000008,-0.0015383999999999,0,sub_4
-0.0138000000000001,0.0244292000000011,-0.0155161999999999,0.0053452000000004,-0.0028037999999991,-0.0129341999999999,0,sub_4
-0.0095410000000001,0.0287716000000011,-0.0057085999999999,0.0433778000000004,-0.0457327999999991,-0.0196637999999999,0,sub_4
-0.0010480000000001,0.0248516000000011,0.0041206,0.0605450000000004,-0.0686017999999991,-0.0165233999999999,0,sub_4
0.0025187999999998,0.0154178000000011,0.006339,0.0528760000000004,-0.0558317999999991,-0.0065519999999999,0,sub_4
0.0033681999999998,0.0062710000000011,0.0052858,0.0252362000000004,-0.0221193999999991,0.0049622,0,sub_4
5.1199999999814586e-05,0.0038772000000012,-0.0022849999999999,-0.0062249999999995,0.0118358000000008,0.0123902,0,sub_4
-0.0058812000000001,0.0067040000000012,-0.0104079999999999,-0.0217245999999995,0.0302078000000008,0.0135402,0,sub_4
-0.0120986000000001,0.0121366000000012,-0.0158823999999999,-0.0147091999999995,0.0203990000000008,0.0095424,0,sub_4
-0.0129208000000001,0.0137572000000012,-0.0115155999999999,0.0088458000000004,-0.0137507999999991,0.0044096,0,sub_4
-0.0089252000000001,0.0137438000000012,-0.0046103999999999,0.0332398000000004,-0.0489773999999991,0.0014204,0,sub_4
-0.0018716000000002,0.0119002000000012,0.0025394,0.0453236000000004,-0.0660657999999991,0.001954,0,sub_4
0.0052401999999997,0.0074924000000012,0.0059372,0.0387206000000004,-0.0598787999999991,0.005532,0,sub_4
0.0087429999999997,0.0050164000000012,0.0054234,0.0183414000000004,-0.0336135999999991,0.008347,0,sub_4
0.0080563999999998,0.0060594000000012,-0.0004983999999999,-0.0060669999999995,-0.0026437999999991,0.0102732,0,sub_4
0.0034929999999998,0.0108940000000012,-0.0069109999999999,-0.0198555999999995,0.0153010000000008,0.010154,0,sub_4
-0.0032440000000001,0.0167426000000011,-0.0114791999999999,-0.0153833999999995,0.0116702000000008,0.0084806,0,sub_4
-0.0082538000000001,0.0180480000000011,-0.0096455999999999,0.0049998000000004,-0.0148035999999991,0.0045976,0,sub_4
-0.0071262000000001,0.0157438000000011,-0.0052371999999999,0.0285412000000004,-0.0504509999999991,0.0009622,0,sub_4
-0.0041550000000002,0.0088928000000011,0.0016528,0.0414744000000004,-0.0711531999999991,-0.0012709999999999,0,sub_4
-0.0010534000000002,0.0004612000000011,0.0031936,0.0351136000000004,-0.0628191999999991,-0.0019671999999999,0,sub_4
0.0013861999999997,-0.0055945999999987,0.0011662,0.0122556000000004,-0.0316315999999991,-0.0021703999999999,0,sub_4
-0.0008432000000002,-0.0060041999999988,-0.0048967999999999,-0.0173735999999995,0.0123620000000008,-0.0022235999999999,0,sub_4
-0.0066618000000002,0.0023388000000011,-0.0112673999999999,-0.0393443999999994,0.0497302000000008,-0.0037103999999999,0,sub_4
-0.0118568000000001,0.0143910000000011,-0.0165623999999999,-0.0411579999999994,0.0595532000000008,-0.0073711999999999,0,sub_4
-0.0156338000000001,0.0221406000000011,-0.0142727999999999,-0.0217609999999995,0.0405420000000008,-0.0114875999999999,0,sub_4
-0.0138042000000001,0.0247180000000011,-0.0076007999999999,0.0056308000000004,0.0084972000000008,-0.0136051999999999,0,sub_4
-0.0061766000000001,0.0231112000000011,7.160000000007403e-05,0.0257716000000004,-0.0186381999999991,-0.0117205999999999,0,sub_4
0.0012995999999998,0.0144004000000011,0.0049942,0.0310388000000004,-0.0284775999999991,-0.0065437999999999,0,sub_4
0.0057765999999998,0.0075994000000011,0.0057656,0.0208122000000004,-0.0193035999999991,-0.0008585999999999,0,sub_4
0.0076315999999998,0.0052398000000011,0.0025344,0.0038076000000004,-0.0009365999999991,0.0028446,0,sub_4
0.0037103999999998,0.0081778000000011,-0.0030433999999999,-0.0080933999999995,0.0110310000000008,0.004028,0,sub_4
-0.0027496000000001,0.0116214000000012,-0.0073845999999999,-0.0064025999999995,0.0057056000000008,0.0023374,0,sub_4
-0.0067290000000001,0.0127416000000012,-0.0084279999999999,0.0048430000000004,-0.0115783999999991,-0.0007663999999998,0,sub_4
-0.0057326000000001,0.0099778000000012,-0.0048357999999999,0.0156694000000004,-0.0265199999999991,-0.0032353999999998,0,sub_4
-0.0030568000000001,0.0064204000000012,-0.0012583999999999,0.0163010000000004,-0.0284397999999991,-0.0032285999999998,0,sub_4
0.0002789999999998,0.0035118000000012,-0.0005907999999999,0.0065426000000004,-0.0160475999999991,-0.0035261999999999,0,sub_4
0.0016557999999998,0.0043346000000012,-0.0021041999999999,-0.0081053999999995,-0.0004389999999991,-0.0047165999999999,0,sub_4
-0.0013494000000001,0.0084586000000012,-0.0046983999999999,-0.0197959999999995,0.0074934000000008,-0.0069449999999999,0,sub_4
-0.0067096000000001,0.0134398000000011,-0.0071763999999999,-0.0230271999999995,-0.0020715999999991,-0.0097325999999999,0,sub_4
-0.0097212000000001,0.0169712000000011,-0.0081383999999999,-0.0145863999999995,-0.0261635999999991,-0.0128473999999999,0,sub_4
-0.0108772000000001,0.0177710000000011,-0.0083551999999999,0.0011340000000004,-0.0417707999999991,-0.0129313999999999,0,sub_4
-0.0116364000000001,0.0160654000000011,-0.0065929999999999,0.0148110000000004,-0.0373435999999991,-0.0130551999999998,0,sub_4
-0.0063216000000001,0.0154546000000011,-0.0066053999999999,0.0182758000000004,-0.0267003999999991,-0.0136855999999998,0,sub_4
0.0002929999999998,0.0146472000000011,-0.0092313999999999,0.0164274000000004,-0.0109269999999991,-0.0139323999999998,0,sub_4
0.0034375999999998,0.0135406000000011,-0.0104353999999999,0.0156526000000004,0.0082438000000008,-0.0122531999999998,0,sub_4
0.0020921999999998,0.0117000000000011,-0.0071147999999999,0.0150250000000004,0.0125012000000008,-0.0107673999999998,0,sub_4
0.0020149999999997,0.0095970000000012,-0.0046905999999999,0.0134786000000004,0.0022740000000008,-0.0092695999999999,0,sub_4
0.0005585999999997,0.0056654000000012,-0.0006247999999999,0.0162266000000004,-0.0028513999999991,-0.0086027999999998,0,sub_4
-0.0001522000000002,0.0047466000000012,0.0032894,0.0181440000000004,-0.0024361999999991,-0.0075215999999998,0,sub_4
0.0004337999999998,0.0054018000000012,0.0048574,0.0136602000000004,-0.0028473999999991,-0.0073387999999999,0,sub_4
0.0015825999999998,0.0067752000000012,0.003066,0.0057682000000004,-0.0015441999999991,-0.0067547999999999,0,sub_4
0.0028111999999998,0.0101832000000012,0.0007034,-0.0002147999999995,-0.0006821999999991,-0.0040203999999999,0,sub_4
0.0021809999999998,0.0151022000000012,-0.0018493999999999,-0.0036679999999995,-0.0034637999999991,0.001941,0,sub_4
-0.0007222000000001,0.0173698000000012,-0.0035201999999999,-0.0024211999999995,-0.0105459999999991,0.0096504,0,sub_4
-0.0038640000000001,0.0178570000000011,-0.0042627999999999,0.0032892000000004,-0.0214787999999991,0.017396,0,sub_4
-0.0025870000000001,0.0174916000000011,-0.0043517999999999,0.0085806000000004,-0.0334641999999991,0.0223628,0,sub_4
-0.0021436000000001,0.0150102000000011,-0.0046313999999999,0.0122004000000004,-0.0386217999999991,0.0262408,0,sub_4
-0.0014494000000001,0.0106416000000011,-0.0037495999999999,0.0135036000000004,-0.0392877999999991,0.0277468,0,sub_4
0.0002035999999998,0.0066588000000011,-0.0026215999999999,0.0118330000000004,-0.0337321999999991,0.0251642,0,sub_4
0.0047469999999998,0.0061590000000011,-0.0019907999999999,0.0039660000000004,-0.0321945999999991,0.0204072,0,sub_4
0.0041649999999998,0.0059042000000011,-0.0038979999999999,-0.0007169999999995,-0.0345817999999991,0.0142074,0,sub_4
0.0012049999999998,0.0038380000000011,-0.0026951999999999,0.0020852000000004,-0.0380407999999991,0.0031476,0,sub_4
-0.0027492000000001,0.0062120000000011,-0.0053371999999999,0.0066242000000004,-0.0414791999999991,-0.0145229999999999,0,sub_4
-0.0082854000000001,0.0115814000000012,-0.0095395999999999,0.0134758000000004,-0.0566277999999991,-0.0362217999999999,0,sub_4
-0.0150842000000001,0.0164566000000012,-0.0139249999999999,0.0288488000000004,-0.0703325999999991,-0.0533763999999999,0,sub_4
-0.0153838000000001,0.0188626000000012,-0.0103771999999999,0.0484062000000004,-0.0944445999999991,-0.0611137999999998,0,sub_4
-0.0166234000000001,0.0171062000000012,-0.0101597999999999,0.0655772000000004,-0.1175223999999991,-0.0590415999999998,0,sub_4
-0.0171650000000001,0.0116062000000012,-0.0065765999999999,0.0781096000000004,-0.1252559999999991,-0.0540303999999999,0,sub_4
-0.0131498000000001,0.0078130000000012,-0.0025985999999999,0.0859804000000004,-0.1229947999999991,-0.0483995999999999,0,sub_4
-0.0051046000000001,0.0035306000000012,-0.0009517999999999,0.0869802000000004,-0.1372997999999991,-0.0498459999999998,0,sub_4
-0.0033146000000001,-0.0009509999999987,0.000625,0.0842196000000004,-0.1423953999999991,-0.0600895999999998,0,sub_4
0.0020799999999998,0.0015748000000012,0.0070896,0.0673842000000004,-0.1446761999999991,-0.0693669999999999,0,sub_4
0.0069677999999998,0.0060744000000012,0.0106806,0.0453320000000004,-0.1550879999999991,-0.0654245999999999,0,sub_4
0.0099687999999998,0.0109058000000012,0.0047308,0.0292580000000004,-0.1559439999999991,-0.0505805999999999,0,sub_4
0.0015759999999998,0.0184402000000011,-0.0007977999999999,0.0250346000000004,-0.1242719999999991,-0.0286451999999999,0,sub_4
-0.0047410000000001,0.0293760000000011,-0.0096357999999999,0.0246366000000004,-0.0970831999999991,-0.0077457999999999,0,sub_4
-0.0104466000000001,0.0267952000000011,-0.0160563999999999,0.0274746000000004,-0.0719959999999991,0.0031378,0,sub_4
-0.0112856000000001,0.0216888000000011,-0.0194881999999999,0.0282548000000004,-0.0389825999999991,0.0050238,0,sub_4
-0.0158622000000001,0.0138176000000012,-0.0158621999999999,0.0181980000000005,0.0017480000000008,0.004474,0,sub_4
-0.0157122000000001,0.0043420000000012,-0.0086243999999998,-0.0044545999999995,0.0412434000000008,0.0040514,0,sub_4
-0.0140030000000001,-0.0075167999999987,-0.0006569999999999,-0.0349395999999995,0.0967368000000008,0.0056902,0,sub_4
-0.0058362000000001,-0.0044465999999987,0.0010576,-0.0611743999999995,0.1528366000000008,0.0118444,0,sub_4
0.0004543999999997,0.0009956000000012,0.001789,-0.0804311999999995,0.1986698000000008,0.021906,0,sub_4
0.0041307999999997,0.0065600000000012,0.0006738,-0.0907435999999995,0.2416978000000008,0.033102,0,sub_4
0.0127301999999997,0.0172994000000012,-0.0099449999999999,-0.0843515999999995,0.3050936000000008,0.0512252,0,sub_4
0.0103013999999998,0.0240210000000012,-0.0103347999999999,-0.0796725999999994,0.3120662000000008,0.0617176,0,sub_4
0.0043555999999998,0.0199812000000012,-0.0064949999999999,-0.0639721999999994,0.2862554000000009,0.0558782,0,sub_4
-0.0038540000000001,0.0201580000000012,-0.0033887999999999,-0.0718339999999994,0.2383770000000008,0.0479798,0,sub_4
-0.0029068000000001,0.0159850000000012,-0.0031619999999999,-0.0716659999999995,0.1783048000000008,0.0454942,0,sub_4
-0.0156520000000001,0.0032602000000012,0.0057448,-0.0825799999999994,0.1187078000000008,0.040367,0,sub_4
-0.0148728000000001,0.0048618000000012,0.0043052,-0.0847079999999994,0.1189326000000008,0.0392836,0,sub_4
-0.0147960000000001,0.0147964000000012,0.0013682,-0.1005665999999995,0.1089530000000008,0.0445268,0,sub_4
-0.0069616000000002,0.0235344000000012,-0.0091149999999999,-0.0786639999999994,0.0935312000000008,0.0459814,0,sub_4
-0.0107960000000002,0.0278836000000012,-0.0078865999999999,-0.0486465999999995,0.0725700000000008,0.0404496,0,sub_4
-0.0105140000000002,0.0304248000000012,-0.0055607999999999,-0.0170333999999995,0.0169150000000008,0.024932,0,sub_4
-0.0096574000000002,0.0235888000000012,-0.0069951999999999,0.0059884000000004,-0.0517043999999991,0.0089438,0,sub_4
-0.0051004000000002,0.0166762000000012,-0.0106189999999999,0.0317288000000004,-0.0792375999999991,-0.0010959999999999,0,sub_4
-0.0077818000000001,0.0056412000000012,-0.0050645999999999,0.0454134000000004,-0.0792597999999991,-0.0074095999999999,0,sub_4
-0.0049500000000001,0.0011876000000012,-0.0024145999999999,0.0388544000000004,-0.0728211999999991,-0.0134457999999999,0,sub_4
0.0027805999999998,0.0004714000000012,-0.0029229999999999,0.0229464000000004,-0.0540071999999991,-0.0159311999999999,0,sub_4
0.0069431999999998,0.0007348000000012,-0.0019567999999999,0.0053802000000004,-0.0207141999999991,-0.0148147999999999,0,sub_4
0.0042349999999998,0.0001874000000012,-0.0021371999999999,-0.0141215999999995,0.0127842000000008,-0.0100801999999999,0,sub_4
0.0008741999999998,-0.0018315999999987,-0.0025337999999999,-0.0338635999999995,0.0398934000000008,-0.0057663999999999,0,sub_4
-0.0047148000000001,-0.0005553999999987,-0.0046347999999999,-0.0508373999999995,0.0631680000000008,-0.0039919999999999,0,sub_4
-0.0093624000000001,0.0026374000000012,-0.0044073999999999,-0.0646317999999995,0.0787736000000008,-0.0051765999999999,0,sub_4
-0.0081186000000001,0.0107694000000012,-0.0069367999999999,-0.0757127999999995,0.0858278000000008,-0.0014173999999999,0,sub_4
-0.0069140000000001,0.0173998000000012,-0.0077649999999999,-0.0797859999999995,0.0870980000000008,0.0041072,0,sub_4
-0.0071718000000001,0.0230346000000012,-0.0100617999999999,-0.0802849999999994,0.0773440000000008,0.0094928,0,sub_4
-0.0051020000000001,0.0230538000000012,-0.0091379999999999,-0.0779757999999995,0.0727040000000008,0.0123276,0,sub_4
-0.0021144000000001,0.0202108000000012,-0.0095637999999999,-0.0752283999999995,0.0704068000000008,0.014949,0,sub_4
-0.0053482000000001,0.0125542000000011,-0.0077799999999999,-0.0707701999999995,0.0644996000000008,0.0131002,0,sub_4
-0.0077654000000001,0.0077546000000011,-0.0074225999999999,-0.0680091999999995,0.0592436000000008,0.0097434,0,sub_4
-0.0080536000000001,0.0057932000000011,-0.0069993999999999,-0.0652085999999995,0.0626530000000008,0.0071948,0,sub_4
-0.0051570000000001,0.0087142000000011,-0.0093847999999999,-0.0594705999999995,0.0573074000000008,0.0070282,0,sub_4
-0.0044214000000001,0.0119960000000011,-0.0101301999999999,-0.0471553999999995,0.0432052000000008,0.0064914,0,sub_4
-0.0011734000000001,0.0165040000000011,-0.0075009999999999,-0.0314491999999995,0.0237656000000008,0.0057716,0,sub_4
0.0043705999999998,0.0222474000000011,-0.0051435999999999,-0.0123463999999995,0.0023890000000008,0.0070006,0,sub_4
0.0087377999999998,0.0258668000000011,-0.0006169999999999,0.0101542000000004,-0.0219847999999991,0.0088982,0,sub_4
0.0106781999999998,0.0255334000000012,0.004855,0.0290350000000004,-0.0461269999999991,0.0092746,0,sub_4
0.0137985999999998,0.0258410000000012,0.0091968,0.0423664000000004,-0.0717369999999991,0.0085458,0,sub_4
0.0153419999999998,0.0239708000000012,0.0102214,0.0525096000000004,-0.0977491999999991,0.0045906,0,sub_4
0.0146789999999997,0.0170810000000012,0.0094052,0.0583728000000004,-0.1197715999999991,-0.0044681999999999,0,sub_4
0.0125065999999997,0.0081358000000012,0.0062148,0.0570494000000004,-0.1289759999999991,-0.0159435999999999,0,sub_4
0.0087447999999997,-0.0020515999999987,0.0022328,0.0463722000000004,-0.1294167999999991,-0.0264273999999999,0,sub_4
0.0014183999999997,-0.0133625999999987,-0.0028925999999999,0.0293722000000004,-0.1117279999999991,-0.0363375999999999,0,sub_4
-0.0098872000000002,-0.0207967999999987,-0.0095547999999999,0.0071156000000004,-0.0706095999999991,-0.0401187999999999,0,sub_4
-0.0224778000000002,-0.0182661999999987,-0.0160251999999999,-0.0195833999999995,-0.0245149999999991,-0.0356639999999999,0,sub_4
-0.0343460000000001,-0.0045133999999987,-0.0224851999999999,-0.0466233999999995,0.0044910000000008,-0.0198667999999999,0,sub_4
-0.0391242000000001,0.0152614000000011,-0.0238925999999999,-0.0515725999999995,-0.0290347999999991,0.0034288,0,sub_4
-0.0330786000000001,0.0335434000000011,-0.0248557999999999,-0.0213521999999995,-0.1197765999999991,0.025548,0,sub_4
-0.0151568000000001,0.0394248000000011,-0.0128855999999999,0.0390060000000004,-0.2576635999999991,0.0366148,0,sub_4
-0.0002410000000001,0.0365766000000011,0.0009944,0.0841638000000004,-0.3238627999999991,0.0355194,0,sub_4
0.0114893999999998,0.0311334000000011,0.009568,0.1123838000000004,-0.3273077999999991,0.020125,0,sub_4
0.0152597999999998,0.0173684000000012,0.0132648,0.1183810000000004,-0.2524449999999991,-0.0051389999999999,0,sub_4
0.0089449999999998,-0.0009679999999987,0.0143524,0.0926476000000004,-0.1203559999999991,-0.0347573999999999,0,sub_4
-0.0121140000000001,1.880000000122721e-05,-0.0023693999999999,0.0459476000000004,0.0522646000000007,-0.0590193999999999,0,sub_4
-0.0278232000000001,0.0059506000000011,-0.0193407999999999,0.0214058000000004,0.1344250000000008,-0.0712601999999999,0,sub_4
-0.0301126000000001,0.0050466000000011,-0.0230483999999999,0.0181812000000004,0.1280488000000008,-0.0723427999999999,0,sub_4
-0.0219164000000001,0.0097928000000011,-0.0206677999999999,0.0203726000000004,0.0608686000000008,-0.0572863999999999,0,sub_4
-0.0091312000000001,0.0184322000000011,-0.0145925999999999,0.0208548000000004,-0.0345087999999991,-0.0223367999999999,0,sub_4
0.0014007999999998,0.0082662000000011,-0.0013041999999999,0.0138880000000004,-0.1202939999999991,0.0178896,0,sub_4
0.0120323999999998,-0.0063177999999987,0.0114302,-0.0058383999999995,-0.1612439999999991,0.0457918,0,sub_4
0.0146067999999998,-0.0176455999999987,0.0147036,-0.0364997999999995,-0.1366763999999991,0.055801,0,sub_4
0.0148697999999997,-0.0194589999999987,0.010657,-0.0631761999999995,-0.0553583999999991,0.0429056,0,sub_4
0.0111071999999997,-0.0126273999999987,0.0037802,-0.0758099999999995,0.0462246000000008,0.0117088,0,sub_4
0.0133963999999997,0.0039180000000012,-0.0039795999999999,-0.0689379999999995,0.1134640000000008,-0.0259305999999999,0,sub_4
0.0090617999999997,0.0265614000000012,-0.0101573999999999,-0.0371287999999995,0.1324440000000008,-0.0579929999999999,0,sub_4
0.0023639999999997,0.0466754000000011,-0.0124431999999999,0.0110886000000004,0.1121120000000008,-0.0768581999999999,0,sub_4
-0.0096934000000001,0.0501392000000011,-0.0120645999999999,0.0561462000000004,0.0670220000000008,-0.0820405999999999,0,sub_4
-0.0152158000000001,0.0419270000000011,-0.0083173999999999,0.0857882000000004,0.0185436000000008,-0.0789939999999999,0,sub_4
-0.0190824000000001,0.0298726000000011,-0.0041443999999999,0.0932970000000004,-0.0113447999999991,-0.0703575999999999,0,sub_4
-0.0171016000000001,0.0137614000000011,5.400000000054319e-06,0.0786678000000004,-0.0247691999999991,-0.0571967999999999,0,sub_4
-0.0135606000000001,-0.0001473999999988,0.0009676,0.0486950000000004,-0.0277249999999991,-0.0379605999999999,0,sub_4
-0.0113594000000001,-0.0055653999999988,-0.0022483999999999,0.0174860000000004,-0.0185417999999991,-0.0163985999999999,0,sub_4
-0.0129756000000001,-0.0041701999999988,-0.0049801999999999,-0.0073207999999995,-0.0083191999999991,0.0060612,0,sub_4
-0.0126606000000001,-0.0004481999999988,-0.0076193999999999,-0.0251131999999995,-0.0059963999999991,0.0266574,0,sub_4
-0.0136254000000001,0.0046886000000011,-0.0099433999999999,-0.0317657999999995,-0.0098717999999991,0.0417804,0,sub_4
-0.0130126000000001,0.0122122000000011,-0.0093423999999999,-0.0262561999999995,-0.0246119999999991,0.0461064,0,sub_4
-0.0110240000000001,0.0127702000000012,-0.0051485999999999,-0.0154065999999995,-0.0446707999999991,0.0438536,0,sub_4
-0.0050440000000001,0.0103646000000012,-0.0028511999999999,-0.0121683999999995,-0.0542425999999991,0.0364066,0,sub_4
0.0042695999999998,0.0122658000000012,-0.0024671999999999,-0.0105057999999995,-0.0363177999999991,0.0272044,0,sub_4
0.0104235999999998,0.0155696000000012,-0.0025209999999999,-0.0018137999999995,-0.0120169999999991,0.0165518,0,sub_4
0.0098621999999998,0.0156946000000012,-0.0054997999999999,0.0175402000000004,0.0071478000000008,0.0023482,0,sub_4
0.0047237999999998,0.0254470000000012,-0.0102717999999999,0.0456004000000004,0.0177566000000008,-0.0109289999999999,0,sub_4
-0.0046780000000001,0.0353526000000012,-0.0134649999999999,0.0771898000000004,0.0111444000000008,-0.0160487999999999,0,sub_4
-0.0170832000000001,0.0381122000000011,-0.0120313999999999,0.1011328000000004,-0.0306131999999991,-0.0166905999999999,0,sub_4
-0.0178056000000001,0.0251668000000011,-0.0063985999999999,0.0992856000000004,-0.0620703999999991,-0.0134663999999999,0,sub_4
-0.0112026000000001,0.0119078000000011,-0.0033291999999999,0.0732796000000004,-0.0493695999999991,-0.0032035999999999,0,sub_4
-0.0023078000000001,0.0002390000000012,-0.0009201999999999,0.0328746000000004,-0.0127535999999991,0.006287,0,sub_4
0.0041793999999998,-0.0054731999999987,0.0005502,-0.0083173999999995,0.0357404000000008,0.0093554,0,sub_4
0.0093977999999998,-0.0028567999999987,-0.0004321999999999,-0.0462291999999995,0.1004212000000008,0.0109306,0,sub_4
0.0038585999999998,0.0131706000000012,-0.0069109999999999,-0.0683811999999995,0.1599276000000008,0.014118,0,sub_4
-0.0044766000000001,0.0255724000000012,-0.0115633999999999,-0.0731839999999995,0.1894104000000008,0.0155714,0,sub_4
-0.0068926000000001,0.0348940000000012,-0.0173951999999999,-0.0631713999999995,0.1973014000000008,0.022497,0,sub_4
-0.0076898000000001,0.0389778000000011,-0.0184309999999999,-0.0426369999999995,0.1770142000000008,0.0340188,0,sub_4
-0.0093684000000001,0.0352594000000011,-0.0110769999999999,-0.0294617999999995,0.1284366000000008,0.040398,0,sub_4
-0.0055188000000001,0.0283660000000011,-0.0055965999999999,-0.0207893999999995,0.0711550000000008,0.0429112,0,sub_4
