userAcceleration.x,userAcceleration.y,userAcceleration.z,rotationRate.x,rotationRate.y,rotationRate.z,label,subject
0.0111461999999997,0.0089050000000012,0.0002194,-0.0123197999999995,-0.012437999999999,0.0036412,0,sub_6
0.0123773999999997,0.0058810000000012,0.0013216,-0.0153311999999995,-0.019666599999999,0.0080734,0,sub_6
0.0082449999999997,0.0054168000000012,0.0010654,-0.0136101999999995,-0.024967599999999,0.0059132,0,sub_6
0.0055661999999997,0.0065932000000012,0.0008342,-0.0086605999999995,-0.027708799999999,0.0001404,0,sub_6
0.0040839999999997,0.0123958000000012,0.0001024,-0.0009579999999995,-0.029838799999999,-0.0066397999999999,0,sub_6
0.0005191999999997,0.0193372000000012,-0.0025315999999999,0.0065322000000004,-0.030057599999999,-0.0117145999999999,0,sub_6
-0.0062256000000002,0.0222390000000012,-0.0055681999999999,0.0080354000000004,-0.027932199999999,-0.0117067999999999,0,sub_6
-0.0107504000000002,0.0228748000000012,-0.0080193999999999,0.0054836000000004,-0.022610599999999,-0.0083129999999999,0,sub_6
-0.0137216000000002,0.0227318000000012,-0.0097969999999999,0.0025286000000004,-0.016847199999999,-0.0066771999999999,0,sub_6
-0.0173104000000002,0.0205968000000012,-0.0102375999999999,8.000000000424768e-06,-0.012776199999999,-0.0084545999999999,0,sub_6
-0.0193982000000002,0.0164558000000012,-0.0096397999999999,0.0009110000000004,-0.008920599999999,-0.0125579999999999,0,sub_6
-0.0162018000000002,0.0118646000000012,-0.0099897999999999,0.0063072000000004,-0.005706399999999,-0.0200473999999999,0,sub_6
-0.0111320000000002,0.0090910000000012,-0.0109527999999998,0.0123494000000004,-0.003762399999999,-0.0300943999999998,0,sub_6
-0.0072596000000002,0.0060412000000012,-0.0110125999999998,0.0164352000000004,-0.002475399999999,-0.0358359999999998,0,sub_6
-0.0026076000000002,0.0038598000000012,-0.0088687999999998,0.0183546000000004,-0.002907399999999,-0.0360355999999998,0,sub_6
0.0005973999999997,0.0020056000000012,-0.0084899999999998,0.0174954000000004,-0.000184199999999,-0.0322113999999998,0,sub_6
0.0010971999999997,0.0047000000000012,-0.0080099999999998,0.0115088000000004,0.0048852000000009,-0.0245803999999998,0,sub_6
4.639999999979669e-05,0.0065968000000012,-0.0067621999999998,0.0010182000000004,0.0091010000000009,-0.0127069999999999,0,sub_6
-0.0020154000000002,0.0090160000000012,-0.0030081999999998,-0.0069147999999995,0.0111834000000009,-0.0023083999999999,0,sub_6
-0.0037774000000001,0.0100820000000012,-0.0028349999999998,-0.0103467999999995,0.0136924000000009,0.0040618,0,sub_6
-0.0028954000000001,0.0125058000000012,-0.0032059999999999,-0.0116201999999995,0.0160370000000009,0.0049046,0,sub_6
-0.0032052000000001,0.0162108000000012,-0.0015443999999999,-0.0096835999999995,0.0158326000000009,0.0010728,0,sub_6
-0.0047278000000001,0.0179638000000012,0.001183,-0.0028287999999995,0.0158326000000009,-0.0048611999999999,0,sub_6
-0.0061112000000001,0.0190966000000012,-0.0002323999999999,0.0018894000000004,0.0158374000000009,-0.0101691999999999,0,sub_6
-0.0060248000000001,0.0211912000000012,-0.0019235999999999,0.0044568000000003,0.0160126000000009,-0.0152737999999999,0,sub_6
-0.0070934000000001,0.0207656000000012,-0.0001961999999999,0.0091406000000003,0.0134066000000009,-0.0192919999999999,0,sub_6
-0.0070746000000001,0.0180166000000012,0.001212,0.0155220000000004,0.0099372000000009,-0.0220151999999999,0,sub_6
-0.0053576000000001,0.0142100000000012,0.000736,0.0216994000000004,0.0073258000000009,-0.0260227999999999,0,sub_6
-0.0018738000000001,0.0100192000000012,0.0008462,0.0291658000000004,0.0059910000000009,-0.0306639999999999,0,sub_6
0.0024079999999997,0.0083042000000012,3.1600000000089544e-05,0.0357678000000004,0.0038348000000009,-0.0299741999999999,0,sub_6
0.0018703999999998,0.0096904000000012,-0.0007881999999998,0.0325280000000004,0.0012646000000009,-0.0237977999999999,0,sub_6
-0.0008304000000001,0.0123474000000012,-0.0036573999999998,0.0237510000000004,0.0006330000000009,-0.0180899999999999,0,sub_6
-0.0054864000000001,0.0152036000000012,-0.0089761999999998,0.0173086000000004,0.0025238000000009,-0.0125495999999999,0,sub_6
-0.0098922000000001,0.0181096000000012,-0.0139557999999998,0.0102020000000004,0.0001516000000009,-0.0059401999999999,0,sub_6
-0.0142362000000001,0.0179004000000012,-0.0132505999999998,0.0020488000000004,-0.002410999999999,-0.0040377999999999,0,sub_6
-0.0118890000000001,0.0124944000000012,-0.0107105999999998,0.0026936000000004,-7.939999999907197e-05,-0.0082759999999999,0,sub_6
-0.0044106000000001,0.0078894000000012,-0.0085295999999999,0.0080268000000004,0.0020186000000009,-0.0114129999999999,0,sub_6
0.0053681999999997,0.0060990000000012,-0.0044877999999999,0.0090850000000004,0.0009462000000009,-0.0105495999999999,0,sub_6
0.0106677999999997,0.0070406000000012,0.0011144,0.0067502000000004,0.0047850000000009,-0.0095025999999999,0,sub_6
0.0109577999999997,0.0084796000000012,0.002265,0.0048366000000004,0.0088294000000009,-0.0069575999999999,0,sub_6
0.0082373999999997,0.0128096000000012,-0.0006279999999999,-0.0007551999999995,0.0086430000000009,-0.0009777999999999,0,sub_6
0.0020515999999997,0.0161798000000012,-0.0030135999999999,-0.0067803999999995,0.0063302000000009,0.0043608,0,sub_6
-0.0062098000000001,0.0177436000000012,-0.0036989999999999,-0.0093657999999995,0.0050896000000009,0.0050218,0,sub_6
-0.0109704000000001,0.0165646000000012,-0.0056483999999999,-0.0076673999999995,0.0038486000000009,0.002081,0,sub_6
-0.0118466000000002,0.0148038000000012,-0.0064815999999999,-0.0029587999999995,0.0043150000000009,-0.0042591999999999,0,sub_6
-0.0110848000000002,0.0134550000000012,-0.0050825999999999,0.0060470000000004,0.0060206000000009,-0.0123167999999999,0,sub_6
-0.0089132000000002,0.0114026000000012,-0.0037089999999999,0.0127018000000004,0.0090040000000009,-0.0182559999999999,0,sub_6
-0.0049294000000002,0.0107852000000012,-0.0026567999999999,0.0135276000000004,0.0090330000000009,-0.0188169999999999,0,sub_6
-0.0011340000000002,0.0110056000000012,-0.0023753999999999,0.0111108000000004,0.0058526000000009,-0.0132007999999999,0,sub_6
0.0006669999999997,0.0119100000000012,-0.0025187999999998,0.0054654000000004,0.0005368000000009,-0.0035451999999999,0,sub_6
0.0009349999999998,0.0114416000000012,-0.0029647999999998,-0.0031537999999995,-0.002422599999999,0.0054456,0,sub_6
-0.0004220000000001,0.0125258000000012,-0.0032159999999998,-0.0087703999999995,-0.004317799999999,0.012106,0,sub_6
-0.0027260000000001,0.0129734000000012,-0.0036223999999998,-0.0096467999999995,-0.006245199999999,0.0153072,0,sub_6
-0.0054324000000001,0.0140240000000012,-0.0032015999999998,-0.0079351999999995,-0.006459199999999,0.0140376,0,sub_6
-0.0071650000000001,0.0155702000000012,-0.0032615999999998,-0.0051373999999995,-0.004749999999999,0.010423,0,sub_6
-0.0073726000000002,0.0177354000000012,-0.0041535999999998,-0.0019359999999995,-0.003691199999999,0.0073056,0,sub_6
-0.0071546000000002,0.0179538000000012,-0.0045609999999998,-0.0002331999999995,-0.003692399999999,0.004179,0,sub_6
-0.0064570000000002,0.0175940000000012,-0.0033813999999998,0.0004096000000004,-0.002198599999999,0.0010432,0,sub_6
-0.0038582000000002,0.0158806000000012,-0.0026549999999998,0.0021116000000004,-0.001351999999999,-0.0010161999999999,0,sub_6
-0.0018014000000002,0.0133848000000012,-0.0024609999999999,0.0040174000000004,-0.001999999999999,-0.0024313999999999,0,sub_6
-0.0002512000000002,0.0115382000000012,-0.0019803999999999,0.0048650000000004,-0.003705799999999,-0.0028505999999999,0,sub_6
0.0005591999999997,0.0100788000000012,-0.0021521999999999,0.0046430000000004,-0.004561599999999,-0.0017827999999999,0,sub_6
0.0004451999999997,0.0099144000000012,-0.0036467999999998,0.0039874000000004,-0.005633999999999,0.000564,0,sub_6
-0.0008054000000002,0.0105318000000012,-0.0043589999999999,0.0017838000000004,-0.006079199999999,0.0029882,0,sub_6
-0.0021134000000002,0.0119366000000012,-0.0038881999999999,-0.0008513999999995,-0.007163799999999,0.0058376,0,sub_6
-0.0040862000000002,0.0129074000000012,-0.0036875999999999,-0.0019843999999995,-0.007397199999999,0.0076282,0,sub_6
-0.0038006000000002,0.0146816000000012,-0.0032041999999999,-0.0020485999999995,-0.007844799999999,0.0087854,0,sub_6
-0.0029800000000001,0.0157766000000012,-0.0026261999999999,-0.0016887999999995,-0.009145199999999,0.009733,0,sub_6
-0.0027574000000001,0.0154742000000012,-0.0021575999999998,-0.0010563999999995,-0.010215199999999,0.0103796,0,sub_6
-0.0033134000000001,0.0147464000000012,-0.0032877999999998,-0.0010497999999995,-0.009148399999999,0.009951,0,sub_6
-0.0029882000000001,0.0144298000000011,-0.0043095999999998,-0.0014697999999995,-0.007867799999999,0.0097326,0,sub_6
-0.0040784000000001,0.0137810000000012,-0.0053361999999998,-0.0012477999999995,-0.006799799999999,0.0088782,0,sub_6
-0.0053562000000002,0.0129832000000011,-0.0059983999999998,-0.0008521999999995,-0.004256199999999,0.0072418,0,sub_6
-0.0060104000000002,0.0127776000000011,-0.0065375999999999,-0.0008813999999995,-0.001497199999999,0.0053884,0,sub_6
-0.0053288000000002,0.0126562000000011,-0.0049201999999999,-0.0004885999999995,0.0008318000000009,0.0041794,0,sub_6
-0.0042222000000002,0.0124328000000012,-0.0041805999999999,0.0009644000000004,0.0016656000000009,0.0029798,0,sub_6
-0.0033804000000002,0.0124326000000012,-0.0034129999999998,0.0009238000000004,0.0027168000000009,0.0019832,0,sub_6
-0.0022060000000002,0.0129390000000012,-0.0031671999999998,0.0005056000000004,0.0039992000000009,0.0013376,0,sub_6
-0.0018040000000002,0.0141986000000012,-0.0031741999999998,-0.0001315999999995,0.0046406000000009,0.0013324,0,sub_6
-0.0021820000000001,0.0149300000000012,-0.0036417999999998,-0.0001699999999995,0.0046172000000009,0.00118,0,sub_6
-0.0026310000000001,0.0155008000000012,-0.0035277999999998,8.000000000425029e-06,0.0043836000000009,0.000175,0,sub_6
-0.0030680000000001,0.0158860000000012,-0.0032815999999999,0.0004002000000004,0.0045744000000009,-0.0006153999999999,0,sub_6
-0.0042192000000001,0.0154156000000012,-0.0031803999999999,0.0005714000000004,0.0034858000000009,-0.0009783999999999,0,sub_6
-0.0050990000000001,0.0143426000000012,-0.0036241999999999,0.0011578000000004,0.0013246000000009,0.0001582,0,sub_6
-0.0049142000000002,0.0134354000000012,-0.0049859999999999,0.0013646000000004,0.0006814000000009,0.0010152,0,sub_6
-0.0050936000000002,0.0126520000000012,-0.0059203999999999,-0.0001385999999995,0.0008902000000009,0.0033546,0,sub_6
-0.0052550000000001,0.0118974000000012,-0.0069229999999998,-0.0022807999999995,0.0006778000000009,0.005049,0,sub_6
-0.0052170000000001,0.0121760000000012,-0.0068993999999998,-0.0039933999999995,0.0013154000000009,0.006959,0,sub_6
-0.0047372000000001,0.0126312000000012,-0.0051861999999998,-0.0042135999999995,0.0038636000000009,0.0065542,0,sub_6
-0.0037034000000001,0.0137446000000011,-0.0037479999999998,-0.0033765999999995,0.0047018000000009,0.0065862,0,sub_6
-0.0030890000000001,0.0146574000000011,-0.0031563999999998,-0.0025397999999995,0.0046914000000009,0.0057646,0,sub_6
-0.0024180000000002,0.0155572000000011,-0.0027769999999999,-0.0006389999999995,0.0042502000000009,0.0051648,0,sub_6
-0.0014286000000002,0.0157682000000011,-0.0023193999999999,0.0006208000000004,0.0033860000000009,0.0043474,0,sub_6
-0.0006070000000002,0.0153664000000011,-0.0032129999999999,0.0006150000000004,0.0021076000000009,0.004349,0,sub_6
-0.0012910000000002,0.0141340000000012,-0.0040761999999999,-2.319999999959516e-05,0.0018994000000009,0.0037038,0,sub_6
-0.0026078000000002,0.0134070000000012,-0.0038883999999999,0.0003860000000004,0.0014780000000009,0.0032932,0,sub_6
-0.0029532000000002,0.0125476000000012,-0.0034757999999999,0.0010046000000004,0.0008402000000009,0.0035252,0,sub_6
-0.0030254000000002,0.0120048000000012,-0.0041389999999999,0.0018432000000004,0.0012686000000009,0.0033302,0,sub_6
-0.0029882000000002,0.0126426000000012,-0.0042973999999999,0.0016160000000004,0.0014894000000009,0.0027008,0,sub_6
-0.0031066000000002,0.0137092000000012,-0.0036223999999999,0.0007418000000004,0.0006456000000009,0.0024954,0,sub_6
-0.0024456000000002,0.0144014000000012,-0.0034139999999998,0.0001016000000004,0.0006478000000009,0.002491,0,sub_6
-0.0023522000000002,0.0146622000000012,-0.0036261999999998,-0.0003251999999995,0.0004372000000009,0.0022746,0,sub_6
-0.0025642000000002,0.0148220000000012,-0.0041839999999998,-0.0005393999999995,-0.000199399999999,0.0018466,0,sub_6
-0.0030582000000001,0.0144782000000012,-0.0047875999999998,-0.0001107999999995,-0.000198999999999,0.0014222,0,sub_6
-0.0038222000000001,0.0138836000000012,-0.0046921999999998,0.0009456000000004,-0.000184799999999,0.0014186,0,sub_6
-0.0036870000000001,0.0133220000000012,-0.0049245999999999,0.0009360000000004,4.620000000094783e-05,0.0014072,0,sub_6
-0.0034500000000001,0.0134548000000012,-0.0049061999999999,0.0004978000000004,0.0007014000000009,0.0022468,0,sub_6
-0.0030356000000001,0.0133654000000012,-0.0045605999999999,-0.0001567999999995,0.0007182000000009,0.0030856,0,sub_6
-0.0031376000000001,0.0128976000000012,-0.0042105999999999,-0.0003891999999995,9.260000000094782e-05,0.0043556,0,sub_6
-0.0028216000000002,0.0127468000000012,-0.0046859999999999,-0.0010331999999995,-0.000120799999999,0.0049922,0,sub_6
-0.0034380000000002,0.0123640000000012,-0.0045037999999999,-0.0018913999999995,-0.000758599999999,0.0054142,0,sub_6
-0.0036408000000002,0.0124242000000012,-0.0035353999999999,-0.0014703999999995,-0.001176199999999,0.004763,0,sub_6
-0.0044574000000002,0.0127104000000012,-0.0030477999999999,-0.0006167999999995,-0.000529199999999,0.0038998,0,sub_6
-0.0039726000000002,0.0132652000000012,-0.0038377999999998,-0.0001901999999995,-0.000305199999999,0.0026068,0,sub_6
-0.0037838000000002,0.0136536000000012,-0.0033257999999998,1.840000000042477e-05,-8.45999999990521e-05,0.0023806,0,sub_6
-0.0036786000000002,0.0141962000000012,-0.0026925999999998,0.0010814000000004,-7.83999999990521e-05,0.0017332,0,sub_6
-0.0032614000000002,0.0142456000000011,-0.0032691999999998,0.0012986000000004,0.0001364000000009,0.0010934,0,sub_6
-0.0027608000000002,0.0145708000000011,-0.0039369999999998,0.0006584000000004,-7.359999999905211e-05,0.0008756,0,sub_6
-0.0030638000000002,0.0147342000000011,-0.0036063999999998,1.6400000000444877e-05,-7.299999999907211e-05,0.0012984,0,sub_6
-0.0032576000000002,0.0145848000000011,-0.0038101999999998,0.0002248000000004,-0.000711999999999,0.0012834,0,sub_6
-0.0035880000000002,0.0143944000000012,-0.0040453999999998,-0.0002077999999995,-0.000925199999999,0.0019044,0,sub_6
-0.0037090000000002,0.0143044000000012,-0.0046907999999998,-0.0012775999999995,-0.000921399999999,0.0020934,0,sub_6
-0.0040368000000002,0.0140386000000012,-0.0045513999999998,-0.0021369999999995,-0.001132999999999,0.0027112,0,sub_6
-0.0042984000000002,0.0136280000000012,-0.0035543999999998,-0.0023561999999995,-0.001771399999999,0.0029068,0,sub_6
-0.0034636000000002,0.0130786000000012,-0.0033541999999999,-0.0025655999999995,-0.001554999999999,0.002264,0,sub_6
-0.0019746000000002,0.0134966000000012,-0.0040925999999999,-0.0023417999999995,-0.000697599999999,0.000769,0,sub_6
-0.0018894000000002,0.0139798000000012,-0.0039443999999998,-0.0025521999999995,-0.000481999999999,0.00034,0,sub_6
-0.0018224000000002,0.0139724000000012,-0.0039215999999998,-0.0025523999999995,-0.000485199999999,0.000104,0,sub_6
-0.0012510000000002,0.0140316000000012,-0.0041575999999998,-0.0019107999999995,0.0001478000000009,8.540000000005288e-05,0,sub_6
-0.0015468000000002,0.0142374000000012,-0.0037699999999998,-0.0010643999999995,-0.000288799999999,0.0009242,0,sub_6
-0.0019838000000002,0.0137460000000012,-0.0035015999999998,-0.0006483999999995,-0.001151599999999,0.0021876,0,sub_6
-0.0028438000000002,0.0134162000000012,-0.0032353999999998,0.0004132000000004,-0.001162799999999,0.0030272,0,sub_6
-0.0035278000000002,0.0137616000000012,-0.0030517999999999,0.0012676000000004,-0.000740599999999,0.0032464,0,sub_6
-0.0042820000000002,0.0141594000000012,-0.0037175999999999,0.0004152000000004,-0.000312399999999,0.0034536,0,sub_6
-0.0046142000000001,0.0144718000000012,-0.0043041999999999,-0.0010755999999995,0.0005442000000009,0.0036558,0,sub_6
-0.0053816000000001,0.0150210000000012,-0.0044537999999999,-0.0012889999999995,0.0011816000000009,0.0042946,0,sub_6
-0.0048430000000001,0.0147820000000011,-0.0041193999999998,-0.0017155999999995,0.0016046000000009,0.00427,0,sub_6
-0.0041934000000001,0.0141440000000011,-0.0038667999999998,-0.0019269999999995,0.0022410000000009,0.0040328,0,sub_6
-0.0035002000000001,0.0139774000000011,-0.0033657999999998,-0.0017097999999995,0.0024532000000009,0.0029446,0,sub_6
-0.0021172000000001,0.0139582000000011,-0.0042395999999998,-0.0012781999999995,0.0026654000000009,0.0016442,0,sub_6
-0.0012446000000001,0.0132334000000011,-0.0039717999999998,-0.0014877999999995,0.0024546000000009,0.0001262,0,sub_6
-0.0007980000000001,0.0134328000000012,-0.0032131999999998,-0.0014849999999995,0.0022450000000009,-0.0007281999999999,0,sub_6
-6.980000000020257e-05,0.0136362000000012,-0.0024477999999998,-0.0006325999999995,0.0011800000000009,-0.0015753999999999,0,sub_6
-0.0005230000000002,0.0139636000000012,-0.0021253999999999,0.0006510000000004,0.0011752000000009,-0.0022291999999999,0,sub_6
-0.0019588000000002,0.0146912000000012,-0.0012541999999998,0.0008648000000004,0.0007472000000009,-0.0026763999999999,0,sub_6
-0.0023472000000002,0.0160720000000012,-0.0013931999999998,0.0008664000000004,0.0009574000000009,-0.0026983999999999,0,sub_6
-0.0036082000000002,0.0162926000000012,-0.0028301999999998,0.0008660000000004,0.0009538000000009,-0.0025065999999999,0,sub_6
-0.0050834000000002,0.0159612000000012,-0.0043027999999998,-0.0002059999999995,0.0005252000000009,-0.0016807999999999,0,sub_6
-0.0058682000000002,0.0147964000000012,-0.0051941999999998,-0.0008557999999995,-0.000329999999999,-0.0004023999999999,0,sub_6
-0.0059510000000002,0.0135248000000012,-0.0060439999999998,-0.0010719999999995,-0.000119599999999,0.0004504,0,sub_6
-0.0059366000000002,0.0120224000000012,-0.0061641999999998,-0.0012883999999995,-0.000333599999999,0.0008764,0,sub_6
-0.0048926000000002,0.0116056000000012,-0.0060389999999998,-0.0015065999999995,-0.000761599999999,0.0015164,0,sub_6
-0.0032016000000002,0.0115046000000012,-0.0055391999999998,-0.0019367999999995,-0.000764599999999,0.00235,0,sub_6
-0.0015636000000002,0.0125872000000012,-0.0043731999999998,-0.0021573999999995,-0.001195999999999,0.003613,0,sub_6
-0.0007454000000002,0.0132034000000012,-0.0032083999999998,-0.0019521999999995,-0.002054199999999,0.004666,0,sub_6
-0.0005642000000002,0.0146112000000012,-0.0028063999999998,-0.0021689999999995,-0.002270199999999,0.0052878,0,sub_6
-0.0011116000000002,0.0158208000000012,-0.0022617999999998,-0.0017437999999995,-0.002486599999999,0.0054868,0,sub_6
-0.0021066000000002,0.0170658000000012,-0.0025001999999998,-0.0004607999999995,-0.002488399999999,0.004855,0,sub_6
-0.0030278000000002,0.0173084000000012,-0.0027389999999998,-0.0002407999999995,-0.002695399999999,0.0031476,0,sub_6
-0.0040582000000001,0.0172200000000011,-0.0030347999999998,0.0004110000000004,-0.002478199999999,0.0016412,0,sub_6
-0.0042698000000001,0.0157254000000011,-0.0035361999999998,0.0019144000000004,-0.002477799999999,0.0003548,0,sub_6
-0.0037718000000001,0.0137098000000011,-0.0041147999999999,0.0029900000000004,-0.002688999999999,-0.0009343999999999,0,sub_6
-0.0034188000000001,0.0119542000000011,-0.0036177999999999,0.0032124000000004,-0.002684999999999,-0.0020161999999998,0,sub_6
-0.0032540000000001,0.0111558000000012,-0.0043029999999999,0.0032194000000004,-0.002045399999999,-0.0020319999999999,0,sub_6
-0.0024174000000001,0.0114056000000012,-0.0043091999999999,0.0021486000000004,-0.001832799999999,-0.0009713999999999,0,sub_6
-0.0024338000000001,0.0122368000000012,-0.0041043999999999,0.0002226000000004,-0.001406799999999,0.0007238,0,sub_6
-0.0027468000000001,0.0132590000000012,-0.0039477999999999,-0.0010613999999995,-0.001405799999999,0.0015694,0,sub_6
-0.0032666000000002,0.0148476000000012,-0.0046715999999999,-0.0023427999999995,-0.001831399999999,0.0023994,0,sub_6
-0.0037666000000002,0.0164356000000012,-0.0043055999999999,-0.0029809999999995,-0.001619999999999,0.0032332,0,sub_6
-0.0047536000000001,0.0169384000000012,-0.0041453999999999,-0.0023331999999995,-0.000983599999999,0.0032208,0,sub_6
-0.0050316000000001,0.0167038000000012,-0.0038073999999999,-0.0014721999999995,-0.001196599999999,0.0023564,0,sub_6
-0.0046056000000001,0.0163284000000012,-0.0036103999999999,-0.0012521999999995,-0.000983799999999,0.002128,0,sub_6
-0.0033794000000002,0.0153342000000012,-0.0030449999999999,-0.0006101999999995,-0.000771999999999,0.0019186,0,sub_6
-0.0025862000000002,0.0138892000000012,-0.0032809999999999,-0.0001797999999995,-0.000557799999999,0.0012804,0,sub_6
-0.0017154000000002,0.0129184000000012,-0.0038033999999999,-0.0008199999999995,-0.000767599999999,0.0010624,0,sub_6
-0.0014676000000002,0.0124952000000012,-0.0044647999999999,-0.0006045999999995,-0.001198399999999,0.0012682,0,sub_6
-0.0015696000000002,0.0132802000000012,-0.0038687999999999,-0.0005987999999995,-0.000988399999999,0.0012582,0,sub_6
-0.0023486000000002,0.0143798000000012,-0.0037011999999999,-0.0008033999999995,7.360000000092778e-05,0.0014592,0,sub_6
-0.0024534000000002,0.0154520000000012,-0.0029063999999999,-0.0012289999999995,6.860000000092777e-05,0.002301,0,sub_6
-0.0026260000000002,0.0158562000000012,-0.0029707999999999,-0.0005809999999995,0.0002780000000009,0.0018682,0,sub_6
-0.0022192000000002,0.0161658000000012,-0.0030667999999999,-0.0007857999999995,0.0015596000000009,0.0012242,0,sub_6
-0.0020838000000002,0.0157374000000012,-0.0044103999999998,-0.0009961999999995,0.0019872000000009,0.0010084,0,sub_6
-0.0022204000000002,0.0150366000000012,-0.0044517999999998,-0.0007847999999995,0.0013482000000009,0.0007972,0,sub_6
-0.0022872000000002,0.0135876000000012,-0.0049935999999998,-0.0001363999999995,0.0011350000000009,-5.9199999999947154e-05,0,sub_6
-0.0021676000000002,0.0132246000000012,-0.0042879999999998,7.94000000004248e-05,0.0004938000000009,-6.339999999992715e-05,0,sub_6
-0.0023398000000002,0.0131064000000012,-0.0036223999999998,0.0002924000000004,-0.000361999999999,0.0003598,0,sub_6
-0.0034758000000002,0.0135376000000012,-0.0025303999999998,0.0002910000000004,-0.001217999999999,0.0009952,0,sub_6
-0.0040986000000002,0.0139164000000012,-0.0024337999999998,-0.0003437999999995,-0.000792599999999,0.0014108,0,sub_6
-0.0037908000000002,0.0147138000000012,-0.0028969999999998,-0.0014145999999995,-0.001004399999999,0.0020444,0,sub_6
-0.0033972000000002,0.0155542000000012,-0.0034229999999998,-0.0024853999999995,-0.001216199999999,0.002678,0,sub_6
-0.0031480000000002,0.0163270000000012,-0.0038095999999998,-0.0027005999999995,-0.001641599999999,0.002677,0,sub_6
-0.0025048000000002,0.0156848000000012,-0.0033185999999999,-0.0022689999999995,-0.001426599999999,0.0018252,0,sub_6
-0.0012998000000002,0.0151210000000012,-0.0032775999999999,-0.0011953999999995,-0.002062999999999,0.0007546,0,sub_6
-0.0010232000000002,0.0151730000000012,-0.0030961999999998,-0.0001217999999995,-0.002487199999999,-0.0001025999999999,0,sub_6
-0.0016610000000002,0.0141024000000012,-0.0027333999999998,0.0007364000000004,-0.002912399999999,-0.0005339999999999,0,sub_6
-0.0018042000000002,0.0133894000000012,-0.0021841999999998,0.0011668000000003,-0.003548999999999,-0.0009679999999999,0,sub_6
-0.0013728000000002,0.0130576000000012,-0.0035369999999998,0.0009552000000003,-0.003760599999999,-0.0005525999999999,0,sub_6
-0.0018778000000002,0.0128286000000012,-0.0043133999999998,0.0003132000000003,-0.003759999999999,-0.0001297999999999,0,sub_6
-0.0030678000000001,0.0124496000000012,-0.0040593999999999,0.0003122000000004,-0.004185199999999,-0.0003427999999999,0,sub_6
-0.0034298000000001,0.0133256000000012,-0.0043053999999999,0.0005276000000003,-0.004184199999999,-0.0007683999999999,0,sub_6
