userAcceleration.x,userAcceleration.y,userAcceleration.z,rotationRate.x,rotationRate.y,rotationRate.z,label,subject
3.639999999980833e-05,0.0014024000000012,-0.0019047999999999,-0.0024213999999995,0.0063204000000008,0.0023306000000001,0,sub_6
-0.0010696000000001,0.0031142000000012,-0.0020905999999999,-0.0002871999999995,0.0059240000000008,0.0014970000000001,0,sub_6
-0.0014118000000001,0.0033718000000012,-0.0018953999999999,0.0020826000000004,0.0083050000000008,-0.0014747999999998,0,sub_6
-0.0007762000000001,0.0038838000000012,-0.0016873999999999,0.0046724000000004,0.0119644000000008,-0.0046603999999998,0,sub_6
0.0001741999999998,0.0034896000000011,-0.0025665999999999,0.0078854000000004,0.0132374000000008,-0.0061351999999998,0,sub_6
-0.0009694000000001,0.0025320000000011,-0.0032545999999999,0.0089704000000004,0.0170694000000008,-0.0063461999999998,0,sub_6
-0.0022042000000001,0.0021194000000011,-0.0036119999999999,0.0079140000000004,0.0196290000000008,-0.0061431999999998,0,sub_6
-0.0029924000000001,0.0030878000000011,-0.0035217999999999,0.0077006000000004,0.0200540000000008,-0.0057177999999998,0,sub_6
-0.0034576000000001,0.0037592000000011,-0.0035571999999999,0.0081348000000004,0.0219998000000008,-0.0065639999999998,0,sub_6
-0.0031642000000001,0.0042848000000012,-0.0040311999999999,0.0087882000000004,0.0241622000000008,-0.0084771999999998,0,sub_6
-0.0004726000000001,0.0045296000000012,-0.0031159999999999,0.0096358000000004,0.0224872000000008,-0.0099569999999998,0,sub_6
0.0004483999999998,0.0035144000000012,-0.0012877999999999,0.0087812000000004,0.0214590000000008,-0.0118765999999998,0,sub_6
0.0019045999999998,0.0028558000000012,-0.0015057999999999,0.0072606000000004,0.0151052000000008,-0.0133669999999998,0,sub_6
0.0038195999999998,0.0013854000000012,-0.0022043999999999,0.0040034000000004,0.0027586000000008,-0.0131601999999999,0,sub_6
0.0069077999999998,-0.0009579999999987,-0.0017705999999999,0.0009760000000004,-0.0051179999999991,-0.0121029999999998,0,sub_6
0.0081057999999997,-0.0008497999999988,-0.0015247999999999,-0.0009533999999995,-0.0053201999999991,-0.0114641999999998,0,sub_6
0.0101661999999997,6.660000000119157e-05,-0.0020909999999999,0.0005102000000004,-0.0074629999999991,-0.0080217999999999,0,sub_6
0.0105913999999997,0.0002130000000011,-0.0017661999999999,0.0011222000000004,-0.0066301999999991,-0.0020253999999999,0,sub_6
0.0080053999999997,0.0010506000000011,-0.0015237999999998,0.0011132000000004,-0.0006853999999991,0.0048146,0,sub_6
0.0035013999999997,0.0034090000000011,-0.0019425999999998,-0.0010457999999995,0.0005838000000008,0.0105774,0,sub_6
-0.0006828000000001,0.0044778000000012,-0.0027587999999999,-0.0038713999999995,-0.0060307999999991,0.01548,0,sub_6
-0.0040616000000001,0.0049302000000012,-0.0030333999999998,-0.0068863999999995,-0.0100767999999991,0.0176004,0,sub_6
-0.0069334000000001,0.0048826000000012,-0.0041969999999998,-0.0068721999999995,-0.0092153999999991,0.0152492,0,sub_6
-0.0074336000000001,0.0041104000000011,-0.0041525999999999,-0.0057823999999995,-0.0096231999999991,0.0097026,0,sub_6
-0.0067614000000001,0.0037732000000011,-0.0030867999999999,-0.0027823999999995,-0.0096129999999991,0.0035436,0,sub_6
-0.0048828000000001,0.0035074000000011,-0.0023871999999999,0.0017132000000004,-0.0076965999999991,-0.0011117999999999,0,sub_6
-0.0028922000000001,0.0031352000000011,-0.0033635999999999,0.0053456000000004,-0.0055735999999991,-0.0034231999999999,0,sub_6
-0.0006922000000001,0.0025448000000011,-0.0026435999999999,0.0061852000000004,-0.0047309999999991,-0.0027613999999999,0,sub_6
0.0009069999999998,0.0018756000000012,-0.0015437999999999,0.0065960000000004,-0.0036763999999991,-0.0014621999999999,0,sub_6
0.0017615999999998,0.0020024000000012,-0.0008447999999999,0.0072322000000004,-0.0034697999999991,-0.0003897999999998,0,sub_6
0.0026787999999998,0.0016370000000012,-0.0017311999999999,0.0065902000000004,-0.0032569999999991,0.0002464000000001,0,sub_6
0.0033133999999998,0.0016726000000012,-0.0018007999999999,0.0055292000000004,-0.0019747999999991,0.0002372,0,sub_6
0.0037813999999998,0.0021750000000012,-0.0016661999999999,0.0040348000000004,0.0001536000000008,-0.0004011999999999,0,sub_6
0.0039025999999998,0.0031146000000012,-0.0019857999999999,0.0023118000000004,0.0001472000000008,0.0002434,0,sub_6
0.0038897999999998,0.0030598000000011,-0.0034275999999998,-0.0002743999999995,-7.699999999915102e-05,0.0028052,0,sub_6
0.0032813999999998,0.0026278000000011,-0.0034097999999998,-0.0030749999999995,-0.0005135999999991,0.0053658,0,sub_6
0.0026819999999998,0.0024152000000011,-0.0025063999999998,-0.0045877999999995,-0.0009479999999991,0.0062262,0,sub_6
0.0019017999999998,0.0025850000000011,-0.0020055999999999,-0.0039583999999995,-0.0032937999999991,0.0062336,0,sub_6
0.0002523999999998,0.0027438000000011,-0.0024381999999999,-0.0024667999999995,-0.0033007999999991,0.0066714,0,sub_6
-0.0013876000000001,0.0031116000000011,-0.0030643999999999,-0.0012045999999995,-0.0031307999999991,0.0058474,0,sub_6
-0.0019828000000001,0.0037586000000011,-0.0025851999999999,5.840000000045026e-05,-0.0033841999999991,0.004383,0,sub_6
-0.0019142000000001,0.0037200000000011,-0.0023769999999999,0.0015302000000004,-0.0044913999999991,0.0031348,0,sub_6
-0.0020416000000001,0.0038394000000011,-0.0037441999999999,0.0023666000000004,-0.0036823999999991,0.0027344,0,sub_6
-0.0008822000000001,0.0039822000000011,-0.0040743999999999,0.0019112000000004,-0.0052133999999991,0.0025416,0,sub_6
0.0007485999999998,0.0030944000000011,-0.0032111999999999,0.0014854000000004,-0.0054233999999991,0.0021116,0,sub_6
0.0007449999999998,0.0024826000000011,-0.0026693999999999,0.0014990000000004,-0.0032895999999991,0.0012544,0,sub_6
0.0003899999999998,0.0021586000000011,-0.0032269999999999,0.0010808000000004,-0.0015827999999991,0.0010358,0,sub_6
0.0004839999999998,0.0020852000000011,-0.0028631999999999,0.0001988000000004,-0.0020511999999991,0.0017048,0,sub_6
0.0008549999999998,0.0018514000000011,-0.0025075999999999,-0.0002401999999995,0.0002520000000008,0.0015188,0,sub_6
0.0002397999999998,0.0022632000000012,-0.0023279999999999,-0.0006783999999995,0.0027684000000008,0.0013326,0,sub_6
0.0008757999999998,0.0023730000000012,-0.0027299999999999,-0.0009175999999995,0.0027248000000008,0.001792,0,sub_6
0.0015415999999998,0.0028774000000012,-0.0023989999999999,-0.0013699999999995,0.0026818000000008,0.0022498,0,sub_6
0.0016373999999998,0.0026756000000012,-0.0017281999999999,-0.0013719999999995,0.0024680000000008,0.0024636,0,sub_6
0.0014633999999998,0.0024934000000012,-0.0019091999999999,-0.0011653999999995,0.0016126000000008,0.003107,0,sub_6
0.0018013999999998,0.0017780000000012,-0.0015653999999999,-0.0009643999999995,-0.0003089999999991,0.0039654,0,sub_6
0.0015089999999998,0.0017552000000012,-0.0011675999999999,-0.0001157999999995,-0.0013771999999991,0.0039726,0,sub_6
0.0011859999999997,0.0019318000000012,-0.0013983999999999,0.0003000000000004,-0.0016043999999991,0.0037686,0,sub_6
0.0007783999999997,0.0025920000000012,-0.0014661999999999,0.0002960000000004,-0.0009753999999991,0.0029196,0,sub_6
-2.800000000021197e-05,0.0026588000000012,-0.0011259999999999,0.0002890000000004,-0.0011977999999991,0.001858,0,sub_6
-0.0004628000000001,0.0029716000000011,-0.0015215999999999,0.0009240000000004,-0.0009963999999991,0.0008004,0,sub_6
-0.0006104000000001,0.0031742000000011,-0.0028231999999999,0.0007038000000004,-0.0003691999999991,0.0005908,0,sub_6
-2.260000000017196e-05,0.0034030000000011,-0.0034547999999999,0.0004906000000004,-0.0003683999999991,0.0005892,0,sub_6
0.0011625999999998,0.0028136000000011,-0.0036297999999999,-0.0001533999999995,-0.0005817999999991,0.001226,0,sub_6
0.0019529999999998,0.0025260000000011,-0.0029753999999999,-0.0001561999999995,-0.0003721999999991,0.0020802,0,sub_6
0.0019535999999998,0.0021198000000012,-0.0031423999999999,-0.0012387999999995,5.4600000000848414e-05,0.002503,0,sub_6
0.0016567999999998,0.0020448000000012,-0.0023561999999999,-0.0025329999999995,0.0002714000000008,0.0022836,0,sub_6
0.0012125999999998,0.0021470000000012,-0.0011701999999999,-0.0029707999999995,0.0007000000000008,0.0016426,0,sub_6
0.0002293999999998,0.0018748000000012,-0.0006153999999999,-0.0025501999999995,0.0013422000000008,0.0001528,0,sub_6
0.0006469999999998,0.0017508000000012,-0.0015071999999999,-0.0029831999999995,0.0021996000000008,-0.0011293999999999,0,sub_6
0.0012983999999998,0.0023982000000012,-0.0015775999999999,-0.0036223999999995,0.0022026000000008,-0.0013475999999999,0,sub_6
0.0017431999999998,0.0022726000000012,-0.0014481999999999,-0.0034051999999995,0.0030542000000008,-0.0013471999999998,0,sub_6
0.0017549999999998,0.0018344000000012,-0.0019723999999999,-0.0031907999999995,0.0034788000000008,-0.0011325999999998,0,sub_6
0.0017991999999998,0.0018394000000012,-0.0025699999999999,-0.0025681999999995,0.0021998000000008,-0.0002797999999998,0,sub_6
0.0011645999999998,0.0025172000000012,-0.0023981999999999,-0.0021531999999995,0.0017754000000008,0.0001432000000001,0,sub_6
0.0002441999999998,0.0030232000000012,-0.0017597999999999,-0.0008739999999995,0.0032674000000008,0.0001426000000001,0,sub_6
0.0006305999999998,0.0037654000000012,-0.0016725999999999,0.0001802000000004,0.0028400000000008,0.0007840000000001,0,sub_6
0.0014455999999998,0.0042288000000012,-0.0020217999999998,0.0005884000000004,0.0011364000000008,0.0014224,0,sub_6
0.0024321999999998,0.0043884000000012,-0.0016445999999998,0.0001588000000004,0.0007108000000008,0.0016336,0,sub_6
0.0023033999999998,0.0035948000000012,-0.0017475999999998,0.0001532000000004,-0.0003551999999991,0.0018486,0,sub_6
0.0027243999999998,0.0028282000000012,-0.0023433999999998,0.0001474000000004,-0.0018457999999991,0.0016368,0,sub_6
0.0020497999999998,0.0027920000000012,-0.0019403999999999,-0.0007087999999995,-0.0018303999999991,0.000766,0,sub_6
0.0006191999999998,0.0018888000000012,-0.0016699999999999,-0.0009191999999995,-0.0011753999999991,-0.0007419999999999,0,sub_6
-0.0006296000000001,0.0022286000000011,-0.0021619999999999,-0.0006961999999995,0.0005452000000008,-0.0026755999999998,0,sub_6
-0.0005150000000001,0.0027814000000011,-0.0022961999999999,0.0005840000000004,0.0007680000000008,-0.0039589999999998,0,sub_6
-0.0006034000000001,0.0029820000000011,-0.0024793999999999,0.0018518000000004,-0.0009299999999991,-0.0043853999999999,0,sub_6
-0.0001272000000001,0.0030574000000011,-0.0025147999999999,0.0037596000000004,-0.0037063999999991,-0.0043685999999999,0,sub_6
0.0010911999999997,0.0034976000000011,-0.0021137999999999,0.0058732000000004,-0.0073391999999991,-0.0034945999999998,0,sub_6
0.0019917999999997,0.0026268000000012,-0.0022625999999999,0.0071314000000004,-0.0109707999999991,-0.0021991999999998,0,sub_6
0.0023103999999997,0.0016428000000012,-0.0024893999999999,0.0066894000000004,-0.0126731999999991,-0.0011447999999998,0,sub_6
0.0032035999999997,0.0010960000000012,-0.0010087999999999,0.0056140000000004,-0.0130941999999991,-0.0003099999999998,0,sub_6
0.0033811999999997,0.0001752000000012,-0.0010645999999999,0.0036880000000004,-0.0130851999999991,0.0003046000000001,0,sub_6
0.0029061999999998,5.000000001211544e-06,-0.0009467999999999,-0.0001555999999995,-0.0120057999999991,0.0013318000000001,0,sub_6
0.0032831999999998,7.640000000121154e-05,-0.0017759999999999,-0.0044221999999995,-0.0092239999999991,0.0032084,0,sub_6
0.0036649999999998,-4.9199999998788495e-05,-0.0023561999999999,-0.0059091999999995,-0.0051809999999991,0.0057566,0,sub_6
0.0035781999999997,-6.319999999878849e-05,-0.0041891999999999,-0.0035323999999995,0.0026886000000008,0.007045,0,sub_6
0.0010325999999997,0.0007446000000012,-0.0035863999999999,-0.0035037999999995,0.0088734000000008,0.0065978000000001,0,sub_6
-0.0025878000000002,0.0026726000000012,-0.0033469999999999,-0.0015931999999995,0.0035584000000008,0.0031874000000001,0,sub_6
-0.0050680000000002,0.0047072000000012,-0.0028315999999999,0.0050030000000004,-0.0064489999999991,-0.0029615999999998,0,sub_6
-0.0055520000000002,0.0059142000000012,-0.0034803999999999,0.0120786000000004,-0.0070741999999991,-0.0114691999999998,0,sub_6
-0.0060360000000001,0.0063472000000012,-0.0030059999999999,0.0149020000000004,-0.0040633999999991,-0.0197975999999998,0,sub_6
-0.0020536000000001,0.0050020000000012,-0.0024581999999999,0.0183370000000004,-0.0034199999999991,-0.0238335999999999,0,sub_6
0.0035447999999998,0.0022870000000012,-0.0017317999999999,0.0196374000000004,0.0027472000000008,-0.0221231999999998,0,sub_6
0.0074001999999998,0.0005220000000012,-0.0013679999999999,0.0158072000000004,0.0099848000000008,-0.0172453999999998,0,sub_6
0.0091057999999998,-2.719999999878846e-05,-0.0009817999999999,0.0078742000000004,0.0082806000000008,-0.0104619999999998,0,sub_6
0.0099469999999998,0.0002230000000012,-0.0001193999999999,0.0007670000000004,0.0008134000000008,-0.0021775999999998,0,sub_6
0.0084897999999998,0.0006378000000012,-0.0013021999999999,-0.0026887999999995,-0.0026133999999991,0.0048452000000001,0,sub_6
0.0040411999999998,0.0009374000000012,-0.0024357999999999,-0.0048221999999995,-0.0011263999999991,0.0073844,0,sub_6
0.0002391999999998,0.0017972000000012,-0.0034719999999999,-0.0067345999999995,0.0001544000000008,0.0080026,0,sub_6
-0.0023694000000001,0.0026512000000012,-0.0023403999999999,-0.0052311999999995,0.0001518000000008,0.0069372,0,sub_6
-0.0026710000000001,0.0028172000000012,-0.0033589999999999,-0.0026619999999995,0.0001506000000008,0.0050322,0,sub_6
-0.0024350000000001,0.0028790000000012,-0.0025447999999999,-0.0015817999999995,-0.0004777999999991,0.0014086000000001,0,sub_6
-0.0009450000000001,0.0039774000000011,-0.0024121999999999,0.0001402000000004,-0.0013259999999991,-0.0017889999999998,0,sub_6
-9.000000000017197e-05,0.0039250000000011,-0.0016225999999999,0.0035654000000004,-0.0021835999999991,-0.0041201999999998,0,sub_6
0.0006091999999998,0.0031842000000011,-0.0026845999999999,0.0048502000000004,-0.0024029999999991,-0.0043307999999998,0,sub_6
0.0010779999999998,0.0029324000000011,-0.0025035999999999,0.0044278000000004,-0.0013433999999991,-0.0032729999999999,0,sub_6
0.0020509999999998,0.0037058000000011,-0.0032203999999999,0.0037854000000004,-0.0002887999999991,-0.0007211999999999,0,sub_6
0.0038761999999998,0.0028570000000011,-0.0029085999999999,0.0022802000000004,0.0009794000000008,0.0031122,0,sub_6
0.0045673999999998,0.0024250000000011,-0.0021089999999999,0.0001416000000004,0.0031046000000008,0.0062992,0,sub_6
0.0050265999999998,0.0025472000000011,-0.0008863999999999,-0.0017921999999995,0.0014018000000008,0.0075696,0,sub_6
0.0046635999999998,0.0017446000000011,-0.0005109999999999,-0.0026583999999995,-0.0005021999999991,0.0075672,0,sub_6
0.0038661999999998,0.0012358000000012,-0.0008319999999999,-0.0033073999999994,-0.0019791999999991,0.0071384,0,sub_6
0.0032515999999998,0.0011928000000011,-0.0013457999999999,-0.0039563999999994,-0.0030317999999991,0.0071364,0,sub_6
0.0036007999999998,0.0007690000000011,-0.0020889999999999,-0.0037459999999994,-0.0032333999999991,0.0067122,0,sub_6
0.0024639999999998,0.0011386000000012,-0.0024085999999999,-0.0035281999999994,-0.0010939999999991,0.006926,0,sub_6
0.0006699999999998,0.0019440000000011,-0.0024993999999999,-0.0043815999999995,-0.0015153999999991,0.0064934,0,sub_6
-0.0005274000000001,0.0022870000000011,-0.0023179999999999,-0.0050177999999995,-0.0019341999999991,0.0052078,0,sub_6
-0.0017710000000001,0.0028258000000012,-0.0022771999999999,-0.0041545999999995,-0.0034139999999991,0.0015838,0,sub_6
-0.0027838000000001,0.0031310000000012,-0.0018021999999999,-0.0039315999999995,-0.0048915999999991,-0.0020447999999999,0,sub_6
-0.0029164000000001,0.0031742000000012,-0.0019281999999999,-0.0030693999999995,-0.0055023999999991,-0.0052443999999999,0,sub_6
-0.0017698000000001,0.0032072000000012,-0.0022665999999999,-0.0015699999999995,-0.0046325999999991,-0.0063049999999999,0,sub_6
-0.0005710000000001,0.0026326000000012,-0.0025987999999999,-0.0004993999999995,-0.0027017999999991,-0.0058743999999999,0,sub_6
0.0010865999999998,0.0021538000000012,-0.0020825999999999,-0.0007109999999995,8.040000000082634e-05,-0.0041719999999999,0,sub_6
0.0024173999999998,0.0019142000000012,-0.0022699999999999,-0.0007235999999995,0.0011516000000008,-0.0009703999999999,0,sub_6
0.0040829999999998,0.0017660000000012,-0.0018099999999999,-0.0018029999999995,0.0017808000000008,0.0024396,0,sub_6
0.0045355999999997,0.0015350000000012,-0.0014179999999999,-0.0026651999999995,0.0015640000000008,0.004143,0,sub_6
0.0046923999999997,0.0019686000000012,-0.0010589999999999,-0.0035167999999995,0.0013564000000008,0.0034964,0,sub_6
0.0037807999999997,0.0017684000000012,-0.0014425999999999,-0.0028983999999995,0.0005150000000008,0.0024556,0,sub_6
0.0039713999999997,0.0014340000000012,-0.0019227999999999,-0.0024895999999995,-0.0003223999999991,0.0005586,0,sub_6
0.0032823999999997,0.0011954000000012,-0.0017203999999999,-0.0020777999999995,-0.0011569999999991,-0.0019793999999999,0,sub_6
0.0031857999999997,0.0015030000000011,-0.0020031999999999,-0.0016727999999995,-0.0017855999999991,-0.0028083999999999,0,sub_6
0.0025045999999997,0.0018286000000011,-0.0023653999999999,-0.0012743999999995,-0.0017833999999991,-0.0015019999999999,0,sub_6
0.0026909999999997,0.0025588000000011,-0.0025325999999999,-0.0021307999999995,-0.0013585999999991,-0.0004403999999999,0,sub_6
0.0022385999999997,0.0034608000000011,-0.0017099999999999,-0.0032033999999995,-0.0005111999999991,0.0016874,0,sub_6
0.0026485999999997,0.0032130000000011,-0.0024209999999999,-0.0036563999999995,-0.0003015999999991,0.0048998,0,sub_6
0.0029579999999997,0.0019812000000012,-0.0025647999999999,-0.0051695999999995,0.0001300000000008,0.0068224,0,sub_6
0.0026151999999997,0.0011920000000012,-0.0017283999999999,-0.0062559999999995,-0.0009253999999991,0.0072546,0,sub_6
0.0025585999999997,0.0013278000000012,-0.0022957999999999,-0.0067089999999995,-0.0026255999999991,0.0085466,0,sub_6
0.0013633999999997,0.0013770000000012,-0.0031695999999999,-0.0071591999999995,-0.0043231999999991,0.0091976,0,sub_6
0.0008865999999998,0.0020122000000011,-0.0025873999999999,-0.0073783999999995,-0.0058129999999991,0.0089844,0,sub_6
0.0002123999999998,0.0023744000000011,-0.0018723999999998,-0.0060961999999995,-0.0058155999999991,0.0085662,0,sub_6
0.0004435999999998,0.0021962000000011,-0.0022705999999998,-0.0048121999999994,-0.0047555999999991,0.0087874,0,sub_6
0.0002799999999997,0.0013640000000011,-0.0013535999999999,-0.0037375999999994,-0.0026303999999991,0.0092194,0,sub_6
0.0012525999999997,0.0011566000000011,-0.0003431999999999,-0.0026687999999994,0.0001392000000008,0.0096496,0,sub_6
0.0003883999999997,0.0009796000000011,-0.0016679999999998,-0.0028849999999994,0.0018480000000008,0.010072,0,sub_6
-0.0002236000000002,0.0022456000000011,-0.0027119999999999,-0.0041805999999994,-0.0004825999999991,0.0092102,0,sub_6
-0.0003224000000002,0.0023924000000011,-0.0027799999999999,-0.0044103999999995,-0.0040907999999991,0.0072894,0,sub_6
0.0003847999999997,0.0019734000000011,-0.0035453999999999,-0.0033397999999995,-0.0034415999999991,0.0051586,0,sub_6
0.0013361999999997,0.0013520000000011,-0.0046073999999999,-0.0020355999999995,0.0003948000000008,0.0036672,0,sub_6
0.0028121999999997,0.0012200000000012,-0.0035947999999999,-0.0011611999999995,0.0035936000000008,0.0021738,0,sub_6
0.0048069999999997,0.0007778000000012,-0.0023063999999999,-0.0003047999999995,0.0052908000000008,0.003246,0,sub_6
0.0064837999999997,0.0007786000000012,-0.0023229999999999,-0.0005151999999995,0.0091216000000008,0.0068662,0,sub_6
0.0064393999999997,0.0013140000000012,-0.0018713999999999,-0.0024451999999995,0.0091276000000008,0.009411,0,sub_6
0.0041479999999997,0.0019482000000012,-0.0010609999999999,-0.0054659999999995,0.0012648000000008,0.0093946,0,sub_6
0.0025051999999997,0.0019990000000012,-0.0004527999999999,-0.0078541999999995,-0.0091535999999991,0.0085312000000001,0,sub_6
0.0004751999999997,0.0023818000000012,-0.0007681999999999,-0.0078629999999995,-0.0140339999999991,0.0059682000000001,0,sub_6
-0.0015958000000002,0.0025612000000011,-0.0022451999999999,-0.0063579999999995,-0.0153021999999991,0.0021346000000001,0,sub_6
-0.0020260000000001,0.0024314000000011,-0.0026129999999999,-0.0054899999999995,-0.0127457999999991,0.0014964000000001,0,sub_6
-0.0013330000000001,0.0022122000000011,-0.0017083999999999,-0.0044039999999995,-0.0070029999999991,0.0029922000000001,0,sub_6
-0.0013382000000001,0.0019736000000011,-0.0014649999999999,-0.0041729999999995,-0.0033793999999991,0.004054,0,sub_6
-0.0010354000000001,0.0013872000000011,-0.0017333999999999,-0.0041733999999995,-0.0035907999999991,0.0053328,0,sub_6
-0.0002528000000002,0.0017580000000012,-0.0005157999999999,-0.0037297999999995,-0.0025151999999991,0.0040494,0,sub_6
0.0001361999999997,0.0019528000000012,-0.0002699999999999,-0.0011517999999995,-0.0042047999999991,-0.0002065999999999,0,sub_6
0.0014043999999997,0.0020130000000012,-0.0012481999999999,0.0012150000000004,-0.0054675999999991,-0.0044647999999999,0,sub_6
0.0034027999999997,0.0016822000000012,-0.0018649999999999,0.0042252000000004,-0.0016379999999991,-0.0057303999999999,0,sub_6
0.0047135999999997,0.0011676000000012,-0.0015415999999999,0.0042540000000004,0.0045414000000008,-0.0059517999999999,0,sub_6
0.0050367999999997,0.0008058000000012,-0.0011491999999999,0.0020962000000004,0.0026178000000008,-0.0025461999999999,0,sub_6
0.0041957999999997,0.0003432000000012,-0.0006717999999999,-0.0015675999999995,-0.0012215999999991,0.001706,0,sub_6
0.0030513999999997,0.0001490000000012,-0.0003253999999999,-0.0045623999999995,-0.0029199999999991,0.0042444,0,sub_6
0.0012059999999997,0.0014442000000012,-0.0009131999999999,-0.0053993999999995,-0.0016335999999991,0.0044438,0,sub_6
-8.120000000021204e-05,0.0020696000000012,-0.0014049999999999,-0.0049553999999995,-0.0011995999999991,0.0035852,0,sub_6
2.839999999980809e-05,0.0017072000000012,-0.0011091999999999,-0.0038623999999995,-0.0007603999999991,0.0008084,0,sub_6
0.0012953999999998,0.0023022000000011,-0.0013057999999999,-0.0019129999999995,0.0001028000000008,-0.0021767999999998,0,sub_6
0.0023945999999998,0.0020964000000011,-0.0026331999999999,0.0002312000000004,0.0015902000000008,-0.0030181999999998,0,sub_6
0.0036467999999998,0.0010638000000011,-0.0028487999999999,0.0002388000000004,0.0037190000000008,-0.0025935999999998,0,sub_6
0.0041355999999998,0.0008598000000011,-0.0017575999999999,-0.0001733999999995,0.0041514000000008,-0.0011253999999998,0,sub_6
0.0028775999999998,0.0012944000000011,-0.0018521999999999,-0.0014381999999995,0.0048000000000008,0.0003366000000001,0,sub_6
0.0020657999999998,0.0022730000000012,-0.0020525999999999,-0.0029239999999995,0.0039570000000008,0.0020128,0,sub_6
0.0013965999999998,0.0027862000000012,-0.0006685999999999,-0.0031265999999995,0.0031120000000008,0.0030568,0,sub_6
0.0006439999999998,0.0026580000000012,9.640000000009796e-05,-0.0028967999999995,0.0024828000000008,0.0030354,0,sub_6
3.7999999999808064e-05,0.0026716000000012,-0.0004221999999999,-0.0022489999999995,0.0029118000000008,0.0017574,0,sub_6
0.0006983999999998,0.0026642000000012,-0.0004249999999999,-0.0009697999999995,0.0020576000000008,0.0011264,0,sub_6
0.0007407999999998,0.0012942000000012,-0.0002957999999999,0.0003434000000004,0.0037674000000008,-0.0003917999999999,0,sub_6
0.0014783999999998,0.0011250000000012,-0.0007829999999999,0.0005936000000004,0.0059086000000008,-0.0023451999999999,0,sub_6
0.0028163999999998,0.0018838000000012,-0.0010081999999999,0.0006162000000004,0.0059158000000008,-0.0032291999999999,0,sub_6
0.0032175999999998,0.0014424000000012,-0.0010729999999999,0.0006292000000004,0.0048534000000008,-0.0030435999999999,0,sub_6
0.0029487999999998,0.0011070000000012,-0.0022617999999999,0.0002278000000004,0.0061378000000008,-0.0032911999999998,0,sub_6
0.0027535999999998,0.0017954000000012,-0.0025509999999998,-0.0004113999999995,0.0065652000000008,-0.0030825999999998,0,sub_6
0.0017857999999998,0.0019202000000012,-0.0023355999999998,-0.0006351999999995,0.0046468000000008,-0.0026543999999998,0,sub_6
0.0009897999999998,0.0014956000000012,-0.0022367999999998,0.0002058000000004,0.0022986000000008,-0.0022181999999998,0,sub_6
0.0010723999999998,0.0023240000000012,-0.0027169999999998,0.0008430000000004,0.0012328000000008,-0.0026397999999998,0,sub_6
