userAcceleration.x,userAcceleration.y,userAcceleration.z,rotationRate.x,rotationRate.y,rotationRate.z,label,subject
-0.0038282000000001,-0.0059039999999987,-0.0034525999999999,0.0068356000000003,-0.000168799999999,-0.0006277999999998,0,sub_14
-0.0035574000000001,-0.0055761999999987,-0.0043591999999999,0.0064070000000003,0.0002554000000008,0.0002232000000001,0,sub_14
-0.0033712000000001,-0.0047913999999986,-0.0045075999999999,0.0046990000000003,0.0004728000000008,0.0006382000000001,0,sub_14
-0.0027898000000001,-0.0045011999999986,-0.0048633999999998,0.0021434000000003,0.0011226000000008,0.0001922000000001,0,sub_14
-0.0025042000000001,-0.0048437999999987,-0.0053691999999999,-0.0002141999999996,0.0009162000000008,-0.0002295999999998,0,sub_14
-0.0028602000000001,-0.0052371999999987,-0.0045643999999999,-0.0010759999999996,0.0009182000000008,-0.0008549999999998,0,sub_14
-0.0030088000000001,-0.0051731999999987,-0.0035851999999998,-0.0008633999999996,0.0009234000000008,-0.0031819999999998,0,sub_14
-0.0029514000000001,-0.0067879999999987,-0.0036015999999998,0.0002018000000003,0.0007126000000008,-0.0055025999999998,0,sub_14
-0.0036570000000001,-0.0075273999999987,-0.0032805999999998,0.0010526000000003,0.0009260000000008,-0.0071841999999998,0,sub_14
-0.0040540000000001,-0.0077141999999987,-0.0019867999999998,0.0016976000000003,0.0011402000000008,-0.0080345999999998,0,sub_14
-0.0039906000000001,-0.0083499999999987,-0.0027715999999998,0.0006354000000003,0.0017848000000008,-0.0084699999999998,0,sub_14
-0.0037286000000001,-0.0091887999999987,-0.0038613999999999,0.0001920000000003,0.0026350000000008,-0.0076037999999998,0,sub_14
-0.0039820000000001,-0.0084783999999987,-0.0035465999999999,0.0001714000000003,0.0034802000000008,-0.0058801999999998,0,sub_14
-0.0037874000000001,-0.0078003999999987,-0.0039617999999999,0.0007880000000003,0.0032596000000008,-0.0045781999999998,0,sub_14
-0.0035966000000001,-0.0071081999999987,-0.0052891999999999,0.0009836000000003,0.0034700000000008,-0.0041341999999998,0,sub_14
-0.0032130000000001,-0.0057317999999987,-0.0055397999999999,0.0011822000000003,0.0030464000000008,-0.0049711999999998,0,sub_14
-0.0032948000000001,-0.0046667999999987,-0.0048515999999999,-0.0003075999999996,0.0019940000000008,-0.0069031999999998,0,sub_14
-0.0030806000000001,-0.0039499999999987,-0.0045055999999999,-0.0026461999999996,0.0013732000000008,-0.0094825999999998,0,sub_14
-0.0030878000000001,-0.0042721999999987,-0.0045861999999999,-0.0056227999999996,0.0016052000000008,-0.0116399999999998,0,sub_14
-0.0032184000000001,-0.0054719999999987,-0.0040203999999999,-0.0073257999999996,0.0009780000000008,-0.0131465999999998,0,sub_14
-0.0034632000000001,-0.0071649999999987,-0.0035305999999999,-0.0077721999999996,0.0005588000000009,-0.0129195999999998,0,sub_14
-0.0038446000000001,-0.0088895999999987,-0.0034859999999999,-0.0069431999999996,0.0005552000000009,-0.0111885999999998,0,sub_14
-0.0045760000000001,-0.0104001999999987,-0.0035151999999999,-0.0050549999999996,-0.000307599999999,-0.0085943999999998,0,sub_14
-0.0050552000000001,-0.0103735999999987,-0.0033293999999999,-0.0027449999999996,-0.001812799999999,-0.0055693999999998,0,sub_14
-0.0053500000000001,-0.0094789999999986,-0.0030617999999998,-0.0012817999999996,-0.002460399999999,-0.0031921999999998,0,sub_14
-0.0051038000000001,-0.0083649999999986,-0.0033063999999998,-0.0010751999999996,-0.002891599999999,-0.0021219999999998,0,sub_14
-0.0046336000000001,-0.0075127999999986,-0.0034557999999998,-0.0023621999999996,-0.003741799999999,-0.0014887999999998,0,sub_14
-0.0039292000000001,-0.0072497999999987,-0.0034337999999999,-0.0038761999999996,-0.004367599999999,-0.0012707999999998,0,sub_14
-0.0036446000000001,-0.0075067999999987,-0.0035221999999999,-0.0051739999999996,-0.004567199999999,-0.0012653999999998,0,sub_14
-0.0034916000000001,-0.0080991999999987,-0.0030861999999999,-0.0056201999999996,-0.004983599999999,-0.0010399999999998,0,sub_14
-0.0034050000000001,-0.0086705999999987,-0.0031797999999999,-0.0049995999999996,-0.005191599999999,-0.0005937999999998,0,sub_14
-0.0036780000000001,-0.0089265999999987,-0.0029869999999999,-0.0035235999999996,-0.004976599999999,-0.0001423999999998,0,sub_14
-0.0033748000000001,-0.0084957999999987,-0.0029537999999999,-0.0024565999999996,-0.004555999999999,0.0002918000000001,0,sub_14
-0.0028622000000001,-0.0085613999999987,-0.0029801999999999,-0.0016019999999996,-0.004345799999999,0.0002976000000001,0,sub_14
-0.0023010000000001,-0.0083889999999987,-0.0038595999999999,-0.0018123999999996,-0.0039181999999991,8.180000000015543e-05,0,sub_14
-0.0023806000000001,-0.0082345999999987,-0.0032329999999999,-0.0026829999999996,-0.0039073999999991,-0.0003403999999998,0,sub_14
-0.0023442000000001,-0.0080083999999987,-0.0031209999999998,-0.0031297999999996,-0.0041127999999991,-0.0003319999999998,0,sub_14
-0.0027602000000001,-0.0079777999999986,-0.0034103999999998,-0.0031519999999996,-0.0041093999999991,0.0003200000000001,0,sub_14
-0.0031974000000001,-0.0074173999999986,-0.0031123999999998,-0.0029625999999996,-0.0041083999999991,0.0014006000000001,0,sub_14
-0.0035422000000001,-0.0070467999999986,-0.0031177999999998,-0.0027731999999996,-0.004107399999999,0.0024814000000001,0,sub_14
-0.0038018000000001,-0.0069591999999986,-0.0036079999999998,-0.0029923999999996,-0.004111799999999,0.0037618000000001,0,sub_14
-0.0040184000000001,-0.0074275999999986,-0.0036373999999999,-0.0027837999999996,-0.004328999999999,0.0046182000000001,0,sub_14
-0.0045268000000001,-0.0078883999999987,-0.0038123999999999,-0.0025703999999996,-0.004329799999999,0.0046198000000001,0,sub_14
-0.0048324000000001,-0.0084401999999987,-0.0038337999999999,-0.0017177999999996,-0.004545799999999,0.0046262000000001,0,sub_14
-0.0047132000000001,-0.0085327999999987,-0.0034803999999999,-0.0004501999999996,-0.0047619999999991,0.0042280000000001,0,sub_14
-0.0044104000000001,-0.0083625999999987,-0.0029981999999999,0.0014584000000003,-0.0049797999999991,0.0036206000000001,0,sub_14
-0.0033954000000001,-0.0069797999999987,-0.0024629999999999,0.0027336000000003,-0.0043405999999991,0.0023668000000001,0,sub_14
-0.0028412000000001,-0.0067131999999987,-0.0018515999999999,0.0044346000000003,-0.0039157999999991,0.0011162000000001,0,sub_14
-0.0026974000000001,-0.0056933999999987,-0.0011271999999999,0.0059184000000003,-0.0039181999999991,0.0002920000000001,0,sub_14
-0.0027804000000001,-0.0054091999999987,-0.0020183999999999,0.0074138000000003,-0.003921799999999,-0.0001247999999998,0,sub_14
-0.0022304000000001,-0.0058001999999987,-0.0027633999999999,0.0076282000000003,-0.003497199999999,8.980000000015538e-05,0,sub_14
-0.0024232000000001,-0.0069239999999987,-0.0030223999999999,0.0067728000000003,-0.002859399999999,0.0011512000000001,0,sub_14
-0.0022900000000001,-0.0069809999999987,-0.0029893999999999,0.0052760000000003,-0.002221999999999,0.0020262000000001,0,sub_14
-0.0020130000000001,-0.0078803999999987,-0.0037951999999999,0.0035742000000003,-0.000939799999999,0.0016170000000001,0,sub_14
-0.0017358000000001,-0.0085107999999987,-0.0035215999999999,0.0023022000000003,0.0007680000000008,0.0009968000000001,0,sub_14
-0.0022948000000001,-0.0085417999999987,-0.0033853999999999,0.0014550000000003,0.0014116000000008,-0.0002599999999998,0,sub_14
-0.0025960000000001,-0.0082979999999987,-0.0036455999999999,0.0018832000000003,0.0009856000000009,-0.0015065999999998,0,sub_14
-0.0030610000000001,-0.0080623999999986,-0.0043371999999999,0.0023100000000003,0.0003474000000009,-0.0021437999999998,0,sub_14
-0.0033170000000001,-0.0080811999999986,-0.0043103999999999,0.0029464000000003,-0.000506999999999,-0.0021381999999998,0,sub_14
-0.0034152000000001,-0.0078171999999986,-0.0042863999999998,0.0025228000000003,-0.001354199999999,-0.0021107999999998,0,sub_14
-0.0035156000000001,-0.0079577999999987,-0.0040289999999998,0.0023116000000003,-0.001778599999999,-0.0014413999999998,0,sub_14
-0.0035460000000001,-0.0085921999999987,-0.0039599999999999,0.0018870000000003,-0.0019899999999991,-0.0005601999999998,0,sub_14
-0.0032526000000001,-0.0087345999999987,-0.0033479999999999,0.0016786000000003,-0.0017751999999991,0.0001084000000001,0,sub_14
-0.0029084000000001,-0.0087799999999987,-0.0035113999999999,0.0008330000000003,-0.0013433999999991,0.0003450000000001,0,sub_14
-0.0029962000000001,-0.0089221999999987,-0.0031975999999999,0.0006186000000003,-0.0013433999999991,0.0005572000000001,0,sub_14
-0.0028024000000001,-0.0088397999999987,-0.0029853999999999,0.0014750000000003,-0.0011315999999991,0.0001356000000001,0,sub_14
-0.0028966000000001,-0.0086397999999987,-0.0026505999999999,0.0023334000000003,-0.0009181999999991,-0.0007131999999998,0,sub_14
-0.0028686000000001,-0.0089529999999987,-0.0026721999999999,0.0031926000000003,-0.0007037999999991,-0.0017755999999998,0,sub_14
-0.0025718000000001,-0.0091753999999987,-0.0025653999999999,0.0040596000000003,-0.0006931999999991,-0.0021773999999998,0,sub_14
-0.0029286000000001,-0.0091105999999987,-0.0020009999999999,0.0047114000000003,-0.0006837999999991,-0.0021533999999998,0,sub_14
-0.0030630000000001,-0.0091373999999986,-0.0013489999999999,0.0045066000000003,-0.0004615999999991,-0.0012809999999998,0,sub_14
-0.0031540000000001,-0.0087327999999986,-0.0016235999999999,0.0040884000000003,-0.0004507999999991,-0.0006233999999998,0,sub_14
-0.0033998000000001,-0.0082645999999987,-0.0016045999999999,0.0032426000000003,-0.0006515999999991,3.140000000017543e-05,0,sub_14
-0.0039192000000001,-0.0081571999999987,-0.0017697999999999,0.0028138000000003,-0.0006517999999991,0.0004558000000001,0,sub_14
-0.0035558000000001,-0.0083761999999986,-0.0021629999999999,0.0017460000000003,-0.000648799999999,0.0006620000000001,0,sub_14
-0.0036108000000001,-0.0085267999999986,-0.0030317999999999,0.0011186000000003,-0.000840599999999,0.0002362000000001,0,sub_14
-0.0037188000000001,-0.0089409999999986,-0.0031881999999999,0.0009142000000003,-0.001249399999999,0.0004544000000001,0,sub_14
-0.0036952000000001,-0.0091791999999986,-0.0036707999999999,0.0013500000000003,-0.001660599999999,0.0006772000000001,0,sub_14
-0.0036422000000001,-0.0091625999999986,-0.0029899999999999,0.0013638000000003,-0.001853799999999,4.2200000000135535e-05,0,sub_14
-0.0035678000000001,-0.0093197999999986,-0.0031247999999999,0.0026576000000003,-0.0020513999999991,-0.0005837999999998,0,sub_14
-0.0031200000000001,-0.0087645999999987,-0.0029361999999999,0.0032978000000003,-0.002477999999999,-0.0010059999999998,0,sub_14
-0.0025042000000001,-0.0080755999999987,-0.0022501999999999,0.0039466000000003,-0.001835999999999,-0.0022839999999998,0,sub_14
-0.0018552000000001,-0.0076083999999987,-0.0015371999999999,0.0033170000000003,-0.000975599999999,-0.0037849999999998,0,sub_14
-0.0021542000000001,-0.0069297999999987,-0.0017157999999999,0.0022544000000003,-0.000522999999999,-0.0048607999999998,0,sub_14
-0.0029150000000001,-0.0062503999999987,-0.0013281999999999,0.0007624000000003,-0.000283799999999,-0.0055119999999998,0,sub_14
-0.0038472000000001,-0.0060937999999986,-0.0010465999999999,0.0014088000000003,0.0008012000000008,-0.0063629999999998,0,sub_14
-0.0040734000000001,-0.0074027999999986,-0.0024051999999999,0.0009816000000003,0.0003984000000008,-0.0072195999999998,0,sub_14
-0.0044274000000001,-0.0090459999999986,-0.0031493999999999,0.0003382000000003,-0.0002181999999991,-0.0076499999999998,0,sub_14
-0.0039260000000001,-0.0107595999999986,-0.0036603999999999,0.0011870000000003,-0.0008619999999991,-0.0072159999999998,0,sub_14
-0.0032196000000001,-0.0114621999999986,-0.0031363999999999,0.0033140000000003,-0.0017241999999991,-0.0065589999999998,0,sub_14
-0.0022222000000001,-0.0117501999999986,-0.0030751999999999,0.0037368000000003,-0.0019413999999991,-0.0059147999999998,0,sub_14
-0.0020342000000001,-0.0105683999999986,-0.0025517999999999,0.0043778000000003,-0.0008817999999991,-0.0050571999999998,0,sub_14
-0.0025408000000001,-0.0096725999999987,-0.0024757999999999,0.0069316000000003,0.0001820000000008,-0.0039697999999998,0,sub_14
-0.0028498000000001,-0.0083329999999987,-0.0027845999999999,0.0103438000000003,0.0018838000000008,-0.0033043999999998,0,sub_14
-0.0030576000000001,-0.0079871999999987,-0.0038387999999999,0.0139722000000003,0.0042240000000008,-0.0026383999999998,0,sub_14
-0.0030080000000001,-0.0081349999999987,-0.0052361999999999,0.0190808000000003,0.0044250000000008,-0.0011047999999998,0,sub_14
-0.0027816000000001,-0.0088477999999987,-0.0053863999999999,0.0239674000000003,0.0039826000000008,0.0017100000000001,0,sub_14
-0.0020738000000001,-0.0091073999999986,-0.0059643999999999,0.0273650000000003,0.0035318000000008,0.0049390000000001,0,sub_14
-0.0017162000000001,-0.0102967999999986,-0.0052799999999999,0.0301196000000003,0.0028684000000008,0.0085910000000001,0,sub_14
-0.0014500000000001,-0.0109399999999986,-0.0042543999999999,0.0322238000000003,0.0020064000000008,0.0120274000000001,0,sub_14
-0.0012774000000001,-0.0115477999999986,-0.0023257999999999,0.0330556000000003,0.0022166000000008,0.0148126000000001,0,sub_14
-0.0007086000000001,-0.0117265999999987,-0.0008929999999999,0.0338940000000003,0.0026448000000008,0.0163158000000001,0,sub_14
-0.0002802000000001,-0.0125931999999987,0.0006208,0.0338798000000003,0.0028648000000008,0.0173858000000001,0,sub_14
-0.0001936000000001,-0.0124323999999987,0.0010152,0.0306640000000003,0.0028828000000008,0.0184338000000001,0,sub_14
-0.0015926000000001,-0.0113997999999987,0.0005058,0.0259688000000003,0.0028982000000008,0.0186146000000001,0,sub_14
-0.0033420000000001,-0.0103039999999987,-9.979999999992508e-05,0.0202124000000003,0.0033470000000008,0.0179328000000001,0,sub_14
-0.0061812000000001,-0.0094373999999987,-0.0009963999999999,0.0148858000000003,0.0035848000000008,0.0163998000000001,0,sub_14
-0.0081542000000001,-0.0078445999999987,-0.0023973999999999,0.0112710000000003,0.0040330000000008,0.0140240000000001,0,sub_14
-0.0095620000000001,-0.0065885999999987,-0.0032907999999999,0.0102088000000003,0.0040612000000008,0.0101728000000001,0,sub_14
-0.0088658000000001,-0.0065747999999987,-0.0038209999999999,0.0100038000000003,0.0047264000000008,0.0061130000000001,0,sub_14
-0.0077788000000001,-0.0066485999999987,-0.0038705999999999,0.0108618000000003,0.0043234000000008,0.0018486000000001,0,sub_14
-0.0061388000000001,-0.0068497999999987,-0.0024445999999999,0.0121426000000003,0.0039154000000008,-0.0015583999999998,0,sub_14
-0.0046962000000001,-0.0072643999999986,-0.0006223999999999,0.0121394000000003,0.0037208000000008,-0.0039063999999998,0,sub_14
-0.0029966000000001,-0.0083159999999987,0.0003682,0.0104380000000003,0.0039440000000008,-0.0049867999999998,0,sub_14
-0.0018772000000001,-0.0093889999999986,0.0014846,0.0072394000000003,0.0037448000000008,-0.0056497999999998,0,sub_14
-0.0012558000000001,-0.0105907999999986,0.0017678,0.0040388000000003,0.0039682000000008,-0.0054587999999998,0,sub_14
-0.0013554000000001,-0.0113387999999986,0.0005246,0.0014668000000003,0.0046238000000008,-0.0052565999999998,0,sub_14
-0.0012898000000001,-0.0113491999999987,-0.0001995999999998,0.0003912000000003,0.0050644000000008,-0.0058981999999998,0,sub_14
-0.0016464000000001,-0.0115357999999987,-0.0010709999999998,0.0008140000000003,0.0055042000000008,-0.0075973999999998,0,sub_14
-0.0027976000000001,-0.0112675999999987,-0.0019621999999998,0.0025170000000003,0.0059394000000008,-0.0092875999999998,0,sub_14
-0.0045966000000001,-0.0097223999999987,-0.0019177999999999,0.0061404000000003,0.0065802000000008,-0.0107511999999998,0,sub_14
-0.0050456000000001,-0.0077121999999987,-0.0020951999999998,0.0089228000000003,0.0065782000000008,-0.0126543999999998,0,sub_14
-0.0050058000000001,-0.0074389999999987,-0.0034593999999999,0.0095696000000003,0.0063696000000008,-0.0143587999999998,0,sub_14
-0.0051522000000001,-0.0070939999999987,-0.0032469999999999,0.0091288000000003,0.0061678000000008,-0.0154123999999998,0,sub_14
-0.0045152000000001,-0.0071615999999987,-0.0032035999999998,0.0088926000000003,0.0051088000000008,-0.0153953999999998,0,sub_14
-0.0033854000000001,-0.0085009999999987,-0.0032935999999998,0.0065170000000003,0.0036276000000008,-0.0145381999999998,0,sub_14
-0.0026760000000001,-0.0108491999999987,-0.0035085999999998,0.0032840000000003,0.0027826000000008,-0.0121921999999998,0,sub_14
-0.0028076000000001,-0.0118447999999987,-0.0027731999999998,0.0011160000000003,0.0023568000000008,-0.0089847999999998,0,sub_14
-0.0026840000000001,-0.0117355999999987,-0.0022279999999998,-0.0001843999999996,0.0010702000000008,-0.0057875999999998,0,sub_14
-0.0023424000000001,-0.0119347999999987,-0.0025349999999999,-0.0012647999999996,0.0004254000000008,-0.0034441999999998,0,sub_14
-0.0018634000000001,-0.0119499999999987,-0.0032939999999999,-0.0008485999999996,-9.799999999112558e-06,-0.0015177999999998,0,sub_14
-0.0020900000000001,-0.0115001999999987,-0.0031695999999999,0.0005678000000003,-0.0010881999999991,-0.0002259999999998,0,sub_14
-0.0021250000000001,-0.0104875999999987,-0.0031561999999999,0.0019862000000003,-0.0021649999999991,0.0006386000000001,0,sub_14
-0.0025492000000001,-0.0101925999999987,-0.0037973999999999,0.0036226000000003,-0.0021771999999991,0.0015032000000001,0,sub_14
-0.0028336000000001,-0.0097451999999987,-0.0032973999999999,0.0046190000000003,-0.0023993999999991,0.0021500000000001,0,sub_14
-0.0034188000000001,-0.0093173999999987,-0.0029585999999999,0.0045484000000003,-0.0030421999999991,0.0023626000000001,0,sub_14
-0.0035538000000001,-0.0090905999999987,-0.0029095999999999,0.0041256000000003,-0.0026127999999991,0.0019318000000001,0,sub_14
-0.0034282000000001,-0.0094435999999987,-0.0021723999999999,0.0043436000000003,-0.0023969999999991,0.0010786000000001,0,sub_14
-0.0029294000000001,-0.0098995999999987,-0.0016815999999999,0.0039208000000003,-0.0021797999999991,0.0004346000000001,0,sub_14
-0.0028248000000001,-0.0102091999999987,-0.0014847999999999,0.0037094000000003,-0.0019651999999991,0.0002192000000001,0,sub_14
-0.0023394000000001,-0.0102417999999987,-0.0011395999999999,0.0025524000000003,-0.001547399999999,0.0008202000000001,0,sub_14
-0.0019500000000001,-0.0105337999999987,-0.0010635999999999,0.0013916000000003,-0.001769599999999,0.0016354000000001,0,sub_14
-0.0024138000000001,-0.0103169999999987,-0.0017335999999999,0.0006604000000003,-0.001566399999999,0.0022394000000001,0,sub_14
-0.0025054000000001,-0.0097973999999987,-0.0013211999999999,0.0001444000000003,-0.001574399999999,0.0022042000000001,0,sub_14
-0.0025530000000001,-0.0096279999999987,-0.0013633999999999,-0.0001543999999996,-0.001367399999999,0.0015296000000001,0,sub_14
-0.0032208000000001,-0.0097115999999987,-0.0016173999999999,-0.0003579999999996,-0.0007215999999991,3.180000000013536e-05,0,sub_14
-0.0037914000000001,-0.0094867999999987,-0.0018997999999999,-0.0005627999999996,-7.659999999913252e-05,-0.0012521999999998,0,sub_14
-0.0042186000000001,-0.0098185999999987,-0.0016263999999999,-0.0017037999999996,-0.0002995999999991,-0.0019157999999998,0,sub_14
-0.0048938000000001,-0.0102135999999987,-0.0020605999999999,-0.0026343999999996,-0.0001015999999991,-0.0015101999999998,0,sub_14
-0.0051124000000001,-0.0095001999999987,-0.0024481999999998,-0.0042059999999996,0.0003100000000008,-0.0006821999999998,0,sub_14
-0.0051216000000001,-0.0094193999999987,-0.0024781999999998,-0.0047079999999996,0.0007204000000008,-0.0004875999999998,0,sub_14
-0.0050092000000001,-0.0093389999999987,-0.0030551999999999,-0.0045689999999996,0.0011294000000008,-0.0005021999999998,0,sub_14
-0.0039436000000001,-0.0092765999999987,-0.0041801999999999,-0.0030763999999996,0.0011232000000008,-0.0002781999999998,0,sub_14
-0.0019964000000001,-0.0088265999999987,-0.0042831999999999,-0.0017999999999996,0.0002664000000008,-0.0002681999999998,0,sub_14
-0.0008998000000001,-0.0083051999999987,-0.0026801999999999,-0.0007427999999996,-0.0012313999999991,0.0003820000000001,0,sub_14
0.0004643999999998,-0.0075149999999987,-0.0020219999999999,-0.0021005999999996,-0.0031719999999991,0.0016714000000001,0,sub_14
0.0011887999999998,-0.0071997999999987,-0.0006339999999999,-0.0047365999999996,-0.0044697999999991,0.0031648000000001,0,sub_14
-3.780000000019219e-05,-0.0068587999999987,0.001245,-0.0082233999999996,-0.0044887999999991,0.0052916000000001,0,sub_14
-0.0026432000000001,-0.0068573999999987,0.0024922,-0.0108547999999996,-0.0038725999999991,0.0076372000000001,0,sub_14
-0.0039636000000001,-0.0083557999999987,0.0006714,-0.0132745999999995,-0.004107599999999,0.0095580000000001,0,sub_14
-0.0071146000000001,-0.0126773999999987,0.0004304,-0.0135005999999995,-0.003693399999999,0.0127606000000001,0,sub_14
-0.0082208000000001,-0.0132725999999987,0.0008842,-0.0128709999999995,-0.003492799999999,0.0153284000000001,0,sub_14
-0.0079076000000001,-0.0138151999999987,0.0012182,-0.0111715999999995,-0.0028689999999991,0.0176896000000001,0,sub_14
-0.0075456000000001,-0.0143033999999987,-0.0007641999999999,-0.0109571999999996,-0.0018077999999991,0.0185442000000001,0,sub_14
-0.0086986000000001,-0.0148159999999987,0.0001578,-0.0088597999999996,0.0015714000000008,0.0200702000000001,0,sub_14
-0.0070430000000001,-0.0092281999999987,-0.0013471999999999,-0.0095331999999996,0.0024164000000008,0.0183754000000001,0,sub_14
-0.0058794000000001,-0.0070841999999987,-0.0025029999999999,-0.0117033999999996,0.0028396000000008,0.0168844000000001,0,sub_14
-0.0048268000000001,-0.0058707999999987,-0.0041421999999999,-0.0160147999999996,0.0011416000000008,0.0149538000000001,0,sub_14
-0.0037106000000001,-0.0054267999999987,-0.0041309999999999,-0.0213997999999996,-0.0014075999999991,0.0136578000000001,0,sub_14
-0.0014528000000001,-0.0042923999999987,-0.0047033999999999,-0.0286581999999996,-0.004780799999999,0.0110478000000001,0,sub_14
-4.520000000015211e-05,-0.0066077999999987,-0.0036333999999999,-0.0327083999999996,-0.006036399999999,0.0088846000000001,0,sub_14
-6.44000000001521e-05,-0.0098035999999987,-0.0030951999999999,-0.0337983999999996,-0.006663999999999,0.0054708000000001,0,sub_14
-0.0009672000000001,-0.0124303999999987,-0.0018621999999999,-0.0323087999999996,-0.005798199999999,-0.0007041999999998,0,sub_14
-0.0022712000000001,-0.0146909999999987,-0.0004777999999999,-0.0271783999999996,-0.004084199999999,-0.0089913999999998,0,sub_14
-0.0037284000000001,-0.0168807999999987,0.0005038,-0.0199095999999996,-0.0017369999999991,-0.0176917999999998,0,sub_14
-0.0051600000000001,-0.0185073999999987,0.001511,-0.0111481999999996,0.0016652000000008,-0.0251011999999998,0,sub_14
-0.0053418000000001,-0.0176309999999987,0.0014226,-0.0027921999999996,0.0046376000000008,-0.0297467999999998,0,sub_14
-0.0051314000000001,-0.0158631999999987,0.0008474,0.0027688000000003,0.0069644000000008,-0.0303519999999998,0,sub_14
-0.0038660000000001,-0.0137401999999987,-0.0001933999999999,0.0046824000000003,0.0084370000000008,-0.0273493999999998,0,sub_14
-0.0028482000000001,-0.0118317999999987,-0.0020835999999999,0.0035796000000003,0.0092740000000008,-0.0230779999999998,0,sub_14
-0.0017268000000001,-0.0103351999999987,-0.0032827999999999,0.0005546000000003,0.0088426000000008,-0.0196727999999998,0,sub_14
-0.0012678000000001,-0.0103611999999987,-0.0036067999999999,-0.0003269999999996,0.0082000000000008,-0.0186025999999998,0,sub_14
0.0005639999999998,-0.0093215999999987,-0.0029391999999999,0.0030722000000003,0.0077666000000008,-0.0202799999999998,0,sub_14
0.0013541999999998,-0.0071727999999987,-0.0019061999999999,0.0088252000000003,0.0071190000000008,-0.0236499999999998,0,sub_14
0.0020317999999998,-0.0044011999999987,-0.0006211999999999,0.0141644000000003,0.0051948000000008,-0.0266011999999998,0,sub_14
0.0011935999999998,-0.0006641999999987,-0.0009619999999999,0.0154350000000003,0.0030598000000008,-0.0265895999999998,0,sub_14
-0.0004920000000001,0.0027206000000012,-0.0017487999999999,0.0096480000000003,0.0002984000000008,-0.0236353999999998,0,sub_14
-0.0030704000000001,0.0040314000000012,-0.0039761999999999,-0.0031965999999996,-0.0028773999999991,-0.0175253999999998,0,sub_14
-0.0053086000000001,0.0038112000000012,-0.0055155999999999,-0.0186121999999996,-0.005836599999999,-0.0097223999999998,0,sub_14
-0.0087668000000001,0.0017574000000012,-0.0067123999999999,-0.0327457999999996,-0.007949799999999,-0.0014841999999998,0,sub_14
-0.0107074000000001,-0.0015975999999987,-0.0068611999999999,-0.0419601999999996,-0.009645399999999,0.0046512000000001,0,sub_14
-0.0112980000000001,-0.0065107999999987,-0.0065747999999999,-0.0445369999999996,-0.009858399999999,0.0071992000000001,0,sub_14
-0.0111402000000001,-0.0122377999999987,-0.0052723999999999,-0.0389805999999996,-0.008591999999999,0.0057428000000001,0,sub_14
-0.0103162000000001,-0.0183539999999987,-0.0042731999999999,-0.0276439999999996,-0.006909199999999,0.0013332000000001,0,sub_14
-0.0071994000000001,-0.0223435999999987,-0.0024427999999999,-0.0137363999999996,-0.004801599999999,-0.0049817999999998,0,sub_14
-0.0036066000000001,-0.0250087999999987,-0.0007275999999999,0.0006182000000003,-0.002904199999999,-0.0111081999999998,0,sub_14
-0.0007724000000001,-0.0248583999999987,0.0011462,0.0124008000000003,-0.001432399999999,-0.0151157999999998,0,sub_14
0.0014405999999998,-0.0215925999999987,0.002016,0.0201158000000003,-0.000170599999999,-0.0163739999999998,0,sub_14
0.0030583999999998,-0.0172047999999987,0.0020976,0.0235498000000003,0.0010940000000008,-0.0146709999999998,0,sub_14
0.0032335999999998,-0.0124109999999987,0.001716,0.0229184000000003,0.0021504000000008,-0.0106461999999998,0,sub_14
