userAcceleration.x,userAcceleration.y,userAcceleration.z,rotationRate.x,rotationRate.y,rotationRate.z,label,subject
0.0076427999999997,0.0111550000000012,0.0096584,-0.0007233999999996,0.0011910000000008,-0.0004365999999998,0,sub_4
0.0081921999999997,0.0112158000000012,0.0099226,-0.0005139999999996,0.0016178000000008,-0.0002267999999998,0,sub_4
0.0087277999999997,0.0106312000000012,0.0099728,0.0001212000000003,0.0011936000000008,-0.0006537999999998,0,sub_4
0.0100245999999997,0.0098812000000012,0.0099162,0.0007546000000003,0.0005552000000008,-0.0008669999999998,0,sub_4
0.0109569999999997,0.0090932000000012,0.009939,0.0007566000000003,0.0001324000000008,-0.0017211999999998,0,sub_4
0.0122057999999997,0.0079678000000012,0.0100414,0.0007574000000003,-0.0002911999999991,-0.0023615999999998,0,sub_4
0.0120365999999997,0.0077374000000012,0.009767,0.0003288000000003,-0.001564599999999,-0.0032175999999998,0,sub_4
0.0119211999999997,0.0076670000000012,0.0092426,-0.0001041999999996,-0.002417199999999,-0.0032251999999998,0,sub_4
0.0111781999999997,0.0083110000000012,0.009069,-0.0005353999999996,-0.0030555999999991,-0.0034465999999998,0,sub_4
0.0101387999999997,0.0093894000000012,0.0092626,-0.0003255999999996,-0.003483199999999,-0.0036637999999998,0,sub_4
0.0086035999999997,0.0101480000000012,0.008823,9.98000000003997e-05,-0.003697799999999,-0.0040935999999998,0,sub_4
0.0076493999999997,0.0104902000000012,0.0083038,0.0005288000000003,-0.002847999999999,-0.0043107999999998,0,sub_4
0.0073425999999997,0.0105326000000012,0.0080454,0.0007498000000003,-0.001568599999999,-0.0047379999999998,0,sub_4
0.0074373999999997,0.0103864000000012,0.0079946,0.0001174000000003,-7.419999999909018e-05,-0.0049579999999998,0,sub_4
0.0078463999999997,0.0099822000000012,0.0077438,-0.0009435999999996,0.0014200000000008,-0.0047535999999998,0,sub_4
0.0086373999999997,0.0094648000000012,0.0080382,-0.0022263999999996,0.0022776000000008,-0.0041235999999998,0,sub_4
0.0091111999999997,0.0094316000000012,0.0088872,-0.0035109999999996,0.0027090000000008,-0.0034931999999998,0,sub_4
0.0089481999999997,0.0097376000000012,0.009492,-0.0045821999999996,0.0031398000000008,-0.0028613999999998,0,sub_4
0.0091371999999997,0.0097938000000012,0.0097014,-0.0045875999999996,0.0029294000000008,-0.0026485999999998,0,sub_4
0.0089677999999997,0.0098008000000012,0.0103336,-0.0039527999999996,0.0027166000000008,-0.0024311999999998,0,sub_4
0.0086459999999997,0.0102574000000012,0.0108264,-0.0035259999999996,0.0027152000000008,-0.0024281999999998,0,sub_4
0.0091345999999997,0.0102860000000012,0.0103528,-0.0026743999999996,0.0020740000000008,-0.0026351999999998,0,sub_4
0.0096153999999997,0.0103414000000012,0.0096254,-0.0018265999999995,0.0007926000000008,-0.0026275999999998,0,sub_4
0.0094659999999997,0.0103756000000012,0.00908,-0.0018333999999995,-0.0002743999999991,-0.0021989999999998,0,sub_4
0.0100195999999997,0.0103960000000012,0.0084852,-0.0020537999999995,-0.0013385999999991,-0.0019875999999998,0,sub_4
0.0104045999999997,0.0097170000000012,0.0082996,-0.0024865999999995,-0.0026135999999991,-0.0022045999999998,0,sub_4
0.0102579999999997,0.0092044000000012,0.0084716,-0.0027021999999995,-0.0028247999999991,-0.0022077999999998,0,sub_4
0.0103525999999997,0.0088588000000012,0.0086384,-0.0029111999999996,-0.0019689999999991,-0.0026395999999998,0,sub_4
0.0107725999999997,0.0085110000000012,0.0089482,-0.0024769999999995,-0.0011129999999991,-0.0037077999999998,0,sub_4
0.0109621999999997,0.0081350000000012,0.0092534,-0.0022579999999995,-0.0006841999999991,-0.0045613999999998,0,sub_4
0.0108773999999997,0.0081810000000012,0.0087856,-0.0009729999999995,0.0001644000000008,-0.0047671999999998,0,sub_4
0.0109005999999997,0.0082576000000012,0.009052,-0.0003291999999995,0.0005916000000008,-0.0054075999999998,0,sub_4
0.0106463999999997,0.0088670000000012,0.0091068,9.66000000004197e-05,0.0003788000000008,-0.0056215999999998,0,sub_4
0.0097279999999997,0.0096382000000012,0.009373,0.0005194000000003,0.0001636000000008,-0.0051945999999998,0,sub_4
0.0082129999999997,0.0102778000000012,0.0093992,0.0011546000000003,0.0001588000000008,-0.0043391999999998,0,sub_4
0.0074083999999997,0.0109618000000012,0.0092444,0.0011496000000003,-5.5799999999110325e-05,-0.0037015999999998,0,sub_4
0.0079079999999997,0.0108980000000012,0.0090248,0.0007152000000003,-0.0002731999999991,-0.0022089999999998,0,sub_4
0.0083665999999997,0.0104498000000012,0.009226,0.0004950000000003,-6.619999999913032e-05,-0.0005015999999998,0,sub_4
0.0088035999999997,0.0098532000000012,0.0089126,-0.0001517999999996,-6.999999999913033e-05,0.0009894000000001,0,sub_4
0.0098123999999997,0.0093080000000012,0.008532,-0.0003745999999996,-0.0002855999999991,0.0024862000000001,0,sub_4
0.0104895999999997,0.0086570000000012,0.0086324,-0.0008127999999996,-0.0007145999999991,0.0041954000000001,0,sub_4
0.0102797999999997,0.0085980000000012,0.008561,-0.0003945999999996,-0.0013561999999991,0.0050562000000001,0,sub_4
0.0100017999999997,0.0083982000000012,0.0083864,-0.0001887999999996,-0.002208399999999,0.0054884000000001,0,sub_4
0.0100335999999997,0.0083718000000012,0.0083826,0.0004474000000003,-0.002421999999999,0.0057092000000001,0,sub_4
0.0101419999999997,0.0090840000000012,0.008233,0.0006646000000003,-0.001994999999999,0.0052828000000001,0,sub_4
0.0100515999999997,0.0095500000000012,0.0079238,0.0008848000000003,-0.001140799999999,0.0046422,0,sub_4
0.0096203999999997,0.0097830000000012,0.0076928,0.0006782000000003,-0.000285199999999,0.0039988,0,sub_4
0.0096355999999997,0.0099084000000012,0.007333,0.0006898000000003,0.0009992000000009,0.0029392,0,sub_4
0.0098253999999997,0.0100222000000012,0.0078592,0.0004852000000003,0.0018572000000008,0.0020922,0,sub_4
0.0095031999999997,0.0096678000000012,0.0082826,0.0004910000000003,0.0022876000000008,0.0014608,0,sub_4
0.0097183999999997,0.0095588000000012,0.008617,0.0011322000000003,0.0016504000000008,0.0008352000000001,0,sub_4
0.0095585999999997,0.0095598000000012,0.0090274,0.0015570000000003,0.0010114000000008,0.000849,0,sub_4
0.0090971999999997,0.0093518000000012,0.0097298,0.0017636000000003,0.0001558000000008,0.0014924,0,sub_4
0.0087537999999997,0.0092288000000012,0.0093254,0.0017570000000004,-0.0009111999999991,0.001921,0,sub_4
0.0089015999999997,0.0093944000000012,0.0095182,0.0017474000000003,-0.002192999999999,0.0027772,0,sub_4
0.0087935999999997,0.0092924000000012,0.0097722,0.0015382000000003,-0.002197399999999,0.00343,0,sub_4
0.0088567999999997,0.0092696000000012,0.0095066,0.0017568000000003,-0.002626799999999,0.0034454,0,sub_4
0.0092503999999997,0.0092058000000012,0.0093614,0.0021868000000003,-0.003482999999999,0.0034628000000001,0,sub_4
0.0094343999999997,0.0093338000000012,0.0090812,0.0026196000000003,-0.003487799999999,0.0036928000000001,0,sub_4
0.0092229999999997,0.0090572000000012,0.0087992,0.0026296000000003,-0.003275599999999,0.0032786,0,sub_4
0.0090533999999997,0.0090904000000012,0.0088522,0.0022018000000003,-0.0034871999999991,0.003276,0,sub_4
0.0092751999999997,0.0091760000000012,0.0088424,0.0015616000000003,-0.0032727999999991,0.003485,0,sub_4
0.0093471999999997,0.0093092000000012,0.0086198,0.0009272000000003,-0.0024165999999991,0.0030522,0,sub_4
0.0100103999999997,0.0091876000000012,0.0088228,0.0007268000000003,-0.0019885999999991,0.00264,0,sub_4
0.0108111999999997,0.0090620000000012,0.0088982,0.0007408000000003,-0.0011359999999991,0.0024426000000001,0,sub_4
0.0113249999999997,0.0088674000000012,0.0092184,0.0016112000000003,-0.0004959999999991,0.0013966000000001,0,sub_4
0.0110091999999997,0.0087622000000012,0.0092326,0.0026970000000003,0.0005694000000008,0.0003516000000001,0,sub_4
0.0103145999999997,0.0088434000000012,0.009494,0.0033512000000003,0.0012074000000008,-5.479999999989381e-05,0,sub_4
0.0090361999999997,0.0091882000000012,0.009512,0.0035676000000003,0.0014214000000008,-0.0004807999999998,0,sub_4
0.0082399999999997,0.0095008000000012,0.0096196,0.0035648000000003,0.0007822000000008,-0.0004799999999998,0,sub_4
0.0073657999999997,0.0096248000000012,0.0089878,0.0027056000000003,0.0003556000000009,0.0003692000000001,0,sub_4
0.0077701999999997,0.0091794000000012,0.0085884,0.0014214000000003,-0.000710599999999,0.0016558000000001,0,sub_4
0.0087185999999997,0.0088134000000012,0.008176,-7.719999999958038e-05,-0.001988999999999,0.0029410000000001,0,sub_4
0.0100053999999997,0.0082590000000012,0.0080976,-0.0015689999999995,-0.002624799999999,0.0033710000000001,0,sub_4
0.0109355999999997,0.0071706000000012,0.0079698,-0.0024159999999995,-0.002621999999999,0.0033772000000001,0,sub_4
0.0115157999999997,0.0069546000000012,0.0081276,-0.0026207999999995,-0.002619799999999,0.0029606000000001,0,sub_4
0.0116469999999997,0.0074162000000012,0.0091432,-0.0026141999999995,-0.001977199999999,0.0021052000000001,0,sub_4
0.0116539999999997,0.0083412000000012,0.0096072,-0.0019615999999996,-0.000695199999999,0.0006126000000001,0,sub_4
0.0109495999999997,0.0091598000000012,0.0099536,-0.0004613999999996,0.0001544000000009,-1.8999999999894058e-05,0,sub_4
0.0096571999999997,0.0102864000000012,0.0102906,0.0008290000000003,0.0007916000000008,-0.0006509999999998,0,sub_4
0.0090889999999997,0.0111036000000012,0.0102512,0.0019042000000003,0.0012158000000008,-0.0010703999999998,0,sub_4
0.0084779999999997,0.0118566000000012,0.0094486,0.0031918000000003,0.0014262000000008,-0.0014881999999998,0,sub_4
0.0076041999999997,0.0116644000000012,0.0090986,0.0042612000000003,0.0012086000000008,-0.0012659999999998,0,sub_4
0.0071881999999997,0.0112618000000012,0.0090864,0.0046906000000003,0.0012054000000008,-0.0008349999999998,0,sub_4
0.0081909999999997,0.0109620000000012,0.0086392,0.0046878000000003,0.0012028000000008,-0.0001939999999998,0,sub_4
0.0088365999999997,0.0102074000000012,0.0086352,0.0040448000000003,0.0014146000000008,0.0006558,0,sub_4
0.0093941999999997,0.0091450000000012,0.0087406,0.0029712000000003,0.0009878000000008,0.001717,0,sub_4
0.0100737999999997,0.0081362000000012,0.0090634,0.0018986000000003,0.0003508000000009,0.0023472,0,sub_4
0.0111409999999997,0.0079088000000011,0.0091554,0.0008248000000003,-0.000499199999999,0.0029776,0,sub_4
0.0108865999999997,0.0077888000000012,0.0092146,-0.0004641999999996,-0.001774599999999,0.0036070000000001,0,sub_4
0.0103045999999997,0.0080012000000012,0.0092834,-0.0008969999999995,-0.003050399999999,0.0036014000000001,0,sub_4
0.0102715999999997,0.0081956000000012,0.009092,-0.0011103999999995,-0.003048599999999,0.0035958000000001,0,sub_4
0.0095841999999997,0.0091614000000012,0.008537,-0.0015343999999995,-0.002620199999999,0.0033786000000001,0,sub_4
0.0087401999999997,0.0093912000000012,0.0079026,-0.0017419999999995,-0.001765599999999,0.0029488000000001,0,sub_4
0.0086601999999997,0.0096694000000012,0.0081524,-0.0013047999999995,-5.999999999909021e-05,0.0023088000000001,0,sub_4
0.0096969999999997,0.0098594000000012,0.008459,-0.0015109999999995,0.0016530000000008,0.0016556000000001,0,sub_4
0.0093533999999997,0.0100244000000012,0.0088206,-0.0017181999999995,0.0029408000000008,0.0007892000000001,0,sub_4
0.0095773999999997,0.0098016000000012,0.0092848,-0.0021415999999995,0.0038024000000008,0.0001354000000001,0,sub_4
0.0094209999999997,0.0097646000000012,0.0103086,-0.0025649999999995,0.0046640000000008,-0.0005183999999998,0,sub_4
0.0086045999999997,0.0104386000000012,0.0096276,-0.0032055999999995,0.0050984000000008,-0.0007457999999998,0,sub_4
0.0088803999999997,0.0102780000000012,0.0095932,-0.0036399999999995,0.0038198000000008,-0.0003199999999998,0,sub_4
0.0106527999999997,0.0088082000000012,0.0094168,-0.0047145999999995,0.0021190000000008,-0.0003253999999998,0,sub_4
0.0124055999999997,0.0069682000000012,0.0101674,-0.0055709999999995,0.0010584000000008,-0.0007571999999998,0,sub_4
0.0152923999999997,0.0054210000000012,0.0095612,-0.0062121999999995,-0.0004257999999991,-0.0020415999999998,0,sub_4
0.0190363999999997,0.0042950000000012,0.0102292,-0.0051483999999996,-0.0019071999999991,-0.0041779999999998,0,sub_4
0.0198787999999997,0.0032518000000012,0.0105322,-0.0023671999999996,-0.0010507999999991,-0.0063051999999998,0,sub_4
0.0180797999999997,0.0039426000000012,0.0115102,0.0021134000000003,-0.0014803999999991,-0.0079915999999998,0,sub_4
0.0147919999999997,0.0069362000000012,0.011212,0.0072302000000003,-0.0027645999999991,-0.0096725999999998,0,sub_4
0.0093707999999997,0.0122368000000012,0.0104952,0.0119174000000003,-0.0034131999999991,-0.0100753999999998,0,sub_4
0.0024693999999997,0.0162200000000011,0.0094758,0.0148978000000003,-0.0042783999999991,-0.0094123999999998,0,sub_4
-0.0050674000000002,0.0203646000000011,0.0083152,0.0163762000000004,-0.0059947999999991,-0.0076907999999998,0,sub_4
-0.0110326000000002,0.0251308000000011,0.0061854,0.0152896000000004,-0.0060017999999991,-0.0038609999999998,0,sub_4
-0.0107746000000002,0.0258154000000012,0.0036744,0.0131238000000003,-0.0062281999999991,0.0025254000000001,0,sub_4
-0.0078212000000002,0.0215268000000012,0.0027458,0.0101054000000004,-0.0064507999999991,0.0086920000000001,0,sub_4
-0.0013340000000002,0.0135742000000012,0.0026474,0.0062564000000003,-0.0032545999999991,0.0131394000000001,0,sub_4
0.0095095999999997,0.0041898000000012,0.003425,0.0017970000000003,0.0040018000000008,0.0150136000000001,0,sub_4
0.0220727999999997,-0.0062191999999987,0.0045262,-0.0026531999999996,0.0104108000000008,0.0145470000000001,0,sub_4
0.0295535999999997,-0.0125421999999987,0.0075812,-0.0079483999999996,0.0161938000000008,0.0115116000000001,0,sub_4
0.0325679999999997,-0.0139847999999987,0.0119142,-0.0119689999999996,0.0198452000000008,0.0076334000000001,0,sub_4
0.0315185999999997,-0.0099843999999987,0.0153748,-0.0143191999999996,0.0173116000000008,0.0041956000000001,0,sub_4
0.0256075999999997,-0.0010273999999987,0.017344,-0.0158505999999995,0.0085906000000008,0.0022670000000001,0,sub_4
0.0165349999999997,0.0104328000000012,0.0182344,-0.0156777999999996,-0.0007755999999991,0.0003512000000001,0,sub_4
0.0060437999999997,0.0207088000000012,0.0173594,-0.0133577999999996,-0.007166399999999,-0.0015535999999998,0,sub_4
-0.0019786000000002,0.0273630000000012,0.0132132,-0.0097431999999996,-0.009941399999999,-0.0030265999999998,0,sub_4
-0.0072932000000001,0.0301046000000012,0.0086404,-0.0056805999999996,-0.008250399999999,-0.0032139999999998,0,sub_4
-0.0086288000000001,0.0282530000000012,0.0041674000000001,-0.0015977999999996,-0.0018729999999991,-0.0031935999999998,0,sub_4
-0.0064734000000002,0.0226244000000012,0.0015716000000001,0.0031328000000003,0.0062066000000008,-0.0031707999999998,0,sub_4
-0.0010806000000002,0.0152660000000012,0.0007308000000001,0.0072108000000003,0.0121554000000008,-0.0025089999999998,0,sub_4
0.0063889999999997,0.0084106000000012,0.0024888000000001,0.0095656000000003,0.0151268000000008,-0.0018647999999998,0,sub_4
0.0134615999999997,0.0038744000000012,0.0054304000000001,0.0097734000000003,0.0151230000000008,-0.0012317999999998,0,sub_4
0.0192851999999997,0.0014196000000012,0.0091872,0.0091134000000003,0.0115020000000008,-0.0010273999999998,0,sub_4
0.0219391999999997,0.0012564000000011,0.013224,0.0073748000000003,0.0053280000000008,-0.0008273999999998,0,sub_4
0.0222909999999997,0.0021456000000012,0.0157062,0.0052086000000003,-0.0016941999999991,-0.0012701999999998,0,sub_4
0.0193983999999997,0.0043848000000012,0.015529,0.0021974000000004,-0.007646599999999,-0.0019245999999998,0,sub_4
0.0152013999999997,0.0070626000000012,0.013905,-0.0010155999999995,-0.011465999999999,-0.0030103999999998,0,sub_4
0.0103829999999997,0.0091312000000012,0.011281,-0.0040085999999995,-0.013370599999999,-0.0036697999999998,0,sub_4
0.0069129999999997,0.0106398000000012,0.0077718,-0.0065557999999995,-0.012298399999999,-0.0043333999999998,0,sub_4
0.0048567999999997,0.0122096000000012,0.0045938,-0.0080293999999995,-0.009101999999999,-0.0043511999999998,0,sub_4
0.0044781999999997,0.0123556000000011,0.003747,-0.0075777999999996,-0.004847199999999,-0.0043569999999998,0,sub_4
0.0043707999999997,0.0118748000000011,0.004134,-0.0058413999999995,0.0004684000000008,-0.0043551999999998,0,sub_4
0.0052741999999997,0.0115108000000011,0.0051104,-0.0041029999999995,0.0055736000000008,-0.0049939999999998,0,sub_4
0.0068489999999997,0.0105916000000011,0.0066408,-0.0030139999999995,0.0096212000000008,-0.0058461999999998,0,sub_4
0.0082079999999997,0.0093580000000011,0.0085074,-0.0034263999999995,0.0126062000000008,-0.0060665999999998,0,sub_4
0.0095585999999997,0.0090050000000012,0.0096074,-0.0053591999999995,0.0136830000000008,-0.0056471999999998,0,sub_4
0.0109955999999997,0.0086638000000012,0.0104644,-0.0075187999999995,0.0122024000000008,-0.0047987999999998,0,sub_4
0.0112439999999997,0.0085436000000012,0.0109044,-0.0090439999999996,0.0094412000000008,-0.0039445999999998,0,sub_4
0.0113669999999997,0.0084722000000012,0.0108778,-0.0097205999999996,0.0058240000000008,-0.0028695999999998,0,sub_4
0.0110489999999997,0.0086482000000012,0.0106402,-0.0086833999999996,0.0028434000000008,-0.0026379999999998,0,sub_4
0.0105793999999997,0.0088876000000012,0.0106124,-0.0059229999999996,6.320000000090949e-05,-0.0024015999999998,0,sub_4
0.0104649999999997,0.0092320000000012,0.0106184,-0.0027299999999996,-0.002288999999999,-0.0030171999999998,0,sub_4
0.0110479999999997,0.0089524000000012,0.0104058,0.0002504000000003,-0.004427399999999,-0.0036345999999998,0,sub_4
0.0108003999999997,0.0089312000000012,0.010549,0.0023806000000003,-0.005508999999999,-0.0038429999999998,0,sub_4
0.0104313999999997,0.0087078000000012,0.0104118,0.0036554000000003,-0.006589399999999,-0.0036301999999998,0,sub_4
0.0105793999999997,0.0086608000000012,0.0091292,0.0027994000000003,-0.0072351999999991,-0.0036463999999998,0,sub_4
0.0103761999999997,0.0089480000000012,0.0079912,0.0017300000000003,-0.007455999999999,-0.0032375999999998,0,sub_4
0.0094399999999997,0.0098148000000012,0.007302,0.0006654000000003,-0.006611399999999,-0.0028297999999998,0,sub_4
0.0077129999999997,0.0108230000000012,0.0066724,2.8200000000398784e-05,-0.005545599999999,-0.0024083999999998,0,sub_4
0.0067151999999997,0.0115952000000012,0.0066152,-0.0008175999999995,-0.003413799999999,-0.0019897999999998,0,sub_4
0.0053999999999997,0.0115228000000012,0.0076642,-0.0008041999999995,0.0002056000000009,-0.0013533999999998,0,sub_4
0.0048323999999997,0.0113710000000012,0.0082996,-0.0012141999999995,0.0036002000000008,-0.0007221999999998,0,sub_4
0.0056981999999997,0.0106442000000012,0.0089192,-0.0018441999999995,0.0061408000000008,0.0005492000000001,0,sub_4
0.0075531999999997,0.0098278000000012,0.0091186,-0.0022645999999995,0.0078284000000008,0.0018234,0,sub_4
0.0093331999999997,0.0094360000000012,0.0095614,-0.0022649999999995,0.0075988000000008,0.0026758,0,sub_4
0.0103541999999997,0.0095072000000012,0.0094368,-0.0022777999999995,0.0048116000000008,0.0037448,0,sub_4
0.0113169999999997,0.0088840000000012,0.0094564,-0.0018653999999996,0.0022510000000008,0.0043918,0,sub_4
0.0113729999999997,0.0086040000000012,0.00937,-0.0010251999999996,-0.0005225999999991,0.004615,0,sub_4
0.0112955999999997,0.0092054000000012,0.009185,3.1000000000398764e-05,-0.0028697999999991,0.0046254000000001,0,sub_4
0.0105461999999997,0.0091498000000012,0.008574,0.0008778000000003,-0.004576199999999,0.0044198,0,sub_4
0.0104047999999997,0.0092164000000012,0.00862,0.0017318000000003,-0.005006599999999,0.003788,0,sub_4
0.0097761999999997,0.0099006000000012,0.0080334,0.0023736000000003,-0.005435399999999,0.002941,0,sub_4
0.0092611999999997,0.0109168000000012,0.0081268,0.0030182000000003,-0.005224999999999,0.0020932,0,sub_4
0.0091681999999997,0.0105836000000012,0.0083844,0.0034496000000003,-0.004801599999999,0.0014572,0,sub_4
0.0093647999999997,0.0107894000000012,0.0084184,0.0038780000000003,-0.0045929999999991,0.0012488,0,sub_4
0.0091697999999997,0.0108456000000012,0.0081964,0.0045192000000003,-0.0043819999999991,0.0012530000000001,0,sub_4
0.0090541999999997,0.0106028000000012,0.0084828,0.0047326000000003,-0.0039583999999991,0.0016814000000001,0,sub_4
0.0089855999999997,0.0100430000000012,0.0080162,0.0047490000000003,-0.0031189999999991,0.0016936,0,sub_4
0.0088687999999997,0.0098706000000012,0.007923,0.0045520000000003,-0.0022789999999991,0.0017044,0,sub_4
0.0088347999999997,0.0094460000000012,0.0078124,0.0041416000000003,-0.0014381999999991,0.0017136,0,sub_4
0.0091677999999997,0.0087994000000012,0.007825,0.0035188000000003,-0.0005957999999991,0.0015076,0,sub_4
0.0094187999999997,0.0081274000000012,0.0075948,0.0031056000000003,-0.0003939999999991,0.0015176,0,sub_4
0.0098575999999997,0.0077048000000012,0.0083532,0.0022492000000003,-0.0003935999999991,0.0021526000000001,0,sub_4
0.0102035999999997,0.0076354000000012,0.0086122,0.0011804000000003,-0.000603799999999,0.0023590000000001,0,sub_4
0.0104413999999997,0.0079114000000012,0.0090358,0.0005364000000003,-0.001029399999999,0.0027824000000001,0,sub_4
0.0100321999999997,0.0084308000000012,0.0091002,0.0001210000000003,-0.001675399999999,0.0027960000000001,0,sub_4
0.0104801999999997,0.0093596000000012,0.0096368,0.0003466000000003,-0.001898399999999,0.0030272000000001,0,sub_4
0.0097983999999997,0.0094750000000012,0.009425,0.0007876000000003,-0.002332599999999,0.0026192000000001,0,sub_4
0.0096563999999997,0.0090984000000011,0.0092664,0.0014430000000003,-0.002554599999999,0.0022124000000001,0,sub_4
0.0092825999999997,0.0088782000000011,0.008382,0.0014630000000003,-0.001921199999999,0.0015864000000001,0,sub_4
0.0098453999999997,0.0086300000000011,0.0080932,0.0012536000000003,-0.001068399999999,0.0015840000000001,0,sub_4
0.0093617999999997,0.0087558000000011,0.0078542,-2.1799999999601215e-05,-0.000635399999999,0.0009336000000001,0,sub_4
0.0092971999999997,0.0093852000000011,0.0083552,-0.0002313999999996,5.400000000909592e-06,0.0007176000000001,0,sub_4
0.0094991999999997,0.0095570000000012,0.0081618,-0.0002313999999996,0.0002176000000009,0.0009310000000001,0,sub_4
0.0097855999999997,0.0091542000000012,0.0083102,0.0004144000000003,-2.999999999090422e-06,0.0013770000000001,0,sub_4
0.0099383999999997,0.0092556000000012,0.0085856,0.0006362000000003,-7.199999999090443e-06,0.0013924000000001,0,sub_4
0.0103661999999997,0.0089104000000012,0.0086316,0.0014982000000003,-0.0002259999999991,0.0011988000000001,0,sub_4
0.0105119999999997,0.0080506000000012,0.007669,0.0017212000000003,-0.0002295999999991,0.0010006000000001,0,sub_4
0.0099987999999997,0.0079172000000012,0.0077548,0.0017306000000003,-0.0002321999999991,0.0008010000000001,0,sub_4
0.0095207999999997,0.0085366000000012,0.0077864,0.0015182000000003,-0.0002305999999991,0.0005858000000001,0,sub_4
0.0093465999999997,0.0086964000000012,0.0077138,0.0013048000000003,-0.0004421999999991,0.0003708000000001,0,sub_4
0.0086069999999997,0.0088760000000012,0.0078116,0.0013094000000003,-0.0002339999999991,0.0007994000000001,0,sub_4
