userAcceleration.x,userAcceleration.y,userAcceleration.z,rotationRate.x,rotationRate.y,rotationRate.z,label,subject
-0.0053282000000001,-0.0002863999999987,-0.0116377999999999,-0.0026689999999995,0.0025726000000009,-0.0035361999999999,0,sub_6
-0.0053450000000001,-0.0008801999999987,-0.0120071999999999,-0.0024475999999995,0.0025562000000009,-0.0033197999999999,0,sub_6
-0.0052868000000001,-0.0014051999999987,-0.0123889999999998,-0.0026547999999995,0.0025394000000009,-0.0026791999999999,0,sub_6
-0.0058870000000001,-0.0020031999999987,-0.0119689999999998,-0.0026595999999995,0.0027474000000009,-0.0013975999999999,0,sub_6
-0.0063098000000001,-0.0024647999999987,-0.0111463999999998,-0.0026613999999995,0.0031700000000009,-0.0005435999999999,0,sub_6
-0.0068900000000001,-0.0027243999999987,-0.0103533999999998,-0.0018137999999995,0.0027376000000009,0.0003174,0,sub_6
-0.0064134000000002,-0.0025297999999987,-0.0105077999999998,-0.0015995999999995,0.0016468000000009,0.0011712,0,sub_6
-0.0055946000000002,-0.0020915999999987,-0.0114331999999999,-0.0013777999999995,0.0020484000000009,0.0018094,0,sub_6
-0.0050920000000002,-0.0019233999999987,-0.0118691999999999,-0.0015817999999995,0.0020278000000009,0.0018042,0,sub_6
-0.0049050000000002,-0.0013653999999987,-0.0116053999999999,-0.0013617999999995,0.0013666000000009,0.0018028,0,sub_6
-0.0047378000000002,-0.0010667999999987,-0.0112707999999999,-0.0009273999999995,0.0007056000000009,0.0015894,0,sub_6
-0.0049430000000002,-0.0011295999999987,-0.0103269999999999,-0.0002891999999995,6.520000000094506e-05,0.001381,0,sub_6
-0.0051734000000002,-0.0009547999999987,-0.0095135999999999,0.0007768000000004,-0.001212599999999,0.0003218,0,sub_6
-0.0047498000000002,-0.0012689999999987,-0.0091443999999999,0.0018438000000004,-0.001852799999999,-0.0003107999999999,0,sub_6
-0.0044248000000002,-0.0022527999999987,-0.0099441999999999,0.0027024000000003,-0.002303199999999,-9.21999999999216e-05,0,sub_6
-0.0038860000000002,-0.0026157999999987,-0.0102847999999999,0.0031344000000003,-0.002752399999999,0.0001234,0,sub_6
-0.0035528000000002,-0.0028273999999987,-0.0108135999999999,0.0029292000000004,-0.002984599999999,-9.29999999999216e-05,0,sub_6
-0.0038414000000002,-0.0030409999999987,-0.0106169999999999,0.0022962000000004,-0.003215999999999,-9.85999999999216e-05,0,sub_6
-0.0047174000000002,-0.0031131999999987,-0.0104223999999999,0.0018794000000004,-0.0034455999999989,-0.0007437999999999,0,sub_6
-0.0055090000000002,-0.0026459999999987,-0.0100705999999999,0.0014536000000004,-0.003655399999999,-0.0011737999999999,0,sub_6
-0.0064572000000002,-0.0025055999999987,-0.0101591999999999,0.0012412000000004,-0.003441599999999,-0.0011755999999999,0,sub_6
-0.0068638000000002,-0.0022683999999987,-0.0104089999999999,0.0010358000000003,-0.003460399999999,-0.0011787999999999,0,sub_6
-0.0070374000000002,-0.0018891999999987,-0.0108041999999999,0.0008332000000003,-0.002839999999999,-0.0011827999999999,0,sub_6
-0.0068868000000002,-0.0013457999999987,-0.0108407999999999,0.0002002000000003,-0.002858199999999,-0.0009751999999999,0,sub_6
-0.0066554000000002,-0.0009783999999987,-0.0105923999999999,-4.199999999601484e-06,-0.002876199999999,-0.0011919999999999,0,sub_6
-0.0056076000000002,-0.0009881999999987,-0.0105731999999999,-0.0004219999999996,-0.003105599999999,-0.0016235999999999,0,sub_6
-0.0048614000000002,-0.0015761999999987,-0.0103407999999998,-0.0004201999999995,-0.002679399999999,-0.0016241999999999,0,sub_6
-0.0045006000000002,-0.0019329999999987,-0.0091743999999998,-0.0002047999999995,-0.002253999999999,-0.0016231999999999,0,sub_6
-0.0040974000000002,-0.0022431999999987,-0.0087975999999998,0.0008610000000003,-0.002046399999999,-0.0011887999999999,0,sub_6
-0.0034052000000002,-0.0024187999999987,-0.0094329999999998,0.0008686000000003,-0.002492999999999,-0.0011839999999999,0,sub_6
-0.0036424000000002,-0.0016241999999987,-0.0091621999999998,0.0006646000000003,-0.002512599999999,-0.0011813999999999,0,sub_6
-0.0046432000000002,-0.0007569999999987,-0.0089635999999999,0.0002454000000003,-0.002745599999999,-0.0009661999999999,0,sub_6
-0.0058328000000002,-0.0005793999999987,-0.0100681999999999,-0.0001795999999996,-0.004044599999999,-0.0005361999999999,0,sub_6
-0.0063816000000002,-0.0001671999999987,-0.0104721999999999,-0.0005967999999996,-0.004275799999999,-0.0007483999999999,0,sub_6
-0.0071556000000002,-0.0004841999999987,-0.0107411999999999,-0.0005929999999996,-0.003635799999999,-0.0009627999999999,0,sub_6
-0.0077292000000002,-0.0013473999999987,-0.0111475999999999,-0.0003757999999996,-0.003420999999999,-0.0016023999999999,0,sub_6
-0.0071832000000001,-0.0018037999999987,-0.0117253999999999,-0.0003709999999996,-0.003416599999999,-0.0026705999999999,0,sub_6
-0.0069544000000001,-0.0020195999999987,-0.0111517999999999,-0.0003567999999996,-0.003222799999999,-0.0030927999999999,0,sub_6
-0.0067742000000001,-0.0023311999999987,-0.0118049999999998,-0.0005665999999995,-0.004310599999999,-0.0024465999999999,0,sub_6
-0.0061090000000001,-0.0022387999999987,-0.0121125999999998,-0.0007723999999995,-0.004970799999999,-0.0022283999999999,0,sub_6
-0.0056542000000001,-0.0019185999999987,-0.0113045999999998,-0.0018231999999995,-0.004559199999999,-0.0028719999999999,0,sub_6
-0.0062032000000002,-0.0019973999999987,-0.0098981999999998,-0.0032957999999995,-0.003293199999999,-0.0037331999999999,0,sub_6
-0.0057250000000002,-0.0024445999999987,-0.0095701999999998,-0.0030737999999995,-0.002437399999999,-0.0048007999999999,0,sub_6
-0.0056880000000002,-0.0019437999999987,-0.0089447999999998,-0.0022097999999996,-0.001157799999999,-0.0058645999999999,0,sub_6
-0.0062412000000002,-0.0018405999999987,-0.0078025999999998,-0.0022117999999996,-0.000734999999999,-0.0050103999999999,0,sub_6
-0.0061092000000002,-0.0018365999999987,-0.0086731999999998,-0.0017945999999996,-0.000320599999999,-0.0024441999999999,0,sub_6
-0.0062624000000002,-0.0010317999999987,-0.0096235999999998,-0.0013769999999995,-0.000988199999999,0.0007648,0,sub_6
-0.0063520000000001,0.0001160000000012,-0.0097563999999999,-0.0020195999999995,-0.001009599999999,0.0031108,0,sub_6
-0.0070004000000001,6.840000000122077e-05,-0.0096295999999999,-0.0024439999999995,-0.000815399999999,0.0046036,0,sub_6
-0.0067792000000001,-0.0004713999999987,-0.0105125999999999,-0.0013565999999995,0.0008752000000009,0.0035412,0,sub_6
-0.0065688000000001,-0.0012537999999987,-0.0100155999999999,0.0005900000000004,0.0023558000000009,0.0009896,0,sub_6
-0.0061238000000001,-0.0022001999999987,-0.0092607999999999,0.0023180000000004,0.0042784000000009,-0.0017781999999999,0,sub_6
-0.0062860000000001,-0.0035183999999987,-0.0088759999999999,0.0036078000000004,0.0049190000000009,-0.0032655999999999,0,sub_6
-0.0056480000000001,-0.0041233999999987,-0.0092139999999999,0.0038240000000004,0.0044932000000009,-0.0039033999999999,0,sub_6
-0.0059612000000002,-0.0033765999999987,-0.0098421999999999,0.0029610000000004,0.0029990000000009,-0.0028381999999999,0,sub_6
-0.0071714000000002,-0.0026629999999987,-0.0115217999999998,0.0005986000000004,0.0015048000000009,-0.0005015999999999,0,sub_6
-0.0079330000000001,-0.0016855999999987,-0.0128059999999998,-0.0011169999999995,0.0008630000000009,0.0011974,0,sub_6
-0.0087746000000001,-0.0002681999999987,-0.0136413999999998,-0.0023943999999995,0.0017156000000009,0.0018294,0,sub_6
-0.0096214000000001,0.0010076000000012,-0.0130327999999998,-0.0026019999999995,0.0029946000000009,0.0018262,0,sub_6
-0.0096832000000001,0.0017500000000012,-0.0120283999999998,-0.0011073999999996,0.0029902000000009,0.001623,0,sub_6
-0.0085252000000001,0.0021068000000012,-0.0101609999999999,0.0010226000000003,0.0021306000000009,0.001639,0,sub_6
-0.0070172000000001,0.0022316000000012,-0.0093493999999999,0.0027122000000003,-0.000855599999999,0.002512,0,sub_6
-0.0043378000000001,0.0014420000000012,-0.0085337999999999,0.0046086000000003,-0.004697399999999,0.0040286,0,sub_6
-0.0017670000000001,-0.0006987999999987,-0.0082501999999998,0.0058754000000003,-0.006617799999999,0.005111,0,sub_6
-0.0002588000000001,-0.0033691999999987,-0.0086685999999998,0.0048102000000003,-0.006606599999999,0.004679,0,sub_6
0.0004357999999998,-0.0054727999999987,-0.0099909999999998,0.0035452000000003,-0.005097399999999,0.0027482,0,sub_6
0.0001057999999997,-0.0071001999999987,-0.0102517999999998,0.0014402000000003,-0.001456999999999,-4.8399999999901125e-05,0,sub_6
-0.0014266000000002,-0.0065741999999987,-0.0115137999999998,-0.0019469999999996,0.0021862000000009,-0.0024267999999998,0,sub_6
-0.0032096000000001,-0.0043303999999987,-0.0116685999999998,-0.0036415999999996,0.0036886000000009,-0.0037223999999998,0,sub_6
-0.0042058000000001,-0.0019557999999987,-0.0106899999999998,-0.0034265999999995,0.0037006000000009,-0.0039285999999999,0,sub_6
-0.0060056000000001,-0.0005585999999987,-0.0106029999999998,-0.0032241999999995,0.0017918000000009,-0.0032779999999999,0,sub_6
-0.0078706000000001,0.0002856000000012,-0.0118201999999999,-0.0030263999999995,-0.000545799999999,-0.0019859999999999,0,sub_6
-0.0096748000000001,-0.0003061999999987,-0.0119821999999999,-0.0021799999999995,-0.001392599999999,-0.0011185999999999,0,sub_6
-0.0101810000000001,-0.0011547999999987,-0.0134733999999999,-0.0021841999999995,-0.002233799999999,-0.0008979999999999,0,sub_6
-0.0110138000000001,-0.0014833999999987,-0.0147509999999999,-0.0026137999999995,-0.002234799999999,-0.0002601999999999,0,sub_6
-0.0110748000000001,-0.0011829999999987,-0.0132891999999999,-0.0034673999999995,-0.000534199999999,0.0014408,0,sub_6
-0.0084958000000001,-0.0009127999999987,-0.0121939999999999,-0.0030435999999995,0.0007350000000009,0.003365,0,sub_6
-0.0051492000000002,-0.0002473999999987,-0.0114935999999999,-0.0028273999999995,0.0007458000000009,0.0038024,0,sub_6
-0.0030306000000002,-2.399999999873913e-05,-0.0102813999999999,-0.0038855999999995,0.0018272000000009,0.0040158,0,sub_6
-0.0021656000000002,-0.0005889999999987,-0.0090379999999999,-0.0053743999999995,0.0024822000000009,0.0046542,0,sub_6
-0.0009986000000002,-0.0012709999999987,-0.0095423999999998,-0.0047379999999995,0.0005756000000009,0.0046698,0,sub_6
-0.0011328000000002,-0.0019993999999987,-0.0100595999999998,-0.0034653999999995,-0.002185399999999,0.0046908,0,sub_6
-0.0013904000000002,-0.0031217999999987,-0.0097603999999998,-0.0028309999999995,-0.002617199999999,0.0055504,0,sub_6
-0.0028568000000002,-0.0038321999999987,-0.0094807999999998,-0.0024023999999995,-0.001980399999999,0.0057662,0,sub_6
-0.0039518000000002,-0.0039157999999987,-0.0093241999999998,-0.0015459999999995,-0.001980799999999,0.0051312,0,sub_6
-0.0044070000000002,-0.0029715999999987,-0.0108403999999998,-0.0019657999999995,-0.001545399999999,0.0042782,0,sub_6
-0.0051370000000002,-0.0019411999999987,-0.0114637999999998,-0.0034419999999995,0.0006008000000009,0.0027748,0,sub_6
-0.0067526000000002,-0.0005343999999987,-0.0125055999999998,-0.0038577999999995,0.0010396000000009,0.0010672,0,sub_6
-0.0075384000000002,0.0003756000000012,-0.0124153999999998,-0.0030019999999995,0.0006176000000009,0.000438,0,sub_6
-0.0072348000000001,0.0014104000000012,-0.0120747999999999,-0.0012947999999995,0.0001908000000009,0.000242,0,sub_6
-0.0074456000000001,0.0008392000000012,-0.0101883999999999,0.0012676000000004,-2.859999999907468e-05,-0.0003805999999999,0,sub_6
-0.0062638000000001,-0.0001505999999987,-0.0094449999999999,0.0027622000000004,-0.000669599999999,-0.0012239999999999,0,sub_6
-0.0050906000000001,-0.0012973999999987,-0.0086495999999999,0.0027632000000004,-0.000880799999999,-0.0016509999999999,0,sub_6
-0.0038276000000001,-0.0023085999999987,-0.0084519999999999,0.0023352000000004,-0.001301399999999,-0.0020819999999999,0,sub_6
-0.0032868000000001,-0.0032009999999987,-0.0090755999999999,0.0012690000000004,-0.001293399999999,-0.0025177999999999,0,sub_6
-0.0029194000000002,-0.0031635999999987,-0.0095105999999999,-0.0002267999999995,-0.001074399999999,-0.0021023999999999,0,sub_6
-0.0043630000000002,-0.0025525999999987,-0.0093439999999999,-0.0006605999999995,-0.001499999999999,-0.0012513999999999,0,sub_6
-0.0056546000000002,-0.0025113999999987,-0.0099409999999999,-0.0004563999999995,-0.002141799999999,-0.0001819999999999,0,sub_6
-0.0066568000000002,-0.0023823999999987,-0.0108799999999998,-0.0006775999999995,-0.003208799999999,0.0004588,0,sub_6
-0.0070582000000002,-0.0019871999999987,-0.0114727999999998,-0.0006823999999995,-0.003849799999999,0.0008868,0,sub_6
-0.0076366000000002,-0.0014057999999987,-0.0121347999999998,-0.0006757999999995,-0.003207199999999,3.140000000007876e-05,0,sub_6
-0.0075012000000002,-0.0011789999999987,-0.0119529999999998,-2.779999999958163e-05,-0.001924399999999,-0.0008209999999999,0,sub_6
-0.0069714000000002,-0.0009749999999987,-0.0115103999999998,0.0006184000000004,-0.001279999999999,-0.0018861999999999,0,sub_6
-0.0060528000000002,-0.0013529999999987,-0.0109305999999999,0.0014750000000003,-0.000426799999999,-0.0020955999999999,0,sub_6
-0.0053926000000002,-0.0020629999999987,-0.0102825999999999,0.0021142000000003,-0.000212799999999,-0.0020919999999999,0,sub_6
-0.0040942000000001,-0.0029581999999987,-0.0096795999999999,0.0018972000000003,-0.000422799999999,-0.0018803999999999,0,sub_6
-0.0034178000000001,-0.0035935999999987,-0.0094139999999999,0.0008256000000003,-0.000635599999999,-0.0010329999999999,0,sub_6
-0.0033180000000001,-0.0030131999999987,-0.0093077999999999,0.0001786000000003,-0.001063799999999,3.120000000007873e-05,0,sub_6
-0.0041456000000001,-0.0020965999999987,-0.0098119999999999,-0.0011043999999996,-0.001061799999999,0.0006632,0,sub_6
-0.0047232000000001,-0.0017183999999987,-0.0106317999999998,-0.0021701999999995,-0.000632799999999,0.0008688,0,sub_6
-0.0056598000000001,-0.0012675999999987,-0.0108815999999998,-0.0023791999999995,-0.000843799999999,0.0010782,0,sub_6
-0.0066366000000002,-0.0012677999999987,-0.0111303999999998,-0.0013031999999995,-0.000842799999999,0.0004416,0,sub_6
-0.0068040000000002,-0.0019177999999987,-0.0110223999999998,-8.799999999581798e-06,1.0400000000985056e-05,-0.0004079999999999,0,sub_6
-0.0067164000000002,-0.0021183999999987,-0.0110031999999998,0.0010692000000003,0.0002252000000009,-0.0012583999999999,0,sub_6
-0.0071342000000002,-0.0012679999999987,-0.0101159999999999,0.0010774000000003,0.0010778000000009,-0.0008351999999999,0,sub_6
-0.0060754000000002,-0.0009973999999987,-0.0103703999999999,0.0008602000000003,0.0014996000000009,0.0004446,0,sub_6
-0.0049146000000002,-0.0007429999999987,-0.0107543999999999,-0.0004237999999995,0.0012884000000009,0.001077,0,sub_6
-0.0051798000000002,-0.0004931999999987,-0.0100683999999998,-0.0021185999999995,0.0017184000000009,0.001053,0,sub_6
-0.0055142000000002,-0.0009481999999987,-0.0093905999999998,-0.0033857999999995,0.0023600000000009,0.0010318,0,sub_6
-0.0050854000000002,-0.0020013999999987,-0.0100355999999998,-0.0033755999999995,0.0017214000000009,0.0003802,0,sub_6
-0.0047846000000002,-0.0025839999999987,-0.0096241999999998,-0.0037833999999995,0.0017284000000009,-0.0015567999999999,0,sub_6
-0.0046664000000002,-0.0026127999999987,-0.0094427999999998,-0.0044075999999995,0.0017336000000009,-0.0028545999999999,0,sub_6
-0.0042146000000002,-0.0022585999999987,-0.0101875999999998,-0.0052659999999995,-0.000177399999999,-0.0037125999999999,0,sub_6
-0.0040794000000002,-0.0018949999999987,-0.0099965999999998,-0.0046277999999995,-0.001878999999999,-0.0049877999999999,0,sub_6
-0.0048164000000002,-0.0015247999999987,-0.0099585999999998,-0.0037685999999995,-0.001452599999999,-0.0058367999999999,0,sub_6
-0.0064152000000002,-0.0006627999999987,-0.0111133999999998,-0.0027027999999996,-0.000608399999999,-0.0047621999999999,0,sub_6
-0.0070926000000002,-0.0007611999999987,-0.0120111999999998,-0.0016365999999995,0.0002332000000009,-0.0024123999999999,0,sub_6
-0.0080364000000002,-0.0016579999999987,-0.0116937999999998,-0.0007809999999995,0.0017146000000009,-6.499999999994133e-05,0,sub_6
-0.0080256000000002,-0.0020981999999987,-0.0116491999999998,-0.0016381999999995,0.0025602000000009,0.0029122,0,sub_6
-0.0073884000000002,-0.0025903999999987,-0.0111829999999998,-0.0039945999999995,0.0014962000000009,0.0052404,0,sub_6
-0.0063066000000002,-0.0029009999999987,-0.0103551999999998,-0.0052725999999995,0.0010752000000009,0.0056524,0,sub_6
-0.0057526000000002,-0.0031151999999987,-0.0091657999999998,-0.0054763999999995,0.0012966000000009,0.0037278,0,sub_6
-0.0037372000000002,-0.0025195999999987,-0.0092723999999998,-0.0050361999999995,0.0025802000000009,0.00202,0,sub_6
-0.0024572000000002,-0.0021865999999987,-0.0091005999999999,-0.0028809999999995,0.0040778000000009,-0.0001065999999999,0,sub_6
-0.0017316000000002,-0.0018585999999987,-0.0092365999999999,-9.059999999956168e-05,0.0047200000000009,-0.0020139999999999,0,sub_6
-0.0021000000000002,-0.0019701999999987,-0.0094681999999999,0.0007728000000004,0.0047264000000009,-0.0030793999999999,0,sub_6
-0.0034956000000002,-0.0014713999999987,-0.0104429999999999,0.0005606000000004,0.0047290000000009,-0.0022295999999999,0,sub_6
-0.0056736000000002,-0.0017325999999987,-0.0113787999999999,0.0001256000000004,0.0030260000000009,-0.0009517999999999,0,sub_6
-0.0070556000000001,-0.0014935999999987,-0.0130959999999999,-0.0016015999999995,4.3200000000945085e-05,0.0005356,0,sub_6
-0.0083640000000001,-0.0021617999999987,-0.0138033999999999,-0.0035323999999995,-0.001444799999999,0.0013786,0,sub_6
-0.0087412000000001,-0.0026293999999987,-0.0137457999999999,-0.0043897999999995,-0.001869599999999,0.0018004,0,sub_6
-0.0075604000000001,-0.0025645999999987,-0.0128731999999998,-0.0037473999999995,-0.002292599999999,0.0015908,0,sub_6
-0.0055622000000001,-0.0026961999999987,-0.0114979999999998,-0.0028839999999995,-0.001223999999999,0.0011672,0,sub_6
-0.0046554000000001,-0.0028095999999987,-0.0099653999999998,-0.0013707999999995,0.0015486000000009,0.0003184,0,sub_6
-0.0037222000000001,-0.0013755999999987,-0.0087517999999998,-7.499999999958152e-05,0.0038940000000009,-0.0001039999999999,0,sub_6
-0.0040784000000001,-0.0005775999999987,-0.0082073999999998,0.0007780000000004,0.0036800000000009,0.0005422,0,sub_6
-0.0049562000000001,-0.0005441999999987,-0.0081119999999999,0.0011980000000004,0.0028238000000009,0.0011872,0,sub_6
-0.0058932000000001,-0.0008351999999987,-0.0092557999999999,0.0016200000000004,0.0017572000000009,0.0011914,0,sub_6
-0.0065088000000001,-0.0012737999999987,-0.0103491999999999,0.0005474000000004,0.0006948000000009,0.001399,0,sub_6
-0.0066620000000001,-0.0020007999999987,-0.0109931999999999,-9.679999999958148e-05,-0.001007999999999,0.0018238,0,sub_6
-0.0067400000000001,-0.0027117999999987,-0.0108705999999999,0.0005486000000003,-0.001645599999999,0.001188,0,sub_6
-0.0060426000000001,-0.0037321999999987,-0.0115861999999999,0.0007674000000003,-0.001857399999999,0.000976,0,sub_6
-0.0056928000000001,-0.0038223999999987,-0.0116379999999999,0.0003508000000003,-0.001213999999999,0.0005448,0,sub_6
-0.0053762000000002,-0.0033935999999987,-0.0112557999999999,0.0007906000000003,6.560000000094528e-05,0.0001188,0,sub_6
-0.0053980000000001,-0.0028317999999987,-0.0108809999999999,0.0008002000000003,0.0019840000000009,-9.719999999992148e-05,0,sub_6
-0.0047236000000001,-0.0024043999999987,-0.0108833999999999,0.0008108000000003,0.0043274000000009,-9.999999999992148e-05,0,sub_6
-0.0046804000000001,-0.0014619999999987,-0.0106579999999999,0.0008136000000004,0.0045420000000009,-0.0005275999999999,0,sub_6
-0.0048800000000001,-0.0002735999999987,-0.0103987999999999,0.0005916000000004,0.0028374000000009,-0.0003131999999999,0,sub_6
-0.0048742000000001,-0.0005127999999987,-0.0110029999999999,-0.0006887999999995,0.0009216000000009,0.0003276,0,sub_6
-0.0044108000000001,-0.0009749999999987,-0.0108497999999999,-0.0023873999999995,0.0005004000000009,0.0005362,0,sub_6
-0.0042144000000001,-0.0014205999999987,-0.0107587999999999,-0.0038773999999995,-0.000774599999999,0.000961,0,sub_6
-0.0045752000000002,-0.0022051999999987,-0.0098929999999999,-0.0051501999999995,-0.000773599999999,0.001813,0,sub_6
-0.0050036000000002,-0.0030059999999987,-0.0098357999999998,-0.0055609999999995,0.0009296000000009,0.0024552,0,sub_6
-0.0052230000000002,-0.0027927999999987,-0.0094545999999998,-0.0049179999999995,0.0017788000000009,0.0026722,0,sub_6
-0.0056562000000002,-0.0023981999999987,-0.0099443999999998,-0.0029937999999995,0.0019876000000009,0.0020446,0,sub_6
-0.0060944000000002,-0.0015931999999987,-0.0105455999999998,-0.0016959999999995,0.0024064000000009,0.0014134,0,sub_6
-0.0066492000000002,-0.0011685999999987,-0.0109549999999998,-0.0006065999999995,0.0036788000000009,0.0005662,0,sub_6
-0.0069830000000002,-0.0011647999999987,-0.0109317999999999,0.0002646000000004,0.0036746000000009,-0.0004947999999999,0,sub_6
-0.0074626000000002,-0.0013131999999987,-0.0105513999999998,0.0011338000000004,0.0036686000000009,-0.0011283999999999,0,sub_6
-0.0077664000000002,-0.0018779999999987,-0.0104067999999998,0.0009236000000004,0.0023822000000009,-0.0002723999999999,0,sub_6
-0.0078348000000002,-0.0028371999999987,-0.0101457999999998,0.0004834000000004,0.0008864000000009,0.001222,0,sub_6
-0.0070794000000002,-0.0029777999999987,-0.0105637999999998,-0.0005949999999995,-0.000817599999999,0.0020712,0,sub_6
-0.0064990000000002,-0.0035443999999987,-0.0104465999999998,-0.0018819999999995,-0.001243399999999,0.003131,0,sub_6
-0.0055986000000002,-0.0040681999999987,-0.0105291999999998,-0.0027189999999995,-0.001032199999999,0.002485,0,sub_6
-0.0053598000000002,-0.0040713999999987,-0.0102389999999998,-0.0026985999999995,-0.001032799999999,0.000777,0,sub_6
-0.0052074000000002,-0.0039831999999987,-0.0098431999999999,-0.0018255999999995,-0.001461599999999,-0.0011379999999999,0,sub_6
-0.0050684000000002,-0.0039255999999987,-0.0099495999999998,-0.0001029999999995,-0.002533399999999,-0.0028327999999999,0,sub_6
-0.0041444000000002,-0.0033193999999987,-0.0107925999999998,0.0014102000000004,-0.002752199999999,-0.0045299999999999,0,sub_6
-0.0040848000000002,-0.0026399999999987,-0.0098521999999998,0.0020466000000004,-0.003606599999999,-0.0045243999999999,0,sub_6
-0.0036542000000001,-0.0023545999999987,-0.0092809999999998,0.0022534000000004,-0.003825399999999,-0.0032407999999999,0,sub_6
-0.0036494000000001,-0.0018907999999987,-0.0092223999999998,0.0014008000000004,-0.002972799999999,-0.0026069999999999,0,sub_6
-0.0044534000000001,-0.0016833999999987,-0.0090471999999999,0.0001294000000004,-0.001489399999999,-0.0013383999999999,0,sub_6
-0.0055058000000001,-0.0015593999999987,-0.0089679999999999,0.0003410000000004,-0.001930399999999,0.0003702,0,sub_6
-0.0059880000000001,-0.0010337999999987,-0.0109167999999999,0.0005574000000004,-0.001518199999999,0.0018642,0,sub_6
-0.0073496000000002,-0.0011035999999987,-0.0124669999999999,0.0005604000000004,-0.001741999999999,0.0027166,0,sub_6
-0.0089690000000001,-0.0011213999999987,-0.0131873999999999,0.0003550000000004,-0.000899799999999,0.003566,0,sub_6
-0.0086862000000001,-0.0018257999999987,-0.0137451999999998,0.0003502000000004,-0.001540599999999,0.003994,0,sub_6
-0.0077486000000001,-0.0025455999999987,-0.0139187999999998,-0.0002907999999995,-0.001751599999999,0.0039898,0,sub_6
-0.0066098000000001,-0.0040715999999987,-0.0136313999999998,-0.0002907999999995,-0.002176199999999,0.003563,0,sub_6
-0.0046266000000001,-0.0044203999999987,-0.0120213999999998,-0.0004883999999995,-0.001113599999999,0.0022758,0,sub_6
-0.0024284000000001,-0.0041917999999987,-0.0106233999999998,-0.0013279999999995,-0.000262599999999,0.0011982,0,sub_6
-0.0020124000000002,-0.0031283999999987,-0.0093273999999998,-0.0021617999999995,0.0016544000000009,-9.439999999990131e-05,0,sub_6
-0.0025768000000002,-0.0023205999999987,-0.0077845999999998,-0.0023603999999995,0.0027164000000009,-0.0011677999999999,0,sub_6
-0.0037430000000002,-0.0009783999999987,-0.0071903999999998,-0.0023445999999995,0.0037784000000009,-0.0024533999999999,0,sub_6
-0.0046832000000001,0.0001944000000012,-0.0087215999999998,-0.0014909999999996,0.0035632000000009,-0.0026607999999999,0,sub_6
-0.0058298000000001,0.0002278000000012,-0.0103583999999998,0.0004198000000003,0.0016382000000009,-0.0024313999999999,0,sub_6
-0.0065982000000001,-0.0008735999999987,-0.0115337999999998,0.0016886000000003,-0.000286199999999,-0.0017789999999999,0,sub_6
-0.0071130000000001,-0.0017641999999987,-0.0130329999999998,0.0014820000000003,-0.000298199999999,-0.0011439999999999,0,sub_6
-0.0077202000000001,-0.0033643999999987,-0.0129611999999998,0.0008456000000003,-0.000523399999999,-8.459999999992142e-05,0,sub_6
-0.0076114000000001,-0.0049313999999987,-0.0126961999999998,0.0002102000000004,-0.000747599999999,0.0007614,0,sub_6
