userAcceleration.x,userAcceleration.y,userAcceleration.z,rotationRate.x,rotationRate.y,rotationRate.z,label,subject
-0.0012502000000001,0.0113582000000012,-0.0066267999999999,0.0011322000000003,0.0033666000000009,-0.0040655999999998,0,sub_16
-0.0018296000000001,0.0110236000000012,-0.0071917999999999,0.0022096000000003,0.0029478000000009,-0.0068349999999998,0,sub_16
-0.0028366000000001,0.0096202000000012,-0.0081027999999999,0.0028506000000003,0.0016732000000009,-0.0083243999999998,0,sub_16
-0.0040292000000001,0.0079062000000012,-0.0086763999999999,0.0030610000000003,0.0003966000000009,-0.0089621999999998,0,sub_16
-0.0045074000000001,0.0054674000000012,-0.0094405999999999,0.0026222000000003,-0.000645599999999,-0.0089579999999998,0,sub_16
-0.0049694000000001,0.0027928000000012,-0.0098173999999998,0.0028246000000003,-0.000628199999999,-0.0080959999999998,0,sub_16
-0.0048222000000001,0.0006230000000012,-0.0098061999999998,0.0023840000000003,-0.000186599999999,-0.0061707999999998,0,sub_16
-0.0042050000000001,-0.0008709999999987,-0.0095043999999998,0.0015146000000003,4.240000000093424e-05,-0.0040347999999998,0,sub_16
-0.0036076000000001,-0.0021877999999987,-0.0092449999999998,0.0010710000000003,5.70000000009343e-05,-0.0018953999999998,0,sub_16
-0.0031860000000001,-0.0021645999999987,-0.0087035999999998,0.0002022000000003,-0.000590199999999,0.0008768000000001,0,sub_16
-0.0016446000000001,-0.0014583999999987,-0.0079423999999999,-0.0013115999999996,-0.002088399999999,0.0038590000000001,0,sub_16
-0.0006906000000001,-0.0007505999999987,-0.0075413999999999,-0.0021851999999996,-0.003800999999999,0.0066324000000001,0,sub_16
0.0001577999999998,0.0003622000000012,-0.0068721999999999,-0.0017789999999996,-0.004437399999999,0.0092192000000001,0,sub_16
0.0007223999999998,0.0020886000000012,-0.0061041999999999,-0.0022203999999996,-0.004004799999999,0.0115850000000001,0,sub_16
0.0010879999999998,0.0035000000000012,-0.0053699999999999,-0.0020141999999996,-0.002718799999999,0.0130996000000001,0,sub_16
0.0011677999999998,0.0049736000000012,-0.0054257999999999,-0.0020107999999996,-0.000149399999999,0.0135430000000001,0,sub_16
0.0018839999999998,0.0062210000000012,-0.0047377999999999,-0.0022149999999996,0.0028502000000009,0.0131298000000001,0,sub_16
0.0018383999999998,0.0075688000000012,-0.0048895999999999,-0.0022005999999995,0.0051972000000009,0.0122724000000001,0,sub_16
0.0018125999999998,0.0085118000000012,-0.0047357999999998,-0.0028273999999996,0.0069090000000009,0.0109840000000001,0,sub_16
0.0015197999999998,0.0099482000000012,-0.0050813999999998,-0.0038817999999996,0.0077726000000009,0.0090528000000001,0,sub_16
0.0004089999999998,0.0099760000000012,-0.0057235999999998,-0.0038773999999996,0.0078038000000009,0.0062950000000001,0,sub_16
-0.0009976000000001,0.0099708000000012,-0.0065947999999998,-0.0038711999999996,0.0084732000000009,0.0037500000000001,0,sub_16
-0.0016514000000001,0.0090712000000012,-0.0073391999999998,-0.0051441999999996,0.0093600000000009,0.0011956000000001,0,sub_16
-0.0028252000000001,0.0073910000000012,-0.0083193999999999,-0.0057797999999996,0.0102422000000009,-0.0007133999999998,0,sub_16
-0.0028986000000001,0.0058806000000012,-0.0087949999999999,-0.0055599999999996,0.0117596000000009,-0.0024035999999998,0,sub_16
-0.0031174000000001,0.0045354000000012,-0.0088203999999998,-0.0055513999999996,0.0134648000000009,-0.0026193999999998,0,sub_16
-0.0034890000000001,0.0031510000000012,-0.0090925999999998,-0.0049111999999996,0.0132504000000009,-0.0028283999999998,0,sub_16
-0.0039402000000001,0.0019870000000012,-0.0094307999999998,-0.0038481999999996,0.0123946000000009,-0.0028197999999998,0,sub_16
-0.0034424000000001,0.0017326000000012,-0.0096879999999998,-0.0027965999999996,0.0104894000000008,-0.0021653999999998,0,sub_16
-0.0032140000000001,0.0013708000000011,-0.0097639999999998,-0.0023925999999995,0.0075188000000008,-0.0008729999999998,0,sub_16
-0.0026800000000001,0.0016198000000012,-0.0100695999999998,-0.0021999999999995,0.0049750000000008,0.0004172000000001,0,sub_16
-0.0017036000000001,0.0020472000000012,-0.0099313999999998,-0.0022169999999995,0.0037086000000009,0.0021316000000001,0,sub_16
-0.0010544000000001,0.0028180000000012,-0.0090079999999998,-0.0015947999999996,0.0024390000000008,0.0040640000000001,0,sub_16
-0.0006880000000001,0.0032328000000012,-0.0083379999999998,-0.0005373999999996,0.0020024000000009,0.0057812000000001,0,sub_16
-0.0001066000000001,0.0033828000000012,-0.0077729999999998,-0.0001153999999996,0.0024210000000009,0.0072790000000001,0,sub_16
0.0001063999999998,0.0035030000000012,-0.0065487999999999,-0.0003345999999996,0.0022044000000009,0.0083460000000001,0,sub_16
0.0001331999999998,0.0042962000000012,-0.0052337999999999,-0.0009873999999996,0.0017860000000009,0.0094208000000001,0,sub_16
0.0003445999999998,0.0049822000000012,-0.0044997999999999,-0.0029135999999996,0.0024390000000009,0.0100580000000001,0,sub_16
0.0009745999999998,0.0056874000000012,-0.0045323999999999,-0.0048311999999996,0.0039484000000009,0.0096258000000001,0,sub_16
0.0006927999999997,0.0063372000000012,-0.0044525999999999,-0.0056781999999996,0.0058820000000009,0.0087734000000001,0,sub_16
0.0007251999999997,0.0073660000000012,-0.0051177999999998,-0.0058839999999996,0.0080264000000009,0.0079252000000001,0,sub_16
0.0008685999999997,0.0077298000000012,-0.0069237999999998,-0.0065125999999996,0.0095242000000009,0.0068506000000001,0,sub_16
5.619999999980042e-05,0.0076750000000012,-0.0082099999999998,-0.0065049999999996,0.0099554000000009,0.0055682000000001,0,sub_16
-0.0010752000000001,0.0075310000000012,-0.0090747999999998,-0.0065031999999996,0.0093206000000009,0.0045008000000001,0,sub_16
-0.0015616000000001,0.0068796000000012,-0.0100341999999998,-0.0062969999999996,0.0080534000000009,0.0038674000000001,0,sub_16
-0.0022662000000001,0.0057796000000012,-0.0108091999999999,-0.0063061999999996,0.0067852000000009,0.0036596000000001,0,sub_16
-0.0032088000000001,0.0049104000000012,-0.0106305999999999,-0.0054627999999996,0.0050888000000009,0.0032448000000001,0,sub_16
-0.0036338000000001,0.0040466000000012,-0.0108359999999999,-0.0041877999999996,0.0042440000000009,0.0026184000000001,0,sub_16
-0.0040178000000001,0.0030714000000012,-0.0106399999999998,-0.0024851999999996,0.0038230000000009,0.0022080000000001,0,sub_16
-0.0036556000000001,0.0019630000000012,-0.0100443999999998,-0.0012049999999996,0.0036062000000009,0.0020036000000001,0,sub_16
-0.0035374000000001,0.0009172000000012,-0.0090225999999998,-0.0005657999999996,0.0029666000000009,0.0015816000000001,0,sub_16
-0.0031626000000001,-0.0002623999999987,-0.0082643999999998,-0.0001447999999996,0.0025356000000009,0.0024398000000001,0,sub_16
-0.0023006000000001,0.0010012000000012,-0.0072299999999998,-0.0012189999999996,0.0014664000000009,0.0039106000000001,0,sub_16
-0.0007552000000001,0.0028472000000012,-0.0055749999999998,-0.0029321999999996,0.0004004000000009,0.0051634000000001,0,sub_16
-0.0002570000000001,0.0054246000000012,-0.0043775999999998,-0.0044245999999996,0.0001892000000009,0.0055620000000001,0,sub_16
0.0005313999999998,0.0073176000000012,-0.0042331999999998,-0.0046279999999995,0.0014666000000009,0.0055406000000001,0,sub_16
0.0010843999999998,0.0090126000000012,-0.0044701999999999,-0.0050369999999995,0.0036004000000009,0.0046620000000001,0,sub_16
0.0016355999999998,0.0087562000000012,-0.0048383999999999,-0.0050225999999995,0.0057352000000009,0.0035912000000001,0,sub_16
0.0008303999999998,0.0074868000000012,-0.0063267999999999,-0.0047947999999995,0.0076570000000009,0.0023086000000001,0,sub_16
0.0005673999999998,0.0063278000000012,-0.0077711999999999,-0.0045617999999996,0.0084864000000009,0.0016562000000001,0,sub_16
8.719999999984037e-05,0.0057124000000012,-0.0087087999999999,-0.0045499999999996,0.0076120000000009,0.0010044000000001,0,sub_16
-0.0005040000000001,0.0053372000000012,-0.0091619999999999,-0.0041161999999996,0.0056710000000009,0.0003570000000001,0,sub_16
-0.0012744000000001,0.0046890000000012,-0.0096887999999999,-0.0030441999999996,0.0030894000000009,-0.0004987999999998,0,sub_16
-0.0012364000000001,0.0039896000000012,-0.0097915999999998,-0.0017617999999996,8.0000000000934e-05,-0.0011389999999998,0,sub_16
-0.0016494000000001,0.0034288000000012,-0.0095573999999998,-0.0004901999999996,-0.002478399999999,-0.0017677999999998,0,sub_16
-0.0021284000000001,0.0034168000000012,-0.0093437999999998,0.0003556000000003,-0.004185799999999,-0.0017595999999998,0,sub_16
-0.0025760000000001,0.0036288000000012,-0.0091395999999998,0.0012032000000003,-0.005467199999999,-0.0017521999999998,0,sub_16
-0.0021664000000001,0.0039990000000012,-0.0087347999999998,0.0016270000000003,-0.006107799999999,-0.0017483999999998,0,sub_16
-0.0022542000000001,0.0048308000000012,-0.0081555999999998,0.0018508000000003,-0.006347399999999,-0.0015515999999998,0,sub_16
-0.0015146000000001,0.0052078000000012,-0.0080525999999998,0.0025052000000003,-0.006160799999999,-0.0017795999999998,0,sub_16
-0.0012906000000001,0.0056310000000012,-0.0075689999999998,0.0031586000000003,-0.006399199999999,-0.0022207999999998,0,sub_16
-0.0006560000000001,0.0055966000000012,-0.0068813999999998,0.0035996000000003,-0.005999399999999,-0.0022367999999998,0,sub_16
-0.0005818000000001,0.0061206000000012,-0.0068367999999999,0.0036120000000003,-0.005812199999999,-0.0020419999999998,0,sub_16
0.0002507999999998,0.0059076000000012,-0.0065273999999999,0.0033986000000003,-0.005599199999999,-0.0018299999999998,0,sub_16
0.0002473999999998,0.0062552000000012,-0.0063697999999999,0.0025402000000003,-0.005812599999999,-0.0009809999999998,0,sub_16
0.0005381999999998,0.0061970000000012,-0.0064653999999999,0.0016810000000003,-0.006239199999999,-0.0001317999999998,0,sub_16
0.0002185999999998,0.0061016000000011,-0.0066595999999999,0.0002028000000003,-0.007118199999999,-0.0001673999999998,0,sub_16
2.0999999999820296e-05,0.0050460000000011,-0.0064833999999999,6.800000000360857e-06,-0.007363199999999,1.880000000012489e-05,0,sub_16
-0.0007654000000001,0.0050262000000011,-0.0071471999999999,0.0004558000000003,-0.007181999999999,-0.0004319999999998,0,sub_16
-0.0013734000000001,0.0045304000000011,-0.0077561999999999,0.0009058000000003,-0.006999999999999,-0.0010963999999998,0,sub_16
-0.0015012000000001,0.0039008000000012,-0.0074253999999999,0.0011452000000003,-0.006390199999999,-0.0019765999999998,0,sub_16
-0.0013152000000001,0.0040194000000012,-0.0080559999999999,0.0020046000000003,-0.005539399999999,-0.0023989999999998,0,sub_16
-0.0015116000000001,0.0043838000000012,-0.0087695999999999,0.0026504000000003,-0.004687799999999,-0.0028227999999998,0,sub_16
-0.0014156000000001,0.0037336000000012,-0.0088361999999999,0.0030970000000003,-0.004292999999999,-0.0026311999999998,0,sub_16
-0.0016570000000001,0.0037106000000012,-0.0084647999999999,0.0039722000000003,-0.003897999999999,-0.0028639999999998,0,sub_16
-0.0016140000000001,0.0046046000000012,-0.0088331999999999,0.0046302000000003,-0.003929999999999,-0.0026701999999998,0,sub_16
-0.0017192000000001,0.0053766000000012,-0.0086717999999999,0.0044310000000003,-0.004598999999999,-0.0022679999999998,0,sub_16
-0.0022688000000001,0.0059254000000012,-0.0082907999999999,0.0038080000000003,-0.005688599999999,-0.0029365999999998,0,sub_16
-0.0022570000000001,0.0066014000000012,-0.0079157999999999,0.0035966000000003,-0.006110599999999,-0.0037921999999998,0,sub_16
-0.0016558000000001,0.0069482000000012,-0.0076289999999999,0.0029566000000003,-0.006108399999999,-0.0037965999999998,0,sub_16
-0.0013722000000001,0.0062048000000012,-0.0071565999999999,0.0023204000000003,-0.005678399999999,-0.0042289999999998,0,sub_16
-0.0009888000000001,0.0052040000000012,-0.0065225999999999,0.0027738000000003,-0.004852799999999,-0.0046773999999998,0,sub_16
-2.620000000015969e-05,0.0042670000000012,-0.0058509999999999,0.0025824000000003,-0.004241199999999,-0.0042753999999998,0,sub_16
4.499999999984031e-05,0.0042482000000012,-0.0056789999999998,0.0015336000000003,-0.004266599999999,-0.0036647999999998,0,sub_16
-0.0002276000000001,0.0043210000000012,-0.0059027999999998,0.0009106000000003,-0.004718799999999,-0.0032643999999998,0,sub_16
-0.0007720000000001,0.0043998000000012,-0.0066303999999998,0.0009288000000003,-0.005172399999999,-0.0030731999999998,0,sub_16
-0.0011464000000001,0.0048076000000012,-0.0070703999999998,0.0013546000000003,-0.005598999999999,-0.0032833999999998,0,sub_16
-0.0011568000000001,0.0046694000000012,-0.0075547999999998,0.0022072000000003,-0.006027199999999,-0.0034905999999998,0,sub_16
-0.0011288000000001,0.0045548000000012,-0.0081715999999998,0.0037008000000003,-0.006032399999999,-0.0034801999999998,0,sub_16
-0.0013500000000001,0.0040542000000012,-0.0087273999999998,0.0041296000000003,-0.005819999999999,-0.0036911999999998,0,sub_16
-0.0010642000000001,0.0044262000000012,-0.0084489999999998,0.0045680000000003,-0.005834999999999,-0.0032733999999998,0,sub_16
-0.0003022000000001,0.0037718000000012,-0.0080801999999998,0.0039396000000003,-0.006058399999999,-0.0030763999999998,0,sub_16
-0.0004418000000001,0.0040174000000012,-0.0084245999999999,0.0033130000000003,-0.005643399999999,-0.0026663999999998,0,sub_16
-0.0007038000000001,0.0044700000000012,-0.0079937999999999,0.0024742000000003,-0.005438999999999,-0.0026849999999998,0,sub_16
-0.0005642000000001,0.0047224000000012,-0.0067265999999999,0.0020600000000003,-0.005237799999999,-0.0022733999999998,0,sub_16
-0.0005890000000001,0.0045012000000012,-0.0060161999999999,0.0016370000000003,-0.004808399999999,-0.0027041999999998,0,sub_16
-0.0008384000000001,0.0049756000000012,-0.0061021999999999,0.0014256000000003,-0.003957199999999,-0.0022793999999998,0,sub_16
-0.0004608000000001,0.0051838000000012,-0.0058425999999999,0.0012190000000003,-0.003311599999999,-0.0020719999999998,0,sub_16
1.4599999999860205e-05,0.0046820000000012,-0.0060379999999999,0.0007960000000003,-0.002879999999999,-0.0014385999999998,0,sub_16
0.0002843999999998,0.0053214000000012,-0.0071749999999999,0.0005902000000003,-0.002021199999999,-0.0012313999999998,0,sub_16
4.7599999999820224e-05,0.0062278000000012,-0.0080531999999999,0.0001674000000003,-0.001801799999999,-0.0008111999999998,0,sub_16
-0.0001416000000001,0.0066936000000012,-0.0084181999999998,-0.0002565999999996,-0.002219799999999,-0.0008175999999998,0,sub_16
-0.0010698000000001,0.0075776000000012,-0.0081627999999998,-4.3399999999639216e-05,-0.002644999999999,-0.0012427999999998,0,sub_16
-0.0010138000000001,0.0080734000000012,-0.0080747999999998,-4.33999999996392e-05,-0.003069399999999,-0.0016693999999998,0,sub_16
-0.0010752000000001,0.0077440000000012,-0.0077047999999998,0.0003844000000003,-0.003706799999999,-0.0025199999999998,0,sub_16
-0.0010958000000001,0.0070594000000012,-0.0077479999999998,0.0010272000000003,-0.003069799999999,-0.0025161999999998,0,sub_16
-0.0013184000000001,0.0063502000000012,-0.0077067999999998,0.0012440000000003,-0.002412199999999,-0.0029399999999998,0,sub_16
-0.0010086000000001,0.0053592000000012,-0.0080707999999998,0.0016694000000003,-0.001971799999999,-0.0025075999999998,0,sub_16
-0.0013832000000001,0.0056718000000012,-0.0075263999999998,0.0023100000000003,-0.001318399999999,-0.0022875999999998,0,sub_16
-0.0015086000000001,0.0064920000000012,-0.0073719999999998,0.0020924000000003,-0.001302799999999,-0.0016455999999998,0,sub_16
-0.0012880000000001,0.0069572000000012,-0.0070769999999998,0.0020902000000003,-0.001922999999999,-0.0020693999999998,0,sub_16
-0.0005554000000001,0.0076394000000012,-0.0067607999999998,0.0025140000000003,-0.002775999999999,-0.0022789999999998,0,sub_16
-2.600000000199795e-06,0.0082176000000012,-0.0066173999999998,0.0020892000000003,-0.002984999999999,-0.0029225999999998,0,sub_16
-0.0002146000000001,0.0081834000000012,-0.0069125999999998,0.0014500000000003,-0.003194199999999,-0.0033541999999998,0,sub_16
-0.0002582000000001,0.0069696000000012,-0.0071055999999999,0.0008076000000003,-0.002741999999999,-0.0037759999999998,0,sub_16
-0.0002940000000001,0.0058586000000012,-0.0073595999999999,-0.0006909999999996,-0.002077199999999,-0.0033495999999998,0,sub_16
-0.0008936000000001,0.0054508000000012,-0.0081147999999999,-0.0015485999999996,-0.000776999999999,-0.0024921999999998,0,sub_16
-0.0012424000000001,0.0046254000000012,-0.0079711999999999,-0.0021947999999996,-0.000115999999999,-0.0018461999999998,0,sub_16
-0.0003988000000001,0.0040848000000012,-0.0086555999999999,-0.0022017999999996,0.0001176000000009,-0.0014085999999998,0,sub_16
-0.0002940000000001,0.0043394000000012,-0.0091011999999999,-0.0019941999999996,-0.000524799999999,-0.0007653999999998,0,sub_16
-0.0005220000000001,0.0042740000000012,-0.0089191999999999,-0.0011475999999996,-0.001806999999999,-0.0005441999999998,0,sub_16
-0.0007004000000001,0.0040030000000012,-0.0085057999999998,-0.0003061999999996,-0.002846999999999,-0.0009497999999998,0,sub_16
-0.0004460000000001,0.0045070000000012,-0.0086125999999998,0.0003198000000003,-0.003675799999999,-0.0007161999999998,0,sub_16
-0.0013538000000001,0.0043362000000012,-0.0082491999999998,0.0005220000000003,-0.004075999999999,-0.0006997999999998,0,sub_16
-0.0017756000000001,0.0042586000000012,-0.0077761999999998,0.0011548000000003,-0.004049999999999,-0.0011081999999998,0,sub_16
-0.0013710000000001,0.0048846000000012,-0.0078463999999998,0.0015752000000003,-0.003597799999999,-0.0013049999999998,0,sub_16
-0.0009782000000001,0.0051114000000012,-0.0078015999999998,0.0013608000000003,-0.003385599999999,-0.0008793999999998,0,sub_16
-0.0013010000000001,0.0051158000000012,-0.0077073999999998,0.0013628000000003,-0.003171599999999,-0.0010931999999998,0,sub_16
-0.0005138000000001,0.0051118000000012,-0.0078553999999999,0.0015762000000003,-0.002960199999999,-0.0008783999999998,0,sub_16
-0.0001140000000001,0.0052790000000012,-0.0073227999999999,0.0011426000000003,-0.002505199999999,-0.0010815999999998,0,sub_16
0.0002145999999998,0.0053942000000012,-0.0071159999999998,0.0009224000000003,-0.001838799999999,-0.0010697999999998,0,sub_16
0.0001961999999998,0.0055014000000012,-0.0070991999999998,0.0011308000000003,-0.000959999999999,-0.0012689999999998,0,sub_16
0.0001645999999998,0.0056648000000012,-0.0068857999999998,0.0011230000000003,-0.000507399999999,-0.0012555999999998,0,sub_16
8.11999999998202e-05,0.0060674000000012,-0.0064493999999998,0.0009018000000003,-0.000266199999999,-0.0014569999999998,0,sub_16
-0.0001070000000001,0.0057694000000012,-0.0065857999999998,0.0008988000000003,-0.000268799999999,-0.0008159999999998,0,sub_16
-0.0006890000000001,0.0054508000000012,-0.0069235999999998,0.0006834000000003,-0.000694199999999,-0.0008169999999998,0,sub_16
-0.0007098000000001,0.0054882000000012,-0.0068505999999998,0.0002558000000003,-0.001117999999999,-0.0010329999999998,0,sub_16
-0.0007228000000001,0.0054158000000012,-0.0069779999999998,0.0002568000000003,-0.001117199999999,-0.0012465999999998,0,sub_16
-0.0012586000000001,0.0045146000000012,-0.0073831999999999,3.8000000000341e-05,-0.000667999999999,-0.0012349999999998,0,sub_16
-0.0014374000000001,0.0043252000000012,-0.0077959999999998,0.0004594000000003,0.0002034000000009,-0.0007923999999998,0,sub_16
-0.0015004000000001,0.0040024000000012,-0.0082839999999998,0.0002436000000003,0.0015040000000009,-0.0005683999999998,0,sub_16
-0.0014572000000001,0.0040116000000012,-0.0085797999999998,0.0008772000000003,0.0023738000000009,8.940000000012458e-05,0,sub_16
-0.0015292000000001,0.0040302000000012,-0.0089099999999998,0.0010870000000003,0.0034598000000009,0.0003166000000001,0,sub_16
-0.0014554000000001,0.0052508000000012,-0.0086565999999998,0.0015138000000003,0.0036706000000009,0.0005328000000001,0,sub_16
-0.0012358000000001,0.0063052000000012,-0.0084739999999999,0.0017272000000003,0.0023968000000009,-0.0007457999999998,0,sub_16
-0.0007876000000001,0.0069960000000012,-0.0078823999999999,0.0021428000000003,0.0005020000000009,-0.0017941999999998,0,sub_16
-0.0005796000000001,0.0070620000000012,-0.0076317999999998,0.0017070000000003,-0.001175999999999,-0.0030625999999998,0,sub_16
-0.0001100000000001,0.0072686000000012,-0.0072505999999998,0.0012674000000003,-0.002857199999999,-0.0034763999999998,0,sub_16
-0.0001264000000001,0.0069734000000012,-0.0068545999999998,0.0006200000000003,-0.003683999999999,-0.0043199999999998,0,sub_16
-0.0004232000000001,0.0058448000000012,-0.0068953999999998,-0.0006673999999996,-0.003235399999999,-0.0038879999999998,0,sub_16
-0.0006306000000001,0.0056244000000012,-0.0068545999999998,-0.0008787999999996,-0.002596199999999,-0.0036767999999998,0,sub_16
-0.0008138000000001,0.0053662000000012,-0.0069753999999998,-0.0008767999999996,-0.001745599999999,-0.0032505999999998,0,sub_16
-0.0008364000000001,0.0047954000000012,-0.0073785999999998,-0.0006605999999996,-0.001107199999999,-0.0032497999999998,0,sub_16
-0.0007630000000001,0.0045678000000012,-0.0078115999999998,-2.3199999999639047e-05,-0.001324199999999,-0.0028177999999998,0,sub_16
-0.0007650000000001,0.0042754000000012,-0.0078411999999998,0.0014642000000003,-0.001951599999999,-0.0027933999999998,0,sub_16
-0.0012048000000001,0.0037148000000012,-0.0077363999999999,0.0025230000000003,-0.001942799999999,-0.0017045999999998,0,sub_16
-0.0013728000000001,0.0035038000000012,-0.0076391999999999,0.0029436000000003,-0.001717799999999,-0.0008341999999998,0,sub_16
-0.0018968000000001,0.0032352000000012,-0.0072965999999999,0.0035786000000003,-0.001280399999999,3.740000000012453e-05,0,sub_16
-0.0015312000000001,0.0028502000000012,-0.0072957999999999,0.0037886000000003,-0.0006275999999991,0.0006922000000001,0,sub_16
-0.0014388000000001,0.0030968000000012,-0.0071669999999998,0.0033620000000003,0.0002228000000008,0.0015426000000001,0,sub_16
-0.0011026000000001,0.0033694000000012,-0.0068639999999998,0.0020828000000003,0.0008648000000008,0.0019602000000001,0,sub_16
-0.0013532000000001,0.0036440000000012,-0.0062971999999998,0.0012284000000003,0.0010792000000008,0.0023812000000001,0,sub_16
-0.0008224000000001,0.0044342000000012,-0.0063411999999998,0.0001574000000003,0.0017368000000008,0.0028108000000001,0,sub_16
-0.0007658000000001,0.0054248000000012,-0.0059769999999998,-0.0007001999999996,0.0026060000000009,0.0034552000000001,0,sub_16
-0.0001764000000001,0.0058534000000012,-0.0060133999999999,-0.0015577999999996,0.0032628000000009,0.0038864000000001,0,sub_16
6.239999999982017e-05,0.0062864000000012,-0.0060227999999999,-0.0015609999999996,0.0037054000000009,0.0038964000000001,0,sub_16
0.0002597999999998,0.0061614000000012,-0.0065985999999999,-0.0015631999999996,0.0043610000000009,0.0039062,0,sub_16
-0.0001618000000001,0.0061696000000012,-0.0066801999999998,-0.0015621999999996,0.0045742000000009,0.0039058000000001,0,sub_16
-0.0005292000000001,0.0058756000000012,-0.0071479999999998,-0.0017755999999996,0.0043628000000009,0.0036910000000001,0,sub_16
-0.0007836000000001,0.0060038000000012,-0.0075671999999998,-0.0017791999999996,0.0043762000000009,0.0034854000000001,0,sub_16
-0.0014302000000001,0.0058410000000012,-0.0082975999999998,-0.0017817999999996,0.0041780000000009,0.0028530000000001,0,sub_16
-0.0018942000000001,0.0062692000000012,-0.0083597999999998,-0.0019977999999996,0.0039806000000009,0.0022190000000001,0,sub_16
-0.0019186000000001,0.0061882000000012,-0.0088791999999999,-0.0022127999999996,0.0042084000000009,0.0017982000000001,0,sub_16
-0.0021946000000001,0.0059310000000012,-0.0089609999999998,-0.0019971999999996,0.0052870000000009,0.0013792000000001,0,sub_16
-0.0022820000000001,0.0056434000000012,-0.0086247999999998,-0.0015637999999996,0.0063524000000008,0.0009536000000001,0,sub_16
-0.0016156000000001,0.0055708000000012,-0.0081519999999998,-0.0009177999999996,0.0076286000000008,0.0009564000000001,0,sub_16
-0.0007444000000001,0.0047312000000012,-0.0078619999999998,0.0001520000000003,0.0084762000000009,0.0011764000000001,0,sub_16
-0.0004246000000001,0.0051630000000012,-0.0075769999999998,0.0005690000000003,0.0080526000000009,0.0018294000000001,0,sub_16
-5.400000000015976e-05,0.0058448000000012,-0.0072541999999998,-8.659999999963922e-05,0.0061422000000009,0.0022632,0,sub_16
-6.680000000015974e-05,0.0067370000000012,-0.0071865999999998,-0.0009545999999996,0.0040212000000009,0.0022684,0,sub_16
-0.0002346000000001,0.0070072000000012,-0.0073803999999998,-0.0018169999999996,0.0027540000000009,0.0018452000000001,0,sub_16
-0.0006064000000001,0.0074642000000012,-0.0071559999999998,-0.0024611999999996,0.0025516000000009,0.0014222000000001,0,sub_16
-0.0006136000000001,0.0069084000000012,-0.0068595999999998,-0.0026649999999996,0.0038340000000009,0.0005646,0,sub_16
-0.0008492000000001,0.0059284000000012,-0.0069725999999998,-0.0026533999999996,0.0061784000000009,0.000348,0,sub_16
-0.0007352000000001,0.0050052000000012,-0.0072713999999998,-0.0030715999999996,0.0080974000000009,0.0003428,0,sub_16
-0.0006052000000001,0.0046488000000012,-0.0073459999999998,-0.0034973999999996,0.0089486000000009,0.0009798,0,sub_16
-0.0005296000000001,0.0044414000000012,-0.0079071999999999,-0.0039301999999996,0.0089562000000009,0.0014166,0,sub_16
-0.0006650000000001,0.0043942000000012,-0.0078131999999999,-0.0037287999999996,0.0076834000000009,0.0018594,0,sub_16
5.399999999820262e-06,0.0045852000000012,-0.0078105999999999,-0.0028873999999996,0.0059838000000009,0.00188,0,sub_16
-0.0003616000000001,0.0040734000000012,-0.0077939999999999,-0.0014027999999996,0.0049212000000009,0.0019042000000001,0,sub_16
