userAcceleration.x,userAcceleration.y,userAcceleration.z,rotationRate.x,rotationRate.y,rotationRate.z,label,subject
0.0233009999999997,0.0213696000000012,0.0012274,-0.0011273999999995,-0.0006367999999991,-0.0003603999999998,0,sub_2
0.0237177999999997,0.0211142000000012,0.0007962000000001,-0.0011245999999995,-0.0008463999999991,-0.0012147999999998,0,sub_2
0.0246201999999997,0.0214382000000012,0.0007380000000001,-0.0019673999999994,1.460000000089454e-05,-0.0027171999999998,0,sub_2
0.0254099999999997,0.0216616000000012,0.0013422000000001,-0.0021759999999994,0.0004440000000009,-0.0033601999999998,0,sub_2
0.0261659999999997,0.0212468000000012,0.0011032000000001,-0.0023903999999994,0.0002338000000009,-0.0037957999999998,0,sub_2
0.0266017999999997,0.0213936000000012,0.0007550000000001,-0.0034601999999994,2.480000000093458e-05,-0.0038099999999998,0,sub_2
0.0261935999999997,0.0220810000000012,0.0009526,-0.0038925999999995,0.0002354000000009,-0.0027519999999998,0,sub_2
0.0252969999999997,0.0217464000000012,0.0011748,-0.0021971999999995,-0.000415199999999,-0.0012509999999998,0,sub_2
0.0248655999999997,0.0213602000000012,0.0010104,-0.0011379999999995,-0.000847999999999,-0.0003953999999998,0,sub_2
0.0245019999999997,0.0221572000000012,0.001191,-0.0017769999999995,-0.0004205999999991,-0.0001867999999998,0,sub_2
0.0248265999999997,0.0225974000000012,0.001109,-0.0015625999999995,-0.0004203999999991,-0.0003989999999998,0,sub_2
0.0249857999999997,0.0220214000000012,0.0016046,-0.0009215999999995,-0.0008461999999991,-0.0010349999999998,0,sub_2
0.0255271999999997,0.0223358000000012,0.0017486,-0.0011365999999995,-0.0012663999999991,-0.0016821999999998,0,sub_2
0.0253633999999998,0.0221512000000012,0.0019398,-0.0009247999999995,-0.0016881999999991,-0.0023265999999998,0,sub_2
0.0257851999999997,0.0220424000000012,0.0015686,-0.0005035999999995,-0.0023261999999991,-0.0023281999999998,0,sub_2
0.0253275999999997,0.0219712000000012,0.0015124,-8.039999999953561e-05,-0.0021137999999991,-0.0019035999999998,0,sub_2
0.0258007999999997,0.0219150000000012,0.001381,-0.0002953999999995,-0.0014729999999991,-0.0014839999999998,0,sub_2
0.0257685999999997,0.0216470000000012,0.0009948,-0.0011459999999995,-0.0006187999999991,-0.0012773999999998,0,sub_2
0.0260185999999997,0.0219760000000012,0.0012638,-0.0015765999999995,-0.0008327999999991,-0.0006391999999998,0,sub_2
0.0256643999999998,0.0219338000000012,0.00194,-0.0013641999999995,-0.0012587999999991,-0.0008507999999998,0,sub_2
0.0254923999999998,0.0214188000000012,0.0022738,-0.0013665999999995,-0.0012545999999991,-0.0008527999999998,0,sub_2
0.0249495999999998,0.0212430000000012,0.0022858,-0.0011545999999995,-0.0006135999999991,-0.0004267999999999,0,sub_2
0.0247305999999997,0.0207618000000012,0.0025576,-0.0003053999999995,-0.0006139999999991,4.400000000062688e-06,0,sub_2
0.0242371999999997,0.0206482000000012,0.0021652,-0.0003039999999995,3.020000000087433e-05,-0.0002119999999999,0,sub_2
0.0243431999999997,0.0205796000000012,0.002268,-0.0003063999999995,0.0008832000000008,0.0006394,0,sub_2
0.0244013999999997,0.0211458000000012,0.0023144,-9.39999999995357e-05,0.0010938000000008,0.0010678,0,sub_2
0.0244453999999997,0.0209074000000012,0.0022772,0.0007556000000004,2.640000000083444e-05,0.0008614,0,sub_2
0.0242615999999997,0.0211516000000012,0.002047,0.0011814000000004,-0.0006125999999991,0.000438,0,sub_2
0.0248415999999997,0.0210728000000012,0.0014532,0.0013958000000004,-0.0001815999999991,0.0006548,0,sub_2
0.0250709999999997,0.0211556000000012,0.0010114,0.0018236000000004,-0.0001757999999991,0.0004464,0,sub_2
0.0254027999999997,0.0208280000000012,0.001164,0.0022486000000004,-0.0005967999999991,0.0004522,0,sub_2
0.0255353999999997,0.0211884000000012,0.0017838,0.0020334000000004,-0.0005913999999991,0.0008802,0,sub_2
0.0257915999999997,0.0213686000000012,0.0021838,0.0013924000000004,-0.000371199999999,0.001305,0,sub_2
0.0255291999999997,0.0217896000000012,0.00247,0.0013876000000004,-0.001012199999999,0.001733,0,sub_2
0.0250011999999998,0.0216832000000012,0.0021908,0.0013838000000004,-0.001439999999999,0.0021608,0,sub_2
0.0241031999999998,0.0218450000000012,0.002265,0.0013882000000004,-0.001433999999999,0.0021678,0,sub_2
0.0238187999999998,0.0222698000000012,0.0016672,0.0011850000000004,6.340000000095453e-05,0.002385,0,sub_2
0.0239983999999998,0.0224976000000012,0.0010022,0.0009798000000004,0.0011346000000009,0.0026026,0,sub_2
0.0240381999999998,0.0213722000000012,0.0012068,0.0012024000000004,0.0015686000000009,0.0019696,0,sub_2
0.0249307999999998,0.0210652000000012,0.0014844,0.0009964000000004,0.0013658000000009,0.0011208,0,sub_2
0.0258687999999998,0.0213960000000012,0.0009866,-0.0002779999999995,0.0020120000000008,0.00047,0,sub_2
0.0263781999999998,0.0210388000000012,0.0015946,-0.0011247999999995,0.0026576000000008,-0.0003911999999999,0,sub_2
0.0259951999999998,0.0203064000000012,0.0021052,-0.0004893999999995,0.0020144000000008,4.140000000006274e-05,0,sub_2
0.0258909999999998,0.0209146000000012,0.0017266,-0.0009141999999995,0.0015936000000008,0.0006882,0,sub_2
0.0252501999999998,0.0211960000000012,0.0014476,-0.0015447999999995,0.0028778000000008,0.0013314,0,sub_2
0.0248657999999998,0.0208118000000012,0.001588,-5.039999999953554e-05,0.0024492000000008,0.0022052,0,sub_2
0.0239445999999998,0.0204362000000012,0.0014438,0.0012240000000004,0.0005300000000008,0.0030794,0,sub_2
0.0236459999999998,0.0207698000000012,0.0014454,0.0003810000000004,0.0007548000000008,0.0024406,0,sub_2
0.0238283999999997,0.0209742000000012,0.0018252,0.0003866000000004,0.0011842000000008,0.0015856000000001,0,sub_2
0.0240109999999997,0.0208212000000012,0.0023886,0.0014496000000004,-9.599999999910512e-05,0.0011674000000001,0,sub_2
0.0240473999999997,0.0207722000000012,0.0027812,0.0016620000000004,-0.0003097999999991,0.0011692000000001,0,sub_2
0.0244881999999997,0.0208144000000012,0.0027148,0.0020898000000004,-0.0003103999999991,0.0009586000000001,0,sub_2
0.0247493999999997,0.0210208000000012,0.0026818,0.0029448000000004,-0.0011593999999991,0.0011880000000001,0,sub_2
0.0249493999999997,0.0207604000000012,0.0025518,0.0029484000000004,-0.001579399999999,0.0014108,0,sub_2
0.0251853999999997,0.0203512000000012,0.00157,0.0023166000000004,-0.000931999999999,0.0016278,0,sub_2
0.0250359999999997,0.0199896000000012,0.0015914,0.0014724000000004,-0.000494999999999,0.0014164,0,sub_2
0.0248191999999997,0.0202540000000012,0.0014154,0.0002014000000004,0.0001556000000008,0.0014152,0,sub_2
0.0249197999999997,0.0202430000000012,0.0017368,-0.0002233999999995,0.0003710000000008,0.0011982,0,sub_2
0.0245735999999998,0.0202758000000012,0.0019752,-0.0002243999999995,0.0003702000000008,0.0014118,0,sub_2
0.0244383999999998,0.0205594000000012,0.0020852,-8.199999999535446e-06,0.0005842000000008,0.0009858,0,sub_2
0.0252519999999997,0.0208404000000012,0.0013194,-1.799999999535436e-06,0.0008038000000008,0.0005632,0,sub_2
0.0253577999999997,0.0208640000000012,0.0016006,0.0004302000000004,0.0005966000000008,-6.939999999991736e-05,0,sub_2
0.0253487999999997,0.0205494000000012,0.0010738,0.0006480000000004,0.0006016000000008,-0.0002765999999999,0,sub_2
0.0251315999999997,0.0204828000000012,0.0005858,0.0006514000000004,0.0008186000000008,-5.819999999991735e-05,0,sub_2
0.0247345999999997,0.0209404000000012,0.00097,0.0004386000000004,0.0003974000000008,0.0001594,0,sub_2
0.0242947999999997,0.0213254000000012,0.001817,0.0006490000000004,-3.0199999999085237e-05,0.0003752,0,sub_2
0.0245323999999997,0.0215352000000012,0.0018874,0.0006472000000004,-0.000243999999999,0.000589,0,sub_2
0.0245795999999997,0.0212266000000012,0.0020434,0.0006462000000004,-2.719999999906521e-05,0.0008026,0,sub_2
0.0247883999999998,0.0214486000000012,0.0023314,0.0004310000000004,-0.000446999999999,0.0005882,0,sub_2
0.0247477999999998,0.0215646000000012,0.0023488,0.0004282000000004,-0.000656399999999,0.0008022,0,sub_2
0.0245877999999998,0.0212488000000011,0.0020312,0.0004264000000004,-0.000864999999999,0.0008024,0,sub_2
0.0244287999999998,0.0207846000000011,0.0013468,0.0004244000000004,-0.000861399999999,0.0010162,0,sub_2
0.0243581999999998,0.0210866000000011,0.0011408,-2.3999999995353693e-06,-0.0008599999999991,0.0010132,0,sub_2
0.0241669999999998,0.0212610000000012,0.0013204,-0.0002129999999995,-0.000644599999999,0.000584,0,sub_2
0.0242975999999998,0.0205862000000012,0.0015392,-0.0002121999999995,-0.000643799999999,0.0003704,0,sub_2
0.0243381999999998,0.0203924000000012,0.0010156,-0.0004217999999995,-0.000215199999999,-5.879999999993737e-05,0,sub_2
0.0244577999999998,0.0198624000000012,0.0017934,-0.0008465999999995,2.0000000087476085e-07,-0.0002755999999999,0,sub_2
0.0242025999999997,0.0193650000000012,0.0019644,-0.0006331999999995,-5.999999991252369e-07,-0.0002741999999999,0,sub_2
0.0244639999999997,0.0190288000000012,0.0015668,-0.0002091999999995,-4.599999999125237e-06,0.0003698,0,sub_2
0.0251481999999997,0.0195918000000012,0.001309,-0.0010577999999995,0.0010636000000008,0.0003624,0,sub_2
0.0258143999999997,0.0198658000000012,0.0014666,-0.0016931999999995,0.0021310000000008,0.0003566000000001,0,sub_2
0.0258751999999997,0.0202986000000012,0.001468,-0.0016941999999995,0.0019180000000008,0.0003568000000001,0,sub_2
0.0259719999999998,0.0206540000000012,0.0021432,-0.0021217999999995,0.0014944000000009,0.0001408000000001,0,sub_2
0.0256639999999998,0.0209002000000012,0.0021618,-0.0029723999999995,0.0017122000000009,-0.0002927999999998,0,sub_2
0.0247283999999998,0.0208272000000012,0.0016274,-0.0021237999999995,0.0010684000000009,0.0001414000000001,0,sub_2
0.0238175999999998,0.0207914000000012,0.0022384,-0.0006377999999995,0.0002076000000009,0.0010074,0,sub_2
0.0232073999999998,0.0208796000000012,0.0018462,-0.0002089999999995,0.0014810000000008,0.0018634,0,sub_2
0.0231659999999998,0.0213170000000012,0.0013724,7.200000000464604e-06,0.0023316000000008,0.0020774,0,sub_2
0.0238311999999998,0.0212792000000012,0.0016014,0.0010712000000004,0.0014764000000008,0.0018724,0,sub_2
0.0244973999999997,0.0211122000000012,0.0020268,0.0015050000000004,0.0008372000000008,0.0012336,0,sub_2
0.0251451999999997,0.0207972000000012,0.0017356,0.0010862000000004,0.0002018000000008,0.0003754,0,sub_2
0.0256311999999997,0.0209038000000012,0.0016282,0.0013046000000004,-0.0012871999999991,-0.0006909999999999,0,sub_2
0.0259213999999997,0.0208472000000012,0.0011808,0.0017344000000004,-0.0023541999999991,-0.0009017999999999,0,sub_2
0.0256863999999997,0.0203172000000012,0.001006,0.0017422000000004,-0.0019299999999991,-0.0006901999999999,0,sub_2
0.0252711999999997,0.0201646000000012,0.0010062,0.0008906000000004,-0.0010763999999991,-0.0002697999999999,0,sub_2
0.0250617999999997,0.0204784000000012,0.0013674,0.0002524000000004,-0.0002235999999991,0.000152,0,sub_2
0.0246039999999997,0.0202488000000011,0.0013744,-0.0001763999999995,-0.0002237999999991,0.0005764,0,sub_2
0.0241779999999998,0.0201154000000012,0.001637,3.36000000004646e-05,-0.0004395999999991,0.0005724,0,sub_2
0.0236971999999998,0.0203908000000012,0.0016732,-0.0001813999999995,-0.0004397999999991,0.0003514,0,sub_2
0.0239649999999998,0.0207040000000012,0.0015208,3.1400000000464565e-05,-0.000440799999999,-8.039999999993742e-05,0,sub_2
0.0238625999999998,0.0206734000000012,0.0011908,0.0004518000000004,-0.001084199999999,0.0001312,0,sub_2
0.0244909999999998,0.0206536000000012,0.0011344,0.0006628000000004,-0.001086799999999,0.0001268,0,sub_2
0.0246607999999998,0.0205814000000012,0.0012718,-0.0001887999999995,-0.0002331999999991,0.000547,0,sub_2
0.0250437999999998,0.0207540000000012,0.0013824,-0.0006145999999995,0.0004056000000008,0.0009704,0,sub_2
0.0249605999999998,0.0206214000000012,0.001885,-0.0004049999999995,-0.0002351999999991,0.0011864,0,sub_2
0.0250455999999998,0.0208280000000012,0.0020846,-0.0001915999999995,-0.0006601999999991,0.000761,0,sub_2
0.0248817999999998,0.0207606000000012,0.0020916,-0.0004031999999995,-0.0006575999999991,0.0003322,0,sub_2
0.0249653999999998,0.0207738000000012,0.0020804,-0.0001879999999995,-0.0010809999999991,-0.0005203999999999,0,sub_2
0.0247617999999998,0.0202276000000012,0.002253,-0.0001897999999995,-0.001719199999999,-0.0007331999999999,0,sub_2
0.0249865999999998,0.0203226000000012,0.0018876,-0.0004031999999995,-0.001718399999999,-0.0007345999999999,0,sub_2
0.0250867999999998,0.0198714000000012,0.001707,-0.0008319999999995,-0.001930799999999,-0.0005235999999999,0,sub_2
0.0250339999999997,0.0199650000000012,0.001615,-0.0008327999999995,-0.001931799999999,-0.0003099999999999,0,sub_2
0.0249289999999997,0.0197138000000012,0.001739,-0.0012595999999995,-0.002146399999999,-0.0001029999999999,0,sub_2
0.0246363999999997,0.0201960000000012,0.0015078,-0.0014683999999995,-0.001932999999999,-0.0005359999999999,0,sub_2
0.0242133999999997,0.0205736000000012,0.0019784,-0.0016781999999995,-0.001720399999999,-0.0007553999999998,0,sub_2
0.0234119999999997,0.0208764000000012,0.0012722,-0.0018859999999995,-0.001293999999999,-0.0011885999999998,0,sub_2
0.0233669999999998,0.0213794000000012,0.0013408,-0.0023071999999995,-0.000654399999999,-0.0014099999999998,0,sub_2
0.0234477999999998,0.0213024000000012,0.0013696,-0.0016651999999995,-1.8199999999085355e-05,-0.0011927999999998,0,sub_2
0.0239681999999998,0.0204770000000012,0.0016412,-0.0012393999999995,0.0001916000000008,-0.0007627999999998,0,sub_2
0.0245363999999998,0.0196586000000012,0.0011322,-0.0012393999999995,-2.0599999999105363e-05,-0.0009761999999998,0,sub_2
0.0257555999999997,0.0197314000000012,0.001498,-0.0016621999999995,0.0001966000000008,-0.0016203999999998,0,sub_2
0.0262309999999997,0.0193240000000012,0.0014798,-0.0023011999999995,0.0001972000000008,-0.0020567999999998,0,sub_2
0.0259453999999997,0.0192632000000012,0.0021314,-0.0027297999999995,-0.0002297999999991,-0.0022775999999998,0,sub_2
0.0256679999999997,0.0199596000000012,0.002117,-0.0033715999999995,-0.0006559999999991,-0.0024999999999998,0,sub_2
0.0252019999999997,0.0206434000000012,0.0021618,-0.0033741999999995,-0.000660799999999,-0.0020773999999998,0,sub_2
0.0241437999999997,0.0209808000000012,0.0028166,-0.0023157999999995,-0.001098999999999,-0.0007923999999998,0,sub_2
0.0233581999999997,0.0208856000000012,0.0030266,-0.0008279999999995,-0.001533599999999,7.300000000008274e-05,0,sub_2
0.0233739999999997,0.0211618000000012,0.002023,-0.0008259999999995,-0.001107599999999,7.260000000008271e-05,0,sub_2
0.0230633999999997,0.0217734000000012,0.002001,-0.0006141999999995,-0.001107999999999,-0.0001425999999999,0,sub_2
0.0233075999999998,0.0211298000000012,0.0022496,-0.0001871999999995,-0.0006831999999991,-0.0003569999999999,0,sub_2
0.0242453999999998,0.0207588000000012,0.0016962,-0.0001839999999995,-0.0002543999999991,-0.0012151999999999,0,sub_2
0.0248351999999997,0.0205730000000012,0.001552,-0.0001863999999995,-0.0011039999999991,-0.0020715999999999,0,sub_2
0.0251981999999997,0.0207808000000012,0.001888,2.0600000000464343e-05,-0.0021697999999991,-0.0022855999999999,0,sub_2
0.0257517999999997,0.0200896000000012,0.0014684,0.0004464000000004,-0.0019599999999991,-0.0018555999999999,0,sub_2
0.0261947999999997,0.0200122000000012,0.001265,0.0002292000000004,-0.0023871999999991,-0.0014291999999999,0,sub_2
0.0254293999999997,0.0198780000000012,0.0016856,-0.0004127999999995,-0.0021743999999991,-0.0007929999999999,0,sub_2
0.0248311999999997,0.0205518000000012,0.002141,-0.0016901999999995,-0.0011061999999991,-0.0003759999999999,0,sub_2
0.0249455999999997,0.0204674000000012,0.0019906,-0.0019015999999995,-0.0004669999999991,-0.0001645999999999,0,sub_2
0.0245913999999997,0.0203946000000012,0.0027454,-0.0016901999999995,-0.0015303999999991,-0.0008025999999999,0,sub_2
0.0236555999999997,0.0205502000000012,0.0030706,-0.0019015999999994,-0.0017399999999991,-0.0014447999999999,0,sub_2
0.0238973999999997,0.0208246000000012,0.0027368,-0.0016891999999994,-0.0021659999999991,-0.0016563999999999,0,sub_2
0.0237431999999998,0.0207668000000012,0.0021498,-0.0008385999999994,-0.0023837999999991,-0.0012229999999999,0,sub_2
0.0229359999999998,0.0209242000000012,0.0023388,-0.0001983999999995,-0.0017495999999991,-0.0005783999999999,0,sub_2
0.0229327999999998,0.0215450000000012,0.0020124,-0.0004087999999994,-0.0002609999999991,0.0002728,0,sub_2
0.0230847999999998,0.0215970000000012,0.0019634,0.0002314000000004,0.0003732000000008,0.0009174,0,sub_2
0.0232917999999998,0.0212060000000012,0.0022022,0.0006582000000004,0.0005838000000008,0.0011338,0,sub_2
0.0237715999999998,0.0207476000000012,0.002486,0.0012992000000004,0.0005824000000009,0.0009246,0,sub_2
0.0247915999999998,0.0203396000000012,0.002345,0.0012982000000004,-5.499999999906543e-05,0.0004982000000001,0,sub_2
0.0251353999999998,0.0198218000000012,0.0018838,0.0019344000000004,-0.000909399999999,0.0005038000000001,0,sub_2
0.0254043999999998,0.0195402000000012,0.0016684,0.0019306000000004,-0.001337199999999,0.0009316000000001,0,sub_2
0.0253689999999997,0.0193656000000012,0.0013566,0.0019286000000004,-0.001338799999999,0.0013588000000001,0,sub_2
0.0253461999999997,0.0196246000000012,0.0015924,0.0017202000000004,-0.001340799999999,0.0019980000000001,0,sub_2
0.0249671999999997,0.0196318000000012,0.0014244,0.0015136000000004,-0.0011289999999991,0.002423,0,sub_2
0.0247549999999997,0.0195530000000012,0.0016816,0.0008822000000004,-0.0009139999999991,0.0024178,0,sub_2
0.0242867999999997,0.0196138000000012,0.0018312,0.0008918000000004,-0.0009123999999991,0.0019902,0,sub_2
0.0239225999999997,0.0200346000000012,0.0026028,0.0006900000000004,-0.0009085999999991,0.0011338,0,sub_2
0.0235573999999997,0.0198074000000012,0.0025192,0.0006938000000004,-0.0002685999999991,0.0009192,0,sub_2
0.0237273999999997,0.0199630000000012,0.0026814,0.0011234000000004,0.0003692000000008,0.0009214,0,sub_2
0.0246515999999997,0.0202350000000012,0.0023868,0.0013458000000004,0.0012230000000008,0.001139,0,sub_2
0.0253967999999997,0.0208800000000012,0.001952,0.0007176000000004,0.0022946000000008,0.000923,0,sub_2
0.0258679999999998,0.0210890000000012,0.0012928,-0.0001287999999995,0.0029384000000008,0.001347,0,sub_2
0.0262841999999998,0.0207046000000012,0.0012948,-0.0001245999999995,0.0025154000000008,0.001351,0,sub_2
0.0261789999999998,0.0202322000000012,0.0015204,-0.0007603999999995,0.0023070000000008,0.001564,0,sub_2
0.0249359999999998,0.0203238000000012,0.0011784,-0.0014023999999995,0.0018832000000008,0.00156,0,sub_2
0.0243603999999997,0.0199134000000012,0.0014942,-0.0005547999999995,0.0014506000000008,0.002421,0,sub_2
0.0237773999999997,0.0190982000000012,0.0018976,0.0009360000000004,0.0014428000000008,0.0030724,0,sub_2
0.0236329999999997,0.0196424000000012,0.0020478,0.0009450000000004,0.0025134000000008,0.0030746,0,sub_2
0.0235721999999997,0.0204810000000012,0.001768,0.0009500000000004,0.0025196000000008,0.0028644,0,sub_2
0.0238953999999997,0.0206474000000012,0.0025142,0.0020210000000004,0.0020968000000008,0.0024486,0,sub_2
0.0242107999999997,0.0205976000000012,0.0028236,0.0022406000000004,0.0014666000000008,0.0013862,0,sub_2
0.0241271999999997,0.0206020000000012,0.0024168,0.0020324000000004,0.0006248000000008,0.000321,0,sub_2
0.0240723999999998,0.0203710000000012,0.0022594,0.0018134000000004,-0.0008647999999991,0.0001076,0,sub_2
0.0241417999999998,0.0201558000000012,0.0018702,0.0020268000000004,-0.0010777999999991,-0.0001043999999999,0,sub_2
0.0243799999999997,0.0193912000000012,0.001577,0.0018134000000004,-0.0006525999999991,0.0003208,0,sub_2
0.0242929999999997,0.0196340000000012,0.0013936,0.0011722000000004,-0.0002267999999991,0.0009566,0,sub_2
0.0242963999999997,0.0201362000000012,0.0014476,0.0005370000000004,-8.999999999105405e-06,0.0013832,0,sub_2
0.0243635999999997,0.0205784000000012,0.001229,0.0001132000000004,-0.0002179999999991,0.001812,0,sub_2
0.0244297999999997,0.0203144000000012,0.0016454,-9.619999999951556e-05,-0.0006391999999991,0.0018152,0,sub_2
0.0242707999999998,0.0208538000000012,0.001375,-0.0002997999999995,-0.0004185999999991,0.0011766,0,sub_2
0.0240351999999998,0.0207980000000012,0.0010952,-0.0005053999999995,-0.0001997999999991,0.0009654,0,sub_2
0.0241061999999998,0.0206324000000012,0.001383,-0.0002901999999995,1.3400000000874604e-05,0.000753,0,sub_2
0.0239865999999998,0.0202404000000012,0.0012128,0.0001394000000004,0.0004388000000008,0.0005418,0,sub_2
0.0240817999999998,0.0202858000000012,0.0010666,0.0003562000000004,0.0006554000000008,0.0003306,0,sub_2
0.0239031999999998,0.0201936000000012,0.0016144,0.0005682000000004,0.0002310000000008,0.0005474,0,sub_2
0.0238087999999998,0.0199588000000012,0.0015914,0.0012070000000004,-0.0004069999999991,0.0005538,0,sub_2
0.0237847999999997,0.0195928000000012,0.001016,0.0012066000000004,-0.000617599999999,0.000769,0,sub_2
0.0240683999999997,0.0197768000000011,0.0009046,0.0009966000000004,-0.000399599999999,0.0005548,0,sub_2
0.0239461999999997,0.0200104000000011,0.0008624,0.0007822000000004,-0.000611999999999,0.0005536,0,sub_2
0.0244657999999997,0.0199120000000012,0.0006246,0.0007802000000004,-0.000825999999999,0.0007676,0,sub_2
0.0244803999999997,0.0201394000000012,0.0010896,0.0005650000000004,-0.001251399999999,0.0007668,0,sub_2
0.0247065999999998,0.0207362000000012,0.001505,0.0007790000000004,-0.001462799999999,0.0003386,0,sub_2
0.0245217999999998,0.0206462000000012,0.0018644,0.0003510000000004,-0.001673599999999,0.0003332,0,sub_2
0.0242477999999998,0.0203984000000012,0.0016986,0.0001384000000004,-0.001246799999999,0.0005422,0,sub_2
0.0238239999999998,0.0203140000000012,0.0019616,-7.419999999953557e-05,-0.001032199999999,0.0005378,0,sub_2
0.0239217999999998,0.0204430000000012,0.0017258,-7.159999999953557e-05,-0.0003921999999991,0.0005342,0,sub_2
0.0240107999999998,0.0203014000000012,0.0020336,-0.0009239999999995,3.60000000008946e-05,0.0007414,0,sub_2
0.0238913999999998,0.0200896000000012,0.0017616,-0.0004961999999995,0.0002476000000008,0.0007442,0,sub_2
0.0240649999999998,0.0203058000000012,0.0019176,-0.0002827999999995,3.460000000089462e-05,0.0005322,0,sub_2
0.0247853999999998,0.0206806000000012,0.0015032,-0.0007057999999995,0.0002518000000008,-0.0001119999999999,0,sub_2
0.0250527999999998,0.0205522000000012,0.0012912,-0.0017661999999995,0.0013194000000008,-0.0007671999999999,0,sub_2
