userAcceleration.x,userAcceleration.y,userAcceleration.z,rotationRate.x,rotationRate.y,rotationRate.z,label,subject
-0.0027586000000002,0.0151056000000012,-0.0004823999999998,-0.0009847999999995,0.0012582000000009,0.004674,0,sub_7
-0.0027180000000002,0.0149510000000012,-0.0005943999999998,-0.0009847999999995,0.0008338000000009,0.0042472,0,sub_7
-0.0029440000000002,0.0142870000000012,7.760000000010155e-05,-0.0028885999999995,0.0008220000000009,0.0031638,0,sub_7
-0.0032428000000002,0.0136400000000012,0.0007514000000001,-0.0047923999999995,0.0003858000000009,0.0016536,0,sub_7
-0.0042642000000002,0.0142990000000012,-2.6999999999898345e-05,-0.0060599999999995,-0.000692799999999,0.0003624,0,sub_7
-0.0045634000000002,0.0149092000000012,-0.0002805999999998,-0.0052023999999995,-0.001998599999999,0.0007954,0,sub_7
-0.0038828000000002,0.0144206000000012,0.0006148000000001,-0.0039189999999995,-0.002882399999999,0.0018718,0,sub_7
-0.0036468000000002,0.0142738000000012,0.0005114000000001,-0.0030655999999995,-0.002460999999999,0.0023044,0,sub_7
-0.0046760000000002,0.0149818000000012,0.0004238000000001,-0.0026301999999995,-0.001181599999999,0.0016648,0,sub_7
-0.0058286000000002,0.0157690000000011,-8.259999999987844e-05,-0.0017663999999995,-0.000793199999999,0.0014494,0,sub_7
-0.0063620000000002,0.0151196000000011,-0.0003381999999998,-0.0017581999999995,-0.000827799999999,0.0012286,0,sub_7
-0.0056084000000002,0.0150286000000011,-0.0010783999999998,-0.0021777999999995,-0.000437399999999,0.0016452,0,sub_7
-0.0057240000000002,0.0147846000000011,-0.0009613999999998,-0.0028133999999995,-0.000897599999999,0.001848,0,sub_7
-0.0051812000000002,0.0139074000000011,-0.0007445999999998,-0.0021679999999995,-0.000937199999999,0.0022728,0,sub_7
-0.0045338000000002,0.0139486000000011,-0.0004033999999998,-0.0019537999999995,-0.000512599999999,0.0024874,0,sub_7
-0.0029714000000002,0.0138940000000011,-6.999999999987832e-05,-0.0017413999999995,0.0003346000000009,0.003556,0,sub_7
-0.0027444000000001,0.0136050000000011,0.0009218000000001,-0.0021643999999995,0.0009760000000009,0.0033386,0,sub_7
-0.0026896000000001,0.0132976000000011,0.0016434000000001,-0.0027921999999995,0.0011608000000009,0.0024656,0,sub_7
-0.0038754000000001,0.0140756000000011,0.0017038000000001,-0.0044915999999995,0.0004964000000009,0.0017998,0,sub_7
-0.0037766000000001,0.0144034000000011,0.0008268,-0.0051279999999995,-0.000599799999999,0.0015694,0,sub_7
-0.0035316000000001,0.0143988000000011,0.0008864000000001,-0.0046965999999995,-0.0019109999999989,0.0009194,0,sub_7
-0.0034244000000002,0.0131360000000012,0.0008696000000001,-0.0038305999999995,-0.0013069999999989,0.0004836,0,sub_7
-0.0040880000000002,0.0125706000000012,-0.0002477999999998,-0.0025427999999995,-0.000243599999999,-0.0001497999999999,0,sub_7
-0.0040034000000002,0.0134186000000012,-0.0011025999999998,-0.0016853999999995,-3.099999999901979e-05,-0.0007849999999999,0,sub_7
-0.0039338000000002,0.0143684000000011,-0.0006053999999998,-0.0012613999999995,-0.000247199999999,-0.0003545999999999,0,sub_7
-0.0036266000000002,0.0137170000000011,0.0005260000000001,2.4600000000446317e-05,0.0010266000000009,-0.0003471999999999,0,sub_7
-0.0049082000000002,0.0130966000000011,0.0008028000000001,-0.0003867999999995,0.0012150000000009,-0.0010097999999999,0,sub_7
-0.0056434000000002,0.0146138000000011,0.0010292000000001,-0.0022983999999995,0.0003416000000009,-0.0012541999999999,0,sub_7
-0.0057008000000002,0.0151176000000011,0.0003842000000001,-0.0016563999999995,-0.001395599999999,-0.0008387999999998,0,sub_7
-0.0049036000000001,0.0142760000000012,0.0008634000000001,0.0004918000000004,-0.000580399999999,-0.0006295999999999,0,sub_7
-0.0051086000000001,0.0135270000000012,0.0009958000000001,-0.0001357999999995,-0.000393799999999,-0.0006527999999999,0,sub_7
-0.0052618000000001,0.0137374000000012,0.0006246000000001,-0.0003481999999995,-0.000392199999999,-0.0008679999999999,0,sub_7
-0.0050510000000001,0.0145906000000012,0.0003606000000001,0.0011474000000004,-0.000395799999999,-0.0012847999999998,0,sub_7
-0.0042964000000001,0.0141130000000012,0.0015144000000001,0.0020186000000004,0.0012828000000009,-0.0015191999999999,0,sub_7
-0.0043448000000001,0.0133912000000012,0.0022182,0.0011788000000004,0.0019030000000009,-0.0019779999999998,0,sub_7
-0.0055134000000001,0.0133320000000012,0.000622,0.0009734000000004,0.0018792000000009,-0.0017903999999998,0,sub_7
-0.0050732000000001,0.0149420000000012,-0.0001583999999999,0.0016092000000004,-0.000492799999999,-0.0011665999999998,0,sub_7
-0.0051316000000001,0.0144170000000012,-0.0004273999999999,0.0022400000000004,-0.003081399999999,0.0003118,0,sub_7
-0.0053178000000001,0.0140712000000011,-0.0005207999999999,0.0024332000000004,-0.006070799999999,0.0018126,0,sub_7
-0.0054454000000002,0.0126488000000011,-0.0009101999999998,0.0036962000000004,-0.008849199999999,0.0028932,0,sub_7
-0.0046424000000002,0.0122398000000011,-0.0002173999999998,0.0038972000000004,-0.012256199999999,0.002258,0,sub_7
-0.0037330000000002,0.0121766000000011,0.0002014000000001,0.0041230000000004,-0.013328599999999,0.0009584,0,sub_7
-0.0022908000000002,0.0118368000000011,0.0003492000000001,0.0054264000000004,-0.012060799999999,-0.0003365999999999,0,sub_7
-0.0016878000000002,0.0110680000000012,-7.499999999989857e-05,0.0052428000000004,-0.009933199999999,-0.0022841999999999,0,sub_7
-0.0024864000000002,0.0113898000000012,0.0001152000000001,0.0027130000000004,-0.008433199999999,-0.0051017999999999,0,sub_7
-0.0027182000000002,0.0135770000000012,9.98000000001014e-05,0.0029570000000004,-0.006518399999999,-0.0074733999999999,0,sub_7
-0.0029176000000002,0.0142920000000012,0.0002440000000001,0.0038248000000004,-0.004174399999999,-0.0083247999999999,0,sub_7
-0.0032212000000002,0.0140244000000012,0.0008374000000001,0.0031904000000004,-0.003106199999999,-0.0085441999999999,0,sub_7
-0.0039024000000002,0.0145068000000011,0.0018608000000001,0.0016958000000004,-0.003313999999999,-0.0085543999999999,0,sub_7
-0.0041178000000002,0.0151294000000011,0.0011556000000001,0.0023452000000004,-0.003961999999999,-0.0085667999999999,0,sub_7
-0.0042700000000002,0.0145200000000011,0.0012494000000001,0.0023536000000004,-0.004184399999999,-0.0079433999999999,0,sub_7
-0.0044498000000002,0.0136042000000011,0.0009554000000001,0.0010798000000004,-0.004828199999999,-0.0073285999999999,0,sub_7
-0.0046396000000001,0.0135304000000011,0.0007964000000001,0.0004498000000004,-0.005258599999999,-0.0073503999999999,0,sub_7
-0.0051192000000001,0.0125634000000012,0.0003506000000001,0.0015318000000004,-0.004841999999999,-0.0075747999999999,0,sub_7
-0.0041134000000001,0.0135832000000012,8.220000000010155e-05,0.0015328000000004,-0.003780199999999,-0.0067215999999999,0,sub_7
-0.0032694000000001,0.0145344000000012,-0.0005319999999998,0.0011012000000004,-0.003570799999999,-0.0054429999999999,0,sub_7
-0.0023564000000001,0.0152114000000012,-0.0006539999999998,0.0021682000000004,-0.003150199999999,-0.0050087999999999,0,sub_7
-0.0030764000000002,0.0143426000000012,-0.0006185999999998,0.0028280000000004,-0.001663199999999,-0.0050177999999999,0,sub_7
-0.0035620000000002,0.0142350000000012,-0.0014147999999998,0.0013520000000004,-0.001231399999999,-0.0056811999999999,0,sub_7
-0.0036544000000002,0.0137290000000011,-0.0019517999999998,0.0017918000000004,-0.002508199999999,-0.0069699999999999,0,sub_7
-0.0029088000000002,0.0121018000000011,-0.0016701999999998,0.0030908000000004,-0.002509599999999,-0.0082543999999998,0,sub_7
-0.0036206000000002,0.0106646000000011,-0.0008979999999998,0.0020416000000004,-0.002079199999999,-0.0089147999999998,0,sub_7
-0.0039816000000002,0.0109566000000011,-0.0010907999999999,-8.819999999955391e-05,-0.002068399999999,-0.0097841999999998,0,sub_7
-0.0045582000000002,0.0119320000000011,-0.0014399999999999,-0.0003023999999995,-0.002917399999999,-0.0104255999999998,0,sub_7
-0.0044100000000002,0.0128848000000012,-0.0005903999999999,-0.0005129999999995,-0.001640799999999,-0.0097877999999998,0,sub_7
-0.0046476000000002,0.0139962000000012,0.000478,-0.0013569999999995,0.0002720000000009,-0.0080915999999999,0,sub_7
-0.0054950000000002,0.0139906000000012,0.001251,-0.0015647999999995,0.0011180000000009,-0.0066031999999999,0,sub_7
-0.0062580000000002,0.0145156000000012,0.0011668,-0.0013535999999995,0.0002582000000009,-0.0051095999999999,0,sub_7
-0.0053510000000002,0.0158428000000012,0.0009208,0.0001398000000004,0.0006688000000009,-0.0027541999999999,0,sub_7
-0.0046052000000002,0.0153834000000012,0.0014808,0.0012036000000004,0.0002294000000009,-0.0006143999999999,0,sub_7
-0.0044052000000002,0.0136746000000012,0.001472,0.0011968000000004,-0.000200999999999,0.0004544,0,sub_7
-0.0038274000000002,0.0126278000000012,0.0002074,0.0003434000000004,1.4200000000940196e-05,0.0006618,0,sub_7
-0.0026982000000002,0.0121554000000012,-0.0002093999999999,-0.0002851999999995,0.0017242000000009,-0.0001993999999999,0,sub_7
-0.0012458000000002,0.0101236000000011,-0.0009969999999999,-0.0030397999999995,0.0049340000000009,-0.0012909999999999,0,sub_7
0.0004805999999997,0.0078004000000011,-0.0028115999999998,-0.0091771999999995,0.0120170000000009,-0.0056187999999999,0,sub_7
0.0007635999999997,0.0073236000000011,-0.0026649999999998,-0.0163863999999995,0.0171896000000009,-0.0108061999999999,0,sub_7
-0.0006540000000002,0.0067200000000011,-0.0028161999999998,-0.0261445999999995,0.0245034000000009,-0.0164413999999999,0,sub_7
0.0011391999999997,0.0088928000000011,-0.0039195999999998,-0.0352625999999995,0.0322394000000009,-0.0216453999999999,0,sub_7
-0.0003254000000002,0.0112382000000011,-0.0022405999999998,-0.0435347999999995,0.0397534000000009,-0.0253477999999999,0,sub_7
-0.0031878000000002,0.0145168000000011,-0.0002783999999998,-0.0508077999999995,0.0416724000000009,-0.0194189999999999,0,sub_7
-0.0053176000000002,0.0158320000000012,0.0007710000000001,-0.0497733999999995,0.0443982000000009,-0.0093739999999999,0,sub_7
-0.0043970000000002,0.0153648000000012,0.0055854000000001,-0.0428049999999995,0.0386082000000009,-0.0003323999999999,0,sub_7
-0.0047682000000002,0.0118994000000012,0.0105936000000001,-0.0365083999999995,0.0270630000000009,0.0099938,0,sub_7
0.0008949999999997,0.0110282000000012,0.0113676,-0.0257319999999995,0.0174110000000009,0.0224854,0,sub_7
0.0048113999999997,0.0081818000000012,0.010421,-0.0138405999999995,0.0118296000000009,0.0283564,0,sub_7
0.0065789999999997,0.0068362000000012,0.0077172000000001,-0.0138847999999995,0.0037558000000009,0.0285924,0,sub_7
0.0014549999999997,0.0091552000000012,0.0007598000000001,-0.0190353999999995,0.0001400000000009,0.031552,0,sub_7
-0.0039604000000002,0.0131474000000012,-0.0041389999999998,-0.0216205999999995,0.0001268000000009,0.0370886,0,sub_7
-0.0117118000000002,0.0164080000000012,-0.0055331999999998,-0.0261309999999995,-0.002430399999999,0.0411196,0,sub_7
-0.0168168000000001,0.0206166000000012,-0.0045921999999998,-0.0321517999999995,-0.004117799999999,0.0479404,0,sub_7
-0.0178652000000001,0.0230096000000012,-0.0050251999999998,-0.0324057999999995,-0.001788599999999,0.0575736,0,sub_7
-0.0111882000000001,0.0232418000000012,-0.0031851999999998,-0.0262691999999995,-0.004371799999999,0.064694,0,sub_7
-0.0032288000000001,0.0195142000000012,0.0002152000000001,-0.0220491999999995,-0.007369199999999,0.0705196000000001,0,sub_7
0.0022629999999998,0.0142544000000012,0.0020082000000001,-0.0197207999999995,-0.003755999999999,0.0765372,0,sub_7
0.0031061999999997,0.0103080000000011,0.0021374000000001,-0.0160809999999995,-0.001423399999999,0.0761322,0,sub_7
0.0037183999999998,0.0092062000000011,0.0047898000000001,-0.0141557999999995,-0.009064999999999,0.0673962,0,sub_7
0.0034933999999997,0.0120178000000011,0.0061782000000001,-0.0119885999999995,-0.013286599999999,0.0556664,0,sub_7
-0.0017978000000002,0.0162922000000011,0.0054702,-0.0085259999999995,-0.015353599999999,0.0414124,0,sub_7
-0.0079408000000002,0.0184220000000011,0.0045778,-0.0063705999999995,-0.025503599999999,0.0250232,0,sub_7
-0.0096982000000002,0.0185866000000012,0.0030984,-0.0023187999999995,-0.038227999999999,0.011428,0,sub_7
-0.0109970000000002,0.0192060000000012,0.0009034,0.0038524000000004,-0.0452433999999989,0.0068132,0,sub_7
-0.0098464000000002,0.0197664000000012,-0.0003555999999999,0.0080592000000004,-0.049107999999999,0.015213,0,sub_7
-0.0072266000000002,0.0196152000000012,-0.0009417999999998,0.0141510000000004,-0.050487999999999,0.03534,0,sub_7
-0.0029848000000002,0.0211306000000012,-0.0006063999999998,0.0279014000000004,-0.049793399999999,0.0627816,0,sub_7
-0.0013532000000002,0.0232522000000012,0.0002656,0.0452790000000004,-0.045503999999999,0.093876,0,sub_7
-0.0033704000000002,0.0233224000000012,0.0001532,0.0639818000000004,-0.032688399999999,0.1239298,0,sub_7
-0.0083618000000002,0.0198574000000012,-0.0026555999999999,0.0846568000000004,-0.018348199999999,0.143954,0,sub_7
-0.0115856000000002,0.0171516000000011,-0.0069979999999999,0.1088148000000004,-0.001836399999999,0.1507538,0,sub_7
-0.0148712000000001,0.0154666000000011,-0.0111239999999999,0.1302556000000004,0.0166452000000009,0.1468500000000001,0,sub_7
-0.0156350000000001,0.0158018000000011,-0.0138781999999999,0.1465994000000004,0.0338926000000009,0.1362892,0,sub_7
-0.0144828000000001,0.0147670000000011,-0.0148689999999998,0.1576090000000004,0.0517928000000009,0.1258746000000001,0,sub_7
-0.0167416000000001,0.0137660000000011,-0.0120193999999998,0.1626498000000004,0.0748118000000009,0.1192574,0,sub_7
-0.0206220000000001,0.0143208000000011,-0.0068927999999998,0.1602074000000004,0.0963578000000009,0.1145126,0,sub_7
-0.0250736000000001,0.0159466000000011,-0.0022123999999998,0.1548344000000004,0.1131688000000009,0.1087222,0,sub_7
-0.0262032000000001,0.0186994000000011,0.0017930000000001,0.1552090000000004,0.1248552000000009,0.100842,0,sub_7
-0.0241828000000001,0.0250106000000011,0.0050944000000001,0.1647500000000004,0.1301358000000009,0.0885476,0,sub_7
-0.0154058000000002,0.0306348000000011,0.0064198000000001,0.1785452000000004,0.1292356000000009,0.0730862,0,sub_7
-0.0043894000000002,0.0345288000000011,0.0060212000000001,0.1916540000000004,0.1198088000000009,0.0593402,0,sub_7
0.0092997999999997,0.0353886000000011,0.0055146000000001,0.2072014000000004,0.1069968000000009,0.053056,0,sub_7
0.0170873999999997,0.0311488000000011,0.0063820000000001,0.2204018000000004,0.0986492000000009,0.0512362,0,sub_7
0.0210221999999997,0.0279914000000011,0.0046756000000001,0.2274018000000004,0.0939196000000009,0.0557776,0,sub_7
0.0182399999999997,0.0288800000000011,0.0017574000000001,0.2342538000000004,0.0863426000000009,0.0660366,0,sub_7
0.0166577999999997,0.0242608000000011,-0.0016071999999998,0.2440760000000004,0.0814982000000009,0.0829358,0,sub_7
0.0114681999999997,0.0162350000000011,-0.0027607999999998,0.2494556000000004,0.0815844000000009,0.0961656,0,sub_7
0.0044693999999997,0.0080630000000011,-0.0049121999999998,0.2424290000000004,0.0778668000000009,0.1123046,0,sub_7
-0.0050482000000002,-0.0029211999999988,-0.0019719999999998,0.2261968000000004,0.0654536000000009,0.1264678,0,sub_7
-0.0107574000000002,-0.0163571999999987,0.0029882000000001,0.2005346000000004,0.0570038000000009,0.1305722,0,sub_7
-0.0133468000000002,-0.0232309999999987,0.0066410000000001,0.1642872000000004,0.0495144000000009,0.116869,0,sub_7
-0.0104638000000002,-0.0209951999999987,0.0067074000000001,0.1205804000000004,0.0414220000000009,0.1005508,0,sub_7
-0.0034842000000002,-0.0111327999999987,0.0050524000000001,0.0849538000000004,0.0330644000000009,0.0902714,0,sub_7
0.0055867999999997,0.0016658000000012,0.0012836000000001,0.0584582000000004,0.0267578000000009,0.0920172,0,sub_7
0.0124449999999997,0.0099862000000012,-0.0022005999999998,0.0406362000000004,0.0148368000000009,0.1049404,0,sub_7
0.0159921999999997,0.0169930000000012,-0.0080551999999998,0.0345180000000004,0.0045442000000009,0.1267026,0,sub_7
0.0151143999999997,0.0210374000000012,-0.0120031999999998,0.0429004000000004,-0.004745799999999,0.1515558,0,sub_7
0.0153605999999997,0.0123626000000012,-0.0114753999999998,0.0588220000000004,-0.001903399999999,0.1728142,0,sub_7
0.0151243999999997,0.0026576000000012,-0.0090995999999999,0.0767894000000003,0.0059244000000009,0.1710068,0,sub_7
0.0131283999999997,-0.0017435999999987,-0.0041541999999999,0.0894608000000003,0.0114708000000009,0.1582694000000001,0,sub_7
0.0067429999999997,-0.0021933999999987,0.0029944,0.0959338000000003,0.0138466000000009,0.1446382,0,sub_7
0.0040831999999997,-0.0039777999999987,0.0075036,0.0947054000000004,0.0102898000000009,0.1294654000000001,0,sub_7
0.0003461999999997,0.0004130000000012,0.0083578,0.0887586000000004,-0.005579599999999,0.1072252,0,sub_7
-0.0035172000000002,0.0060306000000012,0.0083002000000001,0.0791482000000004,-0.016375799999999,0.098199,0,sub_7
0.0035625999999997,0.0127754000000012,0.0053380000000001,0.0689978000000004,-0.033637199999999,0.107978,0,sub_7
0.0084485999999997,0.0150812000000012,0.0006082000000001,0.0597058000000004,-0.050685199999999,0.116908,0,sub_7
0.0066457999999997,0.0191890000000012,-0.0025991999999998,0.0506568000000004,-0.059007199999999,0.127965,0,sub_7
0.0059991999999997,0.0195920000000011,-0.0072083999999998,0.0431170000000004,-0.054588799999999,0.1484166,0,sub_7
0.0062799999999997,0.0140360000000011,-0.0114277999999998,0.0374992000000004,-0.054843799999999,0.16376,0,sub_7
0.0006161999999997,0.0038554000000011,-0.0129291999999998,0.0358452000000004,-0.051001399999999,0.1633036000000001,0,sub_7
-0.0089904000000002,0.0006754000000011,-0.0107913999999998,0.0286338000000004,-0.046299399999999,0.1657984000000001,0,sub_7
-0.0108020000000002,-0.0040895999999988,-0.0086563999999999,0.0175732000000004,-0.042440599999999,0.1693356,0,sub_7
-0.0101048000000002,-0.0091655999999987,-0.0048251999999998,0.0040086000000004,-0.040856599999999,0.157903,0,sub_7
-0.0056160000000002,-0.0104181999999987,0.0018208000000001,-0.0104429999999995,-0.051182799999999,0.1419932000000001,0,sub_7
-0.0134688000000002,-0.0113945999999987,0.0068444000000001,-0.0233531999999995,-0.047011799999999,0.1224562000000001,0,sub_7
-0.0142292000000002,-0.0197525999999987,0.0156494000000001,-0.0320961999999995,-0.029810199999999,0.0907538,0,sub_7
-0.0160382000000001,-0.0180293999999987,0.0206992000000001,-0.0495175999999995,-0.014213399999999,0.0416876,0,sub_7
-0.0257940000000001,-0.0081137999999987,0.0186840000000001,-0.0836175999999995,-0.012595199999999,-0.0136727999999999,0,sub_7
-0.0251872000000001,-0.0021489999999987,0.0011000000000001,-0.1086631999999995,-0.027031599999999,-0.0580537999999999,0,sub_7
-0.0156918000000001,0.0221488000000012,-0.0080155999999998,-0.1168011999999995,-0.052069399999999,-0.0766657999999999,0,sub_7
-0.0141296000000001,0.0442870000000012,-0.0210989999999998,-0.1140829999999995,-0.052765199999999,-0.0648953999999999,0,sub_7
-0.0203854000000001,0.0479730000000011,-0.0295793999999998,-0.0919381999999995,-0.043334599999999,-0.0448837999999999,0,sub_7
-0.0179958000000001,0.0414202000000011,-0.0204461999999998,-0.0422337999999995,-0.035454999999999,-0.0338645999999999,0,sub_7
-0.0214930000000002,0.0452110000000011,-0.0005673999999998,-0.0002669999999995,-0.012978199999999,-0.0434277999999999,0,sub_7
-0.0173934000000002,0.0388672000000011,0.0071844000000001,0.0178998000000004,0.0151860000000009,-0.0694015999999998,0,sub_7
-0.0104256000000002,0.0303742000000011,0.0131192000000001,0.0278444000000004,0.0093252000000009,-0.1041487999999998,0,sub_7
-0.0033174000000002,0.0267522000000012,0.0178272000000001,0.0259288000000004,-0.011883799999999,-0.1265677999999999,0,sub_7
-0.0039480000000002,0.0309468000000012,0.0075572000000001,0.0098578000000004,-0.024408199999999,-0.1241001999999999,0,sub_7
-0.0091168000000002,0.0296708000000012,-0.0003983999999998,0.0029636000000004,-0.020199199999999,-0.1051393999999998,0,sub_7
-0.0186668000000002,0.0220572000000011,-0.0044439999999998,0.0041884000000004,-0.014947999999999,-0.0874049999999999,0,sub_7
-0.0169894000000001,0.0178758000000011,-0.0050445999999998,-0.0003643999999995,-0.015208399999999,-0.0716267999999999,0,sub_7
-0.0096482000000002,0.0199370000000011,-0.0043295999999999,0.0013148000000004,-0.012904999999999,-0.0630721999999999,0,sub_7
-0.0004564000000002,0.0223300000000011,0.0026922,0.0055362000000004,-0.015931599999999,-0.0557749999999999,0,sub_7
0.0068971999999997,0.0206408000000011,0.0074342,-0.0013875999999995,-0.023844399999999,-0.0423535999999998,0,sub_7
0.0126709999999997,0.0137100000000011,0.0107414,-0.0106681999999995,-0.0311207999999989,-0.0261721999999998,0,sub_7
0.0131649999999997,0.0086816000000012,0.0116854,-0.0113427999999995,-0.0345445999999989,-0.0218995999999998,0,sub_7
0.0118615999999997,0.0030982000000012,0.010892,-0.0109563999999995,-0.039674599999999,-0.0180447999999998,0,sub_7
0.0091425999999997,-0.0011827999999987,0.007305,-0.0116203999999995,-0.042240199999999,-0.0152687999999998,0,sub_7
0.0047717999999997,-0.0036219999999987,0.002941,-0.0118145999999995,-0.043919999999999,-0.0212501999999999,0,sub_7
-0.0006754000000002,0.0020510000000012,-0.0036403999999998,-0.0111351999999995,-0.046858199999999,-0.0329919999999998,0,sub_7
-0.0058532000000002,0.0084022000000011,-0.0097291999999998,-0.0085411999999995,-0.047049399999999,-0.0406647999999998,0,sub_7
-0.0094934000000002,0.0117112000000011,-0.0144933999999998,-0.0081105999999995,-0.048108599999999,-0.0425831999999998,0,sub_7
-0.0123574000000002,0.0137164000000011,-0.0162473999999998,-0.0070553999999995,-0.046212599999999,-0.0380915999999998,0,sub_7
-0.0161650000000002,0.0167152000000011,-0.0145407999999998,-0.0051761999999995,-0.0443461999999989,-0.0269711999999998,0,sub_7
-0.0137658000000002,0.0161298000000011,-0.0079249999999998,-0.0041561999999995,-0.0431183999999989,-0.0152151999999999,0,sub_7
-0.0131300000000002,0.0179792000000011,-0.0023579999999999,-0.0039753999999995,-0.044633599999999,-0.0094435999999999,0,sub_7
-0.0136806000000002,0.0221514000000011,0.0018516,-0.0014109999999995,-0.043790199999999,-0.0094267999999999,0,sub_7
-0.0110718000000001,0.0242924000000011,0.0038498,0.0043482000000004,-0.048056199999999,-0.0132267999999999,0,sub_7
-0.0064828000000001,0.0259488000000011,0.0018954000000001,0.0115798000000004,-0.057226599999999,-0.0172237999999999,0,sub_7
-0.0046534000000001,0.0238180000000011,-3.659999999987718e-05,0.0168652000000004,-0.066413399999999,-0.0154659999999999,0,sub_7
-0.0015298000000001,0.0181916000000012,-0.0006689999999998,0.0204514000000004,-0.074526399999999,-0.0143623999999999,0,sub_7
-0.0008618000000001,0.0124460000000012,0.0003530000000001,0.0212896000000004,-0.077301799999999,-0.0137119999999999,0,sub_7
-0.0004642000000001,0.0107218000000012,-8.859999999985702e-05,0.0204668000000004,-0.071329799999999,-0.0145799999999999,0,sub_7
0.0008717999999997,0.0081670000000012,0.0004636000000001,0.0192700000000004,-0.057882599999999,-0.0197329999999999,0,sub_7
0.0004179999999997,0.0103278000000012,-0.0017941999999998,0.0196042000000004,-0.042073199999999,-0.0308603999999999,0,sub_7
-0.0008524000000001,0.0115848000000012,-0.0028449999999998,0.0175568000000004,-0.025861799999999,-0.0338863999999999,0,sub_7
0.0003855999999998,0.0115198000000012,-0.0038687999999998,0.0161158000000004,-0.011804399999999,-0.0315643999999998,0,sub_7
0.0015941999999997,0.0084330000000012,-0.0028035999999998,0.0118742000000004,-0.003490599999999,-0.0290407999999998,0,sub_7
0.0013121999999997,0.0079638000000012,-0.0011689999999998,0.0050406000000004,-0.000925399999999,-0.0252463999999998,0,sub_7
0.0005105999999997,0.0082798000000012,0.0002362000000001,-0.0018209999999995,-0.003477799999999,-0.0203771999999998,0,sub_7
0.0014337999999997,0.0117160000000012,0.0001628000000001,-0.0069287999999995,-0.006449799999999,-0.0165533999999998,0,sub_7
0.0001697999999997,0.0146032000000011,0.0002360000000001,-0.0111839999999995,-0.010062399999999,-0.0131499999999999,0,sub_7
-0.0020558000000002,0.0170546000000011,0.0005184000000001,-0.0126577999999995,-0.010707199999999,-0.0084491999999999,0,sub_7
