userAcceleration.x,userAcceleration.y,userAcceleration.z,rotationRate.x,rotationRate.y,rotationRate.z,label,subject
0.0026843999999997,0.0132162000000011,0.0044816,0.0017604000000004,-0.000579999999999,-0.0002943999999999,0,sub_12
0.0027385999999997,0.0129236000000011,0.0039708,0.0021858000000004,-0.000150199999999,-0.0005087999999999,0,sub_12
0.0020921999999997,0.0126518000000011,0.0033932,0.0015434000000004,0.0002822000000009,-0.0005171999999999,0,sub_12
0.0018183999999997,0.0126122000000011,0.0034316,0.0011136000000004,0.0007132000000009,-0.0003103999999999,0,sub_12
0.0012327999999997,0.0122440000000011,0.0040294,0.0008972000000004,0.0007190000000009,-0.0005289999999999,0,sub_12
0.0014643999999997,0.0129284000000011,0.003778,0.0002580000000004,0.0009342000000009,-0.0005337999999999,0,sub_12
0.0018457999999997,0.0133596000000011,0.0036636,-0.0003809999999995,0.0007250000000009,-0.0009651999999999,0,sub_12
0.0018067999999997,0.0129304000000011,0.0043862,-0.0003809999999995,0.0007250000000009,-0.0009651999999999,0,sub_12
0.0019885999999997,0.0130800000000011,0.004356,-0.0005943999999995,0.0009378000000009,-0.0007531999999999,0,sub_12
0.0024261999999997,0.0131650000000011,0.0032594,-0.0018789999999995,0.0013730000000009,-0.0005501999999999,0,sub_12
0.0022253999999997,0.0129864000000011,0.0038472,-0.0016707999999995,0.0015902000000009,-0.0003365999999999,0,sub_12
0.0016723999999997,0.0129168000000012,0.0038554,-0.0012503999999995,0.0020178000000009,0.0003054,0,sub_12
0.0013499999999997,0.0135122000000011,0.0033458,1.9800000000451747e-05,0.0013782000000009,0.0007412,0,sub_12
0.0012507999999997,0.0130578000000011,0.0028132,0.0008592000000004,-0.000112199999999,0.001175,0,sub_12
0.0014641999999997,0.0130274000000011,0.0031426,0.0017088000000004,-0.000755199999999,0.0013954,0,sub_12
0.0013529999999997,0.0121398000000011,0.0035134,0.0021326000000004,-0.000971599999999,0.0018258,0,sub_12
0.0014493999999997,0.0116788000000011,0.0032554,0.0014874000000004,-0.001177799999999,0.0016058,0,sub_12
0.0020439999999997,0.0110540000000011,0.0032634,-7.599999999568369e-06,-0.000740999999999,0.0011654,0,sub_12
0.0020195999999997,0.0110040000000011,0.0035406,-0.0012861999999995,-9.019999999904763e-05,0.0002988,0,sub_12
0.0016583999999997,0.0110404000000011,0.0033604,-0.0017131999999995,0.0001316000000009,-0.0005611999999999,0,sub_12
0.0015365999999997,0.0113700000000011,0.0028784,-0.0017145999999995,0.0001388000000009,-0.0014177999999999,0,sub_12
0.0017513999999997,0.0115800000000011,0.0031138,-0.0014993999999995,0.0003520000000009,-0.0016301999999999,0,sub_12
0.0017909999999997,0.0121228000000011,0.0034818,-0.0019241999999995,0.0007796000000009,-0.0016337999999999,0,sub_12
0.0011097999999997,0.0125888000000011,0.0036928,-0.0012839999999995,0.0012018000000009,-0.0012023999999999,0,sub_12
0.0011291999999997,0.0124924000000011,0.003763,-0.0008625999999995,0.0016236000000009,-0.0003483999999999,0,sub_12
0.0010963999999997,0.0124306000000011,0.0034124,-0.0012963999999995,0.0014102000000009,0.0002868,0,sub_12
0.0012851999999997,0.0120138000000011,0.0034944,-0.0010871999999995,0.0009848000000009,7.220000000006483e-05,0,sub_12
0.0011097999999997,0.0116828000000011,0.003189,-0.0002387999999995,0.0007684000000009,0.0002892,0,sub_12
0.0022233999999997,0.0120600000000011,0.0032638,0.0001856000000004,0.0007684000000009,7.540000000002484e-05,0,sub_12
0.0020505999999997,0.0117370000000011,0.0029276,-2.779999999958817e-05,0.0005570000000009,-0.0001393999999999,0,sub_12
0.0025657999999997,0.0118194000000011,0.0033882,0.0001884000000003,0.0007710000000009,-0.0005653999999999,0,sub_12
0.0024701999999997,0.0119194000000011,0.0031202,-2.3199999999588177e-05,0.0011978000000009,-0.0005673999999999,0,sub_12
0.0024205999999997,0.0117910000000011,0.0037562,-0.0002367999999995,0.0014122000000009,-0.0009993999999999,0,sub_12
0.0015393999999997,0.0114448000000011,0.003119,-0.0015181999999995,0.0020536000000009,-0.0007981999999999,0,sub_12
0.0015875999999997,0.0115420000000011,0.0027742,-0.0021641999999995,0.0014154000000009,-0.0008047999999999,0,sub_12
0.0018967999999997,0.0118718000000011,0.0029522,-0.0015289999999995,0.0005614000000009,-0.0012293999999999,0,sub_12
0.0022701999999997,0.0115022000000011,0.0029392,-0.0011041999999995,0.0007718000000009,-0.0012295999999999,0,sub_12
0.0032629999999997,0.0123998000000011,0.0028212,-0.0008879999999995,0.0011980000000009,-0.0014421999999999,0,sub_12
0.0040965999999997,0.0121462000000011,0.0032506,-0.0013155999999995,0.0005622000000009,-0.0018715999999999,0,sub_12
0.0041231999999997,0.0121998000000011,0.0036938,-0.0015241999999995,0.0014160000000009,-0.0020877999999999,0,sub_12
0.0030655999999997,0.0115506000000011,0.0031668,-0.0017379999999995,0.0020518000000009,-0.0018757999999999,0,sub_12
0.0017971999999998,0.0122852000000011,0.0029222,-0.0008915999999995,0.0009804000000009,-0.0018677999999999,0,sub_12
0.0004783999999998,0.0113132000000011,0.001947,-0.0002603999999995,0.0001202000000009,-0.0012207999999999,0,sub_12
-0.0001190000000001,0.0105968000000011,0.0019686,0.0005888000000004,0.0005366000000009,-0.0003601999999999,0,sub_12
3.639999999980764e-05,0.0106816000000011,0.0024302,0.0008000000000004,0.0011692000000009,0.000282,0,sub_12
0.0008403999999997,0.0105984000000011,0.002795,-0.0004763999999995,0.0022382000000009,0.0004854,0,sub_12
0.0013127999999997,0.0106076000000011,0.0036224,-0.0017517999999995,0.0028836000000009,4.840000000006489e-05,0,sub_12
0.0017385999999997,0.0105704000000011,0.003784,-0.0028147999999995,0.0028906000000009,-0.0008135999999999,0,sub_12
0.0023951999999997,0.0110862000000011,0.0033838,-0.0028119999999995,0.0022566000000009,-0.0020947999999999,0,sub_12
0.0027975999999997,0.0110134000000011,0.0029772,-0.0023861999999995,0.0016200000000009,-0.0031603999999999,0,sub_12
0.0025651999999997,0.0115080000000011,0.0026346,-0.0023897999999995,0.0014066000000009,-0.0031613999999999,0,sub_12
0.0030947999999997,0.0111450000000011,0.0023772,-0.0023925999999995,0.0022550000000009,-0.0023091999999999,0,sub_12
0.0031559999999997,0.0119988000000011,0.0029562,-0.0019713999999995,0.0024630000000009,-0.0014531999999999,0,sub_12
0.0025143999999997,0.0126466000000011,0.0034056,-0.0017643999999995,0.0022464000000009,-0.0008117999999999,0,sub_12
0.0023077999999997,0.0128558000000011,0.0036698,-0.0015565999999995,0.0016040000000009,-0.0001685999999999,0,sub_12
0.0024053999999997,0.0123448000000011,0.003862,-0.0004945999999995,0.0009594000000009,0.0002668,0,sub_12
0.0020041999999997,0.0122358000000011,0.0037156,-0.0002819999999995,0.0003196000000009,5.7200000000064776e-05,0,sub_12
0.0018225999999997,0.0111164000000011,0.0035464,-0.0002799999999995,0.0001074000000009,-0.0003679999999999,0,sub_12
0.0011297999999997,0.0106768000000011,0.0036486,0.0001498000000004,0.0003190000000009,-0.0005771999999999,0,sub_12
0.0006289999999997,0.0103122000000011,0.003152,-6.059999999950842e-05,0.0009572000000009,-0.0003639999999999,0,sub_12
0.0004343999999997,0.0105674000000011,0.0029528,-0.0009137999999995,0.0007464000000009,-0.0003677999999999,0,sub_12
0.0011037999999997,0.0114022000000011,0.0023844,-0.0015519999999995,0.0011748000000009,-0.0003727999999999,0,sub_12
0.0015137999999997,0.0115662000000011,0.0032162,-0.0009089999999995,0.0013874000000009,-0.0007957999999999,0,sub_12
0.0024311999999997,0.0113394000000011,0.003063,-0.0006937999999995,0.0020250000000009,-0.0005813999999999,0,sub_12
0.0032741999999997,0.0119670000000011,0.0037904,-0.0002625999999995,0.0018104000000009,-0.0012169999999999,0,sub_12
0.0035969999999997,0.0125796000000011,0.0043396,0.0005934000000004,0.0015926000000009,-0.0014223999999999,0,sub_12
0.0026233999999998,0.0123406000000011,0.0044084,0.0016542000000004,0.0003054000000009,-0.0007703999999999,0,sub_12
0.0017251999999998,0.0125530000000011,0.0028156,0.0018626000000004,-0.000341399999999,0.0003022,0,sub_12
0.0015469999999998,0.0125494000000011,0.0020044,0.0020718000000004,-0.001411799999999,0.0007344,0,sub_12
0.0011525999999998,0.0119142000000011,0.0018558,0.0022804000000004,-0.001841199999999,0.0013774,0,sub_12
0.0008445999999998,0.0106366000000011,0.0014508,0.0018546000000004,-0.001414399999999,0.0015876,0,sub_12
0.0011513999999997,0.0102596000000011,0.0017736,0.0012202000000004,-0.000558199999999,0.0011548,0,sub_12
0.0017421999999997,0.0103020000000011,0.0025486,0.0001570000000004,-0.000126599999999,0.0007194,0,sub_12
0.0019489999999997,0.0104868000000011,0.0031456,-0.0004765999999995,-0.000339399999999,0.0002928,0,sub_12
0.0017675999999997,0.0110310000000011,0.002504,-0.0006853999999995,-0.000979799999999,-0.0001303999999999,0,sub_12
0.0012413999999997,0.0117668000000011,0.0018736,-0.0002531999999995,-0.001197199999999,-0.0003359999999999,0,sub_12
0.0012983999999997,0.0118384000000011,0.001546,0.0001790000000003,-0.001202399999999,-0.0003279999999999,0,sub_12
0.0010307999999997,0.0118128000000011,0.0013404,0.0003978000000003,-0.000782399999999,0.0001052,0,sub_12
0.0003661999999997,0.0116784000000011,0.0010336,0.0003996000000003,6.820000000091214e-05,0.0005314,0,sub_12
0.0009261999999997,0.0115352000000011,0.0012426,-2.8199999999628608e-05,0.0004934000000009,0.0011688,0,sub_12
0.0016547999999997,0.0118398000000011,0.0020238,-0.0002413999999996,0.0007064000000009,0.0013808,0,sub_12
0.0017969999999997,0.0122590000000011,0.0026442,-2.0999999999588575e-05,0.0009110000000009,0.0016006,0,sub_12
0.0018477999999997,0.0122248000000011,0.0022904,0.0001974000000004,0.0004772000000009,0.0016076,0,sub_12
0.0019853999999997,0.0121262000000011,0.0028056,0.0006302000000004,4.360000000095222e-05,0.0014024,0,sub_12
0.0012653999999997,0.0115470000000011,0.0029942,0.0014936000000004,0.0002484000000009,0.0009858,0,sub_12
0.0011625999999997,0.0109876000000011,0.0027254,0.0017176000000004,0.0004564000000009,0.000351,0,sub_12
0.0012239999999997,0.0109154000000011,0.0024542,0.0012928000000004,0.0008840000000009,0.0003474,0,sub_12
0.0015279999999997,0.0111230000000011,0.0030814,0.0012900000000003,0.0002448000000009,0.0003482,0,sub_12
0.0021679999999997,0.0112454000000011,0.0023766,0.0010822000000004,-0.0001867999999989,0.0001382,0,sub_12
0.0032815999999997,0.0117128000000011,0.0029872,0.0006658000000004,2.3200000000992263e-05,-0.0005015999999999,0,sub_12
0.0036659999999997,0.0120054000000011,0.0035726,0.0004628000000004,0.0006568000000009,-0.0007129999999999,0,sub_12
0.0031769999999997,0.0117774000000011,0.0044678,4.3400000000431375e-05,0.0004398000000009,-0.0011385999999999,0,sub_12
0.0030331999999997,0.0120062000000011,0.0047668,-0.0005833999999995,0.0012898000000009,-0.0017805999999999,0,sub_12
0.0021485999999997,0.0125148000000011,0.0049418,-0.0007947999999995,0.0019288000000009,-0.0015693999999999,0,sub_12
0.0005397999999997,0.0127884000000011,0.0034556,-0.0007995999999995,0.0017124000000009,-0.0007145999999999,0,sub_12
-0.0005260000000002,0.0126548000000011,0.0017344,-0.0012329999999995,0.0012834000000009,0.000351,0,sub_12
-0.0005978000000002,0.0121170000000011,0.0005304,-0.0010185999999995,0.0021324000000009,0.0009924,0,sub_12
-0.0006986000000002,0.0112806000000011,5.600000000008047e-05,-0.0005847999999995,0.0033994000000009,0.0018524,0,sub_12
0.0003497999999997,0.0106926000000011,0.0010472,-0.0007911999999995,0.0038198000000009,0.0018546,0,sub_12
0.0015119999999997,0.0105492000000011,0.002416,-0.0009993999999995,0.0033898000000009,0.0014306,0,sub_12
0.0023805999999997,0.0108698000000011,0.0038414,-0.0003589999999995,0.0014672000000009,0.000587,0,sub_12
0.0030579999999997,0.0113400000000011,0.0047768,0.0007044000000004,-0.001309199999999,-0.0002525999999999,0,sub_12
0.0033003999999997,0.0119400000000011,0.0051014,0.0019798000000004,-0.003227799999999,-0.0010957999999999,0,sub_12
0.0025389999999997,0.0121456000000011,0.0043842,0.0021884000000004,-0.003869399999999,-0.0006661999999999,0,sub_12
0.0018415999999997,0.0119790000000011,0.003656,0.0017620000000004,-0.003234599999999,0.000187,0,sub_12
0.0008983999999997,0.0121186000000011,0.0032612,0.0013414000000004,-0.001533599999999,0.0008252,0,sub_12
0.0005995999999997,0.0123214000000011,0.0029504,0.0007074000000004,0.0001680000000009,0.001462,0,sub_12
0.0003281999999997,0.0120548000000011,0.0028172,0.0002792000000004,0.0001646000000009,0.0021024,0,sub_12
0.0006595999999997,0.0121600000000011,0.0024512,0.0004940000000004,-5.0599999999027765e-05,0.0018928,0,sub_12
0.0009127999999997,0.0124092000000011,0.002672,0.0011350000000004,-0.000264199999999,0.0014702,0,sub_12
0.0008575999999997,0.0116718000000011,0.0026204,0.0019876000000004,-0.000480199999999,0.0014766,0,sub_12
0.0005885999999997,0.0112162000000011,0.0022934,0.0022010000000004,-0.000693199999999,0.0012646,0,sub_12
0.0005259999999997,0.0110312000000011,0.00198,0.0015640000000004,-5.459999999904779e-05,0.0014744,0,sub_12
0.0005895999999997,0.0103750000000011,0.0024884,0.0011424000000004,0.0003728000000009,0.0010452,0,sub_12
0.0011313999999997,0.0096936000000011,0.003316,0.0011476000000004,0.0007986000000009,0.000619,0,sub_12
0.0016847999999997,0.0100532000000011,0.003592,0.0002926000000004,0.0001604000000009,0.0006154,0,sub_12
0.0025799999999997,0.0105220000000011,0.0038008,-0.0003491999999995,-0.000690599999999,0.0004,0,sub_12
0.0035065999999997,0.0107222000000011,0.003964,-0.0007721999999995,-0.000685799999999,-0.0004573999999999,0,sub_12
0.0039063999999997,0.0111358000000011,0.0044946,-0.0005579999999995,-0.000473599999999,-0.0004559999999999,0,sub_12
0.0037899999999997,0.0112174000000011,0.0043156,-0.0011989999999995,-0.000472199999999,-0.0002467999999999,0,sub_12
0.0040261999999997,0.0112656000000011,0.0039014,-0.0020487999999995,0.0003830000000009,-0.0002537999999999,0,sub_12
0.0032103999999997,0.0118190000000011,0.0036706,-0.0020467999999995,0.0016566000000009,0.0003858,0,sub_12
0.0020777999999997,0.0127534000000011,0.003537,-0.0014121999999995,0.0016480000000009,0.0014586,0,sub_12
0.0012227999999997,0.0134088000000011,0.0024812,7.100000000041136e-05,0.0005712000000009,0.0025386,0,sub_12
0.0005023999999997,0.0134046000000011,0.0013216,0.0015570000000004,0.0001336000000009,0.003618,0,sub_12
-0.0002452000000002,0.0131086000000011,0.0017036,0.0036870000000004,0.0003336000000009,0.0044874,0,sub_12
-0.0001360000000002,0.0116780000000011,0.0015914,0.0047502000000004,-0.000734599999999,0.0042826,0,sub_12
0.0002021999999997,0.0103986000000011,0.0020082,0.0036900000000004,0.0005484000000009,0.00406,0,sub_12
0.0006531999999997,0.0094264000000011,0.0032036,0.0015706000000004,0.0024728000000009,0.0029752,0,sub_12
0.0013289999999997,0.0098186000000011,0.003358,-0.0009745999999995,0.0039752000000009,0.0012468,0,sub_12
0.0027779999999997,0.0101536000000011,0.0034906,-0.0026709999999995,0.0044094000000009,-0.0004741999999999,0,sub_12
0.0034167999999997,0.0104084000000011,0.004388,-0.0037263999999995,0.0059034000000009,-0.0013375999999999,0,sub_12
0.0038843999999997,0.0110616000000011,0.0045126,-0.0032987999999995,0.0048362000000009,-0.0024009999999999,0,sub_12
0.0044223999999997,0.0115838000000011,0.0039308,-0.0026605999999995,0.0039834000000009,-0.0028227999999999,0,sub_12
0.0045589999999997,0.0119018000000011,0.004555,-0.0009603999999995,0.0026982000000009,-0.0025955999999999,0,sub_12
0.0036635999999997,0.0120706000000011,0.004476,9.880000000043137e-05,0.0014146000000009,-0.0021593999999999,0,sub_12
0.0031585999999997,0.0124846000000011,0.0036308,0.0009436000000004,0.0001302000000009,-0.0017241999999999,0,sub_12
0.0026479999999997,0.0124658000000011,0.0029082,0.0017904000000004,-0.000727999999999,-0.0012895999999999,0,sub_12
0.0017725999999997,0.0121708000000011,0.002401,0.0017808000000004,-0.002009999999999,-0.0006467999999999,0,sub_12
0.0008953999999997,0.0115464000000011,0.0018954,0.0015580000000004,-0.003503599999999,-0.0002187999999999,0,sub_12
0.0004615999999997,0.0109934000000011,0.0016282,0.0013418000000004,-0.003505799999999,0.0002074,0,sub_12
0.0001683999999997,0.0108274000000011,0.0018914,0.0007018000000004,-0.003291399999999,0.0004161999999999,0,sub_12
-0.0001582000000002,0.0107894000000011,0.001888,0.0002742000000004,-0.003078599999999,0.0008401999999999,0,sub_12
-0.0006938000000002,0.0109330000000011,0.002243,0.0004886000000004,-0.002654199999999,0.0010547999999999,0,sub_12
-0.0001136000000002,0.0112320000000011,0.0021562,0.0004924000000004,-0.001589799999999,0.0012669999999999,0,sub_12
0.0012789999999997,0.0113000000000011,0.0022702,0.0004912000000004,-0.001586799999999,0.0008375999999999,0,sub_12
0.0018299999999997,0.0108980000000011,0.0026374,0.0004900000000004,-0.001371399999999,0.0006216,0,sub_12
0.0028983999999997,0.0113710000000011,0.0032178,-0.0003617999999995,-0.000513799999999,0.0003988,0,sub_12
0.0036729999999997,0.0116606000000011,0.0040526,-0.0012125999999995,0.0003446000000009,-3.759999999997535e-05,0,sub_12
0.0038301999999997,0.0118734000000011,0.0045954,-0.0012137999999995,0.0005600000000009,-0.0002535999999999,0,sub_12
0.0029487999999997,0.0124132000000011,0.0046394,-0.0003649999999995,-8.379999999904765e-05,0.0001804,0,sub_12
0.0029043999999997,0.0127154000000011,0.0042934,0.0011200000000004,-0.001581999999999,0.00062,0,sub_12
0.0020093999999997,0.0117548000000011,0.0033586,0.0023908000000004,-0.003077999999999,0.0010564,0,sub_12
0.0019899999999997,0.0112256000000011,0.0022178,0.0028138000000004,-0.003080399999999,0.0016986,0,sub_12
0.0016411999999997,0.0107442000000011,0.0020512,0.0032406000000003,-0.002867199999999,0.0016996,0,sub_12
0.0015713999999997,0.0094818000000011,0.001992,0.0023890000000004,-0.002859999999999,0.001051,0,sub_12
0.0012595999999997,0.0096396000000011,0.0022618,0.0013260000000004,-0.002425999999999,0.0004004,0,sub_12
0.0017485999999997,0.0095490000000011,0.0027926,0.0009022000000004,-0.002209799999999,-3.01999999999152e-05,0,sub_12
0.0019251999999997,0.0095160000000011,0.0033488,0.0011166000000004,-0.002846199999999,-0.0008825999999999,0,sub_12
0.0017229999999997,0.0094378000000011,0.0032908,0.0006900000000004,-0.002844599999999,-0.0008855999999999,0,sub_12
0.0018051999999997,0.0100010000000011,0.0032492,0.0009072000000004,-0.001993199999999,-0.0008851999999999,0,sub_12
0.0022059999999997,0.0100014000000011,0.002709,0.0013314000000004,-0.001783599999999,-0.0008883999999999,0,sub_12
0.0018051999999997,0.0105464000000011,0.002563,0.0017546000000004,-0.001786999999999,-0.0008911999999999,0,sub_12
0.0011153999999997,0.0107872000000011,0.0029392,0.0019614000000004,-0.001792399999999,-0.0002545999999999,0,sub_12
0.0011905999999997,0.0112082000000011,0.0028948,0.0019520000000004,-0.002436199999999,0.0003812,0,sub_12
0.0010647999999997,0.0115842000000011,0.0032986,0.0010902000000004,-0.002651599999999,0.0012242,0,sub_12
0.0007481999999997,0.0116014000000011,0.0033522,0.0002368000000004,-0.002011999999999,0.0018582,0,sub_12
0.0009151999999997,0.0119120000000011,0.0033828,-0.0001881999999995,-0.001159999999999,0.0022814,0,sub_12
0.0017505999999997,0.0117192000000011,0.0027372,-0.0004005999999995,-0.000946199999999,0.0022796,0,sub_12
0.0016953999999997,0.0114052000000011,0.0026466,-0.0010339999999995,-0.000306799999999,0.0014184,0,sub_12
0.0018485999999997,0.0113140000000011,0.0025492,-0.0003891999999995,-9.799999999904767e-05,0.0005666,0,sub_12
0.0016843999999997,0.0108934000000011,0.0026218,-0.0001731999999995,0.0001104000000009,0.0001392,0,sub_12
0.0012291999999997,0.0101754000000011,0.002975,-0.0008113999999995,0.0001088000000009,-0.0002939999999999,0,sub_12
0.0002559999999997,0.0102008000000011,0.0025516,-0.0008133999999995,-0.000747199999999,-0.0007215999999999,0,sub_12
0.0011925999999997,0.0098864000000011,0.002103,-0.0008125999999995,-0.000958599999999,-0.0011485999999999,0,sub_12
0.0016433999999997,0.0095768000000011,0.00238,-0.0012345999999995,-0.000316399999999,-0.0015795999999999,0,sub_12
0.0023421999999997,0.0101292000000011,0.0030514,-0.0016601999999995,-0.000314199999999,-0.0017975999999999,0,sub_12
0.0030355999999997,0.0111796000000011,0.0028776,-0.0020869999999995,-0.000524999999999,-0.0020153999999999,0,sub_12
0.0038923999999997,0.0120560000000011,0.0034536,-0.0025097999999995,0.0003284000000009,-0.0020207999999999,0,sub_12
0.0030135999999997,0.0130506000000011,0.0040388,-0.0016579999999995,0.0005356000000009,-0.0013755999999999,0,sub_12
0.0022701999999997,0.0131648000000011,0.0032742,-0.0006005999999995,-0.000537799999999,-0.0003001999999999,0,sub_12
0.0015977999999997,0.0118980000000011,0.00211,0.0002490000000004,-0.000756399999999,0.000347,0,sub_12
0.0015999999999997,0.0105720000000011,0.0020036,0.0015312000000004,8.96000000009724e-05,0.0007822,0,sub_12
0.0009599999999997,0.0086578000000011,0.002118,0.0017494000000004,0.0011542000000009,0.0007822,0,sub_12
0.0010971999999997,0.0079852000000011,0.0021972,0.0008958000000004,0.0011598000000009,0.0007742,0,sub_12
0.0017449999999997,0.0081640000000011,0.002866,-0.0008063999999995,0.0015970000000009,0.000119,0,sub_12
0.0023123999999997,0.0095052000000011,0.0035996,-0.0012291999999995,0.0016044000000009,-0.0007405999999999,0,sub_12
0.0023487999999997,0.0101250000000011,0.0035704,-0.0012251999999995,0.0016104000000009,-0.0015969999999999,0,sub_12
0.0032941999999997,0.0114248000000011,0.0032618,-0.0010117999999995,0.0011878000000009,-0.0020241999999999,0,sub_12
0.0033143999999997,0.0115328000000011,0.0031736,-0.0007973999999995,0.0011880000000009,-0.0022361999999999,0,sub_12
0.0029485999999997,0.0116020000000011,0.0032298,-0.0001581999999995,0.0011850000000009,-0.0020181999999999,0,sub_12
0.0026607999999997,0.0115674000000011,0.003056,-0.0005849999999995,0.0013988000000009,-0.0018077999999999,0,sub_12
0.0023215999999997,0.0116376000000011,0.002878,-0.0008021999999995,0.0007594000000009,-0.0015949999999999,0,sub_12
0.0021119999999997,0.0111492000000011,0.002806,-0.0014469999999995,0.0007656000000009,-0.0011719999999999,0,sub_12
0.0020601999999997,0.0114012000000011,0.002791,-0.0016611999999995,0.0011980000000009,-0.0011739999999999,0,sub_12
0.0019463999999997,0.0110986000000011,0.0024044,-0.0016629999999995,0.0012044000000009,-0.0013875999999999,0,sub_12
0.0016649999999997,0.0107144000000011,0.0026982,-0.0012379999999995,0.0014214000000009,-0.0013847999999999,0,sub_12
0.0015107999999997,0.0107406000000011,0.0032016,-0.0012387999999995,0.0016410000000009,-0.0015985999999999,0,sub_12
0.0014953999999997,0.0109072000000011,0.0034082,-0.0003871999999995,0.0007874000000009,-0.0020189999999999,0,sub_12
0.0017529999999997,0.0105884000000011,0.0034432,-0.0001737999999995,0.0007866000000009,-0.0020175999999999,0,sub_12
