userAcceleration.x,userAcceleration.y,userAcceleration.z,rotationRate.x,rotationRate.y,rotationRate.z,label,subject
-0.0050520000000001,-0.0079823999999987,-0.0031311999999998,0.0059106000000002,-0.0019005999999991,0.0063780000000001,0,sub_14
-0.0043452000000001,-0.0078185999999987,-0.0026221999999999,0.0057010000000003,-0.001471999999999,0.0059488000000001,0,sub_14
-0.0032814000000001,-0.0088759999999987,-0.0035565999999999,0.0048620000000003,-0.000389599999999,0.0044370000000001,0,sub_14
-0.0024920000000001,-0.0084309999999987,-0.0035099999999999,0.0046632000000003,0.0009026000000009,0.0031428000000001,0,sub_14
-0.0018136000000001,-0.0089045999999987,-0.0040239999999999,0.0053092000000003,0.0002744000000009,0.0018572000000001,0,sub_14
-0.0017898000000001,-0.0086061999999987,-0.0044023999999999,0.0059474000000003,-0.001421799999999,0.0012138000000001,0,sub_14
-0.0012096000000001,-0.0082323999999987,-0.0051369999999999,0.0053084000000003,-0.0022621999999991,0.0007740000000001,0,sub_14
-0.0006912000000001,-0.0071693999999987,-0.0046131999999999,0.0031698000000003,-0.0031077999999991,0.0009738000000001,0,sub_14
-0.0015674000000001,-0.0065889999999987,-0.0042583999999999,-0.0004651999999996,-0.0041629999999991,0.0015908000000001,0,sub_14
-0.0027368000000001,-0.0061745999999987,-0.0045581999999999,-0.0036657999999996,-0.0037273999999991,0.0019952000000001,0,sub_14
-0.0036084000000001,-0.0060167999999987,-0.0043127999999999,-0.0064275999999996,-0.0017865999999991,0.0017418000000001,0,sub_14
-0.0046100000000001,-0.0051375999999986,-0.0038251999999999,-0.0081215999999996,-0.0002731999999991,0.0008556000000001,0,sub_14
-0.0048460000000001,-0.0053191999999987,-0.0043493999999999,-0.0085333999999996,0.0008130000000008,-0.0008757999999998,0,sub_14
-0.0040770000000001,-0.0059421999999987,-0.0044077999999999,-0.0078773999999996,0.0018964000000008,-0.0028133999999998,0,sub_14
-0.0026524000000001,-0.0066423999999986,-0.0036369999999998,-0.0074337999999996,0.0025570000000008,-0.0053927999999998,0,sub_14
-0.0013570000000001,-0.0073539999999986,-0.0028011999999998,-0.0059323999999996,0.0019220000000009,-0.0077315999999998,0,sub_14
-0.0008222000000001,-0.0087205999999987,-0.0029309999999998,-0.0048587999999996,0.0019242000000009,-0.0092197999999998,0,sub_14
-0.0005760000000001,-0.0095305999999987,-0.0026665999999998,-0.0050693999999996,0.0021396000000009,-0.0096487999999998,0,sub_14
-0.0006182000000001,-0.0091223999999987,-0.0015229999999999,-0.0057111999999996,0.0025798000000009,-0.0092509999999998,0,sub_14
-0.0012996000000001,-0.0084749999999987,-0.0009951999999999,-0.0059301999999996,0.0030152000000009,-0.0079957999999998,0,sub_14
-0.0019536000000001,-0.0081457999999987,-0.0016629999999999,-0.0065709999999996,0.0043052000000008,-0.0069581999999998,0,sub_14
-0.0026398000000001,-0.0077927999999987,-0.0024107999999999,-0.0067907999999996,0.0045276000000008,-0.0057025999999998,0,sub_14
-0.0033000000000001,-0.0076983999999987,-0.0024785999999999,-0.0065837999999996,0.0045364000000008,-0.0046575999999998,0,sub_14
-0.0046182000000001,-0.0082225999999987,-0.0035275999999999,-0.0055207999999996,0.0041050000000008,-0.0042223999999998,0,sub_14
-0.0056472000000001,-0.0089433999999987,-0.0043927999999999,-0.0040319999999996,0.0032466000000008,-0.0039971999999998,0,sub_14
-0.0065306000000001,-0.0095015999999987,-0.0042081999999999,-0.0023299999999996,0.0021752000000008,-0.0039839999999998,0,sub_14
-0.0074668000000001,-0.0101915999999987,-0.0037777999999999,-0.0002073999999996,0.0013296000000008,-0.0042089999999998,0,sub_14
-0.0080496000000001,-0.0102085999999987,-0.0031855999999999,0.0025554000000003,0.0006938000000008,-0.0042159999999998,0,sub_14
-0.0080160000000001,-0.0099369999999987,-0.0027733999999999,0.0053172000000003,0.0004816000000008,-0.0035827999999998,0,sub_14
-0.0079590000000001,-0.0096683999999987,-0.0025447999999999,0.0072266000000003,0.0009100000000008,-0.0025289999999998,0,sub_14
-0.0080600000000001,-0.0090751999999987,-0.0025527999999999,0.0087054000000003,0.0011242000000008,-0.0008369999999998,0,sub_14
-0.0063214000000001,-0.0080261999999987,-0.0022551999999999,0.0089122000000003,0.0013298000000008,0.0008734000000001,0,sub_14
-0.0043438000000001,-0.0063053999999987,-0.0029377999999999,0.0076242000000003,0.0009032000000008,0.0021468000000001,0,sub_14
-0.0024554000000001,-0.0049069999999987,-0.0038483999999999,0.0050406000000003,7.080000000086748e-05,0.0025282000000001,0,sub_14
-0.0009890000000001,-0.0040789999999986,-0.0038663999999999,0.0009652000000003,-0.0011791999999991,0.0020450000000001,0,sub_14
0.0004761999999998,-0.0031167999999986,-0.0036353999999999,-0.0039607999999996,-0.0024235999999991,0.0009152000000001,0,sub_14
0.0013103999999998,-0.0033951999999986,-0.0037753999999999,-0.0090973999999996,-0.003452599999999,-0.0006437999999998,0,sub_14
0.0008601999999998,-0.0046379999999986,-0.0034659999999999,-0.0129487999999996,-0.004269599999999,-0.0030485999999998,0,sub_14
-6.800000000015622e-05,-0.0066293999999987,-0.0019099999999999,-0.0152853999999996,-0.004252199999999,-0.0054149999999998,0,sub_14
-0.0008616000000001,-0.0073125999999987,-0.0010301999999999,-0.0135687999999996,-0.003825199999999,-0.0071125999999997,0,sub_14
-0.0015586000000001,-0.0080337999999987,-0.0006497999999999,-0.0103537999999996,-0.002974799999999,-0.0094413999999997,0,sub_14
-0.0027348000000001,-0.0088415999999987,-0.0012951999999999,-0.0082169999999996,-0.001471199999999,-0.0113735999999998,0,sub_14
-0.0035842000000001,-0.0100853999999987,-0.0018821999999999,-0.0077899999999996,0.0008846000000009,-0.0118233999999998,0,sub_14
-0.0041022000000001,-0.0106289999999987,-0.0024939999999999,-0.0071631999999996,0.0017424000000009,-0.0107741999999998,0,sub_14
-0.0049854000000001,-0.0115557999999987,-0.0028069999999999,-0.0073897999999996,0.0023908000000008,-0.0099443999999998,0,sub_14
-0.0054190000000001,-0.0125609999999987,-0.0039027999999999,-0.0065533999999996,0.0036688000000008,-0.0076123999999998,0,sub_14
-0.0056324000000001,-0.0117013999999987,-0.0042287999999999,-0.0037929999999996,0.0032228000000008,-0.0050287999999998,0,sub_14
-0.0055906000000001,-0.0105151999999987,-0.0042095999999999,-0.0006077999999996,0.0021370000000008,-0.0026549999999998,0,sub_14
-0.0052642000000001,-0.0090285999999987,-0.0046885999999999,0.0015174000000003,0.0016974000000008,-0.0011439999999998,0,sub_14
-0.0048466000000001,-0.0080963999999987,-0.0050679999999999,0.0025756000000003,0.0010494000000008,0.0001462000000001,0,sub_14
-0.0048386000000001,-0.0072751999999987,-0.0048239999999999,0.0015028000000003,-0.0002265999999991,0.0014202000000001,0,sub_14
-0.0043482000000001,-0.0071649999999987,-0.0042595999999999,0.0008626000000003,-0.000437999999999,0.0024822000000001,0,sub_14
-0.0044386000000001,-0.0074391999999986,-0.0038313999999998,0.0008672000000003,-0.000435199999999,0.0026940000000001,0,sub_14
-0.0039090000000001,-0.0075021999999987,-0.0032951999999999,0.0008756000000003,-0.000428799999999,0.0020512000000001,0,sub_14
-0.0034780000000001,-0.0067403999999987,-0.0029255999999999,0.0006688000000003,-0.000635599999999,0.0016206000000001,0,sub_14
-0.0023968000000001,-0.0062989999999987,-0.0027335999999999,0.0006736000000003,-0.000843599999999,0.0003390000000001,0,sub_14
-0.0018586000000001,-0.0061295999999987,-0.0025539999999999,-0.0003845999999996,-0.0006199999999991,-0.0013777999999998,0,sub_14
-0.0013824000000001,-0.0062281999999987,-0.0018921999999999,-0.0016515999999996,-0.001254599999999,-0.0024437999999998,0,sub_14
-0.0015380000000001,-0.0065731999999987,-0.0015805999999999,-0.0024927999999996,-0.001679399999999,-0.0030797999999997,0,sub_14
-0.0013040000000001,-0.0074771999999987,-0.0019333999999999,-0.0035453999999996,-0.001252999999999,-0.0032909999999997,0,sub_14
-0.0021006000000001,-0.0072883999999987,-0.0021051999999999,-0.0045999999999996,-0.000615999999999,-0.0028615999999997,0,sub_14
-0.0030146000000001,-0.0075659999999987,-0.0022677999999999,-0.0056593999999996,-0.000619799999999,-0.0020039999999997,0,sub_14
-0.0041068000000001,-0.0076711999999987,-0.0028553999999999,-0.0063003999999996,1.82000000009074e-05,-0.0011547999999998,0,sub_14
-0.0047466000000001,-0.0078969999999987,-0.0033459999999999,-0.0060859999999996,0.0006548000000008,-0.0007267999999998,0,sub_14
-0.0050506000000001,-0.0079969999999987,-0.0038167999999999,-0.0048057999999996,0.0008626000000008,-0.0005043999999998,0,sub_14
-0.0054572000000001,-0.0096881999999987,-0.0039445999999999,-0.0028863999999996,0.0004308000000008,-0.0007039999999998,0,sub_14
-0.0054012000000001,-0.0099535999999987,-0.0039051999999999,-0.0001105999999996,0.0004196000000008,-0.0011037999999998,0,sub_14
-0.0046952000000001,-0.0102451999999987,-0.0034537999999999,0.0026652000000003,0.0004084000000008,-0.0015035999999998,0,sub_14
-0.0043776000000001,-0.0101253999999987,-0.0033011999999999,0.0047980000000003,0.0003970000000008,-0.0012669999999998,0,sub_14
-0.0043844000000001,-0.0099331999999987,-0.0030015999999999,0.0060772000000003,0.0003886000000008,-0.0010363999999998,0,sub_14
-0.0038366000000001,-0.0092641999999987,-0.0027655999999999,0.0062898000000002,0.0008082000000008,-0.0003863999999998,0,sub_14
-0.0036446000000001,-0.0087049999999987,-0.0023671999999999,0.0060716000000002,0.0010168000000008,0.0008936000000001,0,sub_14
-0.0032150000000001,-0.0077307999999987,-0.0026855999999999,0.0054258000000003,0.0010140000000008,0.0021710000000001,0,sub_14
-0.0029686000000001,-0.0066071999999987,-0.0027671999999999,0.0039294000000003,0.0012290000000008,0.0030148000000001,0,sub_14
-0.0024302000000001,-0.0057463999999987,-0.0027535999999999,0.0026690000000003,0.0012342000000008,0.0032396000000001,0,sub_14
-0.0019168000000001,-0.0047061999999987,-0.0030839999999999,0.0020504000000003,0.0010268000000008,0.0028282000000001,0,sub_14
-0.0020418000000001,-0.0047547999999987,-0.0036567999999999,0.0010072000000003,0.0006104000000008,0.0017732000000001,0,sub_14
-0.0026998000000001,-0.0050481999999987,-0.0038263999999999,0.0001800000000003,0.0006202000000008,0.0005054000000001,0,sub_14
-0.0031164000000001,-0.0066155999999987,-0.0037679999999999,0.0002064000000003,0.0008392000000008,-0.0005429999999998,0,sub_14
-0.0037324000000001,-0.0081033999999987,-0.0028787999999999,0.0004246000000003,0.0010550000000008,-0.0013963999999998,0,sub_14
-0.0036374000000001,-0.0090971999999987,-0.0022041999999999,0.0017096000000003,0.0014792000000008,-0.0020289999999998,0,sub_14
-0.0038200000000001,-0.0097331999999987,-0.0021215999999999,0.0034212000000002,0.0021142000000008,-0.0024451999999998,0,sub_14
-0.0036108000000001,-0.0102211999999987,-0.0019769999999999,0.0051458000000002,0.0025304000000008,-0.0019857999999998,0,sub_14
-0.0047782000000001,-0.0081077999999987,-0.0015203999999999,0.0079342000000002,0.0027282000000008,-0.0010913999999998,0,sub_14
-0.0044800000000001,-0.0063869999999987,-0.0028119999999999,0.0092310000000002,0.0029330000000008,-0.0006345999999998,0,sub_14
-0.0049588000000001,-0.0058957999999987,-0.0045047999999999,0.0075436000000002,0.0035750000000008,-0.0004129999999998,0,sub_14
-0.0048756000000001,-0.0052893999999987,-0.0048259999999999,0.0047904000000002,0.0040094000000008,-0.0006257999999998,0,sub_14
-0.0054052000000001,-0.0049807999999987,-0.0045435999999999,0.0030864000000002,0.0038058000000008,-0.0014919999999997,0,sub_14
-0.0047578000000001,-0.0065293999999987,-0.0052295999999999,0.0016016000000003,0.0042430000000008,-0.0029983999999997,0,sub_14
-0.0045410000000001,-0.0073027999999987,-0.0058089999999999,0.0014108000000003,0.0051012000000008,-0.0042683999999997,0,sub_14
-0.0039204000000001,-0.0070255999999987,-0.0048899999999999,0.0018526000000003,0.0044652000000008,-0.0053181999999998,0,sub_14
-0.0030698000000001,-0.0065885999999987,-0.0044241999999998,0.0022914000000003,0.0038266000000008,-0.0057271999999998,0,sub_14
-0.0017998000000001,-0.0057575999999987,-0.0046221999999999,0.0008118000000003,0.0034086000000008,-0.0063633999999998,0,sub_14
-0.0008370000000001,-0.0051425999999987,-0.0044661999999999,-0.0025967999999996,0.0017164000000008,-0.0063705999999998,0,sub_14
-0.0011476000000001,-0.0051385999999987,-0.0035243999999999,-0.0064507999999996,-0.0006161999999991,-0.0057535999999998,0,sub_14
-0.0022118000000001,-0.0060487999999987,-0.0032397999999999,-0.0092399999999996,-0.0021055999999991,-0.0038483999999998,0,sub_14
-0.0037964000000001,-0.0069793999999987,-0.0030759999999999,-0.0105345999999996,-0.0031749999999991,-0.0017195999999998,0,sub_14
-0.0051392000000001,-0.0078129999999987,-0.0031493999999999,-0.0105509999999996,-0.003613999999999,0.0014854000000001,0,sub_14
-0.0066278000000001,-0.0078953999999987,-0.0035473999999999,-0.0094825999999996,-0.003841799999999,0.0042830000000001,0,sub_14
-0.0079444000000001,-0.0084287999999987,-0.0037227999999999,-0.0075529999999996,-0.003004799999999,0.0064444000000001,0,sub_14
-0.0079820000000001,-0.0087819999999987,-0.0042425999999999,-0.0051917999999996,-0.002801599999999,0.0069004000000001,0,sub_14
-0.0076322000000001,-0.0090353999999987,-0.0045757999999999,-0.0023999999999996,-0.003020799999999,0.0060780000000001,0,sub_14
-0.0073000000000001,-0.0093495999999987,-0.0047933999999998,0.0006072000000003,-0.0036633999999991,0.0044032000000001,0,sub_14
-0.0062254000000001,-0.0094315999999987,-0.0046001999999998,0.0031736000000003,-0.0040915999999991,0.0027124000000001,0,sub_14
-0.0046298000000001,-0.0090063999999987,-0.0042437999999998,0.0044586000000003,-0.0047283999999991,0.0010130000000001,0,sub_14
-0.0036454000000001,-0.0083421999999987,-0.0034767999999998,0.0057426000000003,-0.004304999999999,0.0005940000000001,0,sub_14
-0.0026752000000001,-0.0076321999999987,-0.0029685999999998,0.0057418000000003,-0.003671799999999,0.0016674000000001,0,sub_14
-0.0018860000000001,-0.0068773999999987,-0.0026967999999999,0.0046702000000003,-0.003038399999999,0.0035880000000001,0,sub_14
-0.0011940000000001,-0.0070499999999987,-0.0025675999999999,0.0029566000000003,-0.002404399999999,0.0059314000000001,0,sub_14
-0.0013170000000001,-0.0068885999999987,-0.0027651999999999,0.0014536000000003,-0.002410199999999,0.0082770000000001,0,sub_14
-0.0016044000000001,-0.0064475999999986,-0.0029007999999999,0.0003792000000003,-0.003052399999999,0.0095584000000001,0,sub_14
-0.0019778000000001,-0.0063389999999986,-0.0035093999999999,-0.0004771999999996,-0.003688599999999,0.0095534000000001,0,sub_14
-0.0031770000000001,-0.0065333999999986,-0.0041289999999998,-0.0006847999999996,-0.003682799999999,0.0082700000000001,0,sub_14
-0.0039584000000001,-0.0060791999999987,-0.0047727999999998,-0.0008905999999996,-0.003887399999999,0.0063460000000001,0,sub_14
-0.0045080000000001,-0.0059337999999987,-0.0052553999999998,-0.0011029999999996,-0.003885199999999,0.0048538000000001,0,sub_14
-0.0048658000000001,-0.0063349999999987,-0.0054003999999999,-0.0017421999999996,-0.0038815999999991,0.0033584000000001,0,sub_14
-0.0050816000000001,-0.0066481999999987,-0.0048099999999999,-0.0017431999999996,-0.0038817999999991,0.0022948000000001,0,sub_14
-0.0040524000000001,-0.0071977999999986,-0.0041777999999999,-0.0015327999999996,-0.0040965999999991,0.0014466000000001,0,sub_14
-0.0037596000000001,-0.0080089999999986,-0.0032133999999999,-0.0004697999999996,-0.0041029999999991,0.0010314000000001,0,sub_14
-0.0031638000000001,-0.0088417999999986,-0.0022345999999999,0.0001712000000003,-0.0038921999999991,0.0010356000000001,0,sub_14
-0.0033890000000001,-0.0092129999999987,-0.0019687999999999,0.0008114000000003,-0.0030455999999991,0.0018936000000001,0,sub_14
-0.0037934000000001,-0.0093769999999987,-0.0019873999999999,0.0008086000000003,-0.0021993999999991,0.0033880000000001,0,sub_14
-0.0044746000000001,-0.0094577999999987,-0.0019101999999999,0.0007898000000003,-0.0015799999999991,0.0055324000000001,0,sub_14
-0.0049260000000001,-0.0094547999999987,-0.0024131999999999,0.0014130000000003,-0.0007489999999991,0.0074674000000001,0,sub_14
-0.0057188000000001,-0.0091775999999987,-0.0030381999999999,0.0026774000000003,-0.0001315999999991,0.0089798000000001,0,sub_14
-0.0056840000000001,-0.0086027999999987,-0.0031871999999999,0.0041540000000003,-0.0003643999999991,0.0098540000000001,0,sub_14
-0.0053754000000001,-0.0080345999999987,-0.0038071999999999,0.0054240000000003,-0.0003781999999991,0.0094446000000001,0,sub_14
-0.0052972000000001,-0.0066261999999987,-0.0040517999999999,0.0062842000000003,-0.0005873999999991,0.0077418000000001,0,sub_14
-0.0053176000000001,-0.0056553999999987,-0.0041991999999998,0.0065062000000003,-0.000580399999999,0.0058206000000001,0,sub_14
-0.0056524000000001,-0.0048193999999987,-0.0036661999999998,0.0082224000000003,-0.001224199999999,0.0041334000000001,0,sub_14
-0.0056190000000001,-0.0036091999999987,-0.0031841999999998,0.0092986000000003,-0.001653599999999,0.0026550000000001,0,sub_14
-0.0046282000000001,-0.0042177999999987,-0.0030469999999998,0.0088802000000003,-0.0012299999999991,0.0022332000000001,0,sub_14
-0.0038248000000001,-0.0051743999999987,-0.0031131999999999,0.0073892000000003,-0.0003831999999991,0.0035126000000001,0,sub_14
-0.0031152000000001,-0.0060751999999987,-0.0020141999999999,0.0056800000000003,-0.0008131999999991,0.0045786000000001,0,sub_14
-0.0020350000000001,-0.0069705999999987,-0.0020773999999999,0.0039750000000003,0.0002556000000008,0.0052062000000001,0,sub_14
-0.0013118000000001,-0.0087719999999987,-0.0031883999999999,0.0024834000000003,0.0011112000000008,0.0056220000000001,0,sub_14
-0.0022128000000001,-0.0091049999999987,-0.0034401999999999,0.0029052000000003,0.0004690000000008,0.0060530000000001,0,sub_14
-0.0030106000000001,-0.0094615999999987,-0.0032459999999999,0.0039684000000003,-0.0005957999999991,0.0060600000000001,0,sub_14
-0.0035082000000001,-0.0094717999999987,-0.0038171999999999,0.0052440000000003,-0.001237799999999,0.0067088000000001,0,sub_14
-0.0041606000000001,-0.0093257999999987,-0.0039217999999999,0.0054498000000003,-0.002303199999999,0.0075644000000001,0,sub_14
-0.0052408000000001,-0.0092197999999987,-0.0036159999999999,0.0058680000000003,-0.002945599999999,0.0090618000000001,0,sub_14
-0.0056956000000001,-0.0089809999999987,-0.0036729999999999,0.0056490000000003,-0.003158999999999,0.0103406000000001,0,sub_14
-0.0060500000000001,-0.0084795999999987,-0.0041521999999999,0.0052174000000003,-0.003586199999999,0.0109790000000001,0,sub_14
-0.0058828000000001,-0.0081113999999986,-0.0039561999999998,0.0052154000000003,-0.0038001999999991,0.0111928000000001,0,sub_14
-0.0051588000000001,-0.0080063999999986,-0.0039919999999998,0.0056364000000003,-0.004655599999999,0.0116240000000001,0,sub_14
-0.0048932000000001,-0.0081117999999986,-0.0040087999999998,0.0060584000000003,-0.005722399999999,0.0116282000000001,0,sub_14
-0.0045422000000001,-0.0077223999999987,-0.0039313999999998,0.0066890000000003,-0.006995799999999,0.0124736000000001,0,sub_14
-0.0045520000000001,-0.0076719999999986,-0.0033861999999999,0.0085980000000003,-0.007850999999999,0.0141820000000001,0,sub_14
-0.0052220000000001,-0.0074205999999987,-0.0034659999999999,0.0105090000000003,-0.008067799999999,0.0161034000000001,0,sub_14
-0.0058580000000001,-0.0073111999999987,-0.0039021999999999,0.0113568000000003,-0.007853199999999,0.0175894000000001,0,sub_14
-0.0057066000000001,-0.0067163999999986,-0.0038687999999999,0.0115644000000003,-0.0076361999999991,0.0190710000000001,0,sub_14
-0.0056478000000001,-0.0064245999999986,-0.0035351999999999,0.0119922000000003,-0.0070001999999991,0.0195006000000001,0,sub_14
-0.0048506000000001,-0.0056509999999986,-0.0041683999999999,0.0120008000000002,-0.0063557999999991,0.0182180000000001,0,sub_14
-0.0038312000000001,-0.0054577999999986,-0.0048213999999999,0.0115822000000003,-0.0059085999999991,0.0167010000000001,0,sub_14
-0.0030142000000001,-0.0049643999999986,-0.0048859999999999,0.0109542000000003,-0.005244999999999,0.0145414000000001,0,sub_14
-0.0026252000000001,-0.0050753999999987,-0.0045233999999999,0.0094728000000003,-0.004578599999999,0.0123758000000001,0,sub_14
-0.0019702000000001,-0.0055019999999987,-0.0041291999999999,0.0084132000000003,-0.004766599999999,0.0104278000000001,0,sub_14
-0.0015434000000001,-0.0066475999999987,-0.0036781999999998,0.0079860000000003,-0.005600399999999,0.0095534000000001,0,sub_14
-0.0014432000000001,-0.0081299999999987,-0.0031407999999998,0.0075594000000003,-0.006659999999999,0.0084836000000001,0,sub_14
-0.0016420000000001,-0.0098203999999987,-0.0027767999999998,0.0073384000000003,-0.0083635999999991,0.0084844000000001,0,sub_14
-0.0019850000000001,-0.0114149999999987,-0.0025451999999998,0.0081794000000003,-0.0102873999999991,0.0093474000000001,0,sub_14
-0.0037206000000001,-0.0129945999999986,-0.0024283999999998,0.0100800000000003,-0.0107129999999991,0.0104034000000001,0,sub_14
-0.0053512000000001,-0.0146463999999986,-0.0018683999999999,0.0126256000000003,-0.0094387999999991,0.0121026000000001,0,sub_14
-0.0072316000000001,-0.0151397999999986,-0.0017225999999999,0.0162398000000003,-0.0068933999999991,0.0146622000000001,0,sub_14
-0.0091028000000001,-0.0146345999999986,-0.0018857999999998,0.0211380000000003,-0.0045613999999991,0.0161626000000001,0,sub_14
-0.0098150000000001,-0.0118581999999986,-0.0022449999999999,0.0273290000000003,-0.0015861999999991,0.0155348000000001,0,sub_14
-0.0091122000000001,-0.0091475999999987,-0.0033115999999999,0.0326806000000003,0.0003204000000008,0.0136470000000001,0,sub_14
-0.0070468000000001,-0.0065745999999987,-0.0041249999999999,0.0361118000000003,0.0011726000000008,0.0106788000000001,0,sub_14
-0.0050282000000001,-0.0047387999999987,-0.0047929999999999,0.0373910000000003,-0.0003181999999991,0.0094076000000001,0,sub_14
-0.0036122000000001,-0.0039487999999987,-0.0044481999999999,0.0371604000000003,-0.0020303999999991,0.0115448000000001,0,sub_14
-0.0019382000000001,-0.0038873999999987,-0.0047079999999999,0.0347708000000003,-0.0037315999999991,0.0149194000000001,0,sub_14
-0.0010580000000001,-0.0033629999999987,-0.0038361999999999,0.0315326000000003,-0.0050011999999991,0.0176464000000001,0,sub_14
-0.0013800000000001,-0.0030227999999987,-0.0031297999999999,0.0283000000000003,-0.0056289999999991,0.0197318000000001,0,sub_14
-0.0013670000000001,-0.0031653999999987,-0.0020077999999999,0.0261460000000003,-0.0060381999999991,0.0194744000000001,0,sub_14
-0.0003046000000001,-0.0034359999999987,-0.0019185999999999,0.0246530000000003,-0.0047331999999991,0.0162284000000001,0,sub_14
-0.0001468000000001,-0.0045285999999987,-0.0014363999999999,0.0242408000000003,-0.0038699999999991,0.0138744000000001,0,sub_14
-5.260000000015625e-05,-0.0067195999999987,-0.0015737999999999,0.0236016000000003,-0.0036547999999991,0.0138696000000001,0,sub_14
-0.0011578000000001,-0.0091383999999987,-0.0020369999999999,0.0225242000000003,-0.0040849999999991,0.0157854000000001,0,sub_14
-0.0030624000000001,-0.0108801999999987,-0.0026851999999999,0.0223012000000003,-0.0034561999999991,0.0185604000000001,0,sub_14
-0.0052482000000001,-0.0119233999999987,-0.0023115999999999,0.0244188000000003,-0.0034781999999991,0.0222070000000001,0,sub_14
-0.0077268000000001,-0.0134715999999987,-0.0020175999999999,0.0280354000000003,-0.0028637999999991,0.0252224000000001,0,sub_14
-0.0099494000000001,-0.0140269999999987,-0.0030077999999999,0.0329440000000003,-0.0009701999999991,0.0269636000000001,0,sub_14
-0.0110030000000001,-0.0135117999999987,-0.0034505999999999,0.0378526000000003,7.460000000088747e-05,0.0278512000000001,0,sub_14
-0.0105544000000001,-0.0130039999999987,-0.0035149999999999,0.0402054000000003,0.0009204000000008,0.0274394000000001,0,sub_14
-0.0106876000000001,-0.0121187999999987,-0.0041195999999998,0.0408550000000003,0.0007146000000008,0.0250942000000001,0,sub_14
-0.0093706000000001,-0.0113697999999987,-0.0048915999999998,0.0412952000000003,8.840000000088759e-05,0.0214662000000001,0,sub_14
-0.0081882000000001,-0.0096435999999987,-0.0039289999999998,0.0415094000000003,-0.0028823999999991,0.0182668000000001,0,sub_14
-0.0069626000000001,-0.0072267999999987,-0.0042777999999998,0.0408826000000003,-0.0037169999999991,0.0144180000000001,0,sub_14
-0.0053652000000001,-0.0024193999999987,-0.0053275999999998,0.0396216000000003,-0.0036953999999991,0.0101362000000001,0,sub_14
-0.0031312000000001,0.0018912000000012,-0.0065645999999999,0.0351696000000002,-0.0025931999999991,0.0047626000000001,0,sub_14
-0.0011486000000001,0.0062496000000012,-0.0071377999999999,0.0262378000000002,-0.0010499999999991,-0.0004291999999998,0,sub_14
0.0016727999999998,0.0085494000000012,-0.0074777999999999,0.0134720000000002,0.0019980000000008,-0.0056497999999998,0,sub_14
0.0034023999999998,0.0090920000000012,-0.0070447999999999,-0.0010141999999996,0.0035544000000008,-0.0093849999999998,0,sub_14
0.0036113999999998,0.0070066000000012,-0.0065865999999999,-0.0161511999999996,0.0042550000000008,-0.0116279999999998,0,sub_14
0.0032815999999998,0.0038104000000012,-0.0056833999999999,-0.0293783999999996,0.0045150000000008,-0.0119343999999998,0,sub_14
0.0016787999999998,-0.0003747999999987,-0.0049785999999999,-0.0387687999999996,0.0039096000000008,-0.0122129999999998,0,sub_14
-0.0005156000000001,-0.0044139999999987,-0.0045327999999999,-0.0430353999999996,0.0037132000000008,-0.0126697999999998,0,sub_14
-0.0025402000000001,-0.0079753999999987,-0.0038415999999999,-0.0413225999999996,0.0037124000000008,-0.0139397999999998,0,sub_14
-0.0031666000000001,-0.0106579999999987,-0.0031383999999999,-0.0351145999999996,0.0047696000000008,-0.0173161999999998,0,sub_14
-0.0026286000000001,-0.0120851999999987,-0.0022889999999999,-0.0263355999999996,0.0068884000000008,-0.0219577999999998,0,sub_14
