userAcceleration.x,userAcceleration.y,userAcceleration.z,rotationRate.x,rotationRate.y,rotationRate.z,label,subject
0.0063547999999998,-0.0010677999999987,0.0028674,-0.0028367999999996,-0.014065599999999,0.0073020000000001,0,sub_13
0.0071215999999998,-0.0006827999999987,0.005012,-0.0043471999999996,-0.018741199999999,0.0070890000000001,0,sub_13
0.0089313999999998,0.0021952000000012,0.0065782,-0.0032741999999996,-0.017887999999999,0.0073144000000001,0,sub_13
0.0124639999999998,0.0042876000000012,0.0074282,-0.0011121999999996,-0.014260199999999,0.0054074000000001,0,sub_13
0.0137849999999998,0.0049232000000012,0.0082066,-0.0006481999999996,-0.009984399999999,0.0013460000000001,0,sub_13
0.0140397999999998,0.0043936000000012,0.0102098,-0.0008385999999996,-0.006780199999999,-0.0005821999999998,0,sub_13
0.0133403999999998,0.0043344000000012,0.0120872,-0.0020949999999996,-0.004209799999999,-0.0018603999999998,0,sub_13
0.0128757999999998,0.0015522000000012,0.0135262,-0.0029255999999996,-0.002066199999999,-0.0033487999999998,0,sub_13
0.0122645999999998,-0.0008959999999987,0.014744,-0.0031207999999996,-0.000990199999999,-0.0048313999999998,0,sub_13
0.0109871999999998,-0.0022265999999987,0.0150138,-0.0028939999999996,0.0005044000000009,-0.0048159999999998,0,sub_13
0.0097703999999998,-0.0015601999999987,0.0129898,-0.0022287999999996,0.0043422000000008,-0.0050143999999998,0,sub_13
0.0080159999999998,-0.0010581999999987,0.0095584,-0.0013569999999996,0.0085994000000008,-0.0048001999999998,0,sub_13
0.0066355999999998,0.0009088000000012,0.0049154,-0.0024227999999996,0.0100894000000008,-0.0035277999999998,0,sub_13
0.0044785999999998,0.0028078000000012,0.0009096,-0.0035021999999996,0.0092334000000008,-0.0016113999999998,0,sub_13
0.0044887999999998,0.0027664000000012,0.0001956,-0.0039461999999996,0.0064826000000008,-0.0018035999999998,0,sub_13
0.0031219999999998,0.0034738000000012,1.9400000000071965e-05,-0.0046065999999996,0.0026688000000008,-0.0024229999999998,0,sub_13
0.0033201999999998,0.0044056000000012,0.000597,-0.0039875999999996,-0.0011501999999991,-0.0028197999999998,0,sub_13
0.0046077999999998,0.0031454000000012,0.0039402,-0.0031427999999996,-0.002836999999999,-0.0038587999999998,0,sub_13
0.0059025999999998,0.0015476000000012,0.0072778,-0.0029303999999996,-0.002817199999999,-0.0049043999999998,0,sub_13
0.0052413999999998,0.0011720000000012,0.0077476,-0.0039971999999996,-0.0017525999999991,-0.0038449999999998,0,sub_13
0.0066025999999998,5.960000000128328e-05,0.0089434,-0.0040009999999996,-0.0011193999999991,-0.0023503999999998,0,sub_13
0.0091817999999998,-2.0599999998716785e-05,0.0108328,-0.0050697999999996,-0.0004807999999991,-0.0012905999999998,0,sub_13
0.0102471999999997,0.0007686000000012,0.010265,-0.0054897999999996,-4.899999999912902e-05,-0.0023621999999998,0,sub_13
0.0110561999999997,0.0006240000000012,0.0100204,-0.0061269999999996,0.0001974000000008,-0.0036345999999998,0,sub_13
0.0124119999999998,0.0008312000000012,0.0101068,-0.0050583999999996,0.0004370000000008,-0.0046813999999998,0,sub_13
0.0128979999999998,0.0020588000000012,0.0099642,-0.0042029999999996,0.0006774000000008,-0.0057297999999998,0,sub_13
0.0124463999999998,0.0022474000000012,0.0091118,-0.0024903999999996,0.0004938000000008,-0.0080533999999998,0,sub_13
0.0116295999999998,0.0017670000000012,0.0094452,-0.0003587999999996,-0.0007589999999991,-0.0097319999999998,0,sub_13
0.0106799999999998,0.0018128000000012,0.0091374,0.0024064000000003,-0.0035349999999991,-0.0105637999999998,0,sub_13
0.0097043999999998,0.0025086000000012,0.0098388,0.0056080000000003,-0.004606199999999,-0.0118219999999998,0,sub_13
0.0084637999999998,0.0019502000000012,0.0089002,0.0085812000000003,-0.001831399999999,-0.0137095999999998,0,sub_13
0.0061617999999998,0.0005190000000012,0.0077156,0.0094236000000003,0.0030754000000009,-0.0141193999999998,0,sub_13
0.0045675999999998,-0.0015839999999987,0.0048948,0.0091820000000003,0.0071218000000009,-0.0115445999999998,0,sub_13
0.0036103999999998,-0.0020125999999987,0.0031404,0.0080714000000003,0.0092480000000009,-0.0074779999999998,0,sub_13
0.0028705999999998,-0.0022045999999987,0.0014918,0.0054558000000003,0.0094592000000008,-0.0027783999999998,0,sub_13
0.0028317999999998,-0.0020855999999987,0.001098,0.0017920000000003,0.0068932000000008,0.0027540000000001,0,sub_13
0.0042837999999998,-0.0009493999999987,0.0017574,-0.0008173999999996,0.0017660000000009,0.0085106000000001,0,sub_13
0.0060895999999998,0.0017418000000012,0.0041248,-0.0023531999999996,-0.003783399999999,0.0123526000000001,0,sub_13
0.0087015999999997,0.0047228000000012,0.006789,-0.0030307999999996,-0.006955999999999,0.0130014000000001,0,sub_13
0.0107605999999997,0.0066924000000012,0.0087084,-0.0036891999999996,-0.008838399999999,0.0106576000000001,0,sub_13
0.0135541999999997,0.0068614000000012,0.0113266,-0.0026377999999996,-0.011785199999999,0.0066178000000001,0,sub_13
0.0145399999999997,0.0052608000000012,0.0142084,-8.499999999966556e-05,-0.014730399999999,0.0008796000000001,0,sub_13
0.0141913999999997,0.0036688000000012,0.0165214,0.0022706000000003,-0.013840799999999,-0.0046513999999998,0,sub_13
0.0130923999999998,0.0014200000000012,0.016565,0.0038112000000003,-0.007862799999999,-0.0091347999999998,0,sub_13
0.0112955999999998,-0.0017807999999986,0.0145302,0.0042762000000003,-0.000190999999999,-0.0099959999999998,0,sub_13
0.0091089999999998,-0.0028659999999986,0.0105334,0.0032362000000003,0.0081124000000009,-0.0076637999999998,0,sub_13
0.0070021999999998,-0.0018247999999986,0.0055714,-0.0014513999999996,0.0147130000000008,-0.0025775999999998,0,sub_13
0.0055747999999998,-0.0009167999999986,0.0011034,-0.0070271999999996,0.0166298000000008,0.0040168000000001,0,sub_13
0.0043717999999998,0.0003720000000013,-0.0005385999999999,-0.0122059999999996,0.0132136000000008,0.0119026000000001,0,sub_13
0.0049929999999998,0.0030718000000012,-0.0002217999999999,-0.0167523999999996,0.0057566000000008,0.0174480000000001,0,sub_13
0.0050645999999998,0.0049126000000012,0.0023316,-0.0198011999999996,-0.0040365999999991,0.0198022000000001,0,sub_13
0.0066137999999998,0.0037194000000012,0.0068684,-0.0187681999999996,-0.009787399999999,0.0200432000000001,0,sub_13
0.0073021999999998,0.0033678000000012,0.0112226,-0.0136461999999996,-0.011502199999999,0.0181584000000001,0,sub_13
0.0079765999999998,0.0041360000000012,0.0126988,-0.0085079999999996,-0.012565799999999,0.0132818000000001,0,sub_13
0.0090769999999998,0.0022676000000012,0.0135956,-0.0029261999999996,-0.012554799999999,0.0069270000000001,0,sub_13
0.0100007999999998,-0.0005399999999987,0.0137756,0.0022364000000003,-0.009352399999999,0.0020608000000001,0,sub_13
0.0104897999999998,-0.0013903999999987,0.011341,0.0054634000000003,-0.008278999999999,-0.0015343999999998,0,sub_13
0.0102001999999998,-0.0012913999999987,0.0094138,0.0050534000000003,-0.007625799999999,-0.0034453999999998,0,sub_13
0.0109423999999998,-0.0056451999999987,0.009136,0.0035738000000003,-0.0059103999999991,-0.0036559999999998,0,sub_13
0.0098231999999998,-0.0041057999999987,0.0087648,0.0022946000000003,-0.0037829999999991,-0.0017449999999998,0,sub_13
0.0109581999999998,-0.0007009999999987,0.0085438,0.0025090000000003,-0.0020851999999991,-0.0002501999999998,0,sub_13
0.0119783999999998,0.0029160000000012,0.009017,0.0020910000000003,-0.0008027999999991,-0.0008955999999998,0,sub_13
0.0129601999999998,0.0055662000000012,0.0076078,0.0014596000000003,-0.0010049999999991,-0.0030361999999998,0,sub_13
0.0114703999999998,0.0077448000000012,0.006156,0.0010304000000003,-0.0029123999999991,-0.0047149999999997,0,sub_13
0.0107469999999998,0.0070270000000012,0.005056,0.0010212000000003,-0.0050395999999991,-0.0051087999999997,0,sub_13
0.0106379999999998,0.0022468000000012,0.0046058,-0.0009159999999996,-0.0090765999999991,-0.0057273999999998,0,sub_13
0.0084929999999998,-0.0013213999999987,0.005674,-0.0005013999999996,-0.009297799999999,-0.0035569999999998,0,sub_13
0.0066365999999998,-0.0050315999999987,0.008174,-8.779999999964623e-05,-0.008458999999999,-0.0001059999999998,0,sub_13
0.0067163999999998,-0.0049335999999987,0.0093352,0.0005532000000003,-0.004640799999999,0.0035254000000001,0,sub_13
0.0077473999999998,-0.0055745999999987,0.01035,0.0001322000000003,-0.000814599999999,0.0060814000000001,0,sub_13
0.0070091999999998,-0.0030897999999987,0.010383,-0.0004991999999996,0.0034392000000009,0.0084218000000001,0,sub_13
0.0074471999999998,-0.0021417999999987,0.0097108,-0.0026353999999996,0.0045116000000008,0.0092740000000001,0,sub_13
0.0095391999999998,-0.0018995999999987,0.0095304,-0.0026389999999996,0.0057880000000008,0.0105680000000001,0,sub_13
0.0104605999999998,-0.0026459999999987,0.0105086,-0.0009469999999996,0.0051384000000008,0.0125174000000001,0,sub_13
0.0103351999999998,-0.0019665999999987,0.0122208,0.0018146000000003,0.0044878000000008,0.0138332000000001,0,sub_13
0.0111419999999998,0.0007672000000012,0.0137896,0.0058660000000003,0.0059632000000008,0.0151552000000001,0,sub_13
0.0127257999999998,0.0052448000000012,0.0137834,0.0110002000000003,0.0078670000000008,0.0141204000000001,0,sub_13
0.0147133999999998,0.0075492000000012,0.0123256,0.0142430000000003,0.0106520000000008,0.0075166000000001,0,sub_13
0.0142221999999998,0.0087032000000012,0.01063,0.0153680000000003,0.0138830000000008,-0.0018711999999998,0,sub_13
0.0130533999999998,0.0076386000000012,0.0084294,0.0147660000000003,0.0145554000000008,-0.0093449999999998,0,sub_13
0.0094011999999998,0.0043000000000012,0.006973,0.0135038000000003,0.0133024000000008,-0.0142571999999998,0,sub_13
0.0071249999999998,-0.0006249999999987,0.0058214,0.0115890000000003,0.0131016000000008,-0.0153297999999998,0,sub_13
0.0047469999999998,-0.0033537999999987,0.0053996,0.0109228000000003,0.0107462000000008,-0.0114769999999998,0,sub_13
0.0046223999999998,-0.0049045999999987,0.0052046,0.0100272000000003,0.0077408000000008,-0.0050699999999998,0,sub_13
0.0046359999999998,-0.0044381999999987,0.005002,0.0087164000000003,0.0077180000000008,0.0017576000000001,0,sub_13
0.0076631999999998,-0.0032547999999987,0.00445,0.0074188000000003,0.0079194000000008,0.0058076000000001,0,sub_13
0.0091513999999998,-0.0021087999999987,0.0056938,0.0057208000000003,0.0068680000000008,0.0070616000000001,0,sub_13
0.0086931999999998,0.0009060000000012,0.0074084,0.0038152000000003,0.0062466000000008,0.0074588000000001,0,sub_13
0.0097317999999998,0.0043774000000012,0.0085744,0.0034156000000003,0.0069044000000008,0.0063694000000001,0,sub_13
0.0122057999999998,0.0060042000000012,0.0100948,0.0043028000000003,0.0065026000000008,0.0027266000000001,0,sub_13
0.0123875999999998,0.0062522000000012,0.0111482,0.0045472000000003,0.0058884000000008,-0.0004929999999998,0,sub_13
0.0120231999999998,0.0064350000000012,0.0112248,0.0047720000000003,0.0058978000000008,-0.0030551999999998,0,sub_13
0.0132743999999998,0.0039656000000012,0.0113308,0.0043634000000003,0.0071888000000008,-0.0058369999999998,0,sub_13
0.0124253999999998,0.0027532000000012,0.0105754,0.0045882000000003,0.0074104000000008,-0.0081857999999998,0,sub_13
0.0116179999999998,0.0001158000000012,0.0094162,0.0043844000000003,0.0078442000000008,-0.0098967999999998,0,sub_13
0.0106607999999998,-0.0012769999999987,0.00977,0.0046182000000003,0.0099942000000008,-0.0103327999999998,0,sub_13
0.0090081999999998,-0.0023271999999987,0.0097288,0.0041976000000003,0.0108604000000008,-0.0088489999999998,0,sub_13
0.0077695999999998,-0.0021195999999987,0.0086056,0.0035568000000003,0.0115092000000008,-0.0060845999999998,0,sub_13
0.0086583999999998,-0.0039371999999987,0.0089684,0.0027074000000003,0.0132242000000008,-0.0033229999999998,0,sub_13
0.0071919999999998,-0.0019271999999987,0.0086502,0.0029240000000003,0.0153588000000008,8.640000000016552e-05,0,sub_13
0.0061075999999998,0.0001584000000012,0.0073216,0.0035516000000003,0.0149210000000008,0.0024414000000001,0,sub_13
0.0072061999999998,0.0019460000000012,0.0057478,0.0046156000000003,0.0144904000000008,0.0026630000000001,0,sub_13
0.0078251999999998,0.0034890000000012,0.005728,0.0063262000000003,0.0128014000000008,0.0015962000000001,0,sub_13
0.0080665999999997,0.0049716000000012,0.0055294,0.0078168000000003,0.0094094000000008,0.0003164000000001,0,sub_13
0.0096937999999997,0.0037856000000012,0.0068378,0.0084586000000003,0.0064492000000008,-0.0016107999999998,0,sub_13
0.0096753999999997,0.0024972000000012,0.0089036,0.0082490000000003,0.0047668000000008,-0.0026909999999998,0,sub_13
0.0091623999999997,0.0024954000000012,0.0111334,0.0086794000000003,0.0035066000000008,-0.0033399999999998,0,sub_13
0.0086029999999997,0.0022286000000012,0.0125948,0.0086728000000003,0.0009542000000008,-0.0044049999999998,0,sub_13
0.0078215999999997,0.0013496000000012,0.0130008,0.0076012000000003,-0.0007439999999991,-0.0050511999999998,0,sub_13
0.0078781999999998,0.0017026000000012,0.0120592,0.0063154000000003,-0.0022299999999991,-0.0052719999999998,0,sub_13
0.0090197999999998,0.0026802000000012,0.009435,0.0052334000000003,-0.0018097999999991,-0.0046583999999998,0,sub_13
0.0096159999999998,0.0029280000000012,0.006762,0.0026558000000003,-0.0013861999999991,-0.0036279999999998,0,sub_13
0.0096037999999998,0.0023072000000012,0.0041594,-0.0014133999999996,-0.0001069999999991,-0.0021817999999998,0,sub_13
0.0087061999999998,0.0022264000000012,0.0032308,-0.0050663999999996,0.0003128000000008,0.0007638000000001,0,sub_13
0.0068895999999998,0.0022182000000012,0.0030602,-0.0070221999999996,-0.0005551999999991,0.0045776000000001,0,sub_13
0.0058415999999998,0.0015740000000012,0.0042574,-0.0085369999999996,-0.0026907999999991,0.0071334000000001,0,sub_13
0.0061345999999998,-0.0002803999999987,0.0063654,-0.0089857999999996,-0.0046185999999991,0.0101238000000001,0,sub_13
0.0076881999999998,-0.0012979999999986,0.0093052,-0.0079399999999996,-0.0054897999999991,0.0139778000000001,0,sub_13
0.0091499999999998,-0.0015283999999986,0.0113034,-0.0066693999999996,-0.0050783999999991,0.0165500000000001,0,sub_13
0.0108821999999998,-0.0007969999999986,0.0129008,-0.0060515999999996,-0.0034029999999991,0.0169696000000001,0,sub_13
0.0125435999999998,-0.0012899999999986,0.0139474,-0.0056395999999996,-0.0019321999999991,0.0154652000000001,0,sub_13
0.0126913999999998,-0.0008243999999986,0.0147254,-0.0045795999999996,0.0008162000000008,0.0135364000000001,0,sub_13
0.0110499999999998,0.0014206000000012,0.0132916,-0.0026681999999996,0.0037722000000008,0.0122542000000001,0,sub_13
0.0101617999999998,0.0030746000000012,0.0115178,-0.0009719999999996,0.0052418000000008,0.0099042000000001,0,sub_13
0.0089559999999998,0.0032410000000012,0.0112786,-0.0003307999999996,0.0048160000000008,0.0092682000000001,0,sub_13
0.0081687999999998,0.0036828000000012,0.0095132,0.0013542000000003,0.0009708000000008,0.0103532000000001,0,sub_13
0.0084279999999998,0.0025102000000012,0.0082058,0.0019458000000003,-0.0035395999999991,0.0103656000000001,0,sub_13
0.0096813999999998,-6.239999999873639e-05,0.0081388,0.0014762000000003,-0.0082533999999991,0.0088754000000001,0,sub_13
0.0097393999999998,-0.0011215999999987,0.0095376,0.0014420000000003,-0.0106267999999991,0.0078124000000001,0,sub_13
0.0091395999999998,-0.0020853999999987,0.0093114,0.0024832000000003,-0.010662199999999,0.0071814000000001,0,sub_13
0.0080015999999998,-0.0017001999999987,0.010657,0.0020396000000003,-0.007289399999999,0.0080310000000001,0,sub_13
0.0078867999999998,0.0012714000000012,0.009136,0.0020462000000003,-0.003888199999999,0.0099494000000001,0,sub_13
0.0067473999999998,0.0020170000000012,0.006538,-0.0011475999999996,-5.139999999908898e-05,0.0122722000000001,0,sub_13
0.0051201999999998,0.0015126000000012,0.0028928,-0.0043635999999996,-0.000265999999999,0.0154546000000001,0,sub_13
0.0042209999999998,0.0014072000000012,0.0007104,-0.0082753999999996,-0.0060671999999991,0.0188582000000001,0,sub_13
0.0040045999999998,0.0005368000000013,-0.0007919999999999,-0.0107041999999996,-0.0152781999999991,0.0212082000000001,0,sub_13
0.0028925999999998,-0.0008439999999986,0.0007552,-0.0101487999999996,-0.026199999999999,0.0225132000000001,0,sub_13
0.0057113999999998,0.0023658000000013,0.0045342,-0.0046655999999996,-0.035847799999999,0.0206462000000001,0,sub_13
0.0121587999999998,0.0046124000000013,0.00965,0.0015076000000003,-0.039299599999999,0.0138624000000001,0,sub_13
0.0186985999999998,0.0066744000000013,0.013739,0.0079748000000003,-0.036292399999999,0.0021532000000001,0,sub_13
0.0223351999999998,0.0072762000000012,0.0180756,0.0132040000000003,-0.026028399999999,-0.0117101999999998,0,sub_13
0.0235199999999998,0.0073476000000012,0.0188378,0.0150414000000003,-0.0093667999999991,-0.0241101999999998,0,sub_13
0.0218597999999998,0.0033290000000012,0.0178744,0.0136666000000003,0.0079324000000008,-0.0333285999999998,0,sub_13
0.0176051999999998,-0.0017623999999987,0.0159912,0.0098666000000003,0.0204942000000008,-0.0367789999999998,0,sub_13
0.0121157999999998,-0.0070121999999987,0.0143846,0.0062388000000003,0.0304722000000008,-0.0336017999999998,0,sub_13
0.0092107999999998,-0.0099915999999987,0.0124984,0.0045064000000003,0.0389360000000008,-0.0263501999999998,0,sub_13
0.0086057999999998,-0.0115141999999986,0.0122264,0.0038294000000003,0.0459004000000008,-0.0180209999999998,0,sub_13
0.0069627999999998,-0.0076371999999986,0.01068,0.0031352000000003,0.0515762000000008,-0.0071265999999998,0,sub_13
0.0059851999999998,-0.0012585999999987,0.0089416,0.0020396000000003,0.0566472000000009,0.0043962000000001,0,sub_13
0.0078991999999998,0.0049648000000012,0.0051004,-0.0003389999999996,0.0574762000000009,0.0122834000000001,0,sub_13
0.0086551999999998,0.0108694000000012,0.0011544,-0.0061595999999996,0.0485202000000008,0.0148052000000001,0,sub_13
0.0083237999999998,0.0144360000000012,-0.0005439999999999,-0.0122077999999996,0.0308522000000008,0.0117820000000001,0,sub_13
0.0072437999999998,0.0137350000000012,0.0011794,-0.0139753999999996,0.0116958000000008,0.0043040000000001,0,sub_13
0.0058301999999998,0.0127090000000012,0.0027232,-0.0093109999999996,-0.0034239999999991,-0.0059115999999998,0,sub_13
0.0041231999999998,0.0092748000000012,0.0052506,-0.0033453999999996,-0.0130123999999991,-0.0152705999999998,0,sub_13
0.0031605999999998,0.0070936000000013,0.0069682,0.0041380000000003,-0.0155711999999991,-0.0211969999999998,0,sub_13
0.0026697999999998,0.0045026000000013,0.0077328,0.0107716000000003,-0.0130309999999991,-0.0228631999999998,0,sub_13
0.0044335999999998,0.0013150000000013,0.0072514,0.0142010000000003,-0.0085731999999991,-0.0217767999999998,0,sub_13
0.0065379999999998,-0.0020983999999986,0.0081988,0.0120636000000003,-0.0058169999999991,-0.0188357999999998,0,sub_13
0.0075149999999998,-0.0036489999999987,0.0101452,0.0071504000000003,-0.0028403999999991,-0.0152733999999998,0,sub_13
0.0085907999999998,-0.0062357999999987,0.0122216,0.0013808000000003,0.0005610000000008,-0.0106493999999998,0,sub_13
0.0098045999999998,-0.0058229999999987,0.0144378,-0.0033257999999996,0.0037430000000008,-0.0053765999999998,0,sub_13
0.0114757999999998,-0.0025605999999987,0.0160742,-0.0050373999999996,0.0062848000000008,-0.0024321999999998,0,sub_13
0.0137273999999998,0.0005112000000012,0.0162928,-0.0046067999999996,0.0077722000000008,-0.0017901999999998,0,sub_13
0.0150779999999998,0.0037740000000012,0.0152008,-0.0014031999999996,0.0075512000000008,-0.0026221999999998,0,sub_13
0.0159653999999998,0.0063868000000012,0.0139102,0.0037226000000003,0.0062642000000008,-0.0049347999999998,0,sub_13
0.0163247999999998,0.0072504000000012,0.0119466,0.0073586000000003,0.0051982000000008,-0.0078989999999998,0,sub_13
0.0146377999999998,0.0062916000000012,0.011049,0.0065014000000003,0.0024530000000008,-0.0090219999999998,0,sub_13
0.0105305999999998,0.0054926000000012,0.0101608,0.0015864000000003,0.0001430000000008,-0.0088919999999998,0,sub_13
0.0067913999999998,0.0041188000000012,0.01028,-0.0041657999999996,0.0014580000000008,-0.0087725999999998,0,sub_13
0.0047775999999998,0.0009578000000012,0.009417,-0.0082081999999996,0.0038306000000008,-0.0082151999999998,0,sub_13
0.0036723999999998,-0.0019091999999987,0.008559,-0.0073505999999996,0.0044816000000008,-0.0076215999999998,0,sub_13
0.0033931999999998,-0.0040221999999987,0.0076378,-0.0024333999999996,0.0068072000000008,-0.0073765999999998,0,sub_13
0.0051795999999998,-0.0038505999999987,0.0062072,0.0054720000000003,0.0097598000000008,-0.0066841999999998,0,sub_13
0.0069817999999998,-0.0019453999999987,0.0050904,0.0120652000000003,0.0091220000000008,-0.0047285999999998,0,sub_13
0.0075043999999998,0.0020668000000012,0.0052352,0.0148140000000003,0.0072210000000008,-0.0032255999999998,0,sub_13
0.0088783999999998,0.0047318000000012,0.0067588,0.0128666000000003,0.0051224000000008,-0.0015413999999998,0,sub_13
0.0111201999999998,0.0074628000000012,0.0085808,0.0064240000000003,0.0004804000000008,0.0007556000000001,0,sub_13
0.0118579999999998,0.0085914000000012,0.0120646,-1.099999999962624e-05,-0.0028815999999991,0.0026236000000001,0,sub_13
0.0128775999999998,0.0078016000000012,0.0145308,-0.0042803999999996,-0.0032927999999991,0.0025944000000001,0,sub_13
0.0141717999999998,0.0063674000000012,0.0159988,-0.0068293999999996,-0.0013637999999991,0.0019332000000001,0,sub_13
0.0134705999999998,0.0054006000000012,0.0154988,-0.0080933999999996,0.0016260000000008,0.0012796000000001,0,sub_13
0.0122335999999998,0.0031570000000012,0.013825,-0.0061565999999996,0.0051856000000008,0.0002216000000001,0,sub_13
0.0118825999999998,0.0010418000000012,0.0108932,-0.0040121999999996,0.0064050000000008,-0.0019001999999998,0,sub_13
0.0102123999999998,0.0011324000000012,0.009296,-0.0044387999999996,0.0055020000000008,-0.0038235999999998,0,sub_13
0.0073397999999998,0.0025904000000012,0.0077456,-0.0052921999999996,0.0041760000000008,-0.0061765999999998,0,sub_13
0.0060053999999998,0.0017746000000012,0.0064228,-0.0046403999999996,0.0043406000000008,-0.0095891999999998,0,sub_13
0.0067743999999998,0.0016946000000012,0.0053272,-0.0027075999999996,0.0043448000000008,-0.0123531999999998,0,sub_13
0.0086717999999998,0.0028798000000012,0.0057232,-0.0016435999999996,0.0024288000000008,-0.0136249999999998,0,sub_13
0.0106469999999998,0.0048464000000012,0.006708,-0.0005853999999996,-0.0022509999999991,-0.0163889999999998,0,sub_13
0.0123825999999997,0.0056824000000012,0.0096696,-0.0010121999999996,-0.0054323999999991,-0.0195925999999998,0,sub_13
0.0146927999999997,0.0076678000000012,0.0130318,-0.0014433999999996,-0.0073711999999991,-0.0225539999999998,0,sub_13
0.0147589999999997,0.0065002000000012,0.0157202,-0.0016495999999996,-0.0065417999999991,-0.0253035999999998,0,sub_13
0.0114641999999997,0.0039124000000012,0.015314,-0.0022691999999996,-0.0027283999999991,-0.0280601999999998,0,sub_13
0.0085405999999997,0.0016544000000012,0.012875,-0.0024667999999996,0.0036258000000008,-0.0271849999999998,0,sub_13
0.0058709999999997,-0.0022331999999986,0.0082072,-0.0011927999999996,0.0076208000000008,-0.0237327999999998,0,sub_13
0.0018541999999998,-0.0043553999999986,0.0036042,-0.0009917999999996,0.0103676000000008,-0.0181801999999998,0,sub_13
-0.0009342000000001,-0.0043115999999986,-0.0012983999999999,-0.0020961999999996,0.0082160000000009,-0.0119895999999998,0,sub_13
-0.0011170000000001,-0.0025741999999987,-0.0025747999999999,-0.0040717999999996,0.0032668000000009,-0.0061937999999998,0,sub_13
0.0002103999999998,-0.0037065999999987,-0.0014351999999999,-0.0030601999999996,-0.002541799999999,-0.0012305999999998,0,sub_13
