userAcceleration.x,userAcceleration.y,userAcceleration.z,rotationRate.x,rotationRate.y,rotationRate.z,label,subject
0.0020821999999998,0.0036372000000012,-0.0029791999999998,0.0006162000000003,-0.002531999999999,-0.0004307999999998,0,sub_16
0.0021735999999998,0.0040196000000012,-0.0028019999999998,-2.0199999999640644e-05,-0.001465399999999,-0.0002227999999998,0,sub_16
0.0026909999999998,0.0039636000000012,-0.0025783999999998,0.0001950000000003,-0.000403399999999,0.0004182000000001,0,sub_16
0.0028959999999998,0.0041064000000012,-0.0021145999999998,-0.0002379999999996,-0.000383799999999,0.0010614000000001,0,sub_16
0.0028573999999998,0.0044304000000012,-0.0026449999999998,-0.0006689999999996,-0.000150399999999,0.0014906000000001,0,sub_16
0.0021301999999998,0.0042634000000012,-0.0035873999999998,-0.0008837999999996,8.480000000093472e-05,0.0012804000000001,0,sub_16
0.0023651999999998,0.0035058000000012,-0.0035801999999998,-0.0006737999999996,-0.000107599999999,0.0010738000000001,0,sub_16
0.0017935999999998,0.0035326000000012,-0.0036365999999998,-0.0004589999999996,0.0003410000000009,0.0004392000000001,0,sub_16
0.0017223999999998,0.0038078000000012,-0.0043225999999999,-2.6599999999640573e-05,0.0007690000000009,-0.0004127999999998,0,sub_16
0.0016549999999998,0.0039876000000012,-0.0045715999999999,-2.559999999964057e-05,0.0007700000000009,-0.0006263999999998,0,sub_16
0.0018877999999998,0.0039284000000012,-0.0046443999999999,-0.0002389999999996,0.0005586000000008,-0.0008411999999998,0,sub_16
0.0016371999999998,0.0043496000000011,-0.0047625999999999,-0.0004541999999996,0.0007918000000009,-0.0008381999999998,0,sub_16
0.0018989999999998,0.0043342000000011,-0.0049343999999998,-0.0004569999999996,0.0008110000000009,-0.0008335999999998,0,sub_16
0.0017299999999998,0.0034458000000011,-0.0050049999999998,0.0001822000000003,0.0014664000000009,-0.0006115999999998,0,sub_16
0.0017359999999998,0.0029142000000011,-0.0047365999999998,0.0006070000000003,0.0019094000000009,-0.0003907999999998,0,sub_16
0.0022309999999998,0.0036014000000012,-0.0041527999999998,0.0008154000000003,0.0021384000000009,0.0002560000000001,0,sub_16
0.0019337999999997,0.0041080000000012,-0.0041101999999998,0.0008124000000003,0.0014992000000009,0.0002568000000001,0,sub_16
0.0023901999999997,0.0040574000000012,-0.0038757999999999,0.0005952000000003,0.0002234000000009,-0.0001701999999998,0,sub_16
0.0029285999999997,0.0042858000000012,-0.0037955999999999,0.0001628000000003,-0.001477799999999,-0.0005983999999998,0,sub_16
0.0032005999999997,0.0044186000000012,-0.0036705999999999,-0.0004825999999996,-0.002309399999999,-0.0008091999999998,0,sub_16
0.0023405999999997,0.0043278000000012,-0.0040203999999999,-0.0006981999999996,-0.002715599999999,-0.0012311999999998,0,sub_16
0.0022693999999998,0.0035944000000012,-0.0041141999999999,-0.0009089999999996,-0.002056599999999,-0.0016545999999998,0,sub_16
0.0013117999999998,0.0034956000000012,-0.0040019999999998,-0.0017601999999996,-0.000758599999999,-0.0014423999999998,0,sub_16
0.0012819999999998,0.0036752000000012,-0.0043239999999998,-0.0023959999999996,0.0007524000000009,-0.0014423999999998,0,sub_16
0.0012091999999998,0.0035732000000012,-0.0048609999999998,-0.0019663999999996,0.0011778000000009,-0.0016535999999998,0,sub_16
0.0017559999999998,0.0031406000000012,-0.0050661999999998,-0.0013263999999996,0.0011756000000009,-0.0016491999999998,0,sub_16
0.0017557999999998,0.0029322000000012,-0.0050343999999998,-0.0004787999999996,0.0001066000000009,-0.0014283999999998,0,sub_16
0.0020391999999998,0.0026830000000012,-0.0056069999999999,0.0007954000000003,-0.000734399999999,-0.0014119999999998,0,sub_16
0.0012415999999998,0.0025616000000012,-0.0053081999999999,0.0014284000000003,-0.001361599999999,-0.0009731999999998,0,sub_16
0.0008531999999998,0.0028650000000012,-0.0049455999999999,0.0014262000000003,-0.001557999999999,-0.0011801999999998,0,sub_16
0.0009591999999998,0.0028158000000012,-0.0045299999999999,0.0020642000000003,-0.001544599999999,-0.0011693999999998,0,sub_16
0.0013413999999998,0.0032028000000012,-0.0044861999999998,0.0020640000000003,-0.001102799999999,-0.0011635999999998,0,sub_16
0.0018377999999998,0.0038588000000012,-0.0039829999999998,0.0016354000000003,-0.000890799999999,-0.0005259999999998,0,sub_16
0.0023457999999998,0.0038918000000012,-0.0036729999999998,0.0014212000000003,-0.000890999999999,-0.0003137999999998,0,sub_16
0.0023717999999997,0.0034258000000012,-0.0036745999999998,0.0009916000000003,-0.000892199999999,0.0003242000000001,0,sub_16
0.0023231999999997,0.0039418000000012,-0.0037107999999998,-0.0002893999999996,-0.000663399999999,0.0005332000000001,0,sub_16
0.0021583999999998,0.0037928000000012,-0.0033343999999999,-0.0007167999999996,-0.000437599999999,0.0007482000000001,0,sub_16
0.0019851999999998,0.0038154000000012,-0.0031513999999999,-0.0009299999999996,-0.000211799999999,0.0007510000000001,0,sub_16
0.0023597999999998,0.0041116000000012,-0.0033689999999998,-0.0011459999999996,-0.000412999999999,0.0009678000000001,0,sub_16
0.0026761999999998,0.0043972000000012,-0.0031485999999998,-0.0009351999999996,-0.000403399999999,0.0014010000000001,0,sub_16
0.0026441999999998,0.0039442000000012,-0.0033787999999998,-0.0002959999999996,-0.000830999999999,0.0011924000000001,0,sub_16
0.0024967999999998,0.0038594000000012,-0.0039205999999998,0.0001298000000003,-0.001045599999999,0.0011956000000001,0,sub_16
0.0019547999999998,0.0033536000000012,-0.0043717999999998,0.0003442000000003,-0.001257799999999,0.0007700000000001,0,sub_16
0.0017095999999998,0.0032906000000012,-0.0043249999999999,0.0009876000000003,-0.001251199999999,0.0001352000000001,0,sub_16
0.0018003999999998,0.0036480000000012,-0.0045559999999999,0.0012024000000003,-0.001669199999999,-0.0005021999999998,0,sub_16
0.0016595999999998,0.0039224000000012,-0.0043507999999999,0.0014172000000003,-0.001874999999999,-0.0009261999999998,0,sub_16
0.0015377999999998,0.0041822000000012,-0.0041147999999999,0.0014176000000003,-0.001868799999999,-0.0009245999999998,0,sub_16
0.0020185999999998,0.0041798000000012,-0.0038515999999998,0.0018506000000003,-0.000585599999999,-0.0009215999999998,0,sub_16
0.0021051999999998,0.0036812000000012,-0.0038809999999998,0.0020678000000003,0.0009026000000009,-0.0002809999999998,0,sub_16
0.0023077999999997,0.0031216000000012,-0.0040041999999998,0.0018592000000003,0.0026052000000009,0.0003564000000001,0,sub_16
0.0023763999999997,0.0026196000000012,-0.0039867999999998,0.0016458000000003,0.0034548000000009,0.0012084000000001,0,sub_16
0.0024353999999997,0.0024986000000012,-0.0033797999999998,0.0012204000000003,0.0045196000000009,0.0020610000000001,0,sub_16
0.0024119999999997,0.0026230000000012,-0.0032755999999999,0.0003616000000003,0.0040944000000009,0.0029126000000001,0,sub_16
0.0023741999999997,0.0034754000000012,-0.0032331999999999,-0.0009239999999996,0.0030340000000009,0.0031210000000001,0,sub_16
0.0022735999999998,0.0042834000000012,-0.0024713999999998,-0.0011407999999996,0.0017596000000009,0.0026962000000001,0,sub_16
0.0024401999999998,0.0053656000000012,-0.0020575999999998,-0.0017803999999996,0.0015510000000009,0.0024808000000001,0,sub_16
0.0029973999999998,0.0054472000000012,-0.0029525999999998,-0.0017783999999996,0.0011284000000009,0.0016268000000001,0,sub_16
0.0028767999999998,0.0053780000000012,-0.0028979999999998,-0.0013469999999996,0.0017678000000009,0.0012016,0,sub_16
0.0026237999999998,0.0051808000000012,-0.0028083999999998,-0.0013401999999996,0.0030470000000009,0.0009864000000001,0,sub_16
0.0019377999999998,0.0048286000000012,-0.0034385999999998,-0.0017587999999996,0.0047532000000008,0.0011980000000001,0,sub_16
0.0018357999999998,0.0039782000000012,-0.0040877999999998,-0.0017515999999996,0.0058206000000008,0.0009862000000001,0,sub_16
0.0016589999999998,0.0039612000000012,-0.0039963999999998,-0.0019615999999996,0.0062486000000009,0.0009872000000001,0,sub_16
0.0021357999999998,0.0040446000000012,-0.0042823999999998,-0.0015351999999996,0.0053978000000009,0.0005670000000001,0,sub_16
0.0021449999999998,0.0036418000000012,-0.0041411999999998,-0.0006859999999996,0.0041178000000008,0.0005776000000001,0,sub_16
0.0021999999999998,0.0029816000000012,-0.0040305999999998,-0.0002629999999996,0.0030520000000009,0.0003684000000001,0,sub_16
0.0016745999999998,0.0030052000000012,-0.0040489999999998,-0.0002667999999996,0.0026242000000009,0.0007962000000001,0,sub_16
0.0013681999999997,0.0032300000000012,-0.0040917999999998,0.0001580000000003,0.0026210000000009,0.0012266000000001,0,sub_16
0.0007145999999997,0.0033708000000012,-0.0036529999999999,0.0001568000000003,0.0028352000000009,0.0014424000000001,0,sub_16
0.0009559999999997,0.0034702000000012,-0.0039103999999999,-5.859999999964059e-05,0.0028370000000009,0.0016570000000001,0,sub_16
0.0015391999999998,0.0040818000000012,-0.0037911999999999,-0.0002759999999996,0.0028372000000009,0.0022988000000001,0,sub_16
0.0020657999999998,0.0044776000000012,-0.0032759999999998,-0.0002789999999996,0.0028374000000009,0.0027284000000001,0,sub_16
0.0024843999999998,0.0044624000000012,-0.0030593999999998,-0.0004943999999996,0.0026270000000009,0.0027294000000001,0,sub_16
0.0029831999999997,0.0042132000000012,-0.0034149999999998,-0.0013487999999996,0.0026292000000009,0.0029372000000001,0,sub_16
0.0030139999999997,0.0040668000000012,-0.0035601999999998,-0.0017735999999996,0.0030568000000009,0.0029336000000001,0,sub_16
0.0028009999999997,0.0039620000000012,-0.0031783999999998,-0.0017725999999996,0.0032698000000009,0.0029332000000001,0,sub_16
0.0029719999999997,0.0037718000000012,-0.0033159999999998,-0.0015583999999996,0.0032744000000009,0.0025094000000001,0,sub_16
0.0031337999999998,0.0032950000000012,-0.0034029999999998,-0.0013479999999996,0.0032756000000009,0.0029402000000001,0,sub_16
0.0026543999999998,0.0030420000000012,-0.0036887999999998,-0.0011385999999996,0.0030636000000009,0.0033710000000001,0,sub_16
0.0024081999999998,0.0033548000000012,-0.0033407999999998,-0.0011397999999996,0.0030672000000009,0.0033730000000001,0,sub_16
0.0023265999999998,0.0034392000000012,-0.0039667999999998,-0.0011379999999996,0.0032856000000009,0.0029474000000001,0,sub_16
0.0020875999999998,0.0031768000000012,-0.0043685999999998,-0.0013485999999996,0.0035010000000009,0.0025184000000001,0,sub_16
0.0015195999999998,0.0034312000000012,-0.0048759999999998,-0.0017725999999996,0.0037172000000009,0.0020878000000001,0,sub_16
0.0018777999999998,0.0039946000000012,-0.0045555999999998,-0.0017687999999996,0.0039328000000009,0.0014468000000001,0,sub_16
0.0018123999999998,0.0038714000000012,-0.0048657999999998,-0.0015559999999996,0.0043582000000009,0.0012342000000001,0,sub_16
0.0022091999999998,0.0037168000000012,-0.0042041999999998,-0.0015585999999996,0.0045704000000009,0.0012340000000001,0,sub_16
0.0026909999999998,0.0038774000000012,-0.0043703999999998,-0.0009229999999996,0.0047788000000009,0.0016654000000001,0,sub_16
0.0030353999999998,0.0035024000000012,-0.0041979999999998,-0.0005007999999996,0.0043512000000009,0.0014554000000001,0,sub_16
0.0030329999999997,0.0031474000000012,-0.0041407999999998,0.0001348000000003,0.0041352000000009,0.0014602,0,sub_16
0.0031061999999997,0.0034434000000012,-0.0037657999999998,0.0001308000000003,0.0034952000000009,0.0016746,0,sub_16
0.0025281999999998,0.0037104000000012,-0.0040255999999998,-8.939999999966068e-05,0.0024290000000009,0.0021018,0,sub_16
0.0019745999999998,0.0040396000000012,-0.0035623999999998,-0.0003065999999996,0.0013654000000009,0.001888,0,sub_16
0.0021101999999998,0.0040682000000012,-0.0033809999999998,-0.0003023999999996,0.0015744000000009,0.0012432000000001,0,sub_16
0.0027935999999998,0.0039882000000012,-0.0032765999999998,-0.0005115999999996,0.0022084000000009,0.0010236000000001,0,sub_16
0.0031529999999998,0.0037252000000012,-0.0032775999999998,-0.0005053999999996,0.0030556000000009,0.0005916000000001,0,sub_16
0.0031971999999998,0.0033744000000012,-0.0035279999999998,-0.0007115999999996,0.0036920000000009,-0.0002689999999998,0,sub_16
0.0036091999999998,0.0030130000000012,-0.0036509999999998,-0.0015617999999996,0.0041150000000009,-0.0004927999999998,0,sub_16
0.0034475999999998,0.0030650000000012,-0.0038609999999998,-0.0017759999999996,0.0043270000000009,-6.719999999987748e-05,0,sub_16
0.0029413999999997,0.0030514000000012,-0.0042355999999999,-0.0017767999999996,0.0041138000000009,-6.699999999987749e-05,0,sub_16
0.0029707999999997,0.0033342000000012,-0.0041179999999999,-0.0013519999999996,0.0036862000000009,-6.339999999987747e-05,0,sub_16
0.0031357999999997,0.0030532000000012,-0.0042195999999999,-0.0007147999999996,0.0028174000000009,0.0001526000000001,0,sub_16
0.0024815999999998,0.0029812000000012,-0.0037065999999999,-7.839999999964061e-05,0.0021600000000009,0.0007956000000001,0,sub_16
0.0019271999999998,0.0029366000000012,-0.0034709999999999,-8.019999999964061e-05,0.0017186000000009,0.0012200000000001,0,sub_16
0.0013575999999998,0.0028836000000012,-0.0034067999999999,-8.199999999964056e-05,0.0012772000000009,0.0016446000000001,0,sub_16
0.0009325999999998,0.0024722000000012,-0.0033519999999999,-8.179999999964058e-05,0.0008374000000009,0.0016418000000001,0,sub_16
0.0013357999999998,0.0025264000000012,-0.0034359999999998,0.0003460000000003,0.0012612000000009,0.0018580000000001,0,sub_16
0.0015731999999998,0.0025124000000012,-0.0040061999999998,0.0005622000000003,0.0014752000000009,0.0014320000000001,0,sub_16
0.0016511999999998,0.0026386000000012,-0.0039975999999998,0.0005622000000003,0.0012630000000009,0.0012188000000001,0,sub_16
0.0019925999999998,0.0026042000000012,-0.0038855999999998,0.0001392000000003,0.0010366000000009,0.0012076000000001,0,sub_16
0.0019299999999998,0.0026780000000012,-0.0040335999999998,-0.0004981999999996,0.0010222000000009,0.0016220000000001,0,sub_16
0.0019787999999998,0.0029062000000012,-0.0035123999999999,-0.0007057999999996,0.0014332000000009,0.0018250000000001,0,sub_16
0.0024803999999998,0.0030772000000012,-0.0035789999999999,-0.0009143999999996,0.0016312000000009,0.0020284000000001,0,sub_16
0.0031735999999998,0.0032326000000012,-0.0035991999999999,-0.0006973999999996,0.0014024000000009,0.0020216000000001,0,sub_16
0.0036985999999998,0.0035350000000012,-0.0035581999999999,-0.0004849999999996,0.0007642000000009,0.0015966000000001,0,sub_16
0.0040455999999998,0.0036436000000012,-0.0035201999999999,-5.919999999964058e-05,0.0001252000000009,0.0011730000000001,0,sub_16
0.0038857999999998,0.0035196000000012,-0.0035093999999999,-0.0004879999999996,-0.000723799999999,0.0007438000000001,0,sub_16
0.0033289999999998,0.0033598000000012,-0.0033991999999999,-5.57999999996406e-05,-0.001380799999999,9.680000000012262e-05,0,sub_16
0.0031047999999998,0.0033650000000012,-0.0031565999999999,-4.839999999964061e-05,-0.001610199999999,-0.0005537999999998,0,sub_16
0.0024627999999998,0.0035524000000012,-0.0028035999999999,0.0005990000000003,-0.001417399999999,-0.0007731999999998,0,sub_16
0.0022885999999998,0.0034736000000012,-0.0029455999999999,0.0008226000000003,-0.000795999999999,-0.0012095999999998,0,sub_16
0.0020447999999998,0.0034612000000012,-0.0035175999999999,0.0008320000000003,-0.000174799999999,-0.0014339999999998,0,sub_16
0.0020669999999998,0.0031912000000012,-0.0038337999999999,0.0006186000000003,3.820000000093462e-05,-0.0012221999999998,0,sub_16
0.0019295999999998,0.0029020000000012,-0.0044515999999999,0.0010426000000003,-0.000390199999999,-0.0010049999999998,0,sub_16
0.0020861999999998,0.0025350000000012,-0.0050653999999999,0.0012542000000003,-0.000817199999999,-0.0010029999999998,0,sub_16
0.0021825999999998,0.0031446000000012,-0.0043185999999999,0.0010362000000003,-0.002329599999999,-0.0005845999999998,0,sub_16
0.0022609999999998,0.0036808000000012,-0.0034437999999999,0.0010334000000003,-0.003840999999999,-0.0005919999999998,0,sub_16
0.0021719999999998,0.0040876000000012,-0.0028877999999999,0.0012516000000003,-0.004073199999999,-0.0010267999999998,0,sub_16
0.0027883999999998,0.0042972000000012,-0.0021937999999999,0.0010470000000003,-0.003451599999999,-0.0014655999999998,0,sub_16
0.0030799999999998,0.0041790000000012,-0.0018243999999999,0.0008422000000003,-0.002405399999999,-0.0014775999999998,0,sub_16
0.0029465999999997,0.0033474000000012,-0.0026061999999999,0.0012776000000003,-0.001125999999999,-0.0021171999999998,0,sub_16
0.0029583999999997,0.0027964000000012,-0.0033675999999999,0.0012804000000003,-0.000486799999999,-0.0021179999999998,0,sub_16
0.0031453999999997,0.0029090000000012,-0.0039961999999999,0.0006384000000003,-0.000486199999999,-0.0016951999999998,0,sub_16
0.0026979999999997,0.0027888000000012,-0.0040601999999999,0.0002130000000003,-0.000932599999999,-0.0012771999999998,0,sub_16
0.0025357999999998,0.0028264000000011,-0.0041019999999999,1.2000000003595072e-06,-0.001804399999999,-0.0012843999999998,0,sub_16
0.0023433999999998,0.0027936000000011,-0.0042179999999998,2.6000000003595194e-06,-0.002252399999999,-0.0008633999999998,0,sub_16
0.0024991999999998,0.0027886000000011,-0.0042763999999998,0.0004346000000003,-0.002486399999999,-0.0010803999999998,0,sub_16
0.0026199999999998,0.0023768000000012,-0.0040855999999998,0.0010790000000003,-0.002933999999999,-0.0012957999999998,0,sub_16
0.0025571999999998,0.0024152000000012,-0.0040665999999998,0.0015076000000003,-0.002509399999999,-0.0012933999999998,0,sub_16
0.0027759999999998,0.0029016000000012,-0.0038833999999998,0.0015076000000003,-0.002297199999999,-0.0010799999999998,0,sub_16
0.0028427999999998,0.0029016000000012,-0.0032839999999999,0.0015046000000003,-0.002511999999999,-0.0006523999999998,0,sub_16
0.0026213999999998,0.0029956000000012,-0.0032365999999999,0.0015080000000003,-0.002528399999999,-0.0004465999999998,0,sub_16
0.0024781999999998,0.0031686000000012,-0.0030603999999998,0.0008714000000003,-0.002754999999999,-0.0004585999999998,0,sub_16
0.0022685999999998,0.0032402000000012,-0.0032967999999998,0.0004482000000003,-0.003194399999999,-0.0006823999999998,0,sub_16
0.0018789999999998,0.0032468000000011,-0.0035591999999998,0.0008812000000003,-0.003209799999999,-0.0011145999999998,0,sub_16
0.0025551999999998,0.0031726000000011,-0.0042109999999998,0.0008914000000003,-0.002583799999999,-0.0017641999999998,0,sub_16
0.0025597999999998,0.0030946000000011,-0.0043265999999998,0.0011068000000003,-0.001946399999999,-0.0015499999999998,0,sub_16
0.0028403999999998,0.0029108000000011,-0.0046147999999999,0.0013202000000003,-0.001522799999999,-0.0011217999999998,0,sub_16
0.0028637999999998,0.0030058000000012,-0.0040733999999999,0.0008896000000003,-0.001736999999999,-0.0004835999999998,0,sub_16
0.0028709999999998,0.0029124000000012,-0.0039963999999998,3.4200000000359384e-05,-0.001960399999999,0.0003588000000001,0,sub_16
0.0024123999999998,0.0030526000000012,-0.0035763999999998,3.320000000035942e-05,-0.002397999999999,0.0007800000000001,0,sub_16
0.0025009999999998,0.0027842000000012,-0.0031041999999998,3.520000000035942e-05,-0.002833199999999,0.0005604000000001,0,sub_16
0.0026363999999998,0.0031024000000012,-0.0024531999999998,4.080000000035943e-05,-0.002628399999999,0.0001262000000001,0,sub_16
0.0027211999999998,0.0036592000000012,-0.0023625999999998,0.0006866000000003,-0.002425799999999,-0.0003035999999998,0,sub_16
0.0024053999999998,0.0033480000000012,-0.0024785999999998,0.0009038000000003,-0.002210999999999,-0.0009433999999998,0,sub_16
0.0020953999999998,0.0034468000000012,-0.0030747999999998,0.0009068000000003,-0.001784199999999,-0.0011575999999998,0,sub_16
0.0022717999999998,0.0036552000000012,-0.0031517999999998,0.0009086000000003,-0.001357999999999,-0.0011581999999998,0,sub_16
0.0021531999999998,0.0033500000000012,-0.0031785999999998,0.0015500000000003,-0.001150199999999,-0.0011565999999998,0,sub_16
0.0021723999999998,0.0029906000000012,-0.0042441999999998,0.0017646000000003,-0.000940999999999,-0.0011579999999998,0,sub_16
0.0026849999999998,0.0033600000000012,-0.0047195999999998,0.0017630000000003,-0.000945799999999,-0.0007333999999998,0,sub_16
0.0025155999999998,0.0042118000000012,-0.0040155999999999,0.0011212000000003,-0.001372599999999,-0.0007397999999998,0,sub_16
0.0022185999999998,0.0044544000000012,-0.0039197999999999,0.0006958000000003,-0.001797799999999,-0.0013857999999998,0,sub_16
0.0021681999999998,0.0041904000000012,-0.0039985999999999,5.660000000035945e-05,-0.002006799999999,-0.0018171999999998,0,sub_16
0.0022517999999998,0.0038310000000012,-0.0030921999999999,-0.0001547999999996,-0.001579999999999,-0.0018191999999998,0,sub_16
0.0022597999999998,0.0037424000000012,-0.0024025999999999,-0.0001499999999996,-0.001151199999999,-0.0024605999999998,0,sub_16
0.0021367999999998,0.0027384000000012,-0.0025999999999998,6.460000000033942e-05,-0.000722199999999,-0.0026727999999998,0,sub_16
0.0024083999999998,0.0023622000000012,-0.0028849999999998,-0.0001475999999996,0.0001328000000009,-0.0024609999999998,0,sub_16
0.0021281999999998,0.0027646000000012,-0.0029823999999998,-0.0005747999999996,0.0007744000000009,-0.0020367999999998,0,sub_16
0.0024747999999998,0.0027792000000012,-0.0034111999999998,-0.0005773999999996,0.0005642000000009,-0.0020357999999998,0,sub_16
0.0022829999999998,0.0027812000000012,-0.0036007999999998,-0.0003703999999996,-7.459999999906535e-05,-0.0016055999999998,0,sub_16
0.0030211999999998,0.0033130000000012,-0.0040663999999999,-0.0001625999999996,-0.001141399999999,-0.0013889999999998,0,sub_16
0.0026597999999998,0.0034628000000012,-0.0039941999999998,0.0002576000000003,-0.002421999999999,-0.0011707999999998,0,sub_16
0.0023121999999998,0.0035004000000012,-0.0038725999999998,0.0006804000000003,-0.003275599999999,-0.0011667999999998,0,sub_16
0.0021431999999998,0.0033358000000012,-0.0040863999999998,0.0006768000000003,-0.003481199999999,-0.0011647999999998,0,sub_16
0.0025527999999998,0.0029498000000012,-0.0039911999999998,0.0008874000000003,-0.003474599999999,-0.0011613999999998,0,sub_16
0.0021033999999998,0.0026068000000012,-0.0035893999999998,0.0011000000000003,-0.002829599999999,-0.0009453999999998,0,sub_16
0.0022695999999998,0.0024976000000012,-0.0034289999999999,0.0008828000000003,-0.002822399999999,-0.0007313999999998,0,sub_16
0.0025953999999998,0.0026054000000012,-0.0037405999999999,0.0006668000000003,-0.002814199999999,-0.0007311999999998,0,sub_16
0.0024757999999998,0.0029306000000012,-0.0036069999999999,0.0004524000000003,-0.003026399999999,-0.0007323999999998,0,sub_16
0.0023503999999997,0.0030760000000012,-0.0033465999999998,0.0002420000000003,-0.002598599999999,-0.0009481999999998,0,sub_16
0.0027571999999998,0.0029094000000012,-0.0034535999999998,2.9400000000339528e-05,-0.002384799999999,-0.0009497999999998,0,sub_16
0.0029541999999998,0.0033418000000012,-0.0034945999999998,0.0004590000000003,-0.001534799999999,-0.0007341999999998,0,sub_16
0.0030629999999998,0.0033846000000012,-0.0031663999999998,0.0006706000000003,-0.000887399999999,-0.0005169999999998,0,sub_16
0.0031429999999998,0.0038128000000012,-0.0033109999999998,0.0004508000000003,-0.000879399999999,0.0001252000000001,0,sub_16
0.0030935999999998,0.0039102000000012,-0.0038395999999998,-0.0001977999999996,-0.001508199999999,0.0005516000000001,0,sub_16
0.0031473999999998,0.0043244000000012,-0.0040557999999998,-0.0004137999999996,-0.001708999999999,0.0001258000000001,0,sub_16
0.0029769999999998,0.0039722000000012,-0.0041643999999998,-0.0002039999999996,-0.001911999999999,-8.339999999987743e-05,0,sub_16
0.0029105999999998,0.0038816000000012,-0.0045929999999998,0.0004370000000003,-0.001913399999999,-0.0002925999999998,0,sub_16
0.0026967999999998,0.0034132000000012,-0.0043897999999998,0.0008694000000003,-0.001485399999999,-0.0011445999999998,0,sub_16
0.0025077999999997,0.0031342000000012,-0.0049307999999998,0.0012974000000003,-0.000836399999999,-0.0015663999999998,0,sub_16
0.0025259999999998,0.0030090000000012,-0.0049931999999998,0.0012968000000003,-0.000187599999999,-0.0015639999999998,0,sub_16
0.0025143999999998,0.0029410000000012,-0.0052029999999999,0.0012962000000003,0.0002488000000009,-0.0017749999999998,0,sub_16
0.0028047999999998,0.0024136000000012,-0.0050639999999999,0.0012938000000003,0.0004714000000009,-0.0017719999999998,0,sub_16
0.0025063999999998,0.0027680000000012,-0.0045009999999999,0.0015028000000003,0.0009038000000009,-0.0011269999999998,0,sub_16
0.0024437999999998,0.0037584000000012,-0.0036159999999999,0.0010742000000003,0.0006914000000009,-0.0009161999999998,0,sub_16
0.0020283999999998,0.0039210000000012,-0.0025747999999999,0.0008560000000003,-0.000585399999999,-0.0011297999999998,0,sub_16
0.0024131999999998,0.0040486000000012,-0.0029287999999998,0.0006408000000003,-0.001435199999999,-0.0015573999999998,0,sub_16
0.0026575999999998,0.0045856000000012,-0.0031363999999998,0.0006362000000003,-0.002489999999999,-0.0019777999999998,0,sub_16
0.0034035999999998,0.0040090000000012,-0.0036585999999998,0.0008480000000003,-0.003330799999999,-0.0028241999999998,0,sub_16
0.0031567999999998,0.0034840000000012,-0.0037931999999998,0.0008502000000003,-0.002894199999999,-0.0032463999999998,0,sub_16
0.0033207999999998,0.0032582000000012,-0.0049847999999998,0.0002114000000003,-0.001607399999999,-0.0026059999999998,0,sub_16
0.0027139999999998,0.0031462000000012,-0.0042551999999998,-0.0004275999999996,-0.000532799999999,-0.0021789999999998,0,sub_16
