userAcceleration.x,userAcceleration.y,userAcceleration.z,rotationRate.x,rotationRate.y,rotationRate.z,label,subject
0.0016199999999997,0.0087448000000011,0.0012952,-0.0005017999999995,-0.000334399999999,0.000211,0,sub_12
0.0024441999999997,0.0087858000000011,0.001571,-0.0017781999999995,0.0003102000000009,-1.2399999999974758e-05,0,sub_12
0.0027801999999997,0.0091502000000011,0.0014096,-0.0024153999999995,0.0005272000000009,-0.0004443999999999,0,sub_12
0.0033837999999997,0.0098138000000011,0.0022664,-0.0024145999999995,0.0001036000000009,-0.0010847999999999,0,sub_12
0.0033227999999997,0.0096848000000011,0.0024062,-0.0019905999999994,-0.000536999999999,-0.0010809999999999,0,sub_12
0.0036531999999997,0.0099066000000011,0.0020788,-0.0017809999999995,-0.000745599999999,-0.0010809999999999,0,sub_12
0.0027839999999997,0.0097680000000011,0.0015908,-0.0017837999999995,-0.000740399999999,-0.0010823999999999,0,sub_12
0.0017455999999997,0.0101736000000011,0.0014468,-0.0019999999999995,-0.000734599999999,-0.0010855999999999,0,sub_12
2.679999999978776e-05,0.0096354000000011,0.0003084,-0.0011711999999995,-0.005207999999999,-0.0006481999999999,0,sub_12
0.0022647999999998,0.0127456000000011,0.001933,0.0013854000000004,-0.005849199999999,-0.0010583999999999,0,sub_12
0.0023151999999997,0.0153376000000011,0.0036748,-0.0007299999999995,-0.002642399999999,-0.0019317999999999,0,sub_12
0.0017403999999998,0.0145032000000011,0.003709,0.0003416000000004,-0.000519999999999,-0.0008589999999999,0,sub_12
0.0015381999999998,0.0134932000000011,0.0034644,-0.0003147999999995,-0.003502999999999,-0.0002187999999999,0,sub_12
0.0031799999999997,0.0138850000000011,0.0043214,-0.0009295999999995,0.0014084000000009,-0.0012977999999999,0,sub_12
0.0013277999999997,0.0112774000000011,0.0026036,-0.0026291999999995,0.0031244000000009,-0.0015255999999999,0,sub_12
0.0014683999999998,0.0087602000000011,0.0014252,-0.0005149999999995,0.0005590000000009,-1.1999999999974749e-05,0,sub_12
0.0022871999999997,0.0090602000000011,0.0019704,-0.0018013999999995,-0.001133599999999,-0.0006595999999999,0,sub_12
0.0032817999999997,0.0096150000000011,0.0019268,-0.0019997999999995,0.0014328000000009,-0.0017323999999999,0,sub_12
0.0033497999999997,0.0096994000000011,0.001582,-0.0024293999999995,0.0012194000000009,-0.0013077999999999,0,sub_12
0.0031115999999997,0.0095836000000011,0.0024028,-0.0037105999999995,0.0010108000000009,-0.0013163999999999,0,sub_12
0.0027671999999997,0.0098340000000011,0.0024934,-0.0034973999999995,0.0003792000000009,-0.0019537999999999,0,sub_12
0.0026483999999997,0.0107122000000011,0.0021938000000001,-0.0030697999999995,-3.999999999904713e-05,-0.0025901999999999,0,sub_12
0.0023081999999997,0.0107520000000011,0.0025894,-0.0015809999999995,-0.000467999999999,-0.0019371999999999,0,sub_12
0.0016483999999997,0.0103750000000011,0.0021002,-0.0007341999999995,-0.001319799999999,-0.0012879999999999,0,sub_12
0.0010813999999998,0.0105240000000011,0.0009698,-0.0003151999999995,-0.002171199999999,-0.0004283999999999,0,sub_12
0.0007737999999998,0.0098510000000011,0.0006532,0.0001076000000004,-0.001963799999999,0.0006424,0,sub_12
0.0012569999999997,0.0091048000000011,0.0005962,0.0009640000000004,-0.000690999999999,0.0012878,0,sub_12
0.0013351999999997,0.0088536000000011,0.0008542,0.0001180000000004,0.0005920000000009,0.000853,0,sub_12
0.0019775999999997,0.0089958000000011,0.0020468,-0.0005173999999995,0.0014530000000009,0.000635,0,sub_12
0.0029881999999997,0.0086830000000011,0.003067,-0.0005127999999995,0.0016754000000009,-0.0002183999999999,0,sub_12
0.0036171999999997,0.0090848000000011,0.0031638,-0.0007203999999995,0.0016872000000009,-0.0015003999999999,0,sub_12
0.0032065999999997,0.0098378000000011,0.0029906,-0.0009357999999995,0.0006310000000009,-0.0021401999999999,0,sub_12
0.0033871999999997,0.0105232000000011,0.0027298,-8.51999999995487e-05,-5.399999999067132e-06,-0.0021321999999999,0,sub_12
0.0032651999999997,0.0105740000000011,0.0025488,0.0001300000000004,-4.399999999047115e-06,-0.0025579999999999,0,sub_12
0.0030561999999997,0.0108882000000011,0.0017538,0.0003434000000004,0.0004192000000009,-0.0021297999999999,0,sub_12
0.0025089999999997,0.0109046000000011,0.0017418,0.0003434000000004,0.0008436000000009,-0.0017031999999998,0,sub_12
0.0019845999999997,0.0101736000000011,0.0018934,-8.519999999956869e-05,0.0008434000000009,-0.0012789999999999,0,sub_12
0.0014283999999997,0.0097450000000011,0.0016098,-0.0009387999999995,0.0010626000000009,-0.0006429999999999,0,sub_12
0.0010901999999997,0.0093174000000011,0.0012242,-0.0013647999999995,0.0012812000000009,-0.0002175999999999,0,sub_12
0.0012251999999997,0.0089638000000011,0.0011646,-0.0015725999999995,0.0019278000000009,-0.0004321999999999,0,sub_12
0.0013285999999997,0.0082602000000011,0.0008954,-0.0015707999999995,0.0019334000000009,-0.0004307999999999,0,sub_12
0.0017551999999997,0.0087884000000011,0.0007556,-0.0017785999999995,0.0025800000000009,-0.0006453999999999,0,sub_12
0.0020999999999997,0.0090402000000011,0.0006594,-0.0013507999999995,0.0023672000000009,-0.0010695999999999,0,sub_12
0.0025275999999997,0.0087876000000011,0.0007752,-0.0011363999999995,0.0021552000000009,-0.0014951999999999,0,sub_12
0.0029125999999997,0.0086770000000011,0.0015082,-0.0015535999999995,0.0023742000000009,-0.0021369999999999,0,sub_12
0.0030779999999997,0.0088808000000011,0.002144,-0.0024005999999995,0.0023800000000009,-0.0023541999999999,0,sub_12
0.0034945999999997,0.0091846000000011,0.0022804,-0.0028217999999995,0.0019588000000009,-0.0027813999999999,0,sub_12
0.0031949999999997,0.0092000000000011,0.0024626,-0.0032401999999995,0.0026014000000009,-0.0027825999999999,0,sub_12
0.0023715999999997,0.0101320000000011,0.0024964,-0.0025983999999995,0.0025976000000009,-0.0019209999999999,0,sub_12
0.0014627999999997,0.0101466000000011,0.0016524,-0.0019697999999995,0.0010996000000009,-0.0008463999999999,0,sub_12
0.0011481999999997,0.0105580000000011,0.0008674,-0.0013335999999995,0.0008816000000009,-0.0002005999999999,0,sub_12
0.0010161999999997,0.0098680000000011,0.001149,-0.0006923999999995,0.0019414000000009,0.000657,0,sub_12
0.0016527999999997,0.0094340000000011,0.0016256,-0.0011091999999995,0.0025808000000009,0.0010854,0,sub_12
0.0020219999999997,0.0087670000000011,0.0019608,-0.0008887999999995,0.0019422000000009,0.0008788,0,sub_12
0.0022953999999997,0.0077058000000011,0.0018048,-0.0002425999999995,0.0002402000000009,-0.0001779999999999,0,sub_12
0.0027567999999997,0.0059064000000011,0.0022708,0.0002018000000004,0.0013080000000009,-0.0010261999999999,0,sub_12
0.0031497999999997,0.0078346000000012,0.0024438,-0.0004285999999995,0.0010992000000009,-0.0014527999999999,0,sub_12
0.0029527999999997,0.0082710000000011,0.0022856,-6.599999999568496e-06,0.0002446000000009,-0.0012351999999999,0,sub_12
0.0033179999999997,0.0089398000000011,0.0018556,-0.0008609999999995,3.4400000000952766e-05,-0.0012407999999999,0,sub_12
0.0035917999999997,0.0100814000000011,0.002076,-0.0017059999999995,0.0025916000000009,-0.0006089999999999,0,sub_12
0.0034751999999997,0.0122016000000011,0.0022356,-0.0019299999999995,0.0008852000000009,3.260000000004503e-05,0,sub_12
0.0033335999999997,0.0103684000000011,0.0018916,-0.0010765999999995,-0.000398399999999,0.0004718,0,sub_12
0.0034397999999997,0.0101030000000011,0.0019304,-0.0008595999999995,-0.001464199999999,0.0002654,0,sub_12
0.0027775999999997,0.0096716000000011,0.0017506,-0.0008501999999995,-0.001038599999999,0.0002692,0,sub_12
0.0018953999999998,0.0100568000000011,0.001421,-0.0006369999999995,-0.002107799999999,0.0009174,0,sub_12
0.0016075999999998,0.0090374000000011,0.0012334,-0.0006303999999995,-0.002109199999999,0.0011354,0,sub_12
0.0008381999999998,0.0091096000000011,0.001044,-0.0004159999999995,-0.002321199999999,0.00071,0,sub_12
0.0008161999999998,0.0089878000000011,0.0009862,0.0002270000000004,-0.002108599999999,0.000287,0,sub_12
0.0009651999999998,0.0086104000000011,0.0013798,0.0006600000000004,-0.001687799999999,0.0007228,0,sub_12
0.0011641999999997,0.0081424000000011,0.0018772,0.0002386000000004,-0.001264799999999,0.0013662,0,sub_12
0.0014203999999997,0.0090474000000011,0.0016474,2.960000000043143e-05,-0.001479999999999,0.0015848,0,sub_12
0.0022285999999997,0.0092366000000011,0.001188,3.7800000000431455e-05,-0.001055999999999,0.0015902,0,sub_12
0.0027953999999997,0.0090550000000011,0.0014972,4.780000000043148e-05,-0.000205799999999,0.0015952,0,sub_12
0.0034167999999997,0.0096516000000011,0.002282,-0.0003759999999995,1.0600000000932824e-05,0.0011648,0,sub_12
0.0040209999999997,0.0098050000000011,0.002221,-0.0001605999999995,1.1600000000932826e-05,0.000739,0,sub_12
0.0039367999999997,0.0100920000000011,0.0025806,0.0004804000000004,1.02000000009329e-05,0.0005298,0,sub_12
0.0030615999999997,0.0097204000000011,0.0031122,0.0015504000000004,-0.000639399999999,0.0009734,0,sub_12
0.0025065999999997,0.0097186000000011,0.0027164,0.0021890000000004,-0.002140599999999,0.0016286,0,sub_12
0.0022905999999997,0.0093598000000011,0.0017468,0.0032590000000004,-0.002790199999999,0.002072,0,sub_12
0.0020931999999997,0.0091058000000011,0.0021344,0.0034822000000004,-0.002582199999999,0.0018676,0,sub_12
0.0020107999999997,0.0086150000000011,0.0017412,0.0026434000000004,-0.001517199999999,0.001441,0,sub_12
0.0023127999999997,0.0089932000000011,0.0014932,0.0007308000000004,-0.000654799999999,0.000572,0,sub_12
0.0027055999999997,0.0095746000000011,0.001681,-0.0003265999999995,0.0004184000000009,-0.0005049999999999,0,sub_12
0.0029459999999997,0.0101504000000011,0.0018338,-0.0007465999999995,0.0008502000000009,-0.0015767999999999,0,sub_12
0.0033287999999997,0.0106906000000011,0.0015626,0.0001098000000004,0.0006376000000009,-0.0024251999999999,0,sub_12
0.0034797999999997,0.0105728000000011,0.0019476,0.0011836000000004,0.0002008000000009,-0.0024109999999999,0,sub_12
0.0038621999999997,0.0099286000000011,0.002169,0.0018286000000004,-2.4199999999067297e-05,-0.0017591999999999,0,sub_12
0.0032779999999997,0.0097706000000011,0.0022966,0.0018338000000004,-3.45999999990673e-05,-0.0008983999999999,0,sub_12
0.0026749999999997,0.0097126000000011,0.0021056,0.0020522000000004,-0.000257999999999,-0.0002493999999999,0,sub_12
0.0020783999999997,0.0094210000000011,0.0018828,0.0016304000000004,-0.000478999999999,0.000395,0,sub_12
0.0019495999999997,0.0095312000000011,0.0014472,0.0014152000000004,-0.000692199999999,0.0006074,0,sub_12
0.0021721999999997,0.0098628000000011,0.0017662,0.0016276000000004,-0.000905999999999,0.0006092,0,sub_12
0.0015661999999997,0.0095362000000011,0.000959,0.0016352000000004,-0.001337799999999,0.0004018,0,sub_12
0.0021319999999997,0.0090970000000011,0.001073,0.0014324000000004,-0.001341999999999,-2.139999999997487e-05,0,sub_12
0.0023793999999997,0.0090634000000011,0.0010558,0.0016564000000004,-0.001135599999999,-0.0002279999999999,0,sub_12
0.0025533999999997,0.0091374000000011,0.001371,0.0012344000000004,-0.001992999999999,-0.0002241999999999,0,sub_12
0.0021589999999997,0.0096818000000011,0.0007254,0.0008164000000004,-0.001997999999999,-0.0002215999999999,0,sub_12
0.0035901999999997,0.0101854000000011,0.0008816,0.0014594000000004,-0.001785599999999,-0.0006447999999999,0,sub_12
0.0029921999999997,0.0098794000000011,0.0015232,0.0010318000000004,-0.001784999999999,-0.0004339999999999,0,sub_12
0.0029891999999997,0.0100332000000011,0.0019712,-0.0004637999999995,-0.001781399999999,-1.7199999999954926e-05,0,sub_12
0.0028145999999997,0.0100604000000011,0.001385,-0.0010979999999995,-0.000712999999999,-0.0002367999999999,0,sub_12
0.0028817999999997,0.0099390000000011,0.0018258,-0.0008737999999995,0.0003492000000009,-0.0002343999999999,0,sub_12
0.0022385999999997,0.0098082000000011,0.0024814,-0.0004409999999995,0.0007700000000009,0.0001976,0,sub_12
0.0025615999999997,0.0102448000000011,0.0015392,0.0004156000000004,0.0005502000000009,0.0006332,0,sub_12
0.0027031999999997,0.0100240000000011,0.001005,0.0019152000000004,0.0007550000000009,0.0008592,0,sub_12
0.0027237999999997,0.0091864000000011,0.0013896,0.0032014000000004,0.0011728000000009,0.0012972,0,sub_12
0.0025949999999997,0.0086876000000011,0.0014212,0.0034148000000004,0.0007478000000009,0.000872,0,sub_12
0.0024153999999997,0.0082540000000011,0.0010832,0.0023518000000004,0.0013914000000009,0.00065,0,sub_12
0.0023585999999997,0.0083026000000011,0.001462,0.0006544000000004,0.0028912000000009,-4.599999999954944e-06,0,sub_12
0.0023527999999997,0.0086006000000011,0.0019842,-0.0008291999999995,0.0039646000000009,-0.0006599999999999,0,sub_12
0.0023309999999997,0.0095872000000011,0.001693,-0.0023147999999995,0.0048240000000009,-0.0011013999999999,0,sub_12
0.0022781999999997,0.0098218000000011,0.0010642,-0.0033773999999995,0.0056786000000009,-0.0006853999999999,0,sub_12
0.0016393999999997,0.0101306000000011,0.0011198,-0.0038057999999995,0.0056772000000009,0.0001636,0,sub_12
0.0012135999999997,0.0089662000000011,0.0014472,-0.0029529999999995,0.0056720000000009,0.0008078,0,sub_12
0.0013731999999997,0.0082698000000011,0.0011158,-0.0033777999999995,0.0063118000000009,0.0010176,0,sub_12
0.0010431999999997,0.0081760000000011,0.0010732,-0.0040217999999995,0.0056740000000009,0.0012274,0,sub_12
0.0008995999999997,0.0083492000000011,0.0015208,-0.0038113999999995,0.0056734000000009,0.0014398,0,sub_12
0.0018407999999997,0.0084910000000011,0.0019662,-0.0025281999999995,0.0054618000000009,0.0001644,0,sub_12
0.0031059999999997,0.0094494000000011,0.0019372,-0.0023147999999995,0.0048272000000009,-0.0009041999999999,0,sub_12
0.0037007999999997,0.0101232000000011,0.002842,-0.0014651999999995,0.0031258000000009,-0.0021805999999999,0,sub_12
0.0044297999999997,0.0097266000000011,0.004442,2.6600000000431556e-05,0.0016362000000009,-0.0036663999999999,0,sub_12
0.0053687999999997,0.0096564000000011,0.0039932,0.0004534000000004,-0.000275199999999,-0.0055837999999999,0,sub_12
0.0055353999999997,0.0101526000000011,0.0037058,-0.0001857999999995,-0.000908599999999,-0.0064419999999999,0,sub_12
0.0042435999999997,0.0109358000000011,0.0029802,0.0004476000000004,-0.001765599999999,-0.0057955999999999,0,sub_12
0.0028705999999997,0.0117320000000011,0.0016244,0.0015010000000004,-0.002842199999999,-0.0038639999999999,0,sub_12
0.0021605999999997,0.0120972000000012,-0.0008277999999999,0.0014854000000004,-0.002636999999999,-0.0015155999999999,0,sub_12
0.0013333999999997,0.0117974000000011,-0.0015125999999998,0.0023242000000004,-0.001585199999999,0.0014788,0,sub_12
0.0001253999999997,0.0110940000000011,-0.0018509999999998,0.0029498000000004,-0.000744799999999,0.0042582,0,sub_12
-0.0001880000000002,0.0100362000000011,-0.0017819999999998,0.0029400000000004,-0.000322399999999,0.0055382,0,sub_12
-0.0006960000000001,0.0088654000000012,-0.0018199999999998,0.0031524000000004,0.0007436000000009,0.005537,0,sub_12
-0.0004628000000001,0.0086786000000011,-0.0005519999999998,0.0035868000000004,0.0015978000000009,0.0046844,0,sub_12
-0.0006412000000001,0.0086290000000011,0.000587,0.0038070000000004,0.0011788000000009,0.0027636,0,sub_12
0.0001151999999998,0.0085864000000011,0.0009736,0.0042356000000004,-0.000306399999999,0.0008456,0,sub_12
0.0012551999999998,0.0087558000000011,0.0019468,0.0042368000000004,-0.000508999999999,-0.0010775999999999,0,sub_12
0.0028041999999997,0.0083518000000011,0.0027126,0.0033844000000004,-0.000284199999999,-0.0025799999999999,0,sub_12
0.0030141999999997,0.0078658000000011,0.0030642,0.0016748000000004,-5.9999999999007286e-05,-0.0032335999999999,0,sub_12
0.0036893999999997,0.0080926000000011,0.003277,-0.0010987999999995,0.0010194000000009,-0.0036821999999999,0,sub_12
0.0044429999999997,0.0082390000000011,0.0034346,-0.0038713999999995,0.0027362000000009,-0.0037041999999999,0,sub_12
0.0049365999999997,0.0092060000000011,0.0036508,-0.0051525999999995,0.0031642000000009,-0.0030725999999999,0,sub_12
0.0052957999999997,0.0103278000000011,0.0050276,-0.0043057999999995,0.0027308000000009,-0.0019977999999999,0,sub_12
0.0062079999999997,0.0111302000000011,0.0049946,-0.0015511999999995,0.0010102000000009,-0.0006949999999999,0,sub_12
0.0061167999999997,0.0111774000000011,0.0050422,0.0020538000000004,-0.001352599999999,0.0006146,0,sub_12
0.0044445999999997,0.0103686000000011,0.0039722,0.0050216000000004,-0.003285999999999,0.0017056,0,sub_12
0.0020835999999997,0.0092190000000011,0.002305,0.0065036000000004,-0.004358599999999,0.0019304,0,sub_12
-0.0002130000000002,0.0081894000000011,-0.0001045999999999,0.0064986000000004,-0.004146799999999,0.0019296,0,sub_12
-0.0009148000000001,0.0073522000000011,-0.0011307999999999,0.0054394000000004,-0.003075199999999,0.0012798,0,sub_12
-0.0010434000000001,0.0080804000000011,-0.0010535999999999,0.0067254000000004,-0.002437999999999,0.000647,0,sub_12
-0.0001000000000002,0.0089326000000011,-0.0013807999999999,0.0063006000000004,-0.001798399999999,0.0008568,0,sub_12
0.0011447999999997,0.0099810000000011,-0.0008869999999999,0.0060850000000004,-0.002024999999999,0.001496,0,sub_12
0.0024083999999997,0.0100886000000011,0.0004418,0.0056588000000004,-0.002248199999999,0.0014928,0,sub_12
0.0030085999999997,0.0105430000000011,0.001729,0.0063022000000004,-0.002472599999999,0.0008562,0,sub_12
0.0036215999999997,0.0100696000000011,0.001614,0.0048120000000004,-0.001840799999999,0.0010582,0,sub_12
0.0042975999999997,0.0100462000000011,0.003177,0.0052422000000004,-0.002276599999999,0.0002066,0,sub_12
0.0052669999999997,0.0093610000000011,0.0039618,0.0054594000000004,-0.002273799999999,-0.0006463999999999,0,sub_12
0.0054855999999997,0.0096378000000011,0.0035184,0.0052452000000004,-0.002910599999999,-0.0010743999999999,0,sub_12
0.0043083999999997,0.0094340000000011,0.0029906,0.0048138000000004,-0.003337799999999,-0.0004359999999999,0,sub_12
0.0036877999999997,0.0088092000000011,0.0027692,0.0039544000000004,-0.004197999999999,0.000205,0,sub_12
0.0022175999999997,0.0078792000000011,0.0020642,0.0030978000000004,-0.003994599999999,0.001272,0,sub_12
0.0007159999999997,0.0071214000000011,0.000639,0.0018172000000004,-0.002938599999999,0.0025486,0,sub_12
-0.0002320000000002,0.0064240000000011,-0.0003351999999999,0.0005414000000004,-0.001241599999999,0.003397,0,sub_12
-0.0003708000000002,0.0059444000000011,-0.0008723999999998,-0.0015839999999995,0.0006740000000009,0.0035984,0,sub_12
-0.0005652000000002,0.0063892000000011,-0.0010505999999998,-0.0017953999999995,0.0006764000000009,0.0031696,0,sub_12
0.0007939999999997,0.0076540000000011,-0.0001953999999998,-0.0007285999999995,-0.000388399999999,0.0021102,0,sub_12
0.0026109999999997,0.0089264000000011,0.0013874000000001,0.0007670000000004,-0.001240599999999,0.0008398,0,sub_12
0.0039929999999997,0.0095706000000011,0.0022506000000001,0.0018262000000004,-0.002099199999999,0.0004196,0,sub_12
0.0047619999999997,0.0103974000000011,0.0027592,0.0030928000000004,-0.003175799999999,0.0010692,0,sub_12
0.0043619999999997,0.0096138000000011,0.0025876,0.0024468000000004,-0.0027535999999989,0.0014898,0,sub_12
0.0039247999999997,0.0097784000000011,0.001609,0.0015914000000004,-0.001478399999999,0.001908,0,sub_12
0.0029983999999997,0.0100426000000011,0.0005966,0.0015846000000004,-0.001271599999999,0.0023334,0,sub_12
0.0029935999999997,0.0092532000000011,0.0011496,0.0020132000000004,-0.000422599999999,0.0027626,0,sub_12
0.0021119999999997,0.0083840000000011,0.001539,0.0007398000000004,0.0014976000000009,0.0031784,0,sub_12
0.0018879999999998,0.0083532000000011,0.0022356,-0.0007557999999995,0.0017134000000009,0.0038086,0,sub_12
0.0023835999999998,0.0075016000000011,0.001897,-0.0022519999999995,0.0010784000000009,0.00316,0,sub_12
0.0032419999999998,0.0073762000000011,0.0028404,-0.0028879999999995,0.0010830000000009,0.0016622,0,sub_12
0.0036663999999998,0.0088326000000011,0.0029332,-0.0026695999999995,0.0010854000000009,-4.339999999995476e-05,0,sub_12
0.0049391999999998,0.0091728000000011,0.0032682,-0.0013899999999995,1.800000000097262e-05,-0.0015263999999999,0,sub_12
0.0056647999999997,0.0094124000000011,0.0035326,-0.0018107999999995,0.0010846000000009,-0.0023829999999999,0,sub_12
0.0046631999999997,0.0094616000000011,0.004329,-0.0024471999999995,0.0019390000000009,-0.0023883999999999,0,sub_12
0.0035613999999997,0.0090052000000011,0.0038262,-0.0033065999999995,0.0013002000000009,-0.0017527999999999,0,sub_12
0.0027857999999997,0.0089050000000011,0.003288,-0.0035275999999995,-0.000403399999999,-0.0017521999999999,0,sub_12
0.0021335999999997,0.0091376000000011,0.0029232,-0.0037467999999995,-0.001468799999999,-0.0015387999999999,0,sub_12
0.0017897999999997,0.0100116000000012,0.0014432,-0.0031295999999995,-0.002749399999999,-0.0006795999999999,0,sub_12
0.0020083999999997,0.0100308000000011,0.0002714,-0.0035715999999995,-0.001897199999999,0.0005968,0,sub_12
0.0016173999999997,0.0099488000000011,-0.0008565999999998,-0.0042173999999995,0.0006618000000009,0.0014424,0,sub_12
0.0011157999999997,0.0088300000000011,-0.0009673999999998,-0.0050823999999995,0.0019432000000009,0.002288,0,sub_12
0.0014435999999997,0.0087606000000011,-0.0010365999999998,-0.0050939999999995,0.0019484000000009,0.0018594,0,sub_12
0.0023813999999997,0.0087810000000011,0.0002494,-0.0042319999999995,0.0025898000000009,0.0005828,0,sub_12
0.0027957999999997,0.0092354000000011,0.0010784,-0.0027403999999995,0.0017340000000009,0.000167,0,sub_12
0.0027385999999997,0.0091972000000011,0.0014196,-0.0014901999999995,-0.000179799999999,0.0006024,0,sub_12
0.0025377999999997,0.0098558000000011,0.0012958,-0.0004551999999995,-0.002518999999999,0.0010368,0,sub_12
0.0017135999999998,0.0093678000000011,0.0012944,-6.31999999995481e-05,-0.005070799999999,0.0018942,0,sub_12
0.0010437999999998,0.0081304000000011,0.0010442,0.0005480000000004,-0.007193799999999,0.001898,0,sub_12
0.0012739999999998,0.0078274000000011,0.0018376,0.0007372000000004,-0.009310999999999,0.0008306,0,sub_12
0.0027801999999998,0.0073780000000011,0.0033038,0.0005210000000004,-0.011010399999999,-0.0002369999999999,0,sub_12
0.0044975999999998,0.0074798000000011,0.0044038,-0.0007525999999995,-0.010575599999999,-0.0013145999999999,0,sub_12
0.0048859999999997,0.0078874000000011,0.0042316,-0.0015897999999995,-0.008435999999999,-0.0028185999999999,0,sub_12
0.0045147999999997,0.0085534000000011,0.0038728,-0.0016027999999995,-0.008213799999999,-0.0028251999999999,0,sub_12
0.0038857999999997,0.0088720000000011,0.0032606,-0.0009727999999995,-0.007354799999999,-0.0028279999999999,0,sub_12
0.0025951999999997,0.0096174000000011,0.0021922,-0.0005551999999995,-0.006494199999999,-0.0030459999999999,0,sub_12
0.0011877999999997,0.0096838000000011,0.0008902,7.400000000043174e-05,-0.005211599999999,-0.0024085999999999,0,sub_12
