userAcceleration.x,userAcceleration.y,userAcceleration.z,rotationRate.x,rotationRate.y,rotationRate.z,label,subject
0.0011769999999997,0.0044326000000012,-0.0058053999999999,-0.0221687999999996,0.0374130000000008,-0.0407943999999998,0,sub_4
0.0042985999999997,0.0041480000000012,-0.0052543999999999,-0.0285919999999996,0.0384768000000008,-0.0348585999999998,0,sub_4
0.0076955999999997,0.0030660000000012,-0.0050907999999999,-0.0343713999999995,0.0382686000000008,-0.0310531999999998,0,sub_4
0.0091975999999997,0.0027182000000012,-0.0047111999999999,-0.0382187999999995,0.0374272000000008,-0.0304379999999998,0,sub_4
0.0073985999999997,0.0032052000000011,-0.0043139999999999,-0.0390759999999996,0.0359414000000008,-0.0310829999999998,0,sub_4
0.0067087999999997,0.0042750000000011,-0.0045107999999998,-0.0367383999999996,0.0331660000000008,-0.0317041999999999,0,sub_4
0.0071601999999997,0.0053020000000011,-0.0052739999999998,-0.0335529999999995,0.0291092000000008,-0.0323175999999999,0,sub_4
0.0071913999999997,0.0065866000000012,-0.0056227999999998,-0.0305699999999995,0.0246350000000008,-0.0322919999999999,0,sub_4
0.0072367999999997,0.0074124000000011,-0.0054905999999998,-0.0278003999999995,0.0207982000000008,-0.0316279999999999,0,sub_4
0.0084063999999997,0.0080328000000012,-0.0055469999999998,-0.0252461999999995,0.0169604000000008,-0.0305379999999999,0,sub_4
0.0077921999999997,0.0069280000000012,-0.0046961999999999,-0.0233281999999995,0.0133404000000008,-0.0300935999999998,0,sub_4
0.0063139999999997,0.0062550000000012,-0.0038395999999999,-0.0224683999999996,0.0114296000000008,-0.0298725999999999,0,sub_4
0.0060491999999997,0.0066028000000012,-0.0032453999999999,-0.0192773999999995,0.0095000000000008,-0.0296341999999999,0,sub_4
0.0055269999999997,0.0084214000000012,-0.0032097999999999,-0.0152443999999995,0.0056474000000008,-0.0287463999999999,0,sub_4
0.0036067999999997,0.0096676000000012,-0.0031009999999999,-0.0107921999999995,0.0007256000000008,-0.0272135999999999,0,sub_4
0.0029803999999997,0.0118862000000012,-0.0036835999999999,-0.0052769999999995,-0.0033545999999991,-0.0239651999999999,0,sub_4
0.0021351999999997,0.0127652000000012,-0.0041785999999999,0.0006676000000003,-0.007433799999999,-0.0213547999999999,0,sub_4
-0.0012498000000002,0.0118776000000012,-0.0037365999999999,0.0061934000000004,-0.010019199999999,-0.0189627999999999,0,sub_4
-0.0051904000000002,0.0100632000000012,-0.0037487999999999,0.0138576000000003,-0.010697999999999,-0.0157037999999999,0,sub_4
-0.0053180000000002,0.0092466000000012,-0.0057633999999998,0.0206606000000003,-0.012866199999999,-0.0122349999999999,0,sub_4
-0.0030828000000002,0.0084870000000012,-0.0078861999999998,0.0251184000000003,-0.016509599999999,-0.0107035999999999,0,sub_4
-0.0009250000000002,0.0070682000000012,-0.0086975999999998,0.0280980000000004,-0.017163399999999,-0.0096135999999999,0,sub_4
0.0022631999999997,0.0064656000000012,-0.0101601999999998,0.0283132000000003,-0.015676999999999,-0.0085457999999999,0,sub_4
0.0064537999999997,0.0052308000000012,-0.0104327999999998,0.0236286000000003,-0.013954399999999,-0.0090079999999999,0,sub_4
0.0083109999999997,0.0038778000000012,-0.0086473999999999,0.0181058000000003,-0.009456599999999,-0.0101205999999999,0,sub_4
0.0079217999999997,0.0029238000000012,-0.0064915999999999,0.0149292000000003,-0.004755799999999,-0.0107897999999999,0,sub_4
0.0081897999999997,0.0036290000000012,-0.0048743999999998,0.0132232000000003,-0.004748999999999,-0.0110153999999999,0,sub_4
0.0087381999999997,0.0049584000000012,-0.0032689999999998,0.0127840000000003,-0.007729399999999,-0.0112283999999999,0,sub_4
0.0085041999999997,0.0066084000000012,-0.0019885999999998,0.0142594000000003,-0.011358199999999,-0.0107861999999999,0,sub_4
0.0071327999999997,0.0074226000000012,-0.0016859999999998,0.0165864000000003,-0.014779399999999,-0.0096973999999999,0,sub_4
0.0061929999999997,0.0083062000000012,-0.0025339999999998,0.0184798000000003,-0.0190539999999991,-0.0079695999999998,0,sub_4
0.0057315999999997,0.0088936000000012,-0.0038107999999998,0.0199504000000004,-0.0228993999999991,-0.0066725999999998,0,sub_4
0.0057115999999997,0.0085982000000012,-0.0049715999999998,0.0212240000000004,-0.024607399999999,-0.0068749999999998,0,sub_4
0.0065743999999997,0.0086562000000012,-0.0055573999999998,0.0237902000000003,-0.025459999999999,-0.0089923999999998,0,sub_4
0.0076151999999997,0.0094178000000012,-0.0055223999999998,0.0299876000000004,-0.028231799999999,-0.0138593999999998,0,sub_4
0.0071021999999997,0.0093634000000012,-0.0049571999999998,0.0383284000000004,-0.030365799999999,-0.0202077999999998,0,sub_4
0.0062979999999997,0.0088954000000012,-0.0043119999999998,0.0490230000000003,-0.029743399999999,-0.0252613999999998,0,sub_4
0.0050631999999997,0.0090472000000012,-0.0039505999999999,0.0597088000000003,-0.0293409999999991,-0.0286055999999998,0,sub_4
0.0021455999999997,0.0057144000000012,-0.0060603999999999,0.0693494000000003,-0.0276603999999991,-0.0315043999999998,0,sub_4
-0.0009398000000002,0.0031268000000012,-0.0092253999999999,0.0736892000000003,-0.0191407999999991,-0.0350897999999999,0,sub_4
-0.0042378000000002,0.0019316000000012,-0.0127991999999999,0.0718862000000003,-0.0018593999999991,-0.0400111999999999,0,sub_4
-0.0092924000000002,0.0014746000000012,-0.0155547999999999,0.0645500000000004,0.0211836000000008,-0.0424149999999998,0,sub_4
-0.0149324000000002,-0.0009695999999987,-0.0176607999999999,0.0508030000000004,0.0474234000000008,-0.0395265999999998,0,sub_4
-0.0179112000000002,-0.0005595999999987,-0.0181669999999999,0.0310524000000003,0.0757980000000008,-0.0320095999999998,0,sub_4
-0.0200058000000002,-0.0033901999999987,-0.0198599999999999,0.0065864000000004,0.1041702000000008,-0.0198255999999998,0,sub_4
-0.0210792000000001,-0.0075721999999987,-0.0221267999999999,-0.0323993999999996,0.1383132000000008,0.0003682000000001,0,sub_4
-0.0191630000000001,-0.0107075999999987,-0.0245753999999999,-0.0816261999999996,0.1714320000000008,0.0192100000000001,0,sub_4
-0.0164150000000001,-0.0096425999999987,-0.0227777999999999,-0.1302107999999995,0.2015794000000009,0.0346416,0,sub_4
-0.0128000000000001,-0.0085361999999987,-0.0200793999999999,-0.1726363999999995,0.2217062000000008,0.0464972,0,sub_4
-0.0075322000000001,-0.0039363999999987,-0.0150867999999999,-0.2080379999999995,0.2362760000000008,0.0566998000000001,0,sub_4
-0.0002082000000002,0.0030434000000012,-0.0076927999999999,-0.2213053999999995,0.2328930000000008,0.0617390000000001,0,sub_4
0.0061665999999997,0.0084230000000012,-0.0004075999999999,-0.2145579999999995,0.2187922000000008,0.0656498000000001,0,sub_4
0.0117175999999997,0.0113344000000012,0.0046612,-0.1939883999999995,0.1927180000000008,0.0681770000000001,0,sub_4
0.0150025999999997,0.0145128000000012,0.0084348,-0.1665947999999996,0.1655556000000008,0.0705396000000001,0,sub_4
0.0168537999999997,0.0164344000000012,0.0115004,-0.1351727999999996,0.1330508000000008,0.0733646000000001,0,sub_4
0.0174799999999997,0.0167132000000012,0.013461,-0.1043947999999995,0.0999084000000008,0.0763994,0,sub_4
0.0181529999999997,0.0166082000000012,0.0145622,-0.0791645999999995,0.0669976000000008,0.0796088000000001,0,sub_4
0.0183045999999997,0.0145716000000012,0.0123438,-0.0611639999999995,0.0398638000000008,0.0829740000000001,0,sub_4
0.0179911999999997,0.0127570000000012,0.0103702,-0.0493387999999995,0.0157334000000009,0.0865058000000001,0,sub_4
0.0171901999999997,0.0131316000000011,0.0070518,-0.0400247999999996,-0.007136799999999,0.0894860000000001,0,sub_4
0.0145819999999997,0.0131684000000011,0.0031666000000001,-0.0309067999999996,-0.027868999999999,0.0907528000000001,0,sub_4
0.0113355999999997,0.0141146000000011,-0.0002853999999998,-0.0191995999999996,-0.044552799999999,0.0896826000000001,0,sub_4
0.0071063999999997,0.0160908000000011,-0.0040141999999998,-0.0031779999999996,-0.054631599999999,0.0847884000000001,0,sub_4
0.0016345999999997,0.0176560000000012,-0.0081379999999998,0.0152348000000003,-0.057888999999999,0.0769112,0,sub_4
-0.0043720000000001,0.0167160000000012,-0.0106121999999998,0.0349304000000003,-0.054080199999999,0.0663616,0,sub_4
-0.0104368000000001,0.0154682000000011,-0.0136907999999999,0.0525372000000003,-0.041523599999999,0.0545046,0,sub_4
-0.0166328000000001,0.0139126000000011,-0.0170351999999999,0.0667636000000003,-0.021498199999999,0.0426142,0,sub_4
-0.0202258000000001,0.0122456000000011,-0.0207993999999999,0.0745984000000003,0.0028022000000009,0.0328102,0,sub_4
-0.0195688000000002,0.0097622000000011,-0.0239345999999999,0.0745404000000003,0.0296784000000009,0.025084,0,sub_4
-0.0172896000000002,0.0056074000000012,-0.0254637999999999,0.0668066000000003,0.0593452000000008,0.0187964,0,sub_4
-0.0132638000000001,0.0009412000000012,-0.0247353999999999,0.0535080000000003,0.0873184000000008,0.0146084,0,sub_4
-0.0084480000000001,-0.0034153999999987,-0.0233445999999999,0.0354884000000004,0.1108278000000008,0.0118886,0,sub_4
-0.0032420000000001,-0.0061739999999987,-0.0194153999999999,0.0140318000000004,0.1300846000000008,0.0100048000000001,0,sub_4
0.0006635999999998,-0.0074309999999987,-0.0143881999999998,-0.0074555999999995,0.1442214000000009,0.0098366000000001,0,sub_4
0.0039929999999998,-0.0071909999999987,-0.0095803999999998,-0.0279163999999996,0.1519526000000008,0.0122474,0,sub_4
0.0092585999999997,-0.0067449999999987,-0.0042031999999998,-0.0490547999999996,0.1532868000000009,0.0165844,0,sub_4
0.0145343999999997,-0.0063943999999987,0.0006932000000001,-0.0700151999999995,0.1484350000000009,0.02264,0,sub_4
0.0192619999999997,-0.0052557999999987,0.0048284000000001,-0.0871703999999995,0.1369600000000009,0.0300126,0,sub_4
0.0229837999999997,-0.0029185999999987,0.009275,-0.0970957999999995,0.1188592000000008,0.0363758,0,sub_4
0.0269391999999997,0.0004154000000012,0.0124978,-0.1004161999999995,0.0960584000000008,0.0402274,0,sub_4
0.0286381999999997,0.0045750000000012,0.0131026,-0.0947739999999995,0.0700442000000008,0.0407276000000001,0,sub_4
0.0288705999999997,0.0103212000000012,0.0139578,-0.0795175999999995,0.0427342000000008,0.0372372000000001,0,sub_4
0.0276637999999997,0.0151672000000012,0.0142152,-0.0576331999999995,0.0154130000000009,0.0308020000000001,0,sub_4
0.0235465999999997,0.0181946000000012,0.0121672,-0.0321059999999995,-0.009572999999999,0.0233212,0,sub_4
0.0174115999999997,0.0196242000000012,0.008129,-0.0050717999999995,-0.031369199999999,0.0160604000000001,0,sub_4
0.0115821999999997,0.0204300000000012,0.0039084,0.0204822000000004,-0.048904399999999,0.0100656000000001,0,sub_4
0.0058861999999997,0.0181410000000012,-0.0013291999999998,0.0411448000000004,-0.060890599999999,0.0059524000000001,0,sub_4
0.0009037999999997,0.0156182000000012,-0.0065935999999998,0.0552168000000003,-0.0666785999999991,0.0026398,0,sub_4
-0.0010108000000002,0.0127618000000012,-0.0108893999999998,0.0626962000000003,-0.066906599999999,-8.499999999990026e-05,0,sub_4
-0.0009862000000002,0.0098754000000012,-0.0132013999999998,0.0654940000000003,-0.0643485999999991,-0.0028459999999999,0,sub_4
-0.0017538000000002,0.0066336000000012,-0.0137539999999998,0.0661694000000004,-0.0594385999999991,-0.0058385999999999,0,sub_4
-0.0018008000000002,0.0045148000000012,-0.0133537999999998,0.0660030000000003,-0.051968999999999,-0.0088403999999999,0,sub_4
-0.0020666000000001,0.0020954000000012,-0.0127843999999999,0.0649840000000003,-0.043646799999999,-0.0112081999999999,0,sub_4
-0.0025346000000002,-5.359999999877607e-05,-0.0123041999999999,0.0614076000000003,-0.034252199999999,-0.0131679999999998,0,sub_4
-0.0033978000000001,-0.0004649999999987,-0.0123091999999999,0.0542046000000003,-0.023570799999999,-0.0140865999999998,0,sub_4
-0.0029226000000001,0.0006028000000012,-0.0121865999999999,0.0427266000000003,-0.012669199999999,-0.0131125999999999,0,sub_4
-0.0027480000000001,0.0017600000000012,-0.0119959999999999,0.0273868000000004,-0.0043191999999991,-0.0100257999999999,0,sub_4
-0.0026120000000001,0.0028018000000012,-0.0111273999999999,0.0101142000000004,0.0033898000000008,-0.0048151999999999,0,sub_4
-0.0024154000000001,0.0038390000000012,-0.0102249999999999,-0.0063165999999995,0.0093880000000008,0.001258,0,sub_4
-0.0020946000000001,0.0043212000000012,-0.0087367999999999,-0.0204163999999995,0.0123926000000008,0.0079922,0,sub_4
-0.0024514000000001,0.0045096000000012,-0.0078933999999999,-0.0313173999999995,0.0134746000000008,0.0132558,0,sub_4
-0.0022870000000001,0.0046888000000012,-0.0070783999999999,-0.0381557999999995,0.0147622000000008,0.0168384,0,sub_4
-0.0006836000000001,0.0048160000000012,-0.0072589999999999,-0.0409267999999996,0.0158356000000008,0.0172448,0,sub_4
0.0016711999999998,0.0059590000000012,-0.0077105999999998,-0.0389947999999996,0.0166878000000008,0.015548,0,sub_4
0.0038961999999997,0.0072358000000012,-0.0070449999999998,-0.0334211999999996,0.0188134000000008,0.0119524000000001,0,sub_4
0.0049053999999997,0.0081730000000012,-0.0054479999999998,-0.0257149999999996,0.0211430000000008,0.0087986,0,sub_4
0.0047329999999998,0.0088966000000012,-0.0038995999999998,-0.0184401999999995,0.0224088000000008,0.0056430000000001,0,sub_4
0.0016647999999998,0.0095268000000012,-0.0028629999999998,-0.0107413999999996,0.0236704000000008,0.0031314000000001,0,sub_4
-0.0011670000000001,0.0114450000000012,-0.0031439999999999,-0.0028203999999996,0.0255778000000008,0.0018942,0,sub_4
-0.0030614000000001,0.0134648000000012,-0.0050653999999999,0.0025382000000004,0.0268558000000008,0.0004262,0,sub_4
-0.0020010000000001,0.0141476000000012,-0.0074637999999999,0.0059890000000004,0.0296370000000008,-0.0023387999999999,0,sub_4
0.0005607999999997,0.0132600000000012,-0.0093199999999999,0.0094512000000003,0.0343382000000008,-0.0057471999999998,0,sub_4
0.0048601999999997,0.0122100000000012,-0.0097869999999999,0.0118572000000003,0.0396892000000008,-0.0108727999999999,0,sub_4
0.0080921999999997,0.0093028000000012,-0.0075989999999999,0.0131892000000004,0.0443992000000008,-0.0177061999999998,0,sub_4
0.0110577999999997,0.0066100000000012,-0.0044471999999999,0.0160140000000004,0.0482544000000008,-0.0251689999999998,0,sub_4
0.0129561999999997,0.0063242000000012,-0.0009201999999999,0.0207380000000004,0.0478400000000008,-0.0321857999999998,0,sub_4
0.0131593999999997,0.0082074000000012,0.0015546,0.0265050000000004,0.0429444000000008,-0.0383347999999998,0,sub_4
0.0136429999999997,0.0097402000000012,0.0039622,0.0315982000000003,0.0337770000000008,-0.0412785999999998,0,sub_4
0.0150773999999997,0.0099744000000012,0.0044592,0.0343252000000004,0.0220546000000008,-0.0425263999999998,0,sub_4
0.0154393999999997,0.0082104000000012,0.0041184,0.0353344000000003,0.0096920000000008,-0.0420761999999998,0,sub_4
0.0140593999999997,0.0040050000000012,0.0021942,0.0346378000000003,-0.0013905999999991,-0.0405713999999998,0,sub_4
0.0141149999999997,-3.919999999875603e-05,-1.3799999999931228e-05,0.0305270000000003,-0.0111879999999991,-0.0378101999999998,0,sub_4
0.0145035999999997,-0.0033197999999987,-0.0028273999999998,0.0227938000000003,-0.0201195999999991,-0.0352889999999998,0,sub_4
0.0127931999999997,-0.0060319999999987,-0.0048777999999998,0.0120734000000003,-0.0284041999999991,-0.0321485999999999,0,sub_4
0.0111725999999997,-0.0078859999999987,-0.0062325999999998,-0.0022741999999995,-0.0360393999999991,-0.0283933999999998,0,sub_4
0.0105037999999997,-0.0079959999999987,-0.0065895999999998,-0.0191747999999995,-0.0425977999999991,-0.0252983999999998,0,sub_4
0.0111517999999997,-0.0067245999999987,-0.0066641999999998,-0.0356359999999995,-0.0478735999999991,-0.0236975999999999,0,sub_4
0.0122147999999997,-0.0043151999999987,-0.0060435999999999,-0.0497387999999995,-0.0520861999999991,-0.0235769999999998,0,sub_4
0.0130479999999997,0.0010672000000012,-0.0031335999999999,-0.0604121999999996,-0.055023999999999,-0.0255705999999999,0,sub_4
0.0128527999999997,0.0072608000000011,-0.0004003999999999,-0.0640357999999996,-0.057129999999999,-0.0285843999999999,0,sub_4
0.0113881999999997,0.0125334000000011,0.002499,-0.0606161999999996,-0.059895399999999,-0.0326161999999999,0,sub_4
0.0057617999999997,0.0173584000000011,0.0029384,-0.0503675999999995,-0.062683799999999,-0.0368137999999999,0,sub_4
-0.0016650000000002,0.0217146000000011,0.0024840000000001,-0.0356487999999995,-0.065284999999999,-0.0384167999999999,0,sub_4
-0.0071302000000002,0.0220264000000011,-0.0007703999999998,-0.0166365999999995,-0.061087799999999,-0.0389301999999999,0,sub_4
-0.0122180000000002,0.0208874000000011,-0.0069543999999998,0.0002506000000004,-0.054116799999999,-0.0386073999999999,0,sub_4
-0.0157528000000002,0.0197490000000011,-0.0128295999999998,0.0131010000000004,-0.042660199999999,-0.0376775999999999,0,sub_4
-0.0166928000000002,0.0165852000000011,-0.0161221999999998,0.0227726000000003,-0.0267163999999991,-0.0372031999999999,0,sub_4
-0.0180446000000002,0.0119816000000012,-0.0187133999999999,0.0303270000000003,-0.0077799999999991,-0.0373883999999999,0,sub_4
-0.0195196000000002,0.0091356000000012,-0.0203373999999999,0.0352834000000003,0.0047662000000008,-0.0356607999999999,0,sub_4
-0.0186618000000002,0.0074292000000012,-0.0196443999999999,0.0398054000000003,0.0162460000000008,-0.0332937999999999,0,sub_4
-0.0153412000000002,0.0074780000000012,-0.0188655999999999,0.0411322000000003,0.0272938000000008,-0.0298949999999999,0,sub_4
-0.0107686000000002,0.0081828000000012,-0.0165907999999999,0.0360494000000004,0.0377196000000008,-0.0252583999999998,0,sub_4
-0.0051330000000002,0.0080166000000012,-0.0126273999999999,0.0262560000000004,0.0453888000000008,-0.0197965999999999,0,sub_4
-0.0010770000000002,0.0057710000000012,-0.0086163999999999,0.0111148000000003,0.0507304000000008,-0.0137281999999998,0,sub_4
0.0010381999999997,0.0037182000000012,-0.0039665999999999,-0.0072373999999996,0.0543764000000008,-0.0070391999999999,0,sub_4
0.0015153999999997,0.0015256000000012,-0.0008531999999999,-0.0243463999999996,0.0539768000000008,0.0011738000000001,0,sub_4
0.0027703999999998,9.880000000122412e-05,5.720000000008947e-05,-0.0391333999999996,0.0486662000000008,0.0100504000000001,0,sub_4
0.0051443999999998,0.0016666000000012,-0.0004245999999999,-0.0507169999999996,0.0420738000000008,0.0170282,0,sub_4
0.0085085999999998,0.0045492000000012,-0.0005251999999999,-0.0588757999999996,0.0348660000000008,0.0222956000000001,0,sub_4
0.0111469999999997,0.0069288000000012,-0.0009215999999999,-0.0627671999999995,0.0259456000000008,0.0258858,0,sub_4
0.0123597999999997,0.0082418000000012,-0.0010309999999999,-0.0632301999999996,0.0176626000000008,0.0269354000000001,0,sub_4
0.0113625999999997,0.0091466000000012,-0.0008999999999999,-0.0591969999999996,0.0100142000000008,0.0252382000000001,0,sub_4
0.0101343999999997,0.0091598000000012,-0.0005501999999999,-0.0523745999999995,0.0042796000000008,0.0220624000000001,0,sub_4
0.0075559999999997,0.0100438000000012,-0.0010719999999999,-0.0427631999999996,0.0012838000000008,0.0170058000000001,0,sub_4
0.0061359999999997,0.0112060000000012,-0.0018043999999998,-0.0314315999999996,0.0004160000000008,0.011104,0,sub_4
0.0054517999999997,0.0122138000000012,-0.0025991999999998,-0.0194559999999996,0.0003982000000008,0.0052056,0,sub_4
0.0059587999999997,0.0126664000000012,-0.0025101999999998,-0.0083657999999996,0.0013368000000008,-0.0002139999999999,0,sub_4
0.0062935999999997,0.0127464000000012,-0.0029925999999998,0.0016586000000003,0.0024920000000008,-0.0056411999999999,0,sub_4
0.0070583999999997,0.0118516000000012,-0.0026465999999998,0.0097568000000003,0.0032244000000008,-0.0102267999999999,0,sub_4
0.0072303999999997,0.0100002000000012,-0.0021529999999998,0.0154936000000003,0.0020424000000008,-0.0135445999999999,0,sub_4
0.0069465999999997,0.0080624000000011,-0.0009141999999998,0.0199406000000003,-0.0006289999999991,-0.0162285999999999,0,sub_4
0.0058685999999997,0.0071956000000011,-0.0007839999999998,0.0231268000000003,-0.0048969999999991,-0.0172691999999999,0,sub_4
0.0046319999999997,0.0067610000000012,-0.0014235999999998,0.0239572000000003,-0.010013199999999,-0.0172567999999999,0,sub_4
0.0040353999999997,0.0062052000000012,-0.0025135999999998,0.0228654000000004,-0.014063399999999,-0.0157637999999999,0,sub_4
0.0036253999999997,0.0060986000000012,-0.0039785999999999,0.0194986000000004,-0.015082799999999,-0.0135421999999998,0,sub_4
0.0032011999999997,0.0064724000000012,-0.0055891999999999,0.0140010000000003,-0.014394799999999,-0.0102693999999998,0,sub_4
0.0024009999999997,0.0060098000000012,-0.0060783999999999,0.0087254000000004,-0.012002199999999,-0.0072107999999998,0,sub_4
0.0011893999999997,0.0057762000000012,-0.0057145999999999,0.0051540000000004,-0.0094059999999991,-0.0032861999999998,0,sub_4
0.0004841999999997,0.0055878000000012,-0.0057129999999999,0.0026456000000003,-0.007877799999999,0.0004336000000001,0,sub_4
0.0002405999999997,0.0060050000000012,-0.0052159999999999,0.0011386000000003,-0.007672399999999,0.0036274000000001,0,sub_4
0.0003121999999997,0.0067552000000012,-0.0054601999999998,-0.0001503999999996,-0.007251199999999,0.0059678,0,sub_4
0.0007865999999997,0.0075724000000012,-0.0060621999999998,-0.0027181999999996,-0.006558199999999,0.0082354000000001,0,sub_4
0.0013945999999997,0.0078962000000012,-0.0066635999999998,-0.0059203999999995,-0.005221199999999,0.0098568000000001,0,sub_4
0.0010363999999997,0.0078642000000012,-0.0063051999999998,-0.0086919999999995,-0.0028211999999991,0.0116936,0,sub_4
0.0015979999999997,0.0082556000000012,-0.0057389999999998,-0.0106119999999995,-0.0006381999999991,0.0137502000000001,0,sub_4
0.0024665999999997,0.0083888000000012,-0.0050443999999999,-0.0110401999999995,0.0006892000000008,0.0153912000000001,0,sub_4
0.0021009999999997,0.0082078000000012,-0.0041881999999999,-0.0097579999999995,0.0021720000000008,0.0164664,0,sub_4
0.0017719999999998,0.0081932000000012,-0.0041131999999998,-0.0069803999999995,0.0040756000000008,0.0175516000000001,0,sub_4
0.0027511999999997,0.0091898000000012,-0.0046055999999998,-0.0037769999999995,0.0049156000000008,0.0177866000000001,0,sub_4
0.0034181999999997,0.0094326000000012,-0.0055589999999998,-0.0011747999999996,0.0050714000000008,0.0176894,0,sub_4
0.0032161999999997,0.0091418000000012,-0.0051931999999998,0.0016464000000003,0.0060804000000008,0.0171652000000001,0,sub_4
0.0033811999999997,0.0082044000000012,-0.0045749999999998,0.0046838000000003,0.0075154000000008,0.0164284000000001,0,sub_4
0.0038051999999997,0.0074984000000012,-0.0036955999999998,0.0066488000000003,0.0072516000000008,0.0152590000000001,0,sub_4
0.0038711999999997,0.0068548000000012,-0.0031743999999998,0.0073374000000003,0.0074202000000008,0.0136528,0,sub_4
0.0033309999999997,0.0072908000000012,-0.0029125999999999,0.0075680000000003,0.0089202000000008,0.0113024000000001,0,sub_4
0.0026627999999997,0.0072826000000012,-0.0034955999999999,0.0062946000000003,0.0089306000000008,0.0097980000000001,0,sub_4
0.0029319999999997,0.0082514000000012,-0.0044155999999999,0.0043704000000003,0.0074486000000008,0.0091456000000001,0,sub_4
0.0022311999999997,0.0083830000000012,-0.0046311999999999,0.0022366000000003,0.0072438000000008,0.0089174000000001,0,sub_4
0.0018439999999997,0.0086434000000012,-0.0049041999999999,0.0006342000000003,0.0071978000000008,0.0091554000000001,0,sub_4
0.0015483999999997,0.0078286000000012,-0.0050177999999999,-0.0007537999999996,0.0073640000000008,0.0093946000000001,0,sub_4
0.0016477999999997,0.0075024000000012,-0.0051961999999999,-0.0019247999999996,0.0079574000000008,0.0092074,0,sub_4
0.0018041999999997,0.0066726000000012,-0.0051597999999999,-0.0035145999999996,0.0091956000000008,0.0079482000000001,0,sub_4
0.0028589999999997,0.0069882000000012,-0.0050901999999999,-0.0038231999999996,0.0104302000000008,0.0064844000000001,0,sub_4
0.0031071999999997,0.0068672000000012,-0.0048587999999998,-0.0031745999999996,0.0112844000000008,0.0054196000000001,0,sub_4
0.0036073999999997,0.0068744000000012,-0.0039191999999998,-0.0023229999999996,0.0106432000000008,0.0052126000000001,0,sub_4
0.0041751999999997,0.0071344000000012,-0.0035247999999998,-0.0016895999999995,0.0097862000000008,0.0058592,0,sub_4
0.0047779999999997,0.0082520000000012,-0.0032677999999998,-0.0023015999999995,0.0084808000000008,0.0071872,0,sub_4
0.0045279999999997,0.0088148000000012,-0.0026435999999998,-0.0050513999999995,0.0065430000000008,0.0087148,0,sub_4
0.0047127999999997,0.0095870000000012,-0.0018521999999999,-0.0080113999999995,0.0046084000000008,0.0096,0,sub_4
0.0042107999999997,0.0097982000000012,-0.0016321999999999,-0.0094779999999995,0.0024564000000008,0.0102822,0,sub_4
