userAcceleration.x,userAcceleration.y,userAcceleration.z,rotationRate.x,rotationRate.y,rotationRate.z,label,subject
0.0138009999999997,0.0243024000000012,0.0013904,0.0028612000000004,-0.003501599999999,0.0016542,0,sub_2
0.0139581999999998,0.0248910000000012,0.0017612,0.0032918000000004,-0.0030753999999991,0.0012294,0,sub_2
0.0149467999999997,0.0259652000000012,0.0014136,0.0030890000000004,-0.0013675999999991,0.000585,0,sub_2
0.0160595999999997,0.0267606000000012,0.0008958000000001,0.0030938000000004,-0.0011511999999991,-0.0002697999999999,0,sub_2
0.0170753999999997,0.0265922000000012,0.0013494,0.0033082000000004,-0.0015753999999991,-0.0009085999999999,0,sub_2
0.0181599999999997,0.0261714000000012,0.001463,0.0039512000000004,-0.0013627999999991,-0.0013315999999999,0,sub_2
0.0191527999999997,0.0253100000000012,0.0013578,0.0039502000000004,-0.0013635999999991,-0.0011179999999999,0,sub_2
0.0192359999999997,0.0245404000000012,0.0014898,0.0037340000000004,-0.0017897999999991,-0.0009053999999999,0,sub_2
0.0187071999999997,0.0246356000000012,0.0022354,0.0026652000000004,-0.0019999999999991,-0.0006989999999999,0,sub_2
0.0188157999999997,0.0246584000000012,0.0022968,0.0020222000000004,-0.0015759999999991,0.0003642,0,sub_2
0.0176845999999997,0.0254268000000012,0.0020374,0.0013820000000004,-0.0011493999999991,0.0007864,0,sub_2
0.0167731999999997,0.0264074000000012,0.0015218,0.0007668000000004,-0.0007459999999991,0.000782,0,sub_2
0.0162619999999998,0.0270912000000012,0.0019864,0.0010050000000004,-0.0005577999999991,0.0005702,0,sub_2
0.0157247999999998,0.0270554000000012,0.0019814,0.0025264000000004,0.0002652000000008,0.0003666,0,sub_2
0.0150059999999998,0.0275136000000012,0.0018772,0.0029848000000004,0.0010952000000008,-0.0006991999999999,0,sub_2
0.0157277999999998,0.0274446000000012,0.0015462,0.0025858000000004,0.0015004000000008,-0.0013429999999999,0,sub_2
0.0168139999999998,0.0271732000000012,0.0011878,0.0027992000000004,0.0008632000000008,-0.0019815999999999,0,sub_2
0.0175393999999998,0.0257434000000012,0.0010814,0.0021602000000004,0.0008664000000008,-0.0021995999999999,0,sub_2
0.0186787999999998,0.0247570000000012,0.0006246,0.0002388000000004,0.0008722000000008,-0.0019993999999999,0,sub_2
0.0199949999999998,0.0247764000000012,0.0003568,-0.0014723999999995,0.0002262000000008,-0.0017999999999999,0,sub_2
0.0200747999999998,0.0249680000000012,0.000489,-0.0019069999999995,-0.0010643999999991,-0.0013771999999999,0,sub_2
0.0196921999999998,0.0253144000000012,0.000994,-0.0021245999999995,-0.0012913999999991,-0.0007405999999999,0,sub_2
0.0189279999999997,0.0269012000000012,0.0007982,-0.0019181999999995,-0.0019467999999991,0.000113,0,sub_2
0.0176647999999997,0.0282354000000012,0.0014276,-0.0006419999999995,-0.0021789999999991,0.00076,0,sub_2
0.0159293999999997,0.0283866000000012,0.001262,0.0012746000000004,-0.0024013999999991,0.0014146,0,sub_2
0.0151125999999997,0.0276540000000012,0.0011182,0.0025576000000004,-0.0017667999999991,0.0014228,0,sub_2
0.0146007999999997,0.0262468000000012,0.0009188,0.0029864000000004,-0.0019787999999991,0.0007850000000001,0,sub_2
0.0149025999999997,0.0246628000000012,0.0002546000000001,0.0032026000000004,-0.0024013999999991,-0.0002811999999998,0,sub_2
0.0162987999999997,0.0234246000000012,-0.0011735999999998,0.0023350000000004,-0.003238199999999,-0.0013609999999998,0,sub_2
0.0179199999999997,0.0233416000000012,-0.0008791999999998,0.0008274000000005,-0.0034361999999991,-0.0018049999999998,0,sub_2
0.0188615999999997,0.0242190000000012,8.800000000109329e-06,0.0001704000000005,-0.0034273999999991,-0.0013889999999998,0,sub_2
0.0192217999999997,0.0264060000000012,0.0008182,0.0001534000000005,-0.0032087999999991,-0.0007549999999998,0,sub_2
0.0188447999999997,0.0279304000000012,0.0017106,0.0005642000000005,-0.0029907999999991,-0.0003315999999998,0,sub_2
0.0178859999999998,0.0289732000000012,0.0024456,0.0020588000000004,-0.002782999999999,-0.0003213999999998,0,sub_2
0.0166461999999997,0.0282892000000012,0.002241,0.0039800000000004,-0.003000999999999,-0.0007349999999998,0,sub_2
0.0163179999999997,0.0266396000000012,0.001927,0.0060928000000004,-0.004058599999999,-0.0013655999999998,0,sub_2
0.0160659999999997,0.0240120000000012,0.0013208,0.0071408000000004,-0.004261999999999,-0.0015773999999998,0,sub_2
0.0165065999999997,0.0230142000000012,-0.0001023999999999,0.0060568000000004,-0.004031799999999,-0.0018047999999999,0,sub_2
0.0172669999999997,0.0222744000000012,-0.0002423999999999,0.0039050000000004,-0.004010799999999,-0.0020393999999999,0,sub_2
0.0179051999999997,0.0231916000000012,0.0002898,0.0026076000000004,-0.003991999999999,-0.0024815999999999,0,sub_2
0.0178313999999997,0.0248722000000012,0.000397,0.0006930000000004,-0.003343599999999,-0.0031367999999999,0,sub_2
0.0180231999999998,0.0265894000000012,0.0006976000000001,-0.0003709999999995,-0.003337199999999,-0.0037851999999998,0,sub_2
0.0183167999999998,0.0273648000000012,0.0013574,0.0009074000000004,-0.004192199999999,-0.0042023999999998,0,sub_2
0.0182291999999998,0.0279074000000012,0.0015528,0.0030364000000004,-0.005477199999999,-0.0043993999999998,0,sub_2
0.0180287999999998,0.0268188000000012,0.0012738,0.0045064000000004,-0.006111799999999,-0.0039651999999998,0,sub_2
0.0179811999999998,0.0255536000000012,0.0010724,0.0051248000000004,-0.006317199999999,-0.0035373999999998,0,sub_2
0.0176737999999998,0.0255340000000012,0.0006274,0.0044676000000004,-0.005452799999999,-0.0031199999999999,0,sub_2
0.0169023999999998,0.0251854000000012,0.0012208,0.0031694000000004,-0.004799199999999,-0.0027067999999999,0,sub_2
0.0163939999999997,0.0249232000000012,0.0011514,0.0018732000000004,-0.003507399999999,-0.0020807999999998,0,sub_2
0.0163653999999997,0.0256956000000012,0.0007998,0.0003834000000004,-0.002437599999999,-0.0018789999999998,0,sub_2
0.0166821999999997,0.0261624000000012,0.0007176,-0.0004681999999995,-0.0024327999999991,-0.0023121999999998,0,sub_2
0.0165297999999997,0.0255464000000012,0.0013754,-5.419999999953092e-05,-0.0028497999999991,-0.0029501999999998,0,sub_2
0.0170585999999997,0.0259228000000012,0.000889,-0.0002755999999995,-0.0021991999999991,-0.0035939999999998,0,sub_2
0.0177659999999997,0.0258784000000012,0.0008694,-0.0004999999999995,-0.001975599999999,-0.0040235999999998,0,sub_2
0.0180929999999997,0.0253452000000012,0.0014568,-0.0005137999999995,-0.002391999999999,-0.0044509999999998,0,sub_2
0.0182535999999998,0.0257938000000012,0.0011986,-0.0005265999999995,-0.001958799999999,-0.0042385999999998,0,sub_2
0.0184263999999998,0.0259654000000012,0.0009412,-0.0007399999999995,-0.001533599999999,-0.0038133999999999,0,sub_2
0.0184657999999998,0.0255602000000012,0.00126,-0.0007447999999995,-0.001962399999999,-0.0031719999999998,0,sub_2
0.0178455999999998,0.0256490000000012,0.0015022,-0.0007467999999995,-0.002176199999999,-0.0029581999999998,0,sub_2
0.0174295999999998,0.0262770000000012,0.0014384,-0.0007583999999994,-0.001953199999999,-0.0027449999999998,0,sub_2
0.0170619999999998,0.0262874000000012,0.0017862,-0.0007709999999994,-0.001943199999999,-0.0025315999999998,0,sub_2
0.0172155999999998,0.0265684000000012,0.0014934,-0.0007835999999994,-0.001933199999999,-0.0023181999999998,0,sub_2
0.0168557999999998,0.0267344000000012,0.0011286,-0.0003665999999994,-0.001709799999999,-0.0025293999999998,0,sub_2
0.0172167999999997,0.0267160000000012,0.001082,4.860000000050904e-05,-0.001488199999999,-0.0023131999999998,0,sub_2
0.0173395999999997,0.0262020000000012,0.001144,0.0004764000000004,-0.001276599999999,-0.0023103999999998,0,sub_2
0.0172433999999997,0.0255570000000012,0.0012016,0.0011166000000004,-0.001278799999999,-0.0023059999999998,0,sub_2
0.0178429999999997,0.0250166000000012,0.0008824000000001,0.0013300000000004,-0.001491799999999,-0.0025177999999999,0,sub_2
0.0184893999999997,0.0247506000000012,0.0007610000000001,0.0011018000000004,-0.001477799999999,-0.0023037999999999,0,sub_2
0.0184673999999997,0.0251362000000012,0.0004202000000001,0.0002364000000004,-0.001246799999999,-0.0025217999999999,0,sub_2
0.0187759999999997,0.0258038000000012,0.0004722000000001,7.200000000449084e-06,-0.001445799999999,-0.0023075999999999,0,sub_2
0.0189425999999998,0.0261830000000012,0.0003886000000001,-0.0004333999999995,-0.0010057999999991,-0.0018819999999999,0,sub_2
0.0185311999999998,0.0264842000000012,0.0005784,-0.0010835999999995,7.500000000088686e-05,-0.0016723999999998,0,sub_2
0.0179285999999998,0.0270948000000012,0.0007996,-0.0021485999999995,0.0005048000000008,-0.0016801999999998,0,sub_2
0.0182299999999998,0.0265646000000012,0.001993,-0.0010865999999995,7.240000000088686e-05,-0.0010311999999998,0,sub_2
0.0180253999999998,0.0259502000000012,0.0015532,-0.0006617999999995,0.0002814000000008,-0.0003875999999998,0,sub_2
0.0175405999999998,0.0255088000000012,0.0005546,-0.0008893999999995,0.0009384000000008,4.620000000013021e-05,0,sub_2
0.0170679999999998,0.0254702000000012,0.0007662,-0.0004853999999995,-0.0001121999999991,0.0007002,0,sub_2
0.0168247999999998,0.0253510000000012,0.0010796,0.0012018000000004,-0.0003159999999991,0.0015756,0,sub_2
0.0156475999999998,0.0257790000000012,0.0007846,0.0011896000000004,0.0007662000000008,0.0020102,0,sub_2
0.0154093999999998,0.0261216000000012,0.000598,0.0009630000000004,0.0009996000000008,0.0018036,0,sub_2
0.0157495999999997,0.0262274000000012,0.001806,0.0015992000000004,-0.0004913999999991,0.001169,0,sub_2
0.0167101999999997,0.0262390000000012,0.0022714,0.0024526000000004,-0.0011309999999991,0.0005348,0,sub_2
0.0177555999999997,0.0258148000000012,0.0026538,0.0026658000000004,-0.0021925999999991,-0.0005305999999998,0,sub_2
0.0182577999999997,0.0252672000000012,0.001726,0.0030776000000004,-0.0032373999999991,-0.0011539999999998,0,sub_2
0.0181709999999997,0.0255448000000012,0.0014246,0.0032780000000004,-0.0032187999999991,-0.0011391999999998,0,sub_2
0.0167833999999997,0.0269670000000012,0.0015328,0.0045462000000004,-0.0019299999999991,-5.0399999999909895e-05,0,sub_2
0.0133417999999998,0.0263650000000012,0.0026406,0.0073148000000004,0.0014816000000008,0.0016872,0,sub_2
0.0097235999999998,0.0254954000000012,0.0031652,0.0090242000000004,0.0072380000000008,0.0040552,0,sub_2
0.0097425999999998,0.0242266000000012,0.0016492,0.0081812000000004,0.0104334000000008,0.0048998,0,sub_2
0.0141707999999998,0.0231034000000012,0.0012174,0.0066818000000004,0.0083114000000008,0.0040374,0,sub_2
0.0202115999999997,0.0210464000000012,-0.0002217999999999,0.0041146000000004,0.0047070000000008,0.0018878,0,sub_2
0.0277497999999997,0.0213534000000012,-0.0024959999999999,-0.0007977999999995,0.0015370000000008,-0.0002787999999999,0,sub_2
0.0316443999999997,0.0263290000000012,-0.0013547999999999,-0.0046551999999995,-0.0020479999999991,-0.0017801999999999,0,sub_2
0.0314689999999997,0.0294734000000012,0.0034476,-0.0038145999999995,-0.0037361999999991,-0.0021829999999999,0,sub_2
0.0251123999999997,0.0292984000000012,0.0078866,-0.0018927999999995,-0.0005345999999991,-0.0008753999999999,0,sub_2
0.0218405999999997,0.0264730000000012,0.0041418,-0.0042489999999995,-0.0005105999999991,-0.0004483999999999,0,sub_2
0.0190895999999997,0.0231040000000012,-0.0007623999999998,-0.0077055999999995,-0.0096373999999991,-0.0017263999999999,0,sub_2
0.0206699999999997,0.0177754000000012,-0.0058217999999998,-0.0094471999999995,-0.0179379999999991,-0.0023689999999999,0,sub_2
0.0210225999999998,0.0170900000000012,-0.0076703999999998,-0.0128755999999994,-0.0192119999999991,-0.0004685999999999,0,sub_2
0.0205197999999998,0.0220896000000012,-0.0081821999999998,-0.0158665999999994,-0.0172951999999991,0.0022854,0,sub_2
0.0149815999999998,0.0317320000000012,0.0008682000000001,-0.0132869999999995,-0.0102657999999991,0.0042328,0,sub_2
0.0089617999999998,0.0410256000000012,0.0091844,-0.0076935999999995,0.0012332000000008,0.0047,0,sub_2
0.0039381999999998,0.0445922000000012,0.0125164,2.220000000048919e-05,0.0067730000000009,0.0017714,0,sub_2
0.0019287999999998,0.0415064000000012,0.0092576,0.0087752000000004,0.0046432000000009,-0.0022083999999999,0,sub_2
0.0033811999999998,0.0314962000000012,0.0034208,0.0168744000000004,0.0005940000000009,-0.0051221999999999,0,sub_2
0.0073687999999998,0.0191570000000012,-0.0026779999999999,0.0200614000000004,-0.001763399999999,-0.0044559999999999,0,sub_2
0.0141511999999998,0.0120064000000012,-0.0045575999999999,0.0177154000000004,0.0007920000000009,-0.0021255999999999,0,sub_2
0.0199567999999997,0.0111348000000012,-0.0045189999999999,0.0096200000000004,0.0065722000000008,0.0005992,0,sub_2
0.0243575999999997,0.0158728000000012,-0.0027215999999999,-0.0001783999999995,0.0115130000000008,0.001604,0,sub_2
0.0262203999999997,0.0248510000000012,-8.099999999993e-05,-0.0087031999999995,0.0134726000000008,0.001126,0,sub_2
0.0266289999999997,0.0330078000000012,0.0028062,-0.0114869999999995,0.0100892000000008,-0.0001595999999999,0,sub_2
0.0233833999999997,0.0340784000000012,0.0031742,-0.0078909999999995,0.0028450000000008,-0.0005411999999999,0,sub_2
0.0196479999999997,0.0310460000000012,0.002321,-0.0023681999999995,-0.0029259999999991,-0.0007089999999999,0,sub_2
0.0167949999999997,0.0271998000000012,0.0017064,0.0014618000000004,-0.0059195999999991,-0.0013193999999999,0,sub_2
0.0162545999999997,0.0226770000000012,0.0009918,0.0035926000000004,-0.007414999999999,-0.0021571999999999,0,sub_2
0.0162471999999998,0.0208368000000012,3.40000000009031e-06,0.0029610000000004,-0.004858599999999,-0.0015239999999999,0,sub_2
0.0157359999999997,0.0221708000000012,-0.0010917999999999,-0.0002269999999995,0.0004688000000009,0.0010106,0,sub_2
0.0153615999999997,0.0243686000000012,-0.0008853999999999,-0.0032073999999995,0.0051536000000009,0.0041884,0,sub_2
0.0146895999999997,0.0262034000000012,0.0006494,-0.0040579999999995,0.0081300000000009,0.0065288,0,sub_2
0.0137357999999997,0.0273090000000012,0.0021126,-0.0034139999999995,0.0096166000000008,0.0071724,0,sub_2
0.0131179999999997,0.0270532000000012,0.002311,-0.0016983999999995,0.0096182000000008,0.0052616,0,sub_2
0.0139603999999997,0.0256316000000012,0.0020238,0.0002314000000004,0.0079224000000008,0.0014316,0,sub_2
0.0156439999999997,0.0247358000000011,0.001814,0.0015164000000004,0.0062246000000008,-0.0013345999999999,0,sub_2
0.0177721999999997,0.0237106000000012,0.000969,0.0019412000000004,0.0053726000000008,-0.0017577999999999,0,sub_2
0.0198117999999998,0.0235854000000012,0.0007492,0.0012962000000004,0.0053706000000008,-0.0006941999999999,0,sub_2
0.0211323999999997,0.0238544000000012,0.000759,0.0004312000000004,0.0047268000000008,0.0012234,0,sub_2
0.0212139999999997,0.0241912000000012,0.001052,-4.999999999511124e-06,0.0040832000000008,0.0027168,0,sub_2
0.0205505999999997,0.0239084000000012,0.0013046,-1.5599999999511143e-05,0.0021640000000008,0.0031466,0,sub_2
0.0194607999999997,0.0242414000000012,0.0012334,0.0004054000000004,3.5400000000887155e-05,0.0022976,0,sub_2
0.0186327999999997,0.0250414000000012,0.0009212,0.0006160000000004,-0.0018777999999991,0.0010198,0,sub_2
0.0177215999999998,0.0250466000000012,6.92000000000902e-05,0.0004036000000004,-0.0025127999999991,0.0001644,0,sub_2
0.0179065999999997,0.0253840000000012,0.0003016,-0.0002365999999995,-0.0027227999999991,-5.359999999990976e-05,0,sub_2
0.0172367999999997,0.0266174000000012,0.0007068,-0.0002375999999995,-0.002086999999999,0.0008,0,sub_2
0.0161807999999997,0.0269524000000012,0.0018034,0.0006194000000004,-0.001448199999999,0.00188,0,sub_2
0.0149503999999997,0.0250072000000012,0.0021708,0.0016934000000004,4.20000000009072e-05,0.0029604,0,sub_2
0.0140025999999997,0.0237160000000012,0.0026142,0.0021274000000004,4.900000000090717e-05,0.002543,0,sub_2
0.0141205999999997,0.0216368000000012,0.0014732,0.0014916000000004,-0.001640399999999,0.001052,0,sub_2
0.0160283999999997,0.0208400000000012,0.0007212,0.0004292000000004,-0.0037527999999991,-0.0008687999999999,0,sub_2
0.0181111999999997,0.0209120000000012,-0.0005493999999999,-0.0019179999999995,-0.0043811999999991,-0.0015251999999998,0,sub_2
0.0196025999999997,0.0239300000000012,-0.0004675999999999,-0.0040535999999995,-0.0045875999999991,-0.0013261999999998,0,sub_2
0.0195237999999998,0.0269156000000012,0.0011444,-0.0044885999999995,-0.0039471999999991,-0.0002591999999999,0,sub_2
0.0176165999999998,0.0302180000000012,0.003669,-0.0017189999999995,-0.0016169999999991,0.0016826,0,sub_2
0.0147545999999998,0.0300194000000012,0.004699,0.0014810000000004,0.0007152000000008,0.002773,0,sub_2
0.0130651999999998,0.0284368000000012,0.0043978,0.0040352000000004,-0.0003507999999991,0.0017266,0,sub_2
0.0130037999999998,0.0252798000000012,0.0025748,0.0065846000000004,-0.003330799999999,-0.0001717999999999,0,sub_2
0.0139999999999998,0.0219812000000012,0.0003516,0.0076496000000004,-0.004397199999999,-0.0008039999999999,0,sub_2
0.0163397999999998,0.0201630000000012,-0.0022819999999998,0.0048834000000004,-0.003107599999999,-0.0012521999999999,0,sub_2
0.0178659999999998,0.0218128000000012,-0.0029915999999998,0.0004140000000004,-0.000535399999999,-0.0012867999999999,0,sub_2
0.0184433999999998,0.0244918000000012,-0.0004913999999999,-0.0014977999999995,0.0024504000000008,-0.0004501999999999,0,sub_2
0.0178155999999998,0.0258974000000012,0.0020338,-0.0023427999999995,0.0054324000000008,0.0003938,0,sub_2
0.0181929999999997,0.0259826000000012,0.0021254,-0.0031953999999995,0.0052246000000008,-0.0002535999999999,0,sub_2
0.0176105999999997,0.0253506000000012,0.0010334,-0.0027869999999995,0.0007514000000008,-0.0008867999999999,0,sub_2
0.0180771999999997,0.0226586000000012,6.800000000007026e-05,-0.0006819999999995,-0.0052225999999991,-0.0006515999999999,0,sub_2
0.0186079999999997,0.0209542000000012,-0.0009463999999999,-0.0006983999999995,-0.0079957999999991,0.0002064,0,sub_2
0.0185661999999997,0.0225856000000012,-0.0011651999999999,-0.0028425999999995,-0.009270999999999,0.0012612,0,sub_2
0.0172247999999997,0.0264724000000012,0.000232,-0.0015749999999995,-0.010984199999999,0.0023404,0,sub_2
0.0141597999999997,0.0296150000000012,0.0029034,0.0022580000000004,-0.011428799999999,0.0036496,0,sub_2
0.0101235999999998,0.0315498000000012,0.0035932,0.0060918000000004,-0.011448199999999,0.005172,0,sub_2
0.0072763999999998,0.0319334000000012,0.0022742,0.0105488000000004,-0.015729199999999,0.0062768,0,sub_2
0.0056959999999998,0.0303388000000012,0.0019778,0.0169336000000004,-0.020009999999999,0.005686,0,sub_2
0.0076869999999998,0.0260300000000012,0.0018082,0.0207878000000004,-0.018525999999999,0.0042156,0,sub_2
0.0118723999999998,0.0216524000000012,-0.0003535999999999,0.0208194000000004,-0.013829599999999,0.0018598,0,sub_2
0.0166147999999998,0.0193420000000012,-0.0021063999999999,0.0187174000000004,-0.009549999999999,-0.0009377999999999,0,sub_2
0.0209401999999997,0.0188326000000012,-0.0020163999999999,0.0161914000000004,-0.004205199999999,-0.0033121999999999,0,sub_2
0.0244323999999997,0.0194328000000012,-0.0023771999999998,0.0115192000000004,0.0017724000000009,-0.0022841999999999,0,sub_2
0.0248561999999997,0.0228250000000012,-0.0029861999999998,0.0059792000000004,0.0066792000000008,0.0008754,0,sub_2
0.0248743999999997,0.0266940000000012,-0.0016647999999999,0.0031958000000004,0.0077414000000008,0.0040592,0,sub_2
0.0244811999999997,0.0298298000000012,0.0007032,0.0042474000000004,0.0060264000000008,0.005778,0,sub_2
0.0227647999999997,0.0305316000000012,0.0014596,0.0050922000000004,0.0043180000000008,0.0059996,0,sub_2
0.0206929999999997,0.0303528000000012,0.0008838,0.0067964000000004,0.0021874000000008,0.0045186,0,sub_2
0.0182157999999997,0.0286898000000012,0.0003998000000001,0.0099894000000004,-0.0018623999999991,0.002196,0,sub_2
0.0159491999999997,0.0259796000000012,0.0001426000000001,0.0123316000000004,-0.0046333999999991,0.0005068,0,sub_2
0.0135077999999998,0.0229948000000012,-0.0009213999999998,0.0117072000000004,-0.0031447999999991,0.0004992,0,sub_2
0.0121299999999998,0.0220164000000012,-0.0017307999999998,0.0108714000000004,0.0006804000000008,0.00241,0,sub_2
0.0115055999999998,0.0215950000000012,-0.0020513999999998,0.0098156000000004,0.0030152000000008,0.0043212,0,sub_2
0.0124437999999997,0.0220168000000012,-0.0014607999999999,0.0074776000000004,0.0042916000000008,0.005584,0,sub_2
0.0136713999999997,0.0227456000000012,-0.0012191999999999,0.0042890000000004,0.0047248000000008,0.0053462,0,sub_2
0.0157467999999997,0.0235178000000012,-6.679999999994962e-05,0.0025840000000004,0.0034594000000008,0.0036268,0,sub_2
0.0170151999999997,0.0236036000000012,0.0007042,0.0015220000000004,0.0015576000000008,0.0006308,0,sub_2
0.0175501999999997,0.0231766000000012,0.0016748,0.0006710000000004,0.0005056000000008,-0.0021557999999999,0,sub_2
0.0171315999999998,0.0224030000000012,0.0018358,3.2400000000468946e-05,-0.0003357999999991,-0.0045139999999999,0,sub_2
0.0167209999999998,0.0227244000000012,0.0018234,-0.0006127999999995,-0.0005465999999991,-0.0047363999999999,0,sub_2
0.0164237999999997,0.0230070000000012,0.0020632,-0.0016897999999995,-0.0005479999999991,-0.0036803999999999,0,sub_2
0.0161813999999997,0.0233288000000012,0.0022608,-0.0021283999999995,-0.0003409999999991,-0.0019791999999999,0,sub_2
0.0159649999999997,0.0234250000000012,0.0018064,-0.0021313999999995,0.0011418000000008,0.0001554,0,sub_2
0.0156913999999997,0.0245698000000012,0.0013194000000001,-0.0021353999999995,0.0024116000000008,0.0022902,0,sub_2
0.0144739999999997,0.0250572000000012,0.0015538000000001,1.2000000004491055e-06,0.0047410000000008,0.0040112,0,sub_2
0.0138717999999998,0.0262108000000012,0.00151,0.0025638000000004,0.0075086000000008,0.0055156,0,sub_2
0.0135445999999997,0.0272298000000012,0.0007752,0.0055512000000004,0.0096364000000008,0.0068102,0,sub_2
0.0136571999999997,0.0286158000000012,0.0003326,0.0089606000000004,0.0102730000000008,0.0076824,0,sub_2
0.0150467999999997,0.0281438000000012,0.0004272,0.0123728000000004,0.0107000000000008,0.0077002,0,sub_2
0.0180663999999997,0.0271740000000012,0.0006672,0.0136512000000004,0.0098612000000008,0.006423,0,sub_2
0.0201131999999997,0.0260720000000012,0.0003728,0.0140780000000004,0.0079500000000008,0.0045056,0,sub_2
0.0219565999999997,0.0242052000000012,-0.0003999999999999,0.0132226000000004,0.0056172000000008,0.0025798,0,sub_2
0.0237885999999997,0.0217762000000012,-2.1199999999909717e-05,0.0115118000000004,0.0030734000000008,0.0008618,0,sub_2
0.0237867999999998,0.0199014000000012,-4.319999999990972e-05,0.0089418000000004,0.0005274000000008,0.00042,0,sub_2
0.0227141999999998,0.0186366000000012,-0.0003461999999999,0.0054832000000004,-0.0019901999999991,0.0006058,0,sub_2
0.0213821999999998,0.0188984000000012,-0.0009977999999999,0.0015988000000004,-0.0036567999999991,0.0014286,0,sub_2
0.0196757999999998,0.0199956000000012,-0.0001635999999999,-0.0018579999999995,-0.0046873999999991,0.0026808,0,sub_2
0.0174939999999998,0.0218310000000012,4.5400000000070384e-05,-0.0046679999999995,-0.0048653999999991,0.0032954,0,sub_2
