userAcceleration.x,userAcceleration.y,userAcceleration.z,rotationRate.x,rotationRate.y,rotationRate.z,label,subject
0.0012371999999997,-0.0013235999999987,-0.0021789999999999,-0.0027557999999995,-0.039653399999999,-0.0154393999999999,0,sub_24
0.0031119999999997,9.64000000012376e-05,-0.0011117999999999,-0.0033835999999995,-0.036881599999999,-0.0154473999999999,0,sub_24
0.0033171999999997,0.0016926000000012,9.440000000009368e-05,-0.0023059999999995,-0.033041799999999,-0.0169415999999999,0,sub_24
0.0052781999999997,0.0024632000000012,0.0011186,-0.0001555999999995,-0.028352399999999,-0.0188565999999999,0,sub_24
0.0077409999999997,0.0025514000000012,0.0006198,0.0017776000000004,-0.023029399999999,-0.0192783999999999,0,sub_24
0.0092001999999997,0.0027976000000012,0.0007576,0.0030754000000004,-0.015365999999999,-0.0184255999999999,0,sub_24
0.0089503999999997,0.0031034000000011,0.0017364,0.0035140000000004,-0.007280399999999,-0.0158701999999998,0,sub_24
0.0086495999999997,0.0027304000000012,0.0020536,0.0033164000000004,-0.001750399999999,-0.0137417999999999,0,sub_24
0.0069249999999997,0.0020948000000012,0.0005078,0.0024632000000004,0.0005856000000009,-0.0114003999999999,0,sub_24
0.0031399999999997,0.0004012000000012,-0.0013641999999999,0.0011784000000004,0.0020708000000009,-0.0088473999999999,0,sub_24
-0.0006276000000002,-0.0023933999999987,-0.0031801999999998,0.0003056000000004,0.0033368000000009,-0.0058665999999999,0,sub_24
-0.0024938000000002,-0.0046829999999987,-0.0057571999999998,0.0007040000000004,0.0026812000000009,-0.0028745999999999,0,sub_24
-0.0047638000000002,-0.0058247999999987,-0.0080629999999998,0.0010906000000004,-0.000318199999999,0.0003338,0,sub_24
-0.0052280000000002,-0.0055161999999987,-0.0081667999999998,0.0014790000000004,-0.004376399999999,0.002048,0,sub_24
-0.0040346000000002,-0.0040997999999987,-0.0073253999999998,0.0020848000000004,-0.009917799999999,0.0014156,0,sub_24
-0.0025330000000002,-0.0017875999999987,-0.0057789999999998,0.0022738000000004,-0.018638999999999,-0.0019903999999999,0,sub_24
-0.0010196000000002,0.0007814000000012,-0.0048615999999998,0.0009772000000004,-0.026923799999999,-0.0066891999999999,0,sub_24
0.0006221999999997,0.0028384000000012,-0.0036273999999998,0.0005478000000004,-0.032017199999999,-0.0111721999999999,0,sub_24
0.0017387999999997,0.0027506000000012,-0.0032089999999998,0.0009692000000004,-0.033077999999999,-0.0141613999999999,0,sub_24
0.0030531999999997,0.0023830000000012,-0.0023161999999998,0.0011762000000004,-0.031592399999999,-0.0143779999999999,0,sub_24
0.0048743999999997,0.0015616000000012,-0.0019123999999998,0.0018118000000004,-0.026499399999999,-0.0113915999999999,0,sub_24
0.0062017999999997,0.0009612000000012,-0.0011843999999998,0.0028750000000004,-0.019497799999999,-0.0066953999999998,0,sub_24
0.0065375999999997,0.0003578000000012,-0.0007907999999998,0.0022254000000004,-0.014617199999999,-0.0028629999999999,0,sub_24
0.0054553999999997,0.0003960000000012,-0.0005447999999998,0.0013692000000004,-0.013556399999999,-0.0011609999999999,0,sub_24
0.0038635999999997,-0.0002417999999987,-0.0012951999999998,0.0013682000000004,-0.014194199999999,-0.0015873999999999,0,sub_24
0.0018715999999997,-0.0005053999999987,-0.0021459999999998,0.0013728000000004,-0.014402399999999,-0.0028689999999999,0,sub_24
0.0008791999999997,-0.0012167999999987,-0.0028371999999998,0.0011660000000004,-0.014183199999999,-0.0041525999999999,0,sub_24
0.0008955999999997,-0.0019611999999987,-0.0029303999999999,0.0022288000000004,-0.010999999999999,-0.0037251999999999,0,sub_24
0.0012613999999997,-0.0017641999999987,-0.0027795999999999,0.0026514000000004,-0.006116799999999,-0.0015953999999999,0,sub_24
0.0022821999999997,-0.0011403999999987,-0.0026925999999999,0.0022170000000004,-0.001446599999999,0.0011698,0,sub_24
0.0029975999999997,-0.0002757999999987,-0.0030077999999999,0.0013492000000004,0.0017338000000009,0.003934,0,sub_24
0.0038643999999997,0.0001366000000012,-0.0033205999999999,-0.0005825999999995,0.0044958000000009,0.005623,0,sub_24
0.0035121999999997,0.0009878000000012,-0.0030089999999999,-0.0024949999999995,0.0059946000000009,0.0053942,0,sub_24
0.0030233999999997,0.0007116000000012,-0.0032725999999999,-0.0039777999999995,0.0079190000000009,0.0049542,0,sub_24
0.0017765999999997,0.0004294000000012,-0.0042877999999999,-0.0048343999999995,0.0113204000000009,0.0062246,0,sub_24
0.0008185999999997,-0.0002197999999987,-0.0043655999999999,-0.0054805999999995,0.0142940000000009,0.0077106,0,sub_24
-0.0007866000000002,-0.0017165999999987,-0.0043243999999998,-0.0039959999999995,0.0166214000000009,0.0092122,0,sub_24
-0.0017460000000002,-0.0025083999999987,-0.0053191999999998,-0.0025203999999995,0.0163948000000009,0.010076,0,sub_24
-0.0011152000000002,-0.0022851999999987,-0.0060861999999998,-0.0023335999999995,0.0119210000000009,0.0085862,0,sub_24
-0.0003208000000002,-0.0015571999999987,-0.0053111999999998,-0.0021415999999995,0.0027774000000009,0.0041126000000001,0,sub_24
0.0005041999999997,-0.0008769999999987,-0.0047439999999998,-0.0017273999999995,-0.005085999999999,-0.0010019999999999,0,sub_24
0.0015187999999997,0.0008336000000012,-0.0039245999999999,-0.0030047999999995,-0.009534999999999,-0.0061325999999999,0,sub_24
0.0037981999999997,0.0010550000000012,-0.0033495999999999,-0.0042919999999995,-0.010588999999999,-0.0091303999999998,0,sub_24
0.0045611999999997,0.0007126000000012,-0.0023913999999999,-0.0043045999999995,-0.009530799999999,-0.0087035999999998,0,sub_24
0.0047039999999997,-5.279999999878264e-05,-0.0019521999999999,-0.0047353999999995,-0.005280399999999,-0.0070019999999999,0,sub_24
0.0035399999999997,-0.0005847999999987,-0.0020985999999999,-0.0049519999999995,-0.001454199999999,-0.0059393999999999,0,sub_24
0.0024675999999997,-0.0017217999999987,-0.0024171999999998,-0.0036903999999995,-0.001466199999999,-0.0052889999999999,0,sub_24
0.0006135999999997,-0.0024359999999987,-0.0031005999999998,-0.0024141999999995,-0.002746999999999,-0.0057059999999999,0,sub_24
-0.0002474000000002,-0.0032279999999987,-0.0041567999999998,-0.0015563999999995,-0.003593999999999,-0.0076219999999999,0,sub_24
-0.0004556000000002,-0.0037019999999987,-0.0045145999999998,-0.0011377999999995,-0.006148199999999,-0.0084707999999999,0,sub_24
0.0011355999999997,-0.0037771999999987,-0.0041803999999998,-0.0009543999999995,-0.009135599999999,-0.0078227999999999,0,sub_24
0.0016591999999997,-0.0028219999999987,-0.0040555999999998,-0.0018359999999995,-0.010632199999999,-0.0061157999999999,0,sub_24
0.0022593999999997,-0.0019103999999987,-0.0035183999999998,-0.0029267999999995,-0.011063799999999,-0.0041977999999999,0,sub_24
0.0022821999999997,-0.0007637999999987,-0.0031753999999998,-0.0033725999999995,-0.010220199999999,-0.0020631999999999,0,sub_24
0.0022085999999997,0.0007846000000012,-0.0030295999999999,-0.0033761999999995,-0.007454799999999,-0.0014233999999999,0,sub_24
0.0023879999999997,0.0008598000000012,-0.0041199999999998,-0.0031491999999995,-0.005533799999999,-0.0024923999999999,0,sub_24
0.0035019999999997,0.0007478000000012,-0.0045747999999998,-0.0025107999999995,-0.007023199999999,-0.0035539999999999,0,sub_24
0.0041593999999997,0.0012376000000012,-0.0041097999999998,-0.0033649999999995,-0.008506399999999,-0.0048397999999998,0,sub_24
0.0038747999999997,0.0013974000000011,-0.0028881999999998,-0.0044505999999995,-0.011901599999999,-0.0069753999999999,0,sub_24
0.0043085999999997,-2.999999999880286e-05,-0.0018617999999998,-0.0046875999999995,-0.014455399999999,-0.0071833999999999,0,sub_24
0.0031665999999997,-0.0010423999999988,-0.0007737999999999,-0.0044923999999995,-0.012549199999999,-0.0041893999999999,0,sub_24
0.0024219999999997,-0.0014411999999988,-0.0010055999999999,-0.0040637999999995,-0.005108599999999,-0.0001329999999999,0,sub_24
0.0021441999999997,-0.0021611999999988,-0.0021395999999998,-0.0021453999999995,0.0014746000000009,0.003935,0,sub_24
0.0033483999999997,-0.0016179999999987,-0.0036141999999998,-0.0004251999999995,0.0067856000000009,0.0062902,0,sub_24
0.0034105999999997,-0.0002539999999987,-0.0047359999999998,0.0002178000000004,0.0059374000000009,0.0048002,0,sub_24
0.0039125999999997,0.0013512000000012,-0.0049241999999998,0.0004236000000004,0.0002004000000009,0.0007498,0,sub_24
0.0033781999999997,0.0019724000000012,-0.0037937999999998,-1.6599999999578452e-05,-0.005949399999999,-0.0052225999999998,0,sub_24
0.0031537999999997,0.0031796000000011,-0.0036601999999999,-0.0006691999999995,-0.010824399999999,-0.0101297999999999,0,sub_24
0.0020959999999997,0.0036204000000011,-0.0035951999999999,-0.0017503999999995,-0.013789799999999,-0.0126923999999999,0,sub_24
0.0016731999999997,0.0036994000000011,-0.0033421999999999,-0.0019675999999995,-0.011655999999999,-0.0124779999999999,0,sub_24
0.0022145999999997,0.0023570000000011,-0.0027827999999999,-0.0011141999999995,-0.006975999999999,-0.0105503999999999,0,sub_24
0.0038145999999997,0.0010046000000011,-0.0020571999999999,0.0005968000000004,-0.002310199999999,-0.0066985999999999,0,sub_24
0.0038909999999997,-0.0010505999999987,-0.0018971999999999,0.0020980000000004,0.0029962000000009,-0.0030629999999999,0,sub_24
0.0034403999999997,-0.0032721999999987,-0.0019213999999999,0.0035988000000004,0.0089394000000009,0.0012126,0,sub_24
0.0029267999999997,-0.0054417999999987,-0.0027519999999999,0.0042430000000004,0.0140342000000009,0.0052696,0,sub_24
0.0013371999999997,-0.0058197999999987,-0.0043707999999999,0.0040178000000004,0.0170126000000009,0.007833,0,sub_24
-0.0015948000000002,-0.0054153999999987,-0.0064985999999999,0.0035792000000004,0.0172336000000009,0.007621,0,sub_24
-0.0029484000000002,-0.0039461999999987,-0.0069113999999999,0.0044132000000004,0.0144728000000009,0.00614,0,sub_24
-0.0028622000000002,-0.0024307999999988,-0.0067285999999999,0.0058848000000003,0.0102216000000009,0.0038108,0,sub_24
-0.0021766000000002,-0.0001731999999988,-0.0060011999999999,0.0075682000000003,0.0055436000000009,0.0014838000000001,0,sub_24
-0.0006844000000002,0.0013676000000011,-0.0046555999999999,0.0086218000000004,0.0010724000000009,1.4000000001001493e-06,0,sub_24
0.0015821999999997,0.0031516000000011,-0.0033937999999999,0.0092518000000004,-0.001909999999999,-0.0006309999999998,0,sub_24
0.0034085999999997,0.0035478000000011,-0.0028373999999999,0.0085974000000003,-0.003393799999999,-0.0008423999999998,0,sub_24
0.0042957999999997,0.0031168000000011,-0.0032529999999999,0.0073066000000004,-0.004023199999999,-0.0010593999999998,0,sub_24
0.0043685999999997,0.0019832000000011,-0.0031655999999999,0.0055928000000004,-0.004435599999999,-0.0019205999999999,0,sub_24
0.0036979999999997,0.0005006000000011,-0.0023625999999999,0.0049476000000004,-0.004637799999999,-0.0029881999999999,0,sub_24
0.0027333999999997,-0.0024319999999987,-0.0013453999999999,0.0049410000000004,-0.003569799999999,-0.0025577999999999,0,sub_24
0.0012369999999997,-0.0044011999999987,-0.0011417999999999,0.0062302000000004,0.0011026000000009,8.600000000060296e-06,0,sub_24
0.0006725999999997,-0.0054155999999987,-0.0006977999999999,0.0077404000000004,0.0083276000000009,0.003428,0,sub_24
0.0005743999999997,-0.0055395999999987,-0.0016859999999999,0.0094552000000004,0.0146956000000009,0.007918,0,sub_24
0.0005023999999997,-0.0043405999999987,-0.0036603999999999,0.0098672000000004,0.0172432000000009,0.0115554,0,sub_24
0.0004527999999997,-0.0020205999999987,-0.0050665999999998,0.0100604000000004,0.0159672000000009,0.0126326,0,sub_24
0.0010977999999997,0.0001694000000012,-0.0053671999999998,0.0096090000000004,0.0106572000000009,0.0107196,0,sub_24
0.0012309999999997,0.0024758000000011,-0.0055793999999998,0.0091532000000004,0.0034332000000009,0.0079546,0,sub_24
0.0005943999999997,0.0041864000000011,-0.0048591999999998,0.0087100000000004,-0.001869999999999,0.0043328,0,sub_24
0.0007827999999997,0.0050528000000012,-0.0039543999999998,0.0080792000000004,-0.003132799999999,0.0011256,0,sub_24
0.0014521999999997,0.0044274000000012,-0.0036385999999998,0.0078752000000004,-0.001850999999999,0.0004818,0,sub_24
0.0026735999999997,0.0030082000000012,-0.0034525999999998,0.0068234000000004,0.0019852000000009,0.0011108,0,sub_24
0.0031273999999997,0.0013812000000012,-0.0034905999999998,0.0055530000000004,0.0064688000000009,0.0017436,0,sub_24
0.0036663999999997,-0.0006823999999987,-0.0039055999999998,0.0042718000000004,0.0086088000000008,0.002379,0,sub_24
0.0032619999999997,-0.0029891999999987,-0.0044555999999998,0.0027644000000004,0.0088286000000008,0.00387,0,sub_24
0.0032823999999997,-0.0040093999999987,-0.0049847999999998,0.0004006000000004,0.0079880000000008,0.004929,0,sub_24
0.0024795999999997,-0.0037585999999987,-0.0050059999999998,-0.0021853999999995,0.0052308000000009,0.0059888,0,sub_24
0.0014573999999997,-0.0028179999999987,-0.0052725999999998,-0.0041309999999995,-0.000513799999999,0.0057686,0,sub_24
0.0012411999999997,-0.0011497999999987,-0.0046693999999998,-0.0052153999999995,-0.006466799999999,0.0036322,0,sub_24
0.0018227999999997,0.0012566000000012,-0.0036945999999998,-0.0045761999999995,-0.010925799999999,-0.0006305999999999,0,sub_24
0.0024671999999997,0.0025118000000012,-0.0038461999999998,-0.0028645999999995,-0.014097999999999,-0.0063759999999999,0,sub_24
0.0031501999999997,0.0031220000000011,-0.0036463999999998,-9.159999999955888e-05,-0.018339999999999,-0.0118989999999999,0,sub_24
0.0046797999999997,0.0024762000000012,-0.0021911999999998,0.0016182000000004,-0.018543399999999,-0.0142297999999999,0,sub_24
0.0052317999999997,0.0017742000000012,-0.0025789999999998,0.0024784000000004,-0.015345199999999,-0.0140071999999999,0,sub_24
0.0053631999999997,0.0008606000000012,-0.0034673999999998,0.0016190000000004,-0.013213199999999,-0.0120861999999998,0,sub_24
0.0042811999999997,0.0001548000000012,-0.0032589999999998,-0.0009527999999995,-0.013214599999999,-0.0095403999999998,0,sub_24
0.0020505999999997,-0.0013857999999987,-0.0029219999999998,-0.0030905999999995,-0.012573999999999,-0.0080605999999998,0,sub_24
-0.0004142000000002,-0.0027821999999987,-0.0038907999999998,-0.0041547999999995,-0.011506399999999,-0.0076421999999998,0,sub_24
-0.0024354000000002,-0.0043015999999987,-0.0037045999999998,-0.0039411999999995,-0.008522799999999,-0.0061429999999998,0,sub_24
-0.0041950000000002,-0.0048247999999987,-0.0038757999999998,-0.0017957999999995,-0.002988799999999,-0.0046335999999998,0,sub_24
-0.0049588000000002,-0.0045253999999987,-0.0039125999999998,0.0018488000000004,0.0033940000000009,-0.0035421999999999,0,sub_24
-0.0041906000000002,-0.0032695999999987,-0.0046745999999998,0.0054860000000004,0.0082846000000009,-0.0022351999999999,0,sub_24
-0.0011566000000002,-0.0003143999999987,-0.0045125999999999,0.0089016000000004,0.0093484000000009,-0.0028473999999999,0,sub_24
0.0026573999999997,0.0023586000000012,-0.0039941999999999,0.0106040000000004,0.0057314000000009,-0.0053945999999999,0,sub_24
0.0060137999999997,0.0036708000000012,-0.0036745999999999,0.0097356000000004,-0.001706399999999,-0.0094501999999999,0,sub_24
0.0092075999999997,0.0039130000000011,-0.0034387999999999,0.0060734000000004,-0.012760199999999,-0.0126659999999999,0,sub_24
0.0105807999999997,0.0024134000000012,-0.0030459999999999,0.0011232000000004,-0.023392199999999,-0.0137549999999999,0,sub_24
0.0083615999999997,-0.0021705999999987,-0.0028105999999999,-0.0029809999999995,-0.029777599999999,-0.0107777999999999,0,sub_24
0.0047303999999997,-0.0067095999999987,-0.0020807999999999,-0.0051479999999995,-0.028514999999999,-0.0039513999999999,0,sub_24
0.0008991999999997,-0.0095581999999987,-0.0014199999999999,-0.0040849999999995,-0.018324399999999,0.0052362,0,sub_24
-0.0029154000000002,-0.0092029999999987,-0.0022405999999999,0.0006348000000004,-0.002177599999999,0.0138006,0,sub_24
-0.0047150000000001,-0.0065391999999987,-0.0029303999999998,0.0062324000000004,0.0154732000000009,0.0185236,0,sub_24
-0.0047518000000002,-0.0013783999999987,-0.0037107999999998,0.0103542000000004,0.0297380000000009,0.0176794,0,sub_24
-0.0030186000000002,0.0050366000000012,-0.0052559999999998,0.0121182000000004,0.0353006000000009,0.0106346,0,sub_24
0.0001521999999997,0.0108198000000012,-0.0060569999999998,0.0104348000000004,0.0315186000000009,0.0003778,0,sub_24
0.0034567999999997,0.0143422000000012,-0.0054423999999998,0.0059626000000004,0.0228514000000009,-0.0113873999999999,0,sub_24
0.0074927999999997,0.0160342000000012,-0.0034421999999999,0.0004074000000004,0.0112020000000009,-0.0225149999999999,0,sub_24
0.0114457999999997,0.0151386000000012,-0.0018269999999999,-0.0055993999999995,-0.004500399999999,-0.0321449999999999,0,sub_24
0.0137325999999997,0.0116394000000012,0.0002836,-0.0103387999999995,-0.018945999999999,-0.0377087999999999,0,sub_24
0.0146137999999997,0.0055168000000012,0.0018408,-0.0131483999999995,-0.027458599999999,-0.0381439999999999,0,sub_24
0.0138781999999997,-0.0019469999999987,0.0029534,-0.0138221999999995,-0.029610399999999,-0.0328045999999999,0,sub_24
0.0117173999999997,-0.0085905999999987,0.0015024,-0.0132119999999995,-0.026032599999999,-0.0227639999999999,0,sub_24
0.0074803999999997,-0.0146067999999987,0.0008398,-0.0113209999999995,-0.017353199999999,-0.0097253999999999,0,sub_24
0.0027103999999997,-0.0210521999999987,-0.0009583999999999,-0.0081467999999995,-0.006551799999999,0.0046008,0,sub_24
-0.0026904000000002,-0.0247415999999987,-0.0025465999999999,-0.0024039999999995,0.0065832000000009,0.0193688,0,sub_24
-0.0080334000000002,-0.0237201999999987,-0.0050737999999999,0.0042048000000004,0.0207884000000009,0.0324324,0,sub_24
-0.0125110000000002,-0.0199345999999987,-0.0071807999999999,0.0110380000000004,0.0337298000000009,0.0418674,0,sub_24
-0.0130730000000002,-0.0136319999999987,-0.0105749999999999,0.0180860000000004,0.0430526000000009,0.049381,0,sub_24
-0.0118530000000002,-0.0034763999999987,-0.0123683999999999,0.0219366000000004,0.0489930000000009,0.0530318,0,sub_24
-0.0078118000000002,0.0075188000000012,-0.0132711999999999,0.0217192000000004,0.0449602000000008,0.0500448,0,sub_24
-0.0010688000000002,0.0153856000000011,-0.0113799999999998,0.0197932000000004,0.0379714000000008,0.042995,0,sub_24
0.0054365999999997,0.0222320000000012,-0.0066581999999998,0.0164270000000004,0.0397340000000008,0.0329334,0,sub_24
0.0105685999999997,0.0273670000000012,-0.0030473999999998,0.0113842000000004,0.0430146000000009,0.0175168,0,sub_24
0.0151711999999997,0.0300298000000012,-0.0026309999999998,0.0060126000000004,0.0205172000000009,0.0019172,0,sub_24
0.0135469999999997,0.0202068000000012,-0.0005991999999998,-0.0010969999999995,-0.001577399999999,-0.0064313999999999,0,sub_24
0.0098633999999997,0.0056038000000012,0.0019678,-0.0098423999999995,-0.004091599999999,-0.0094797999999999,0,sub_24
0.0087463999999997,-0.0063299999999987,0.0003304,-0.0163281999999995,-0.020908199999999,-0.0075809999999999,0,sub_24
0.0072169999999997,-0.0173175999999987,-0.0001787999999999,-0.0183867999999995,-0.046276199999999,-0.0022217999999999,0,sub_24
0.0065397999999997,-0.0252929999999987,0.0029366,-0.0179615999999995,-0.041176399999999,0.0014118,0,sub_24
0.0086177999999997,-0.0216349999999987,0.004634,-0.0125285999999995,-0.018815999999999,-6.939999999991814e-05,0,sub_24
0.0086893999999997,-0.0130239999999987,0.0031466,-0.0002811999999995,-0.001371999999999,-0.0034193999999999,0,sub_24
0.0063905999999997,-0.0077497999999987,0.000509,0.0113662000000004,0.0260830000000009,-0.0055041999999999,0,sub_24
0.0019107999999997,-0.0010643999999988,-0.0022045999999999,0.0176696000000004,0.0533358000000009,-0.0057031999999999,0,sub_24
-0.0050484000000002,0.0034106000000011,-0.0062127999999999,0.0217664000000004,0.0631216000000009,-0.0052595999999999,0,sub_24
-0.0105334000000002,0.0063822000000011,-0.0104979999999999,0.0217094000000004,0.0503398000000009,-0.0052433999999999,0,sub_24
-0.0126434000000002,0.0071118000000011,-0.0126261999999999,0.0149660000000004,0.0205412000000009,-0.0063203999999999,0,sub_24
-0.0141068000000002,0.0065114000000012,-0.0105659999999999,0.0071420000000004,-0.012012199999999,-0.0086799999999999,0,sub_24
-0.0126050000000002,0.0047686000000012,-0.0096733999999999,0.0034260000000004,-0.033284999999999,-0.0116661999999999,0,sub_24
-0.0091096000000002,0.0032954000000012,-0.0085923999999999,0.0027552000000004,-0.039875399999999,-0.0129409999999999,0,sub_24
-0.0044568000000002,0.0036756000000012,-0.0070835999999999,0.0031978000000004,-0.034969799999999,-0.0129405999999999,0,sub_24
-1.7000000000243383e-05,0.0055392000000012,-0.0046209999999999,0.0049256000000004,-0.029428399999999,-0.0133589999999999,0,sub_24
0.0047949999999997,0.0085488000000012,-0.0034237999999999,0.0059926000000004,-0.029857399999999,-0.0135639999999998,0,sub_24
0.0097823999999997,0.0100800000000012,-0.0014983999999999,0.0031904000000004,-0.034755799999999,-0.0118673999999998,0,sub_24
0.0144063999999997,0.0099036000000012,0.0001036,-0.0041059999999995,-0.040075799999999,-0.0076375999999998,0,sub_24
0.0197137999999997,0.0058262000000012,0.0017024,-0.0116421999999995,-0.048389399999999,-0.0006283999999998,0,sub_24
0.0234685999999997,0.0001614000000012,0.0023226,-0.0185563999999995,-0.057343599999999,0.0078866000000001,0,sub_24
0.0227683999999997,-0.0059283999999987,0.0031864,-0.0217971999999995,-0.057356799999999,0.01492,0,sub_24
0.0199353999999997,-0.0112223999999987,0.0044938,-0.0211365999999995,-0.046505999999999,0.019189,0,sub_24
0.0138661999999997,-0.0158385999999987,0.0040612,-0.0142369999999995,-0.0282027999999991,0.0194322,0,sub_24
0.0048801999999997,-0.0184703999999987,0.0004956,-0.0038903999999995,-0.0056365999999991,0.0164888,0,sub_24
-0.0038216000000002,-0.0171973999999987,-0.0050063999999999,0.0069084000000004,0.0184230000000009,0.0111912,0,sub_24
-0.0095216000000002,-0.0140625999999987,-0.0107739999999999,0.0161796000000003,0.0350316000000009,0.0061062,0,sub_24
-0.0137844000000002,-0.0086665999999988,-0.0135617999999999,0.0234652000000003,0.0407764000000008,0.0033756,0,sub_24
-0.0139080000000002,-0.0022349999999988,-0.0143553999999999,0.0259938000000004,0.0333246000000009,0.0014838,0,sub_24
-0.0114112000000002,0.0057822000000011,-0.0126233999999999,0.0244310000000003,0.0163034000000009,-0.0014919999999999,0,sub_24
-0.0066206000000002,0.0116568000000011,-0.0094607999999998,0.0194338000000003,-0.0058179999999991,-0.0049123999999999,0,sub_24
-0.0003014000000002,0.0137636000000011,-0.0051863999999998,0.0112432000000004,-0.0266501999999991,-0.0085699999999999,0,sub_24
0.0074769999999997,0.0123024000000012,-0.0023727999999998,0.0037142000000004,-0.043019999999999,-0.0111643999999998,0,sub_24
0.0136151999999997,0.0106282000000012,0.0006660000000001,-0.0020751999999995,-0.050030799999999,-0.0116221999999999,0,sub_24
0.0167219999999997,0.0081068000000012,0.0030324000000001,-0.0054783999999995,-0.047466399999999,-0.0112209999999999,0,sub_24
0.0177527999999997,0.0056118000000012,0.0048922,-0.0062945999999995,-0.036601799999999,-0.0101679999999999,0,sub_24
0.0164163999999997,0.0044410000000012,0.0049842,-0.0047369999999995,-0.0208409999999991,-0.0101731999999999,0,sub_24
0.0122919999999997,0.0043204000000011,0.0039652,-0.0040109999999995,-0.0031471999999991,-0.0131777999999999,0,sub_24
0.0086729999999997,0.0034488000000011,0.001866,-0.0030743999999995,0.0130588000000008,-0.0170337999999999,0,sub_24
0.0057283999999997,0.0020814000000011,-9.85999999999076e-05,-0.0019485999999995,0.0260604000000008,-0.0187479999999999,0,sub_24
0.0029775999999997,0.0004720000000011,-0.0019527999999999,-0.0004145999999995,0.0362762000000008,-0.0174683999999999,0,sub_24
0.0004929999999997,-0.0019511999999987,-0.0041313999999999,0.0002290000000004,0.0420072000000009,-0.0125573999999999,0,sub_24
-0.0011354000000002,-0.0041755999999987,-0.0055455999999998,-1.4599999999558715e-05,0.0441044000000009,-0.0038027999999999,0,sub_24
-0.0048838000000001,-0.0055941999999987,-0.0060653999999998,0.0003518000000004,0.0427846000000008,0.0066718,0,sub_24
-0.0070340000000001,-0.0067885999999987,-0.0061857999999998,0.0009392000000004,0.0416834000000009,0.015652,0,sub_24
-0.0087380000000001,-0.0081677999999987,-0.0069539999999998,0.0021868000000004,0.0414470000000009,0.0210036,0,sub_24
-0.0105654000000001,-0.0082933999999987,-0.0064855999999998,0.0056008000000004,0.0431420000000009,0.0210268,0,sub_24
-0.0117086000000001,-0.0078253999999987,-0.0069323999999999,0.0111802000000004,0.0471922000000008,0.016362,0,sub_24
-0.0096986000000001,-0.0065325999999987,-0.0083689999999999,0.0163484000000003,0.0504022000000009,0.008916,0,sub_24
