userAcceleration.x,userAcceleration.y,userAcceleration.z,rotationRate.x,rotationRate.y,rotationRate.z,label,subject
0.0050247999999997,0.0018008000000012,-0.0009023999999998,-0.0122767999999995,-0.008264799999999,0.005164,0,sub_7
0.0049455999999997,0.0008754000000012,0.0002024000000001,-0.0113323999999995,-0.002911999999999,0.0028132,0,sub_7
0.0032407999999997,0.0039234000000012,0.0012706000000001,-0.0089411999999995,0.0030606000000009,-0.0010231999999999,0,sub_7
0.0008321999999997,0.0072038000000012,0.0008102000000001,-0.0052745999999995,0.0075392000000009,-0.0052761999999999,0,sub_7
-0.0011294000000002,0.0113930000000012,0.00201,-0.0027007999999995,0.0077544000000009,-0.0080359999999999,0,sub_7
-0.0047196000000002,0.0172740000000012,0.002182,-0.0022467999999995,0.0062908000000009,-0.0091237999999999,0,sub_7
-0.0069618000000002,0.0201776000000012,0.0017714000000001,-0.0028709999999995,0.0037600000000009,-0.0087219999999999,0,sub_7
-0.0078480000000002,0.0206872000000012,0.0013172000000001,-0.0039345999999995,0.0007950000000009,-0.0059727999999999,0,sub_7
-0.0065184000000002,0.0181042000000012,0.0027490000000001,-0.0054267999999995,-0.001957999999999,-0.0025859999999999,0,sub_7
-0.0053422000000002,0.0158922000000012,0.0017236000000001,-0.0056203999999995,-0.001728399999999,-0.0002619999999999,0,sub_7
-0.0028734000000002,0.0127842000000012,0.0016140000000001,-0.0047793999999995,-0.0021667999999989,0.0020946,0,sub_7
-0.0001526000000002,0.0103638000000012,0.0031376000000001,-0.0026619999999995,-0.0032497999999989,0.0046744,0,sub_7
0.0015453999999997,0.0081894000000012,0.0044446000000001,-0.0003205999999995,-0.0028385999999989,0.0063994,0,sub_7
0.0007557999999997,0.0094102000000012,0.0049620000000001,0.0016340000000004,-0.003045199999999,0.007228,0,sub_7
-0.0012096000000002,0.0119314000000012,0.0040514000000001,0.0035932000000004,-0.003247599999999,0.0069884,0,sub_7
-0.0025574000000002,0.0140756000000012,0.0031702000000001,0.0057650000000004,-0.003451399999999,0.006964,0,sub_7
-0.0041746000000002,0.0165196000000012,0.0011576000000001,0.0057924000000004,-0.005566999999999,0.0073544,0,sub_7
-0.0044274000000002,0.0148932000000012,0.0009396,0.0049606000000004,-0.009382399999999,0.0073136,0,sub_7
-0.0046076000000002,0.0121912000000012,0.0005326,0.0038850000000004,-0.012144799999999,0.0064552,0,sub_7
-0.0039416000000002,0.0082890000000012,0.002021,0.0028086000000004,-0.014908199999999,0.0058104,0,sub_7
-0.0010342000000002,0.0073544000000012,0.0023526,0.0036630000000004,-0.015971399999999,0.0045358,0,sub_7
0.0014717999999997,0.0043896000000012,0.0042972,0.0056226000000004,-0.015106599999999,0.0017318,0,sub_7
0.0022625999999997,0.0052942000000012,0.0044106,0.0060962000000004,-0.014017599999999,-0.0025783999999999,0,sub_7
0.0018855999999998,0.0095518000000012,0.003287,0.0061470000000004,-0.012074999999999,-0.0068925999999998,0,sub_7
0.0016731999999998,0.0136156000000012,0.0030272,0.0078950000000004,-0.011207799999999,-0.0101253999999998,0,sub_7
0.0005479999999998,0.0135862000000012,0.004151,0.0094278000000004,-0.010341599999999,-0.0129323999999998,0,sub_7
-0.0014936000000001,0.0139592000000012,0.0038328,0.0083752000000004,-0.009900599999999,-0.0157177999999998,0,sub_7
-0.0033230000000001,0.0148670000000012,0.0030302,0.0066750000000004,-0.009464199999999,-0.0167983999999998,0,sub_7
-0.0037894000000002,0.0139076000000012,0.0027304000000001,0.0068806000000004,-0.009896199999999,-0.0155145999999998,0,sub_7
-0.0024954000000002,0.0130176000000012,0.0018228000000001,0.0079660000000004,-0.007986599999999,-0.0138289999999998,0,sub_7
-0.0024318000000002,0.0116308000000012,0.0018226000000001,0.0064948000000004,-0.005852399999999,-0.0128025999999998,0,sub_7
-0.0015886000000002,0.0110380000000012,0.0013572000000001,0.0054512000000004,-0.003294599999999,-0.0115599999999998,0,sub_7
-0.0008380000000002,0.0108086000000012,0.0016908,0.0059050000000004,-0.000950799999999,-0.0113749999999998,0,sub_7
9.499999999978658e-05,0.0111300000000012,0.0022894,0.0059322000000004,0.0009702000000009,-0.0116195999999998,0,sub_7
-0.0004370000000001,0.0116322000000012,0.0025866,0.0031526000000004,0.0005504000000009,-0.0107839999999998,0,sub_7
-0.0009418000000001,0.0131240000000012,0.0026738,0.0022942000000004,0.0005490000000009,-0.0097215999999998,0,sub_7
-0.0007032000000001,0.0140558000000012,0.0029012,0.0020742000000004,0.0003316000000009,-0.0084409999999998,0,sub_7
7.07999999998065e-05,0.0151406000000012,0.002838,0.0016588000000004,-0.000739799999999,-0.0065339999999999,0,sub_7
-0.0003496000000002,0.0148174000000012,0.0028922000000001,-3.759999999953592e-05,-0.002656399999999,-0.0052757999999999,0,sub_7
-0.0011810000000002,0.0139572000000012,0.0031404000000001,0.0001978000000004,-0.002235199999999,-0.0042207999999999,0,sub_7
-0.0007684000000002,0.0128276000000012,0.0029512000000001,-2.999999999535839e-06,-0.003306399999999,-0.0025259999999999,0,sub_7
-0.0011234000000002,0.0124898000000012,0.0028558,-0.0012737999999995,-0.005861999999999,-0.0016911999999999,0,sub_7
-0.0016602000000002,0.0124082000000012,0.0022396,-0.0017051999999995,-0.006925799999999,-0.0016927999999999,0,sub_7
-0.0016038000000002,0.0130892000000012,0.0007842,-0.0010679999999995,-0.007142799999999,-0.0012607999999999,0,sub_7
0.0005579999999997,0.0122416000000012,0.0011518,-2.9999999995557885e-06,-0.007148199999999,-0.0008259999999999,0,sub_7
0.0010395999999997,0.0116106000000012,0.0022304,-0.0008489999999995,-0.0062895999999989,-0.0016875999999999,0,sub_7
-0.0011432000000002,0.0115732000000012,0.0015432000000001,-0.0014513999999995,-0.003933399999999,-0.0034171999999998,0,sub_7
-0.0028096000000002,0.0133474000000012,0.0006678000000001,7.300000000044424e-05,-0.001802799999999,-0.0038497999999999,0,sub_7
-0.0011422000000002,0.0135712000000012,0.0017998000000001,0.0037244000000004,0.0001020000000009,-0.0029853999999999,0,sub_7
-0.0006832000000002,0.0134912000000012,0.0028654000000001,0.0035312000000004,0.0005314000000009,-0.0027867999999999,0,sub_7
-0.0025822000000002,0.0133270000000012,0.0022666000000001,0.0018408000000004,-0.000310599999999,-0.0030243999999999,0,sub_7
-0.0020096000000001,0.0152220000000012,0.0021264000000001,0.0022578000000004,-0.001593999999999,-0.0021653999999999,0,sub_7
-0.0009766000000001,0.0150438000000012,0.0029600000000001,0.0022424000000004,-0.003729799999999,-0.0008809999999999,0,sub_7
-0.0004314000000001,0.0136744000000012,0.0035454000000001,0.0007416000000004,-0.004556199999999,0.0003744,0,sub_7
-0.0015322000000001,0.0131036000000012,0.0025856000000001,-0.0003247999999995,-0.004528799999999,0.000777,0,sub_7
-0.0017460000000001,0.0139732000000012,0.0017474000000001,0.0011692000000004,-0.004297999999999,0.001411,0,sub_7
-0.0011018000000001,0.0131688000000011,0.0014432000000001,0.0015936000000004,-0.004065999999999,0.0026786,0,sub_7
-2.260000000019381e-05,0.0122606000000011,0.0010132000000001,0.0011664000000004,-0.003616999999999,0.0037262,0,sub_7
-9.000000000193922e-06,0.0111770000000011,0.0010282000000001,-0.0001081999999995,-0.002546599999999,0.0035022,0,sub_7
-0.0011060000000001,0.0117010000000011,0.001429,-0.0009559999999995,-0.002326199999999,0.0024278000000001,0,sub_7
-0.0012678000000002,0.0124414000000011,0.0011718,-0.0017999999999995,-0.000829199999999,0.001779,0,sub_7
-0.0014390000000001,0.0128882000000012,0.0014854,-0.0013825999999995,-0.000788599999999,0.000515,0,sub_7
-0.0004942000000001,0.0117836000000012,0.0032734,-0.0003173999999995,0.0003174000000009,-0.0013867999999999,0,sub_7
-0.0012786000000001,0.0120834000000012,0.0039818,-0.0009589999999995,0.0007930000000009,-0.0039405999999998,0,sub_7
-0.0012894000000001,0.0120902000000012,0.0042352,-0.0009673999999995,0.0010482000000009,-0.0052077999999998,0,sub_7
-0.0012208000000001,0.0131242000000012,0.003836,8.160000000044481e-05,-0.000194399999999,-0.0058247999999998,0,sub_7
0.0003881999999997,0.0124704000000012,0.0044254,0.0011474000000004,0.0002254000000009,-0.0051769999999998,0,sub_7
-0.0005872000000002,0.0112868000000012,0.0040772,-0.0001375999999995,0.0002258000000009,-0.0041175999999998,0,sub_7
-0.0025440000000002,0.0117012000000012,0.0030182,-0.0005673999999995,0.0004370000000009,-0.0032661999999999,0,sub_7
-0.0026116000000002,0.0136776000000012,0.0016042,0.0002648000000004,0.0002466000000009,-0.0025885999999998,0,sub_7
-0.0014526000000002,0.0129660000000012,0.00249,0.0015228000000004,0.0006906000000009,-0.0010541999999998,0,sub_7
-0.0010724000000002,0.0116364000000012,0.0030406000000001,0.0010796000000004,0.0013578000000009,-0.0006001999999998,0,sub_7
-0.0013420000000002,0.0117534000000012,0.0024604,0.0008564000000004,0.0026668000000009,-0.0010001999999998,0,sub_7
-0.0008894000000001,0.0129974000000012,0.0019344,-0.0002297999999995,0.0022726000000009,-0.0009767999999998,0,sub_7
-0.0002844000000001,0.0136140000000012,0.0012316,-1.919999999953497e-05,0.0026936000000009,9.240000000010604e-05,0,sub_7
0.0007263999999998,0.0128158000000012,0.001429,0.0001980000000004,0.0035450000000009,9.280000000010604e-05,0,sub_7
-0.0004844000000001,0.0127180000000012,0.0020076,-0.0006507999999995,0.0039768000000009,-0.0005547999999998,0,sub_7
-0.0020752000000001,0.0136732000000012,0.0017024,-0.0019433999999995,0.0029472000000009,-0.0011759999999998,0,sub_7
-0.0031130000000001,0.0134686000000011,0.001768,-0.0004677999999995,0.0016906000000009,-0.0007093999999998,0,sub_7
-0.0025176000000001,0.0119890000000011,0.0024198,0.0005868000000004,0.0019260000000009,-3.3999999999893924e-05,0,sub_7
-0.0024006000000001,0.0119966000000011,0.0033012000000001,-0.0002799999999995,0.0017428000000009,0.0004148000000001,0,sub_7
-0.0009424000000001,0.0127776000000011,0.0021932000000001,-0.0005055999999995,0.0019826000000009,0.0010814000000001,0,sub_7
-0.0006348000000002,0.0133578000000011,0.0022350000000001,-8.159999999953517e-05,0.0024028000000009,0.002152,0,sub_7
0.0004971999999998,0.0129382000000011,0.0024856000000001,-0.0009359999999995,0.0024050000000009,0.0023598,0,sub_7
6.439999999980598e-05,0.0139512000000011,0.0029764000000001,-0.0030755999999995,0.0007098000000009,0.0019198,0,sub_7
-0.0005544000000002,0.0143980000000012,0.0021566000000001,-0.0028703999999995,0.0015846000000009,0.0021568,0,sub_7
-0.0019194000000002,0.0135938000000012,0.0027890000000001,-0.0009601999999995,0.0020272000000009,0.0024062,0,sub_7
-0.0016924000000002,0.0132390000000012,0.0032466,0.0003040000000004,0.0009816000000009,0.0024394,0,sub_7
-0.0012134000000002,0.0136730000000012,0.0022558,0.0017854000000004,0.0012118000000009,0.0028996,0,sub_7
-0.0010820000000002,0.0125966000000012,0.0017798,0.0032680000000004,0.0016550000000009,0.0033596,0,sub_7
-0.0016874000000002,0.0120204000000011,0.0015108,0.0024068000000004,-4.639999999901845e-05,0.0033558,0,sub_7
-0.0023600000000002,0.0132018000000011,0.0007202,-0.0003775999999995,-0.001743599999999,0.0039794,0,sub_7
-0.0010120000000002,0.0135762000000011,0.000297,-0.0010253999999995,-0.001748199999999,0.005684,0,sub_7
0.0002563999999997,0.0125812000000011,0.00158,-0.0018901999999995,-0.001514999999999,0.0067582,0,sub_7
0.0006149999999997,0.0126116000000011,0.002359,-0.0025311999999995,-0.000424399999999,0.0063372,0,sub_7
-0.0001008000000002,0.0126540000000011,0.002487,-0.0021061999999995,0.0002372000000009,0.0057106,0,sub_7
-0.0004558000000002,0.0121188000000011,0.0018796000000001,-0.0008285999999995,0.0004706000000009,0.0048768,0,sub_7
-0.0008410000000002,0.0123002000000011,0.0018200000000001,-0.0001871999999995,0.0004974000000009,0.0029706,0,sub_7
-0.0009484000000002,0.0129552000000011,0.001854,0.0004606000000004,0.0011386000000009,0.001906,0,sub_7
-0.0011172000000002,0.0128038000000012,0.001824,0.0004616000000004,0.0013518000000009,0.0019056,0,sub_7
-0.0012386000000002,0.0125366000000012,0.0014194,0.0002540000000004,0.0017820000000009,0.001049,0,sub_7
-0.0006602000000002,0.0133078000000012,0.0017886,0.0006822000000004,0.0020124000000009,-0.0002147999999999,0,sub_7
-0.0002428000000002,0.0133304000000011,0.0019014,3.6600000000444565e-05,0.0020284000000009,-0.0002039999999999,0,sub_7
-0.0002270000000002,0.0132504000000011,0.0022172,-0.0006087999999995,0.0016198000000009,-0.0006199999999999,0,sub_7
-0.0005312000000002,0.0136020000000011,0.0022528,-0.0006121999999995,0.0016352000000009,-0.0010317999999999,0,sub_7
-0.0005988000000002,0.0143948000000011,0.0026448,-0.0004089999999995,0.0010074000000009,-0.0005869999999999,0,sub_7
-0.0005464000000002,0.0144524000000011,0.0028918,-0.0010557999999995,0.0005792000000009,0.0004772,0,sub_7
-0.0004838000000002,0.0143054000000011,0.0028304,-0.0012719999999995,0.0003652000000009,0.0009032,0,sub_7
-0.0012740000000001,0.0135176000000011,0.0019278,-0.0019159999999995,-0.000484599999999,0.0008998,0,sub_7
-0.0020732000000001,0.0133914000000011,0.0013938,-0.0027823999999995,-0.002184999999999,0.001335,0,sub_7
-0.0020098000000001,0.0134962000000011,0.0014618,-0.0030047999999995,-0.002610999999999,0.0022004,0,sub_7
-0.0012958000000001,0.0127158000000011,0.0013296,-0.0030101999999995,-0.002609799999999,0.0026396,0,sub_7
-0.0010424000000001,0.0119884000000011,0.0014832,-0.0027981999999995,-0.002181599999999,0.0026526,0,sub_7
-0.0015454000000002,0.0129950000000011,0.001425,-0.0021593999999995,-0.001330599999999,0.0030952,0,sub_7
-0.0015028000000002,0.0133310000000011,0.000955,-0.0019439999999995,-0.000480799999999,0.003523,0,sub_7
-0.0014534000000002,0.0134864000000011,0.0003012,-0.0017305999999995,-0.000693799999999,0.0033112,0,sub_7
-0.0020356000000001,0.0131038000000011,0.0012548,-0.0010827999999995,0.0001596000000009,0.00246,0,sub_7
-0.0035014000000001,0.0131802000000011,0.0017314000000001,-0.0012943999999995,0.0001590000000009,0.0020352,0,sub_7
-0.0031982000000001,0.0141082000000011,0.0014556000000001,-0.0008657999999995,0.0001562000000009,0.001615,0,sub_7
-0.0017396000000001,0.0147256000000011,0.0021638,0.0010630000000004,0.0012150000000009,0.0007766,0,sub_7
-0.0010618000000001,0.0136304000000011,0.0031228,0.0017106000000004,0.0022776000000009,0.000143,0,sub_7
-0.0013070000000002,0.0136458000000011,0.0027142,0.0002150000000004,0.0016414000000009,-7.599999999991412e-05,0,sub_7
-0.0006030000000002,0.0139220000000011,0.0021366,0.0002180000000004,0.0016440000000009,-0.0007167999999999,0,sub_7
-0.0003304000000002,0.0137212000000012,0.0034326,0.0002198000000004,0.0014334000000009,-0.0013573999999999,0,sub_7
-0.0013644000000002,0.0125928000000012,0.0034514000000001,-0.0002069999999995,0.0014350000000009,-0.0013603999999999,0,sub_7
-0.0018504000000002,0.0123282000000012,0.0030138,-0.0010575999999995,0.0018610000000009,-0.0013733999999999,0,sub_7
-0.0016580000000002,0.0132942000000012,0.002405,0.0002274000000004,0.0027056000000009,-0.0013719999999999,0,sub_7
-0.0011414000000002,0.0139186000000012,0.0019336,0.0021476000000004,0.0026950000000009,-0.0011513999999999,0,sub_7
-0.0013730000000002,0.0127750000000012,0.0016442,0.0025744000000004,0.0031140000000009,-0.0005143999999999,0,sub_7
-0.0026846000000002,0.0128522000000011,0.0016554,0.0006464000000004,0.0014124000000009,-0.0003183999999999,0,sub_7
-0.0031020000000002,0.0137416000000011,0.0007234,0.0008532000000004,0.0001326000000009,-0.0001015999999999,0,sub_7
-0.0019424000000002,0.0129672000000011,0.001138,0.0019144000000004,-0.000512799999999,0.0005476,0,sub_7
-0.0016106000000002,0.0114484000000011,0.0021052,0.0004170000000004,-0.000510999999999,0.0013918,0,sub_7
-0.0015358000000002,0.0115190000000011,0.0017306,-0.0008651999999995,-0.0011515999999989,0.001801,0,sub_7
-0.0009198000000002,0.0116332000000011,0.0012380000000001,0.0006350000000004,0.000540000000001,0.0026538,0,sub_7
-0.0005194000000002,0.0120094000000011,0.0022498000000001,0.0017084000000004,0.0020208000000009,0.0032904,0,sub_7
-0.0007484000000002,0.0122062000000012,0.0025776000000001,-1.5999999995352198e-06,0.0013808000000009,0.0039102,0,sub_7
-0.0008712000000002,0.0136580000000012,0.0025394000000001,-0.0006389999999995,0.0013788000000009,0.0038958,0,sub_7
-0.0011480000000002,0.0146746000000012,0.0021038000000001,5.800000000444772e-06,0.0026540000000009,0.0041122,0,sub_7
-0.0009974000000002,0.0151458000000012,0.0026618000000001,0.0002154000000004,0.0022254000000009,0.0045416,0,sub_7
-0.0002548000000002,0.0143712000000011,0.0023664000000001,-0.0008647999999995,0.0007318000000009,0.0060314,0,sub_7
-0.0001384000000002,0.0152822000000011,0.0023752000000001,-0.0004447999999995,0.0009366000000009,0.0077432,0,sub_7
-9.620000000021426e-05,0.0157062000000011,0.0019032,-0.0004447999999995,0.0015656000000009,0.0096568,0,sub_7
-0.0012102000000002,0.0174468000000011,0.003703,0.0003962000000004,-0.000153399999999,0.0120066,0,sub_7
-0.0024854000000002,0.0194800000000011,0.0045638,0.0025096000000004,-0.001883799999999,0.0160744,0,sub_7
-0.0054942000000002,0.0214448000000012,0.006874,0.0080350000000004,-0.002779199999999,0.021447,0,sub_7
-0.0118348000000002,0.0238512000000012,0.0107416,0.0171638000000004,-0.006891599999999,0.0289852,0,sub_7
-0.0182670000000002,0.0241418000000012,0.012417,0.0250240000000004,-0.006737599999999,0.0369448,0,sub_7
-0.0145476000000002,0.0179570000000012,0.002876,0.0288838000000004,-0.003763199999999,0.0356862,0,sub_7
-0.0067996000000002,0.0066666000000012,-0.0032381999999998,0.0261704000000004,-0.001796999999999,0.0258282,0,sub_7
0.0014401999999997,-0.0050293999999987,-0.0095317999999998,0.0126074000000004,-0.000612399999999,0.0077768,0,sub_7
0.0119497999999997,-0.0173467999999987,-0.0173349999999998,-0.0124363999999995,0.0025588000000009,-0.0176211999999999,0,sub_7
0.0236669999999997,-0.0202757999999987,-0.0171433999999998,-0.0387767999999995,0.0033858000000009,-0.0417435999999999,0,sub_7
0.0263655999999997,-0.0169187999999987,-0.0062651999999998,-0.0595991999999995,0.0073498000000009,-0.0560037999999999,0,sub_7
0.0238517999999997,-0.0072447999999987,0.0020272000000001,-0.0702113999999995,0.0125302000000009,-0.0635621999999998,0,sub_7
0.0121531999999997,0.0086420000000012,0.0105392,-0.0691213999999995,0.0157298000000009,-0.0654815999999998,0,sub_7
-0.0002914000000002,0.0256476000000012,0.0179714,-0.0559065999999995,0.0180050000000009,-0.0598373999999998,0,sub_7
-0.0137050000000001,0.0370284000000012,0.0197574,-0.0341929999999995,0.0146950000000009,-0.0509267999999999,0,sub_7
-0.0255422000000001,0.0460008000000012,0.0201060000000001,-0.0108213999999995,0.0064550000000009,-0.0360163999999998,0,sub_7
-0.0353910000000001,0.0518224000000012,0.0177858000000001,0.0069842000000004,-8.439999999901903e-05,-0.0153787999999999,0,sub_7
-0.0351150000000001,0.0516262000000012,0.0132282000000001,0.0196564000000004,-0.005555799999999,0.0090674,0,sub_7
-0.0295944000000001,0.0425622000000011,0.0082714000000001,0.0287060000000004,-0.010797999999999,0.0326332,0,sub_7
-0.0230764000000001,0.0311082000000011,0.0044536000000001,0.0335166000000004,-0.013023399999999,0.0521112,0,sub_7
-0.0157568000000001,0.0174060000000011,4.000000000010401e-05,0.0332552000000004,-0.010306599999999,0.0655656,0,sub_7
-0.0081468000000002,0.0047330000000011,-0.0031859999999998,0.0302394000000004,-0.008411799999999,0.0738744,0,sub_7
0.0017761999999997,-0.0077173999999987,-0.0076867999999998,0.0285538000000004,-0.002662199999999,0.0749182,0,sub_7
0.0124295999999997,-0.0150631999999987,-0.0106625999999998,0.0252130000000004,0.0061102000000009,0.067401,0,sub_7
0.0240931999999997,-0.0230119999999987,-0.0129163999999998,0.0146530000000004,0.0132420000000009,0.0502214,0,sub_7
0.0329829999999997,-0.0265671999999987,-0.0128309999999998,-0.0018697999999995,0.0153120000000009,0.0253154,0,sub_7
0.0365589999999997,-0.0225583999999987,-0.0090963999999998,-0.0192271999999995,0.0167654000000009,-0.0045095999999999,0,sub_7
0.0346295999999997,-0.0139295999999987,-0.0023447999999998,-0.0357495999999995,0.0175676000000009,-0.0309043999999999,0,sub_7
0.0265921999999997,-0.0022949999999987,0.0034296,-0.0482607999999995,0.0140732000000009,-0.0519245999999999,0,sub_7
0.0117291999999997,0.0116364000000012,0.0075118,-0.0516449999999995,0.0094432000000009,-0.0632655999999999,0,sub_7
-0.0044938000000002,0.0280834000000012,0.010788,-0.0439783999999995,0.0036678000000009,-0.0655705999999999,0,sub_7
-0.0175476000000002,0.0383012000000011,0.011295,-0.0295201999999995,-0.002163799999999,-0.0597093999999998,0,sub_7
-0.0265332000000002,0.0421836000000011,0.0121092,-0.0142457999999995,-0.011638999999999,-0.0491375999999999,0,sub_7
-0.0348904000000002,0.0439064000000011,0.0104276000000001,-0.0017521999999995,-0.016229799999999,-0.0321821999999999,0,sub_7
-0.0374138000000002,0.0454378000000011,0.0081340000000001,0.0092374000000004,-0.018278399999999,-0.0103265999999998,0,sub_7
-0.0349702000000002,0.0408734000000011,0.0053878000000001,0.0200130000000004,-0.017562199999999,0.0143170000000001,0,sub_7
-0.0284956000000002,0.0306418000000011,0.0037434000000001,0.0284616000000004,-0.015122199999999,0.0361646000000001,0,sub_7
-0.0212712000000002,0.0194030000000011,-0.0008949999999998,0.0335422000000004,-0.008385399999999,0.0520012,0,sub_7
-0.0112742000000002,0.0079078000000012,-0.0045963999999998,0.0345804000000004,-0.002875399999999,0.0590036,0,sub_7
0.0014341999999997,-0.0044387999999987,-0.0094487999999998,0.0335298000000004,0.0035310000000009,0.0568034,0,sub_7
0.0156723999999997,-0.0140511999999987,-0.0112869999999998,0.0265346000000004,0.0087116000000009,0.0466584,0,sub_7
0.0267143999999997,-0.0189713999999987,-0.0112885999999998,0.0127288000000004,0.0126580000000009,0.03134,0,sub_7
0.0311075999999997,-0.0193361999999987,-0.0067843999999998,-0.0047043999999995,0.0155562000000009,0.0149294,0,sub_7
0.0315091999999997,-0.0160911999999987,-0.0019863999999998,-0.0182749999999995,0.0180140000000009,-0.0018327999999999,0,sub_7
0.0251431999999997,-0.0040753999999987,0.0046610000000001,-0.0256767999999995,0.0174622000000009,-0.0172661999999999,0,sub_7
0.0139469999999997,0.0086780000000012,0.0113520000000001,-0.0279883999999995,0.0149554000000009,-0.0277477999999999,0,sub_7
0.0026959999999997,0.0206272000000012,0.0154598000000001,-0.0238781999999995,0.0106770000000009,-0.0308663999999999,0,sub_7
-0.0056538000000001,0.0310642000000011,0.0163302000000001,-0.0153235999999995,0.0027430000000009,-0.0294627999999999,0,sub_7
-0.0155328000000001,0.0406672000000011,0.0152242000000001,-0.0053097999999995,-0.006924399999999,-0.0220647999999999,0,sub_7
-0.0218030000000002,0.0414514000000011,0.0137434,0.0023348000000004,-0.014905399999999,-0.0080625999999999,0,sub_7
-0.0263946000000002,0.0401144000000011,0.0092182,0.0089144000000004,-0.020334599999999,0.0080656,0,sub_7
-0.0252782000000002,0.0308590000000012,0.0020416,0.0156762000000004,-0.021265999999999,0.0220008,0,sub_7
-0.0222340000000002,0.0196422000000012,-0.0047127999999999,0.0207752000000004,-0.016847199999999,0.031431,0,sub_7
-0.0140912000000002,0.0061076000000012,-0.0090495999999999,0.0222862000000004,-0.010046599999999,0.0344238,0,sub_7
0.0010751999999997,-0.0068197999999987,-0.0113857999999998,0.0193564000000004,-0.002562999999999,0.0287952,0,sub_7
0.0155467999999997,-0.0188239999999987,-0.0136869999999998,0.0109116000000004,0.0051812000000009,0.0160774,0,sub_7
0.0217331999999997,-0.0204159999999987,-0.0104669999999998,-0.0026465999999995,0.0121014000000009,0.0007614,0,sub_7
