userAcceleration.x,userAcceleration.y,userAcceleration.z,rotationRate.x,rotationRate.y,rotationRate.z,label,subject
0.0070969999999998,0.0004580000000012,-0.0116953999999998,0.0042332000000005,0.0022576000000009,0.0078832000000001,0,sub_1
0.0047423999999998,0.0010180000000012,-0.0105673999999998,0.0021238000000005,0.0035462000000009,0.0053082000000001,0,sub_1
0.0035251999999998,0.0010246000000012,-0.0100751999999998,0.0017126000000005,0.0031232000000009,0.0029608000000001,0,sub_1
0.0041409999999998,0.0027434000000012,-0.0096845999999998,0.0019386000000005,0.0041810000000009,0.0027522000000001,0,sub_1
0.0037215999999998,0.0043072000000012,-0.0083719999999998,-0.0001931999999994,0.0058884000000009,0.0040172000000001,0,sub_1
0.0028465999999998,0.0051384000000012,-0.0073457999999998,-0.0027557999999994,0.0063204000000009,0.0048536000000001,0,sub_1
0.0026287999999998,0.0058656000000012,-0.0075333999999998,-0.0038219999999994,0.0073864000000009,0.0056996000000001,0,sub_1
0.0021705999999998,0.0063232000000012,-0.0075439999999998,-0.0055191999999994,0.0084520000000009,0.0056910000000001,0,sub_1
0.0011967999999998,0.0061690000000012,-0.0071151999999998,-0.0078577999999994,0.0071846000000009,0.0035444000000001,0,sub_1
0.0010935999999998,0.0061070000000012,-0.0075161999999998,-0.0082825999999994,0.0035700000000009,0.0005594000000001,0,sub_1
0.0013737999999998,0.0063584000000012,-0.0079811999999998,-0.0061487999999994,0.0020670000000009,0.0001534,0,sub_1
0.0018741999999998,0.0064698000000012,-0.0083209999999998,-0.0048721999999994,0.0020490000000009,0.0020896,0,sub_1
0.0020155999999998,0.0062070000000012,-0.0083723999999998,-0.0046715999999994,0.0024618000000009,0.0052952000000001,0,sub_1
0.0022667999999998,0.0055278000000012,-0.0086625999999998,-0.0038285999999994,0.0028740000000009,0.0080780000000001,0,sub_1
0.0020267999999998,0.0045000000000012,-0.0088241999999998,-0.0027683999999994,0.0030766000000009,0.0097944000000001,0,sub_1
0.0022725999999998,0.0026806000000012,-0.0094463999999999,-0.0021297999999994,0.0022240000000009,0.0093726000000001,0,sub_1
0.0032383999999998,0.0013960000000012,-0.0102899999999999,-0.0012721999999994,0.0009514000000009,0.0072438000000001,0,sub_1
0.0035691999999998,0.0018462000000012,-0.0111855999999999,0.0006580000000005,0.0001046000000009,0.0042674000000001,0,sub_1
0.0033011999999998,0.0029268000000012,-0.0099547999999999,0.0023766000000005,0.0018066000000009,0.0034226000000001,0,sub_1
0.0025725999999998,0.0038712000000012,-0.0090687999999999,0.0028120000000005,0.0045716000000009,0.0042766000000001,0,sub_1
0.0010345999999998,0.0052490000000011,-0.0082315999999999,0.0028070000000005,0.0035064000000009,0.0042778000000001,0,sub_1
-0.0003444000000001,0.0065318000000011,-0.0071105999999999,0.0040726000000005,-0.000118399999999,0.0038638000000001,0,sub_1
-0.0007568000000001,0.0073474000000011,-0.0071367999999999,0.0064146000000005,-0.002677399999999,0.0023876000000001,0,sub_1
-0.0011872000000001,0.0078902000000011,-0.0084445999999999,0.0089812000000005,-0.006089599999999,-0.0007877999999998,0,sub_1
0.0009069999999998,0.0084522000000012,-0.0086775999999999,0.0124060000000005,-0.008863799999999,-0.0043851999999998,0,sub_1
0.0031093999999998,0.0086130000000012,-0.0078815999999999,0.0158374000000005,-0.007812199999999,-0.0056371999999998,0,sub_1
0.0046749999999998,0.0079456000000012,-0.0073033999999999,0.0186298000000005,-0.005059599999999,-0.0054001999999998,0,sub_1
0.0041485999999998,0.0079738000000012,-0.0065083999999998,0.0199160000000005,-0.002949399999999,-0.0030363999999998,0,sub_1
0.0039297999999998,0.0071352000000012,-0.0061865999999998,0.0196992000000005,-0.000191999999999,0.0003770000000001,0,sub_1
0.0022241999999998,0.0068228000000012,-0.0069709999999998,0.0201190000000005,0.0019230000000009,0.0040094,0,sub_1
0.0006507999999999,0.0070008000000012,-0.0070163999999998,0.0198996000000005,0.0038286000000009,0.00721,0,sub_1
-0.0019624,0.0066516000000012,-0.0072713999999998,0.0196868000000005,0.0046790000000009,0.0078482,0,sub_1
-0.0023706000000001,0.0057794000000012,-0.0094869999999999,0.0222530000000005,0.0055236000000009,0.0074374,0,sub_1
-0.0022492000000001,0.0058016000000012,-0.0118145999999999,0.0254586000000004,0.0057284000000009,0.0066048,0,sub_1
-0.0023798000000001,0.0025166000000012,-0.0123777999999998,0.0254674000000004,0.0048750000000009,0.0053292000000001,0,sub_1
-0.0023026000000001,-0.0010013999999987,-0.0141453999999998,0.0244088000000005,0.0029634000000009,0.0031932,0,sub_1
0.0001459999999998,-0.0018117999999987,-0.0153619999999998,0.0220656000000005,0.0008400000000009,0.0019032000000001,0,sub_1
0.0036783999999998,-0.0022635999999987,-0.0113979999999998,0.0167292000000004,-0.002974799999999,0.0001676000000001,0,sub_1
0.0067957999999998,-0.0031851999999987,-0.0072243999999998,0.0107592000000005,-0.005507999999999,-0.0017875999999998,0,sub_1
0.0094367999999998,0.0003442000000012,-0.0057943999999998,0.0067092000000005,-0.005913599999999,-0.0030965999999998,0,sub_1
0.0116715999999998,0.0055388000000012,-0.0046257999999999,0.0035064000000005,-0.005690399999999,-0.0024775999999998,0,sub_1
0.0132173999999998,0.0102478000000012,-0.0041077999999999,0.0020030000000005,-0.003144599999999,0.0019958000000001,0,sub_1
0.0128017999999998,0.0142878000000012,-0.0054949999999999,0.0039230000000005,0.0027860000000009,0.0086276000000001,0,sub_1
0.0112769999999998,0.0169656000000012,-0.0061055999999999,0.0079744000000005,0.0101930000000009,0.0171950000000001,0,sub_1
0.0078547999999998,0.0168164000000012,-0.0054017999999998,0.0133032000000005,0.0163194000000009,0.0251320000000001,0,sub_1
0.0038699999999998,0.0143830000000012,-0.0045763999999999,0.0188590000000005,0.0207588000000009,0.0283722000000001,0,sub_1
-0.0012790000000001,0.0089276000000012,-0.0043479999999999,0.0227210000000005,0.0203338000000009,0.0239154000000001,0,sub_1
-0.0054890000000001,0.0023438000000012,-0.0053017999999999,0.0227428000000005,0.0146234000000009,0.0132402000000001,0,sub_1
-0.0082948000000001,-0.0020261999999987,-0.0074805999999999,0.0208496000000005,0.0059528000000009,-0.0015039999999998,0,sub_1
-0.0074872000000001,-0.0049529999999987,-0.0104089999999999,0.0178914000000005,-0.001864799999999,-0.0156157999999998,0,sub_1
-0.0060010000000001,-0.0072821999999987,-0.0133513999999998,0.0130056000000005,-0.007560199999999,-0.0258977999999998,0,sub_1
-0.0034480000000001,-0.0088601999999987,-0.0138783999999999,0.0057634000000005,-0.009435999999999,-0.0302189999999998,0,sub_1
-0.0006168000000001,-0.0084943999999987,-0.0144377999999999,-0.0031919999999994,-0.007703999999999,-0.0294289999999998,0,sub_1
0.0021979999999998,-0.0072567999999987,-0.0142671999999999,-0.0138639999999994,-0.005125599999999,-0.0256607999999998,0,sub_1
0.0031673999999998,-0.0044291999999987,-0.0131357999999998,-0.0251825999999994,-0.003186199999999,-0.0212553999999998,0,sub_1
0.0039307999999998,-0.0004155999999987,-0.0119409999999998,-0.0318121999999994,-0.000842999999999,-0.0153223999999998,0,sub_1
0.0038199999999998,0.0061172000000012,-0.0118027999999998,-0.0320501999999994,0.0018946000000009,-0.0069951999999998,0,sub_1
0.0022747999999998,0.0111848000000012,-0.0101955999999998,-0.0278237999999994,0.0039660000000009,0.0041410000000001,0,sub_1
0.0006285999999998,0.0144702000000012,-0.0082027999999998,-0.0210457999999994,0.0060208000000009,0.0172178000000001,0,sub_1
-0.0001412000000001,0.0152156000000011,-0.0059167999999998,-0.0142661999999994,0.0080772000000009,0.0298672000000001,0,sub_1
-0.0004428000000001,0.0141724000000012,-0.0028371999999998,-0.0108861999999994,0.0084608000000009,0.0375812000000001,0,sub_1
-0.0003878000000001,0.0111086000000012,-0.0011691999999998,-0.0108997999999994,0.0059034000000009,0.0377978000000001,0,sub_1
0.0003377999999998,0.0082948000000012,-0.0016407999999998,-0.0119521999999994,0.0021014000000009,0.0305312000000001,0,sub_1
0.0018673999999998,0.0071624000000012,-0.0038485999999998,-0.0112763999999994,-0.002324399999999,0.0179364000000001,0,sub_1
0.0030701999999998,0.0069058000000012,-0.0072729999999999,-0.0076051999999994,-0.006541599999999,0.0038670000000001,0,sub_1
0.0043119999999998,0.0069982000000012,-0.0107917999999998,-0.0020163999999994,-0.008646199999999,-0.0074143999999998,0,sub_1
0.0056377999999998,0.0079954000000012,-0.0119777999999998,0.0033580000000005,-0.006294399999999,-0.0140027999999998,0,sub_1
0.0068739999999998,0.0084458000000012,-0.0109319999999998,0.0059460000000005,-0.001821799999999,-0.0156993999999998,0,sub_1
0.0067401999999998,0.0080036000000012,-0.0083039999999998,0.0063858000000005,0.0024334000000009,-0.0144195999999998,0,sub_1
0.0059187999999998,0.0074756000000012,-0.0060225999999998,0.0044686000000005,0.0062640000000009,-0.0114467999999998,0,sub_1
0.0047935999999998,0.0068070000000012,-0.0046999999999999,0.0019026000000004,0.0081794000000009,-0.0084759999999998,0,sub_1
0.0034379999999998,0.0064130000000012,-0.0050573999999999,-0.0004603999999995,0.0073258000000009,-0.0059275999999998,0,sub_1
0.0019767999999998,0.0056716000000012,-0.0067967999999999,0.0001536000000005,0.0041178000000009,-0.0033553999999998,0,sub_1
0.0007585999999998,0.0045704000000012,-0.0093679999999999,0.0018260000000005,-0.000587199999999,-0.0003467999999998,0,sub_1
0.0004947999999998,0.0029140000000012,-0.0104865999999999,0.0037150000000005,-0.005301199999999,0.0035196000000001,0,sub_1
0.0003613999999998,0.0021922000000012,-0.0115937999999998,0.0056062000000005,-0.008740399999999,0.0082388000000001,0,sub_1
6.399999999880546e-06,0.0008092000000012,-0.0123399999999998,0.0075044000000005,-0.011112599999999,0.0125294000000001,0,sub_1
-0.0006616000000001,0.0009178000000012,-0.0124405999999998,0.0081358000000005,-0.012195199999999,0.0151002000000001,0,sub_1
-0.0018916000000001,0.0019146000000012,-0.0116715999999998,0.0085690000000005,-0.012414799999999,0.0151048000000001,0,sub_1
-0.0031172000000001,0.0038344000000012,-0.0111289999999998,0.0094354000000005,-0.012619599999999,0.0121196000000001,0,sub_1
-0.0037730000000001,0.0051394000000012,-0.0101999999999998,0.0103120000000005,-0.013027199999999,0.0065712000000001,0,sub_1
-0.0021566000000001,0.0069848000000012,-0.0088327999999998,0.0107682000000005,-0.012153999999999,0.0008046000000001,0,sub_1
0.0003577999999998,0.0089040000000012,-0.0071665999999998,0.0110116000000005,-0.009793399999999,-0.0036833999999998,0,sub_1
0.0033401999999998,0.0089948000000012,-0.0063931999999998,0.0118912000000005,-0.007013599999999,-0.0068855999999998,0,sub_1
0.0069477999999998,0.0082690000000012,-0.0060293999999998,0.0127736000000005,-0.002532999999999,-0.0090213999999998,0,sub_1
0.0100309999999998,0.0081508000000012,-0.0055439999999999,0.0132284000000005,0.0047074000000009,-0.0081725999999998,0,sub_1
0.0100269999999998,0.0074682000000012,-0.0048843999999999,0.0136746000000005,0.0108792000000009,-0.0064677999999998,0,sub_1
0.0082823999999998,0.0060198000000012,-0.0045115999999998,0.0130396000000005,0.0134344000000009,-0.0051931999999998,0,sub_1
0.0070557999999998,0.0052286000000012,-0.0042293999999999,0.0098318000000005,0.0140774000000009,-0.0030795999999998,0,sub_1
0.0053647999999998,0.0045510000000012,-0.0041595999999998,0.0051172000000005,0.0134402000000009,0.0007344000000001,0,sub_1
0.0036155999999998,0.0031612000000012,-0.0060545999999998,0.0003932000000005,0.0106722000000009,0.0045508,0,sub_1
0.0018047999999998,0.0028806000000012,-0.0075673999999998,-0.0060385999999994,0.0068480000000009,0.007502,0,sub_1
8.919999999986057e-05,0.0021986000000012,-0.0091987999999998,-0.0111831999999994,0.0026004000000009,0.0085398,0,sub_1
-0.0007794000000001,0.0019324000000012,-0.0104731999999998,-0.0137539999999994,-0.001654399999999,0.0081006000000001,0,sub_1
0.0004077999999998,0.0013436000000012,-0.0125833999999999,-0.0133277999999994,-0.004213399999999,0.0072528,0,sub_1
0.0016499999999998,0.0018252000000012,-0.0125981999999998,-0.0128909999999994,-0.003580199999999,0.0072558000000001,0,sub_1
0.0025035999999998,0.0021526000000012,-0.0118775999999998,-0.0111673999999994,-0.000610999999999,0.0081194000000001,0,sub_1
0.0029599999999998,0.0037946000000012,-0.0110881999999998,-0.0094459999999994,0.0032054000000009,0.0102636000000001,0,sub_1
0.0022495999999998,0.0048146000000012,-0.0099275999999998,-0.0081609999999994,0.0070250000000009,0.0130452000000001,0,sub_1
-0.0001014000000001,0.0062142000000012,-0.0077605999999998,-0.0079451999999994,0.0087242000000009,0.0141126000000001,0,sub_1
-0.0022136000000001,0.0068850000000012,-0.0067741999999998,-0.0066635999999994,0.0068114000000009,0.0117736000000001,0,sub_1
-0.0026884000000001,0.0072614000000012,-0.0063027999999998,-0.0047373999999994,0.0036210000000009,0.0079450000000001,0,sub_1
-0.0014022000000001,0.0069796000000012,-0.0057005999999998,-0.0023767999999994,0.0012850000000009,0.0032638000000001,0,sub_1
-0.0001400000000001,0.0064804000000012,-0.0049503999999998,-0.0017171999999994,0.0017186000000009,6.280000000011111e-05,0,sub_1
0.0011739999999998,0.0064930000000012,-0.0050481999999999,-0.0027711999999994,0.0027892000000009,-0.0010143999999998,0,sub_1
0.0025159999999998,0.0061828000000012,-0.0052005999999999,-0.0053285999999994,0.0038566000000009,3.44000000001312e-05,0,sub_1
0.0039653999999998,0.0057416000000012,-0.0062905999999999,-0.0066139999999994,0.0049180000000009,0.0021604000000001,0,sub_1
0.0035211999999998,0.0049234000000012,-0.0079229999999998,-0.0072617999999994,0.0061870000000009,0.0051454000000001,0,sub_1
0.0036995999999998,0.0034946000000012,-0.0098275999999998,-0.0057795999999994,0.0055354000000009,0.0070794000000001,0,sub_1
0.0031407999999998,0.0022584000000012,-0.0106295999999998,-0.0038669999999994,0.0036076000000009,0.007522,0,sub_1
0.0034083999999998,0.0018338000000012,-0.0107483999999998,-0.0019521999999994,0.0014692000000009,0.007324,0,sub_1
0.0029241999999998,0.0011404000000012,-0.0106067999999998,-0.0019547999999994,0.0001892000000009,0.0073252000000001,0,sub_1
0.0039421999999998,0.0015772000000012,-0.0100549999999998,-0.0017451999999994,-0.000455999999999,0.0081816000000001,0,sub_1
0.0037147999999998,0.0040038000000012,-0.0093957999999998,-0.0019577999999994,0.0001778000000009,0.0092470000000001,0,sub_1
0.0024185999999998,0.0052118000000012,-0.0085593999999998,-0.0017435999999994,0.0010270000000009,0.0098884000000001,0,sub_1
-0.0001454000000001,0.0058978000000012,-0.0080783999999998,-0.0004655999999994,0.0003844000000009,0.0096844000000001,0,sub_1
-0.0012748000000001,0.0064408000000012,-0.0080033999999998,0.0020936000000005,-0.001323199999999,0.0082088000000001,0,sub_1
-0.0014384000000001,0.0062058000000012,-0.0078949999999998,0.0038082000000005,-0.002173799999999,0.0058700000000001,0,sub_1
-0.0010810000000001,0.0053996000000012,-0.0079569999999998,0.0042446000000005,-0.003018199999999,0.0030950000000001,0,sub_1
0.0007899999999998,0.0049376000000012,-0.0078809999999998,0.0042552000000005,-0.003647799999999,0.0003168000000001,0,sub_1
0.0029231999999998,0.0051978000000012,-0.0076809999999998,0.0036286000000005,-0.002999199999999,-0.0018263999999998,0,sub_1
0.0039429999999998,0.0051722000000012,-0.0073351999999999,0.0025694000000005,-0.002353999999999,-0.0026907999999998,0,sub_1
0.0043631999999998,0.0054224000000012,-0.0077169999999998,0.0015024000000005,-0.002561999999999,-0.0029113999999998,0,sub_1
0.0049683999999998,0.0051570000000012,-0.0078633999999998,0.0014994000000005,-0.002988399999999,-0.0026969999999998,0,sub_1
0.0043873999999998,0.0054894000000012,-0.0092275999999999,0.0027788000000005,-0.002568799999999,-0.0020473999999998,0,sub_1
0.0037145999999998,0.0047290000000012,-0.0097721999999999,0.0034134000000005,-0.002152999999999,-0.0003359999999998,0,sub_1
0.0028895999999998,0.0047580000000012,-0.0096077999999998,0.0029830000000005,-0.001307399999999,0.0013674000000001,0,sub_1
0.0016813999999998,0.0042694000000012,-0.0093301999999999,0.0021238000000005,-0.000461999999999,0.0034948000000001,0,sub_1
0.0004219999999998,0.0050266000000012,-0.0092475999999998,0.0016922000000005,-0.000253999999999,0.0047716000000001,0,sub_1
-0.0001016000000001,0.0054292000000012,-0.0086567999999998,0.0008300000000005,-0.001321399999999,0.0056194000000001,0,sub_1
-0.0004788000000001,0.0055064000000012,-0.0084615999999998,0.0010412000000005,-0.002384999999999,0.0049810000000001,0,sub_1
-0.0006274000000001,0.0047912000000012,-0.0086035999999998,0.0018946000000005,-0.003873599999999,0.0034932000000001,0,sub_1
-5.140000000013983e-05,0.0051870000000012,-0.0093207999999998,0.0031786000000005,-0.005147999999999,0.0013674000000001,0,sub_1
0.0009603999999998,0.0043074000000012,-0.0087393999999999,0.0027568000000005,-0.005143999999999,0.0002932000000001,0,sub_1
0.0013989999999998,0.0036974000000012,-0.0083711999999999,0.0019130000000005,-0.003648799999999,-0.0003583999999998,0,sub_1
0.0021075999999998,0.0035918000000012,-0.0077719999999999,0.0008538000000005,-0.002154399999999,-0.0005841999999998,0,sub_1
0.0031737999999998,0.0038908000000012,-0.0077269999999999,-0.0006359999999994,-0.001086199999999,-0.0003851999999998,0,sub_1
0.0031775999999998,0.0029576000000012,-0.0065411999999999,-0.0016959999999994,0.0006196000000009,-0.0001839999999998,0,sub_1
0.0028067999999998,0.0031638000000012,-0.0069207999999999,-0.0019007999999994,0.0027502000000009,2.560000000013114e-05,0,sub_1
0.0025629999999998,0.0031870000000012,-0.0074133999999999,-0.0014701999999994,0.0038136000000009,0.0002410000000001,0,sub_1
0.0026139999999998,0.0034166000000012,-0.0090393999999999,-0.0004049999999994,0.0033840000000009,0.0002492000000001,0,sub_1
0.0024237999999998,0.0042552000000012,-0.0114389999999998,0.0034288000000005,0.0008152000000009,-0.0005791999999998,0,sub_1
0.0027801999999998,0.0060036000000012,-0.0132125999999998,0.0089598000000005,-0.003889999999999,-0.0013931999999998,0,sub_1
0.0030335999999998,0.0071322000000012,-0.0142471999999998,0.0155492000000005,-0.010516399999999,-0.0021973999999998,0,sub_1
0.0029587999999998,0.0076290000000012,-0.0124719999999998,0.0200018000000005,-0.016501599999999,-0.0017353999999998,0,sub_1
0.0018383999999998,0.0090962000000012,-0.0087129999999999,0.0208334000000005,-0.020770199999999,-0.0010873999999998,0,sub_1
0.0010225999999998,0.0093544000000012,-0.0022607999999999,0.0167758000000005,-0.019697399999999,0.0005918000000001,0,sub_1
0.0009297999999998,0.0085980000000012,0.003086,0.0080342000000005,-0.014991199999999,0.0035156000000001,0,sub_1
0.0009489999999998,0.0078834000000012,0.0065208,-0.0053873999999994,-0.007497199999999,0.0059760000000001,0,sub_1
0.0021181999999998,0.0068374000000012,0.0056442,-0.0185745999999994,0.0021336000000009,0.0060798000000001,0,sub_1
0.0045445999999998,0.0034336000000012,-3.479999999990088e-05,-0.0268371999999994,0.0138838000000009,0.0047200000000001,0,sub_1
0.0060831999999998,0.0001332000000012,-0.0083347999999999,-0.0291371999999994,0.0224192000000009,0.0029788000000001,0,sub_1
0.0067011999999998,-0.0024905999999987,-0.0162401999999998,-0.0278225999999994,0.0271100000000009,0.0004134000000001,0,sub_1
0.0053447999999998,-0.0033049999999987,-0.0203075999999998,-0.0229003999999994,0.0279504000000009,-0.0014811999999998,0,sub_1
0.0017347999999998,-0.0029145999999987,-0.0218729999999998,-0.0175771999999994,0.0251620000000009,-0.0014403999999998,0,sub_1
-0.0021278000000001,-0.0013319999999987,-0.0194217999999998,-0.0150587999999994,0.0191724000000009,0.0022166000000001,0,sub_1
-0.0045668000000001,0.0017354000000012,-0.0162211999999998,-0.0159603999999994,0.0134016000000009,0.0073448000000001,0,sub_1
-0.0066588000000001,0.0042208000000012,-0.0126549999999998,-0.0172835999999994,0.0089074000000009,0.0126758000000001,0,sub_1
-0.0067998000000001,0.0050578000000012,-0.0114047999999998,-0.0175315999999994,0.0048416000000009,0.0165184000000001,0,sub_1
-0.0033304000000001,0.0069346000000012,-0.0097207999999999,-0.0154249999999994,0.0001380000000009,0.0180284000000001,0,sub_1
0.0002541999999998,0.0093386000000012,-0.0080663999999999,-0.0111669999999994,-0.003707399999999,0.0163478000000001,0,sub_1
0.0032971999999998,0.0106626000000012,-0.0060063999999999,-0.0054041999999994,-0.006910999999999,0.0127542000000001,0,sub_1
0.0057533999999998,0.0118240000000012,-0.0040957999999999,-5.959999999947292e-05,-0.008828599999999,0.0083076000000001,0,sub_1
0.0081655999999998,0.0125186000000012,-0.0028853999999998,0.0046494000000005,-0.008617399999999,0.0049220000000001,0,sub_1
0.0084423999999998,0.0110506000000012,-0.0025869999999998,0.0074430000000005,-0.006060799999999,0.0028020000000001,0,sub_1
0.0074407999999998,0.0091664000000012,-0.0030161999999998,0.0081008000000005,-0.003289399999999,0.0015148000000001,0,sub_1
0.0060371999999998,0.0075674000000012,-0.0038549999999998,0.0070510000000005,-0.000512799999999,0.0004294000000001,0,sub_1
0.0056759999999998,0.0063278000000012,-0.0049573999999998,0.0064282000000005,0.0014132000000009,-0.0015065999999998,0,sub_1
0.0043829999999998,0.0052544000000012,-0.0062169999999999,0.0055904000000005,0.0020648000000009,-0.0042969999999998,0,sub_1
0.0033733999999998,0.0045292000000012,-0.0078633999999999,0.0049586000000005,0.0012232000000009,-0.0068705999999998,0,sub_1
0.0032959999999998,0.0035002000000012,-0.0094483999999999,0.0051752000000005,-0.000260199999999,-0.0090035999999998,0,sub_1
0.0031435999999998,0.0024306000000012,-0.0109699999999998,0.0062406000000005,-0.001750999999999,-0.0100623999999998,0,sub_1
0.0013877999999998,0.0013436000000012,-0.0117579999999998,0.0062356000000005,-0.002392799999999,-0.0094205999999998,0,sub_1
0.0003857999999998,0.0005712000000012,-0.0114415999999998,0.0051580000000005,-0.002399399999999,-0.0068643999999998,0,sub_1
-0.0006912000000001,6.720000000126276e-05,-0.0109511999999998,0.0032268000000005,-0.001766399999999,-0.0036739999999998,0,sub_1
-0.0016294000000001,0.0002350000000012,-0.0101383999999998,0.0004436000000005,-0.000919599999999,-0.0004967999999998,0,sub_1
-0.0018898000000001,0.0007714000000012,-0.0096075999999999,-0.0025481999999994,-6.779999999904245e-05,0.0016104000000001,0,sub_1
-0.0014018000000001,0.0015774000000012,-0.0096511999999999,-0.0042579999999994,0.0009934000000009,0.0035128000000001,0,sub_1
-0.0003364000000001,0.0027120000000012,-0.0102569999999999,-0.0048971999999994,0.0016300000000009,0.0041414000000001,0,sub_1
0.0008387999999998,0.0039418000000012,-0.0106519999999999,-0.0031873999999994,0.0018356000000009,0.0039324000000001,0,sub_1
0.0014681999999998,0.0056982000000012,-0.0105831999999999,1.5200000000547414e-05,0.0018260000000009,0.0035274000000001,0,sub_1
0.0011413999999998,0.0071934000000012,-0.0093105999999999,0.0027838000000005,0.0009632000000009,0.0037614000000001,0,sub_1
0.0015101999999998,0.0082592000000012,-0.0079477999999999,0.0040520000000005,-0.002234399999999,0.0031332000000001,0,sub_1
0.0019339999999998,0.0087710000000012,-0.0066857999999999,0.0055344000000005,-0.005856199999999,0.0018662000000001,0,sub_1
0.0029907999999998,0.0091786000000012,-0.0070155999999998,0.0068032000000005,-0.009476999999999,0.0005978000000001,0,sub_1
0.0045029999999998,0.0085510000000012,-0.0074977999999998,0.0089304000000005,-0.012247599999999,-0.0008793999999998,0,sub_1
0.0064023999999998,0.0077174000000012,-0.0070987999999998,0.0112770000000005,-0.013316199999999,-0.0019295999999998,0,sub_1
0.0070879999999998,0.0078888000000012,-0.0061025999999998,0.0127784000000005,-0.012251799999999,-0.0027747999999998,0,sub_1
0.0071113999999998,0.0078368000000012,-0.0045069999999998,0.0115118000000005,-0.009899599999999,-0.0036409999999998,0,sub_1
0.0069161999999998,0.0072294000000012,-0.0025117999999999,0.0093974000000005,-0.006053799999999,-0.0043015999999998,0,sub_1
0.0062651999999998,0.0060532000000012,-0.0025105999999999,0.0057942000000005,-0.001349599999999,-0.0051869999999998,0,sub_1
0.0049771999999998,0.0047828000000012,-0.0048699999999999,0.0028304000000005,0.0016538000000009,-0.0075613999999998,0,sub_1
0.0037967999999998,0.0029426000000012,-0.0075327999999999,0.0015626000000004,0.0023064000000009,-0.0097073999999998,0,sub_1
0.0029315999999998,0.0016634000000011,-0.0102273999999999,0.0019914000000004,0.0025192000000009,-0.0099181999999998,0,sub_1
0.0014947999999998,0.0016126000000011,-0.0121003999999999,0.0015622000000005,0.0027306000000009,-0.0090665999999998,0,sub_1
-0.0012660000000001,0.0019764000000012,-0.0115121999999999,0.0009114000000005,0.0014456000000009,-0.0075835999999998,0,sub_1
-0.0033772000000001,0.0031094000000012,-0.0106407999999999,-0.0003873999999994,-0.000480599999999,-0.0050361999999998,0,sub_1
-0.0046588000000001,0.0038010000000012,-0.0103963999999999,-0.0018967999999994,-0.002403799999999,-0.0031311999999998,0,sub_1
-0.0049408000000001,0.0034954000000012,-0.0097203999999999,-0.0025411999999994,-0.003046399999999,-0.0025035999999998,0,sub_1
-0.0039948000000001,0.0028034000000012,-0.0089769999999999,-0.0018881999999994,-0.000495199999999,-0.0025119999999998,0,sub_1
