userAcceleration.x,userAcceleration.y,userAcceleration.z,rotationRate.x,rotationRate.y,rotationRate.z,label,subject
0.0022601999999998,-0.0087447999999987,-0.0052129999999999,-0.0027797999999995,0.0015448000000008,-0.0007207999999999,0,sub_7
0.0018603999999998,-0.0085741999999987,-0.0054377999999998,-0.0027725999999995,0.0015434000000008,-0.0007107999999999,0,sub_7
0.0017143999999998,-0.0089207999999987,-0.0056933999999999,-0.0023447999999995,0.0015428000000008,-0.0009213999999999,0,sub_7
0.0019445999999998,-0.0087609999999987,-0.0059371999999998,-0.0023399999999995,0.0021836000000008,-0.0013495999999999,0,sub_7
0.0016291999999998,-0.0086525999999987,-0.0061231999999998,-0.0019029999999995,0.0021778000000008,-0.0017651999999999,0,sub_7
0.0016465999999998,-0.0082735999999987,-0.0062027999999998,-0.0018965999999995,0.0019578000000008,-0.0015425999999999,0,sub_7
0.0019553999999998,-0.0081513999999987,-0.0057345999999998,-0.0010357999999995,0.0019478000000008,-0.0013141999999999,0,sub_7
0.0019087999999998,-0.0076715999999987,-0.0058789999999998,-0.0003911999999995,0.0017238000000008,-0.0006597999999999,0,sub_7
0.0014531999999997,-0.0072751999999987,-0.0057913999999999,-0.0001731999999995,0.0015014000000008,-8.199999999922506e-06,0,sub_7
0.0016321999999997,-0.0071343999999987,-0.0055697999999999,3.740000000048952e-05,0.0017104000000008,0.0008476,0,sub_7
0.0021547999999997,-0.0071773999999987,-0.0057189999999999,0.0004642000000004,0.0019212000000008,0.001064,0,sub_7
0.0026987999999997,-0.0073877999999987,-0.0057827999999999,3.7600000000509534e-05,0.0019228000000008,0.001061,0,sub_7
0.0025615999999997,-0.0077947999999987,-0.0059187999999999,-0.0005997999999994,0.0021398000000008,0.000629,0,sub_7
0.0025563999999998,-0.0084135999999987,-0.0062355999999999,-0.0012297999999994,0.0025618000000008,0.0002034,0,sub_7
0.0025109999999998,-0.0087003999999987,-0.0065175999999999,-0.0016463999999994,0.0027708000000008,-0.0004339999999999,0,sub_7
0.0022155999999998,-0.0089501999999987,-0.0069403999999999,-0.0020619999999994,0.0029806000000008,-0.0012851999999999,0,sub_7
0.0019235999999998,-0.0087389999999987,-0.0071463999999999,-0.0022669999999995,0.0033994000000008,-0.0012805999999999,0,sub_7
0.0019131999999998,-0.0080305999999987,-0.0068003999999999,-0.0026891999999995,0.0036034000000008,-0.0006361999999999,0,sub_7
0.0026881999999998,-0.0075985999999987,-0.0065445999999999,-0.0024823999999995,0.0029600000000008,0.0002206,0,sub_7
0.0035815999999998,-0.0075427999999987,-0.0062251999999999,-0.0020641999999994,0.0021020000000008,0.0012928,0,sub_7
0.0034877999999998,-0.0069543999999987,-0.0052579999999999,-0.0012173999999995,0.0012298000000008,0.003016,0,sub_7
0.0035167999999998,-0.0070021999999987,-0.0057543999999999,5.980000000048949e-05,0.0005716000000008,0.0041012,0,sub_7
0.0034023999999998,-0.0073087999999987,-0.0063765999999999,0.0011286000000004,0.0001306000000008,0.00433,0,sub_7
0.0028055999999998,-0.0074409999999987,-0.0067945999999999,0.0026220000000004,-0.0007379999999991,0.0045622,0,sub_7
0.0024021999999998,-0.0078719999999987,-0.0073783999999999,0.0036974000000004,-0.0001119999999991,0.0043624,0,sub_7
0.0020469999999997,-0.0084251999999987,-0.0086841999999999,0.0030600000000004,0.0005292000000008,0.0043572,0,sub_7
0.0017753999999997,-0.0081973999999987,-0.0083889999999999,0.0019884000000005,0.0001042000000008,0.0049912,0,sub_7
0.0025845999999997,-0.0087325999999987,-0.0074659999999999,0.0019826000000005,-0.0001131999999991,0.0060596,0,sub_7
0.0027225999999997,-0.0088129999999987,-0.0071593999999999,0.0013406000000005,9.960000000084233e-05,0.0066958,0,sub_7
0.0021785999999997,-0.0083289999999987,-0.0064335999999998,0.0007066000000005,-0.0003383999999991,0.0071272,0,sub_7
0.0025539999999998,-0.0074989999999987,-0.0053575999999998,0.0013558000000004,-0.0003537999999991,0.0073534,0,sub_7
0.0029597999999998,-0.0071849999999987,-0.0053647999999998,0.0020078000000004,-0.0001545999999991,0.007152,0,sub_7
0.0028631999999998,-0.0071981999999987,-0.0062763999999998,0.0026588000000004,-0.0001683999999991,0.006951,0,sub_7
0.0034901999999998,-0.0070451999999987,-0.0065073999999998,0.0026718000000004,0.0004582000000008,0.0069584,0,sub_7
0.0036673999999998,-0.0067837999999987,-0.0065961999999998,0.0020308000000004,0.0004596000000008,0.0071676,0,sub_7
0.0034589999999997,-0.0073325999999987,-0.0067757999999998,0.0009630000000004,0.0002502000000008,0.0071604,0,sub_7
0.0033769999999997,-0.0076479999999987,-0.0067367999999999,0.0003346000000004,0.0004526000000008,0.0073768,0,sub_7
0.0029499999999997,-0.0074163999999987,-0.0065023999999999,-8.319999999951049e-05,0.0002274000000008,0.0078088,0,sub_7
0.0026351999999997,-0.0075713999999987,-0.0068441999999999,-0.0007155999999994,2.0000000008223728e-06,0.008453,0,sub_7
0.0034941999999997,-0.0081861999999987,-0.0073253999999999,-0.0017717999999994,-7.199999999157631e-06,0.0086666,0,sub_7
0.0037555999999998,-0.0079035999999987,-0.0064643999999999,-0.0019763999999994,-0.0004453999999991,0.0088868,0,sub_7
0.0029741999999998,-0.0080685999999987,-0.0058547999999999,-0.0009115999999994,-0.0004507999999991,0.0093216,0,sub_7
0.0025627999999998,-0.0081095999999987,-0.0061671999999999,-0.0009107999999995,-2.5599999999157635e-05,0.0095348,0,sub_7
0.0022765999999997,-0.0079839999999987,-0.0053501999999999,-0.0004801999999995,0.0004008000000008,0.00911,0,sub_7
0.0019633999999997,-0.0078597999999987,-0.0043291999999999,0.0012268000000004,0.0001826000000008,0.0089086,0,sub_7
0.0021795999999997,-0.0081211999999987,-0.0050945999999999,0.0023078000000004,0.0005956000000008,0.00828,0,sub_7
0.0027733999999997,-0.0079733999999987,-0.0061427999999999,0.0016808000000004,0.0008014000000008,0.0076398,0,sub_7
0.0028481999999997,-0.0077667999999987,-0.0060767999999999,0.0016920000000004,0.0007910000000008,0.0072178,0,sub_7
0.0033507999999998,-0.0076231999999987,-0.0065331999999999,0.0014898000000004,0.0009936000000008,0.0070078,0,sub_7
0.0035403999999998,-0.0068665999999987,-0.0070487999999999,0.0010752000000005,0.0011978000000008,0.0065826,0,sub_7
0.0033587999999998,-0.0064941999999987,-0.0067693999999999,0.0017124000000004,0.0009808000000008,0.0070146,0,sub_7
0.0033861999999998,-0.0064409999999987,-0.0062349999999999,0.0023496000000004,0.0007638000000008,0.0074466,0,sub_7
0.0037557999999998,-0.0064083999999987,-0.0062655999999999,0.0025722000000004,0.0009640000000008,0.007662,0,sub_7
0.0035047999999998,-0.0067585999999987,-0.0060111999999999,0.0034310000000004,0.0003098000000008,0.0078828,0,sub_7
0.0028105999999998,-0.0075287999999987,-0.0064977999999999,0.0045022000000004,7.840000000084238e-05,0.0087456,0,sub_7
0.0028759999999997,-0.0076045999999987,-0.0070877999999999,0.0038742000000004,0.0007084000000008,0.0087408,0,sub_7
0.0035405999999997,-0.0079301999999987,-0.0071263999999999,0.0026052000000004,0.0004910000000008,0.0080916,0,sub_7
0.0039989999999997,-0.0079645999999987,-0.0069499999999999,0.0021776000000004,-0.0001449999999991,0.0076622,0,sub_7
0.0034723999999997,-0.0074417999999987,-0.0066373999999999,0.0011108000000004,-0.0003535999999991,0.0074414,0,sub_7
0.0034767999999997,-0.0068531999999987,-0.0056999999999998,0.0006812000000004,-0.0007791999999991,0.0076526,0,sub_7
0.0035061999999997,-0.0063683999999987,-0.0064939999999999,0.0019592000000004,-0.0014305999999991,0.0078642,0,sub_7
0.0026271999999997,-0.0062897999999987,-0.0069535999999999,0.0032402000000004,-0.0014427999999991,0.008075,0,sub_7
0.0020355999999997,-0.0062389999999987,-0.0066509999999999,0.0038828000000004,-0.0014511999999991,0.007854,0,sub_7
0.0019105999999997,-0.0067241999999987,-0.0078341999999999,0.0047380000000004,-0.0014611999999991,0.0078482,0,sub_7
0.0020653999999997,-0.0072903999999987,-0.0087263999999999,0.0049588000000004,-0.0010393999999991,0.0069828,0,sub_7
0.0019811999999997,-0.0081201999999987,-0.0083935999999998,0.0034682000000004,-0.0012437999999991,0.0061182,0,sub_7
0.0017547999999997,-0.0080707999999987,-0.0077111999999998,0.0021956000000004,-0.0008081999999991,0.0048268,0,sub_7
0.0014501999999997,-0.0082821999999987,-0.0079961999999998,0.0011422000000004,0.0004806000000008,0.0031086,0,sub_7
0.0016233999999998,-0.0081639999999987,-0.0071981999999998,-0.0003343999999995,0.0021956000000008,0.0007218,0,sub_7
0.0016229999999998,-0.0082291999999987,-0.0066977999999998,-0.0024509999999994,0.0039128000000008,-0.0016693999999999,0,sub_7
0.0021043999999998,-0.0079257999999987,-0.0063505999999998,-0.0043523999999994,0.0060552000000008,-0.0040597999999999,0,sub_7
0.0028669999999998,-0.0075889999999987,-0.0064323999999999,-0.0058347999999994,0.0071284000000008,-0.0058047999999999,0,sub_7
0.0033411999999997,-0.0070803999999987,-0.0060357999999999,-0.0073227999999994,0.0073478000000008,-0.0071215999999999,0,sub_7
0.0038427999999997,-0.0066395999999987,-0.0059353999999999,-0.0077475999999994,0.0073510000000008,-0.0075519999999999,0,sub_7
0.0046749999999997,-0.0059981999999987,-0.0063787999999999,-0.0068949999999995,0.0071350000000008,-0.0075457999999999,0,sub_7
0.0051271999999997,-0.0056009999999987,-0.0057221999999999,-0.0068931999999995,0.0073490000000008,-0.0077597999999999,0,sub_7
0.0046003999999997,-0.0057063999999987,-0.0062067999999999,-0.0066729999999995,0.0086274000000008,-0.0079735999999999,0,sub_7
0.0043675999999997,-0.0053485999999987,-0.0062771999999999,-0.0066785999999995,0.0084074000000008,-0.0071531999999999,0,sub_7
0.0043359999999997,-0.0057805999999987,-0.0059901999999999,-0.0060393999999995,0.0084016000000008,-0.0071829999999999,0,sub_7
0.0043025999999997,-0.0064223999999987,-0.0064943999999999,-0.0071023999999995,0.0092548000000008,-0.0074395999999999,0,sub_7
0.0033039999999998,-0.0069527999999987,-0.0072629999999999,-0.0068907999999995,0.0086130000000008,-0.0078989999999999,0,sub_7
0.0036475999999998,-0.0071277999999987,-0.0071465999999999,-0.0073165999999995,0.0081884000000008,-0.0087903999999999,0,sub_7
0.0040363999999998,-0.0076109999999987,-0.0071691999999999,-0.0075137999999995,0.0094768000000008,-0.0111435999999999,0,sub_7
0.0042015999999998,-0.0075689999999987,-0.0077089999999999,-0.0083575999999994,0.0099126000000008,-0.0128591999999999,0,sub_7
0.0028683999999998,-0.0069627999999987,-0.0067851999999999,-0.0079393999999994,0.0084192000000008,-0.0137483999999999,0,sub_7
0.0029951999999998,-0.0067163999999987,-0.0061075999999999,-0.0062399999999994,0.0084076000000008,-0.0133485999999999,0,sub_7
0.0032927999999998,-0.0069403999999987,-0.0063909999999999,-0.0043317999999994,0.0077544000000008,-0.0125193999999999,0,sub_7
0.0033331999999998,-0.0068227999999987,-0.0064587999999999,-0.0028579999999994,0.0058226000000008,-0.0112641999999999,0,sub_7
0.0028703999999998,-0.0065871999999987,-0.0063909999999999,-0.0015929999999994,0.0049570000000008,-0.0100119999999999,0,sub_7
0.0032337999999998,-0.0064637999999987,-0.0068251999999999,-0.0005269999999995,0.0055890000000008,-0.0091507999999999,0,sub_7
0.0029085999999998,-0.0067131999999987,-0.0079503999999999,-0.0005307999999995,0.0049490000000008,-0.0089363999999999,0,sub_7
0.0028055999999998,-0.0061065999999987,-0.0073553999999999,-0.0009623999999995,0.0038852000000008,-0.0089379999999999,0,sub_7
0.0029995999999998,-0.0062603999999987,-0.0076131999999999,-0.0007577999999994,0.0034524000000008,-0.0074403999999999,0,sub_7
0.0031173999999998,-0.0060143999999987,-0.0070757999999999,0.0007134000000005,0.0021608000000008,-0.0059759999999999,0,sub_7
0.0036309999999998,-0.0061281999999987,-0.0071461999999999,0.0026180000000005,0.0017224000000008,-0.0051507999999999,0,sub_7
0.0037261999999998,-0.0059865999999987,-0.0069661999999999,0.0032444000000004,0.0015024000000008,-0.0045483999999999,0,sub_7
0.0034587999999998,-0.0062927999999987,-0.0068997999999999,0.0040830000000004,0.0010686000000008,-0.0039441999999999,0,sub_7
0.0029337999999998,-0.0065419999999987,-0.0066155999999998,0.0051428000000004,0.0012776000000008,-0.0044075999999999,0,sub_7
0.0031877999999998,-0.0070647999999987,-0.0076223999999998,0.0049332000000004,0.0014940000000008,-0.0050503999999999,0,sub_7
0.0032323999999998,-0.0076093999999987,-0.0077279999999998,0.0032214000000004,0.0002226000000008,-0.0052743999999999,0,sub_7
0.0036141999999998,-0.0078735999999987,-0.0070643999999998,0.0025662000000004,-0.0010555999999991,-0.0053127999999999,0,sub_7
0.0038323999999998,-0.0082003999999987,-0.0071201999999999,0.0027686000000004,-0.0016967999999991,-0.0055595999999999,0,sub_7
0.0042805999999998,-0.0084499999999987,-0.0072903999999999,0.0025450000000004,-0.0023355999999991,-0.0060229999999999,0,sub_7
0.0040593999999998,-0.0074059999999987,-0.0074941999999999,0.0027464000000004,-0.0031899999999991,-0.0062695999999999,0,sub_7
0.0035033999999998,-0.0067393999999987,-0.0079595999999999,0.0031572000000004,-0.0048971999999991,-0.0065135999999999,0,sub_7
0.0031291999999998,-0.0064331999999987,-0.0085479999999999,0.0027210000000004,-0.0068139999999991,-0.0063003999999998,0,sub_7
0.0033563999999998,-0.0064815999999987,-0.0087243999999999,0.0016406000000004,-0.0093685999999991,-0.0058773999999998,0,sub_7
0.0031785999999998,-0.0064655999999987,-0.0085231999999999,-0.0007169999999995,-0.0117039999999991,-0.0058907999999998,0,sub_7
0.0028703999999998,-0.0069405999999987,-0.0072015999999999,-0.0026431999999994,-0.0131877999999991,-0.0061159999999999,0,sub_7
0.0038227999999998,-0.0076931999999987,-0.0062283999999999,-0.0022049999999994,-0.0125683999999991,-0.0059083999999999,0,sub_7
0.0046821999999998,-0.0080013999999987,-0.0056053999999998,-0.0013277999999994,-0.0100295999999991,-0.0065547999999999,0,sub_7
0.0049411999999998,-0.0079815999999987,-0.0052883999999998,-0.0010885999999994,-0.0072745999999991,-0.0074195999999999,0,sub_7
0.0059939999999998,-0.0079491999999987,-0.0060827999999998,0.0004268000000005,-0.0047397999999991,-0.0076341999999999,0,sub_7
0.0067279999999998,-0.0083265999999987,-0.0071353999999999,0.0010898000000005,-0.0019887999999991,-0.0078549999999999,0,sub_7
0.0062833999999998,-0.0079435999999987,-0.0077815999999999,0.0002448000000004,0.0001438000000008,-0.0076497999999999,0,sub_7
0.0055937999999998,-0.0075095999999987,-0.0080197999999999,3.240000000046956e-05,0.0014186000000008,-0.0065847999999999,0,sub_7
0.0056037999999998,-0.0066621999999987,-0.0083853999999999,0.0002656000000004,0.0026592000000008,-0.0048571999999999,0,sub_7
0.0051029999999997,-0.0061481999999987,-0.0072775999999999,7.140000000044954e-05,0.0034762000000008,-0.0033457999999999,0,sub_7
0.0048687999999997,-0.0057853999999987,-0.0069909999999999,-0.0001219999999995,0.0045062000000008,-0.0018345999999999,0,sub_7
0.0050641999999997,-0.0054859999999987,-0.0065255999999999,-0.0003123999999995,0.0057510000000008,-0.0007511999999999,0,sub_7
0.0052917999999997,-0.0058815999999987,-0.0064391999999999,-0.0015697999999994,0.0065750000000008,-0.0001017999999999,0,sub_7
0.0047589999999997,-0.0065213999999987,-0.0059085999999999,-0.0028461999999994,0.0074318000000008,-0.0001117999999999,0,sub_7
0.0039515999999998,-0.0068693999999987,-0.0061829999999999,-0.0036959999999994,0.0082870000000008,-0.0001189999999999,0,sub_7
0.0039131999999998,-0.0074195999999987,-0.0061541999999999,-0.0047599999999995,0.0087176000000008,-0.0003405999999999,0,sub_7
0.0034735999999997,-0.0081421999999987,-0.0065875999999999,-0.0056105999999995,0.0087232000000008,-0.0009873999999999,0,sub_7
0.0032129999999997,-0.0084883999999987,-0.0068647999999999,-0.0051677999999995,0.0080548000000008,-0.0013783999999999,0,sub_7
0.0025699999999997,-0.0089269999999987,-0.0078221999999999,-0.0045105999999995,0.0080230000000008,-0.0013415999999999,0,sub_7
0.0024715999999997,-0.0089711999999987,-0.0087201999999999,-0.0034245999999995,0.0079916000000008,-0.0017289999999999,0,sub_7
0.0027975999999997,-0.0090273999999987,-0.0086029999999999,-0.0025577999999994,0.0068948000000008,-0.0019029999999999,0,sub_7
0.0034301999999998,-0.0088311999999987,-0.0082719999999999,-0.0010539999999994,0.0053688000000008,-0.0018583999999999,0,sub_7
0.0035567999999998,-0.0085723999999987,-0.0075337999999999,1.0000000000509517e-05,0.0043016000000008,-0.0022769999999999,0,sub_7
0.0038491999999998,-0.0079747999999987,-0.0066085999999999,0.0021418000000004,0.0030194000000008,-0.0031149999999999,0,sub_7
0.0040119999999998,-0.0073225999999987,-0.0060155999999999,0.0036296000000004,0.0017358000000008,-0.0031029999999999,0,sub_7
0.0035865999999998,-0.0069199999999987,-0.0063985999999998,0.0042710000000004,0.0008608000000008,-0.0030625999999999,0,sub_7
0.0025323999999998,-0.0067181999999987,-0.0064343999999998,0.0040570000000004,-0.0002253999999991,-0.0028141999999999,0,sub_7
0.0027275999999998,-0.0064337999999987,-0.0076261999999998,0.0040536000000004,-0.0011025999999991,-0.0017099999999999,0,sub_7
0.0031469999999998,-0.0063929999999987,-0.0085819999999998,0.0031958000000004,-0.0017655999999991,-0.0001849999999999,0,sub_7
0.0037141999999998,-0.0072717999999987,-0.0088777999999999,0.0025550000000004,-0.0024257999999991,0.000487,0,sub_7
0.0036801999999998,-0.0076583999999987,-0.0084717999999999,0.0029778000000004,-0.0028551999999991,0.0009178,0,sub_7
0.0042079999999998,-0.0075597999999987,-0.0087189999999999,0.0027684000000004,-0.0022143999999991,0.0007018,0,sub_7
0.0038843999999998,-0.0074091999999987,-0.0088371999999999,0.0021350000000005,-0.0015695999999991,-0.0001581999999999,0,sub_7
0.0038803999999998,-0.0067473999999987,-0.0085733999999999,0.0012856000000005,-0.0017727999999991,-0.0007671999999999,0,sub_7
0.0035509999999998,-0.0059259999999987,-0.0084999999999999,0.0002220000000005,-0.0017639999999991,-0.0009505999999999,0,sub_7
0.0041751999999998,-0.0058395999999987,-0.0086569999999999,-0.0006291999999994,-0.0015445999999991,-0.0007057999999999,0,sub_7
0.0047295999999998,-0.0059193999999987,-0.0085217999999999,-0.0012689999999994,-0.0015397999999991,-0.0002453999999999,0,sub_7
0.0049755999999998,-0.0061195999999987,-0.0080749999999999,-0.0019097999999994,-0.0015359999999991,0.0004286,0,sub_7
0.0048875999999998,-0.0069899999999987,-0.0078829999999999,-0.0021211999999994,-0.0011091999999991,0.0004264,0,sub_7
0.0050691999999998,-0.0078045999999987,-0.0077343999999999,-0.0021211999999994,-0.0006847999999991,0.000853,0,sub_7
0.0044885999999998,-0.0077221999999987,-0.0077021999999998,-0.0021181999999995,-0.0004653999999991,0.0011038,0,sub_7
0.0044661999999998,-0.0079353999999987,-0.0075777999999998,-0.0019037999999995,-0.0006727999999991,0.0013566,0,sub_7
0.0043463999999997,-0.0079133999999987,-0.0075359999999999,-0.0018979999999995,-0.0004507999999991,0.0009666,0,sub_7
0.0042083999999997,-0.0078725999999987,-0.0077987999999999,-0.0018941999999995,-1.8399999999177623e-05,0.0012172,0,sub_7
0.0038775999999997,-0.0076729999999987,-0.0079899999999999,-0.0023103999999995,0.0008458000000008,0.0003962,0,sub_7
0.0038493999999997,-0.0077499999999987,-0.0075911999999999,-0.0027257999999995,0.0021306000000008,-0.0008901999999999,0,sub_7
0.0031745999999997,-0.0073151999999987,-0.0084123999999999,-0.0027229999999995,0.0025574000000008,-0.0011043999999999,0,sub_7
0.0032127999999997,-0.0071251999999987,-0.0078015999999999,-0.0018723999999995,0.0023398000000008,-0.0006709999999999,0,sub_7
0.0037017999999997,-0.0075009999999987,-0.0079467999999999,-0.0014357999999995,0.0027540000000008,-0.0006413999999999,0,sub_7
0.0032857999999997,-0.0071597999999987,-0.0081237999999999,-0.0010029999999995,0.0025282000000008,-0.0003973999999999,0,sub_7
0.0031683999999997,-0.0070977999999987,-0.0084259999999999,-0.0007901999999994,0.0018728000000008,0.000914,0,sub_7
0.0034439999999997,-0.0072433999999987,-0.0072723999999999,-0.0003545999999994,0.0022860000000008,0.0011572,0,sub_7
0.0038245999999997,-0.0077193999999987,-0.0077849999999999,-0.0005551999999994,0.0031292000000008,0.0009682,0,sub_7
0.0036013999999997,-0.0073867999999987,-0.0072387999999999,-0.0011943999999994,0.0029200000000008,0.0005368,0,sub_7
0.0041573999999998,-0.0075883999999987,-0.0071173999999999,-0.0016173999999994,0.0033492000000008,0.000106,0,sub_7
0.0041457999999998,-0.0076261999999987,-0.0072427999999999,-0.0018249999999994,0.0035672000000008,-0.0009639999999999,0,sub_7
0.0040097999999997,-0.0080269999999987,-0.0076983999999999,-0.0022411999999994,0.0037708000000008,-0.0020129999999999,0,sub_7
0.0029265999999997,-0.0077791999999987,-0.0074051999999999,-0.0030859999999994,0.0037620000000008,-0.0028511999999999,0,sub_7
0.0026815999999997,-0.0069965999999987,-0.0066651999999999,-0.0030801999999994,0.0037476000000008,-0.0030425999999999,0,sub_7
0.0034127999999997,-0.0062583999999987,-0.0062859999999999,-0.0022333999999994,0.0028704000000008,-0.0013041999999999,0,sub_7
0.0043397999999997,-0.0050529999999987,-0.0067327999999999,-0.0001159999999994,0.0013436000000008,0.0019394,0,sub_7
0.0045889999999997,-0.0040087999999987,-0.0064643999999999,0.0026282000000005,-0.0010267999999991,0.0062344,0,sub_7
0.0051411999999998,-0.0030357999999987,-0.0061659999999999,0.0057970000000004,-0.0029759999999991,0.0113866,0,sub_7
0.0052509999999997,-0.0034167999999987,-0.0070965999999999,0.0079048000000004,-0.0042795999999991,0.0158896,0,sub_7
0.0047031999999997,-0.0045211999999987,-0.0077943999999999,0.0081014000000004,-0.0047239999999991,0.0186842,0,sub_7
0.0039651999999997,-0.0060377999999987,-0.0073407999999999,0.0070262000000004,-0.0045197999999991,0.0201872,0,sub_7
0.0040465999999997,-0.0073439999999987,-0.0078661999999999,0.0044728000000005,-0.0023867999999991,0.0201818,0,sub_7
0.0045475999999997,-0.0087573999999987,-0.0080153999999999,0.0012804000000005,-0.0010995999999991,0.0191048,0,sub_7
0.0045869999999997,-0.0095779999999987,-0.0077871999999999,-0.0008461999999994,-0.0002413999999991,0.0178222,0,sub_7
0.0041569999999997,-0.0095243999999987,-0.0073441999999999,-0.0023235999999994,0.0014758000000008,0.0158868,0,sub_7
0.0038041999999997,-0.0086925999999987,-0.0077603999999999,-0.0033693999999994,0.0038326000000008,0.0135264,0,sub_7
0.0032771999999997,-0.0076293999999987,-0.0076467999999999,-0.0039941999999994,0.0044852000000008,0.0107438,0,sub_7
0.0030409999999997,-0.0074325999999987,-0.0079267999999999,-0.0031207999999994,0.0061950000000008,0.0084064,0,sub_7
0.0032693999999997,-0.0068525999999987,-0.0084313999999999,-0.0031025999999994,0.0076938000000008,0.006277,0,sub_7
0.0037911999999997,-0.0063449999999987,-0.0086183999999999,-0.0028795999999994,0.0079110000000008,0.0047916,0,sub_7
0.0039641999999998,-0.0067557999999987,-0.0083433999999999,-0.0030833999999994,0.0081296000000008,0.0033032,0,sub_7
0.0040319999999998,-0.0070391999999987,-0.0080909999999999,-0.0032843999999995,0.0091996000000008,0.0020274,0,sub_7
0.0036893999999998,-0.0067517999999987,-0.0080557999999999,-0.0047683999999995,0.0098498000000008,0.0005206,0,sub_7
0.0034707999999997,-0.0067465999999987,-0.0074905999999999,-0.0056113999999994,0.0104988000000008,-0.0011953999999999,0,sub_7
0.0030109999999997,-0.0066295999999987,-0.0071351999999999,-0.0060285999999994,0.0111454000000008,-0.0026945999999999,0,sub_7
0.0026601999999997,-0.0065425999999987,-0.0064577999999999,-0.0068707999999994,0.0115732000000008,-0.0035501999999999,0,sub_7
0.0026745999999997,-0.0066149999999987,-0.0064693999999999,-0.0066547999999994,0.0107164000000008,-0.0037557999999999,0,sub_7
0.0025767999999997,-0.0066757999999987,-0.0065925999999999,-0.0062271999999994,0.0094328000000008,-0.0039593999999999,0,sub_7
0.0018565999999998,-0.0068241999999987,-0.0071779999999999,-0.0058015999999994,0.0081474000000008,-0.0037357999999999,0,sub_7
0.0021557999999998,-0.0067969999999987,-0.0076487999999999,-0.0060141999999994,0.0070782000000008,-0.0037305999999999,0,sub_7
0.0022019999999998,-0.0066563999999987,-0.0082493999999999,-0.0051645999999994,0.0055864000000008,-0.0043637999999999,0,sub_7
0.0022417999999997,-0.0069261999999987,-0.0080207999999999,-0.0036709999999994,0.0051568000000008,-0.0047801999999999,0,sub_7
0.0025119999999997,-0.0069327999999987,-0.0084257999999999,-0.0023897999999994,0.0051532000000008,-0.0049847999999999,0,sub_7
0.0030323999999997,-0.0066385999999987,-0.0086329999999999,-0.0021711999999994,0.0045046000000008,-0.0051915999999999,0,sub_7
0.0029703999999997,-0.0066969999999987,-0.0081881999999999,-0.0013115999999994,0.0036424000000008,-0.0058209999999999,0,sub_7
0.0037157999999997,-0.0066877999999987,-0.0079867999999999,-0.0008765999999994,0.0034200000000008,-0.0062405999999999,0,sub_7
0.0043445999999997,-0.0059807999999987,-0.0079469999999999,-0.0006577999999994,0.0025592000000008,-0.0066607999999999,0,sub_7
