userAcceleration.x,userAcceleration.y,userAcceleration.z,rotationRate.x,rotationRate.y,rotationRate.z,label,subject
0.0133609999999998,0.0277556000000012,-0.0061947999999999,0.0003174000000003,9.40000000009444e-05,0.0006146000000001,0,sub_15
0.0141805999999998,0.0281104000000012,-0.0060747999999999,0.0003184000000003,9.48000000009444e-05,0.0004010000000001,0,sub_15
0.0144635999999998,0.0278846000000012,-0.0061363999999999,0.0005338000000003,9.56000000009444e-05,-2.47999999998722e-05,0,sub_15
0.0142705999999998,0.0277474000000012,-0.0065085999999999,0.0005358000000003,9.72000000009444e-05,-0.0004521999999998,0,sub_15
0.0139981999999998,0.0284198000000012,-0.0064085999999998,8.300000000035804e-05,-0.000114399999999,-3.219999999983215e-05,0,sub_15
0.0138985999999998,0.0285502000000011,-0.0063923999999998,-0.0003689999999996,-0.000324999999999,0.0001740000000001,0,sub_15
0.0128119999999998,0.0281598000000011,-0.0066597999999998,-0.0006057999999996,-0.000110199999999,0.0003812000000001,0,sub_15
0.0124657999999998,0.0288394000000011,-0.0069497999999998,-0.0008435999999996,-0.000108599999999,0.0005886000000001,0,sub_15
0.0125373999999998,0.0290526000000011,-0.0068167999999998,-0.0008659999999996,-0.000105999999999,0.0003704000000001,0,sub_15
0.0126247999999998,0.0291780000000012,-0.0064299999999998,-0.0006477999999996,0.0003218000000009,-0.0002695999999998,0,sub_15
0.0123187999999998,0.0291538000000012,-0.0060331999999998,-7.799999999661983e-06,0.0003196000000009,-0.0002651999999998,0,sub_15
0.0130965999999998,0.0288086000000012,-0.0056643999999998,0.0004152000000003,-0.000534199999999,-0.0002611999999998,0,sub_15
0.0134737999999998,0.0281834000000012,-0.0052685999999999,0.0006076000000003,-0.000750399999999,-0.0004779999999998,0,sub_15
0.0132719999999997,0.0278132000000012,-0.0054689999999999,0.0005836000000003,-0.001180799999999,-0.0002687999999998,0,sub_15
0.0134047999999997,0.0276706000000012,-0.0055935999999999,0.0001308000000003,-0.001611199999999,0.0003646000000001,0,sub_15
0.0137099999999997,0.0277850000000012,-0.0060115999999999,-0.0005313999999996,-0.001825399999999,0.0003554000000001,0,sub_15
0.0134305999999997,0.0282928000000012,-0.0062655999999999,-0.0022595999999996,-0.001822799999999,0.0003384000000001,0,sub_15
0.0128829999999997,0.0282274000000012,-0.0063307999999999,-0.0031141999999996,-0.001608399999999,0.0007594000000001,0,sub_15
0.0128523999999997,0.0280158000000012,-0.0060975999999999,-0.0035371999999996,-0.000330199999999,0.001182,0,sub_15
0.0127111999999997,0.0275106000000012,-0.0057911999999999,-0.0035331999999996,0.0003098000000009,0.0009676,0,sub_15
0.0123565999999997,0.0269954000000012,-0.0052661999999999,-0.0037575999999996,0.0009500000000009,0.0007490000000001,0,sub_15
0.0123109999999997,0.0271914000000012,-0.0050977999999999,-0.0029123999999996,0.0022256000000009,0.0005372000000001,0,sub_15
0.0124557999999997,0.0275406000000012,-0.0053493999999999,-0.0024957999999996,0.0026522000000009,-0.0001039999999998,0,sub_15
0.0130693999999997,0.0280708000000012,-0.0054777999999999,-0.0025107999999996,0.0022272000000009,-0.0005333999999998,0,sub_15
0.0129717999999997,0.0282142000000012,-0.0060379999999999,-0.0029507999999996,0.0020176000000009,-0.0011797999999998,0,sub_15
0.0132201999999997,0.0284074000000012,-0.0067817999999999,-0.0035919999999996,0.0018068000000009,-0.0011839999999998,0,sub_15
0.0131683999999997,0.0276634000000012,-0.0067783999999999,-0.0040205999999996,0.0011700000000009,-0.0013997999999998,0,sub_15
0.0135481999999997,0.0274848000000012,-0.0067439999999999,-0.0050883999999996,0.0011728000000009,-0.0011935999999998,0,sub_15
0.0132275999999998,0.0273334000000012,-0.0065339999999999,-0.0061671999999996,0.0007512000000009,-0.0012029999999998,0,sub_15
0.0133745999999998,0.0278446000000012,-0.0063619999999999,-0.0072479999999996,0.0003280000000009,-0.0007851999999998,0,sub_15
0.0133523999999997,0.0281858000000012,-0.0059101999999999,-0.0074723999999996,-0.000307999999999,-0.0012155999999998,0,sub_15
0.0135739999999997,0.0290538000000012,-0.0056711999999999,-0.0076977999999996,-0.000732399999999,-0.0012191999999998,0,sub_15
0.0135143999999997,0.0294482000000012,-0.0056327999999999,-0.0074973999999996,-0.001371399999999,-0.0012193999999998,0,sub_15
0.0131955999999997,0.0298230000000012,-0.0060115999999999,-0.0074973999999996,-0.001583599999999,-0.0014327999999998,0,sub_15
0.0130317999999997,0.0296038000000012,-0.0061189999999999,-0.0070687999999996,-0.001371199999999,-0.0016435999999998,0,sub_15
0.0129007999999997,0.0299358000000012,-0.0062889999999999,-0.0068633999999996,-0.001160599999999,-0.0012179999999998,0,sub_15
0.0126627999999997,0.0299048000000012,-0.0063567999999999,-0.0070827999999996,-0.000946799999999,-0.0012225999999998,0,sub_15
0.0120631999999997,0.0304282000000012,-0.0063143999999999,-0.0068753999999996,-0.000946799999999,-0.0014375999999998,0,sub_15
0.0121545999999997,0.0304920000000012,-0.0060327999999999,-0.0062421999999996,-0.000736799999999,-0.0012227999999998,0,sub_15
0.0120379999999997,0.0304442000000012,-0.0063765999999999,-0.0056107999999996,-0.000952999999999,-0.0010073999999998,0,sub_15
0.0120761999999997,0.0302246000000012,-0.0068237999999999,-0.0053953999999996,-0.000951999999999,-0.0014331999999998,0,sub_15
0.0121337999999997,0.0296210000000012,-0.0069231999999999,-0.0051829999999996,-0.0009535999999989,-0.0012181999999998,0,sub_15
0.0129763999999997,0.0287022000000012,-0.0066619999999999,-0.0051829999999996,-0.0009535999999989,-0.0012181999999998,0,sub_15
0.0130811999999997,0.0282552000000012,-0.0068677999999999,-0.0054005999999996,-0.0011651999999989,-0.0012209999999998,0,sub_15
0.0136315999999998,0.0284058000000012,-0.0060399999999999,-0.0062591999999996,-0.0013753999999989,-0.0010147999999998,0,sub_15
0.0138441999999998,0.0279690000000012,-0.0054323999999999,-0.0064757999999996,-0.0011617999999989,-0.0008047999999998,0,sub_15
0.0138041999999998,0.0282722000000012,-0.0053789999999999,-0.0064779999999996,-0.000735999999999,-0.0005933999999998,0,sub_15
0.0133235999999998,0.0290150000000012,-0.0056847999999999,-0.0069069999999996,-0.000520799999999,-0.0005983999999998,0,sub_15
0.0135223999999998,0.0295816000000012,-0.0056651999999999,-0.0062667999999996,-0.000947399999999,-0.0010207999999998,0,sub_15
0.0134029999999997,0.0291878000000012,-0.0055877999999999,-0.0056275999999996,-0.001587199999999,-0.0014427999999998,0,sub_15
0.0131159999999997,0.0293084000000012,-0.0053779999999999,-0.0054161999999996,-0.001801799999999,-0.0012273999999998,0,sub_15
0.0131389999999997,0.0292038000000012,-0.0054357999999999,-0.0052035999999996,-0.002441199999999,-0.0012277999999998,0,sub_15
0.0130017999999997,0.0287512000000012,-0.0058437999999999,-0.0049919999999996,-0.002869199999999,-0.0008013999999998,0,sub_15
0.0129215999999998,0.0280242000000012,-0.0055351999999999,-0.0054185999999996,-0.002868999999999,-0.0003797999999998,0,sub_15
0.0121599999999997,0.0286546000000012,-0.0054745999999999,-0.0054165999999996,-0.002231799999999,0.0002576000000001,0,sub_15
0.0119135999999997,0.0289402000000012,-0.0054285999999999,-0.0054163999999996,-0.002445199999999,0.0004688000000001,0,sub_15
0.0120333999999997,0.0292014000000012,-0.0052457999999999,-0.0052029999999996,-0.002870199999999,4.340000000014792e-05,0,sub_15
0.0121127999999997,0.0294130000000012,-0.0051793999999999,-0.0045609999999996,-0.003082999999999,-0.0005927999999998,0,sub_15
0.0121037999999997,0.0297736000000012,-0.0055193999999999,-0.0043465999999996,-0.002870599999999,-0.0005915999999998,0,sub_15
0.0124093999999997,0.0292996000000012,-0.0054495999999999,-0.0037035999999996,-0.002657999999999,-0.0010147999999998,0,sub_15
0.0130507999999997,0.0290898000000012,-0.0054147999999998,-0.0028351999999996,-0.002236199999999,-0.0014389999999998,0,sub_15
0.0133909999999997,0.0282550000000012,-0.0060405999999998,-0.0028269999999996,-0.002453999999999,-0.0010135999999998,0,sub_15
0.0133491999999998,0.0277822000000012,-0.0057763999999998,-0.0032415999999996,-0.001393599999999,-0.0001655999999998,0,sub_15
0.0131091999999997,0.0272110000000012,-0.0058995999999998,-0.0032257999999996,0.0003052000000009,0.0004708000000001,0,sub_15
0.0135525999999997,0.0270422000000012,-0.0064627999999998,-0.0038537999999996,0.0009418000000009,0.0008906000000001,0,sub_15
0.0131611999999997,0.0276094000000012,-0.0070913999999998,-0.0044939999999996,0.0015806000000009,0.0015262000000001,0,sub_15
0.0126101999999997,0.0288066000000012,-0.0067037999999998,-0.0038443999999996,0.0034966000000009,0.0013146000000001,0,sub_15
0.0131451999999997,0.0291692000000012,-0.0063675999999998,-0.0025391999999996,0.0034944000000009,0.0008964000000001,0,sub_15
0.0130355999999998,0.0297794000000012,-0.0061373999999999,-0.0014501999999996,0.0024294000000009,5.0800000000128e-05,0,sub_15
0.0129687999999998,0.0299844000000012,-0.0062297999999999,6.840000000037806e-05,0.0022142000000009,-0.0005793999999998,0,sub_15
0.0132121999999998,0.0293752000000012,-0.0057963999999999,0.0015852000000003,0.0019974000000009,-0.0007821999999998,0,sub_15
0.0135339999999998,0.0288028000000012,-0.0055957999999998,0.0030982000000003,0.0011404000000009,-0.0007705999999998,0,sub_15
0.0129183999999998,0.0286810000000012,-0.0054051999999998,0.0037364000000003,0.0011364000000009,-0.0003387999999998,0,sub_15
0.0131089999999998,0.0286174000000012,-0.0055285999999998,0.0048022000000003,0.0009196000000009,-0.0003309999999998,0,sub_15
0.0135937999999998,0.0283110000000012,-0.0056777999999998,0.0058662000000002,0.0002766000000009,-0.0003225999999998,0,sub_15
0.0139429999999998,0.0280178000000012,-0.0058749999999998,0.0067196000000002,-0.000150799999999,-0.0007433999999998,0,sub_15
0.0141227999999998,0.0281992000000012,-0.0059647999999999,0.0067496000000002,6.480000000094472e-05,-0.0009563999999998,0,sub_15
0.0147891999999998,0.0278760000000012,-0.0062843999999999,0.0067776000000002,-0.000570199999999,-0.0015957999999998,0,sub_15
0.0148615999999998,0.0275962000000012,-0.0061945999999999,0.0059504000000003,-0.000991799999999,-0.0016003999999998,0,sub_15
0.0147729999999998,0.0274518000000012,-0.0061039999999998,0.0040580000000003,-0.000983399999999,-0.0016129999999998,0,sub_15
0.0145029999999998,0.0274678000000012,-0.0063069999999998,0.0021630000000003,-0.001189799999999,-0.0011979999999998,0,sub_15
0.0145985999999998,0.0267032000000011,-0.0063379999999998,-0.0001907999999996,-0.002248399999999,-0.0007857999999998,0,sub_15
0.0140851999999998,0.0265950000000011,-0.0061989999999998,-0.0019025999999996,-0.002670999999999,-0.0001561999999998,0,sub_15
0.0145365999999998,0.0270332000000012,-0.0063469999999998,-0.0035813999999996,-0.003299799999999,-0.0001653999999998,0,sub_15
0.0148337999999998,0.0285058000000012,-0.0069521999999999,-0.0041951999999996,-0.004782799999999,-0.0005931999999998,0,sub_15
0.0156603999999998,0.0298680000000012,-0.0072769999999999,-0.0041679999999996,-0.006903799999999,-0.0018701999999998,0,sub_15
0.0162307999999998,0.0305888000000012,-0.0069287999999999,-0.0028577999999996,-0.008390199999999,-0.0031391999999998,0,sub_15
0.0169611999999997,0.0306558000000012,-0.0074127999999998,-0.0021893999999996,-0.010088199999999,-0.0041987999999998,0,sub_15
0.0157467999999998,0.0296340000000012,-0.0069977999999998,-0.0009129999999996,-0.010732599999999,-0.0039753999999998,0,sub_15
0.0129685999999997,0.0290244000000012,-0.0062855999999998,0.0001490000000003,-0.010103999999999,-0.0022597999999998,0,sub_15
0.0098831999999997,0.0285744000000012,-0.0047545999999998,0.0010044000000003,-0.007134599999999,0.0003060000000001,0,sub_15
0.0067993999999998,0.0281854000000012,-0.0039893999999998,0.0016766000000003,-0.003731599999999,0.0033000000000001,0,sub_15
0.0040915999999997,0.0284466000000012,-0.0031217999999998,0.0029966000000003,0.0005248000000009,0.0054430000000001,0,sub_15
0.0036709999999997,0.0290564000000012,-0.0030693999999998,0.0045366000000003,0.0049986000000009,0.0063054000000001,0,sub_15
0.0046205999999997,0.0283666000000012,-0.0028647999999999,0.0063046000000003,0.0105454000000009,0.0050316000000001,0,sub_15
0.0065715999999997,0.0272194000000012,-0.0036127999999998,0.0078580000000003,0.0150312000000009,0.0029030000000001,0,sub_15
0.0090987999999998,0.0262308000000012,-0.0051001999999998,0.0085270000000003,0.0184496000000009,-8.779999999987236e-05,0,sub_15
0.0121167999999998,0.0249704000000012,-0.0059585999999998,0.0087634000000003,0.0208034000000009,-0.0028665999999998,0,sub_15
0.0145343999999998,0.0237858000000012,-0.0066773999999998,0.0079262000000003,0.0223062000000009,-0.0050107999999998,0,sub_15
0.0167435999999998,0.0244450000000012,-0.0069295999999998,0.0070736000000003,0.0223102000000009,-0.0052303999999998,0,sub_15
0.0181583999999998,0.0257364000000012,-0.0072963999999998,0.0060236000000003,0.0212470000000009,-0.0041661999999998,0,sub_15
0.0187047999999998,0.0277586000000012,-0.0076265999999999,0.0045418000000003,0.0199690000000009,-0.0022501999999998,0,sub_15
0.0185701999999997,0.0295242000000012,-0.0068573999999999,0.0043356000000003,0.0182578000000009,0.0003162000000001,0,sub_15
0.0178629999999998,0.0316660000000012,-0.0065235999999999,0.0054096000000003,0.0163298000000009,0.0026780000000001,0,sub_15
0.0173607999999997,0.0310546000000012,-0.0067501999999998,0.0060578000000003,0.0135552000000009,0.0039698000000001,0,sub_15
0.0157837999999998,0.0303442000000012,-0.0075501999999998,0.0064664000000003,0.0095056000000009,0.0039778000000001,0,sub_15
0.0149599999999997,0.0300886000000012,-0.0076585999999998,0.0081620000000003,0.0060940000000009,0.0031394000000001,0,sub_15
0.0145001999999998,0.0301502000000012,-0.0089231999999998,0.0083716000000003,0.0022640000000009,0.0018658000000001,0,sub_15
0.0141239999999998,0.0294526000000012,-0.0097511999999998,0.0068696000000003,-0.002625199999999,0.0005818000000001,0,sub_15
0.0141499999999998,0.0297652000000012,-0.0097563999999998,0.0047256000000003,-0.007301599999999,-6.61999999998722e-05,0,sub_15
0.0148037999999998,0.0292958000000012,-0.0089309999999998,0.0015174000000003,-0.011122999999999,-0.0005089999999998,0,sub_15
0.0143205999999998,0.0277920000000012,-0.0081849999999998,-0.0031853999999996,-0.014727799999999,-0.0005351999999998,0,sub_15
0.0131595999999998,0.0264150000000012,-0.0068873999999998,-0.0076775999999996,-0.017268799999999,-0.0005633999999998,0,sub_15
0.0120497999999997,0.0260512000000012,-0.0059161999999998,-0.0106705999999996,-0.018324399999999,-0.0003693999999998,0,sub_15
0.0106855999999997,0.0265414000000012,-0.0054201999999998,-0.0125851999999996,-0.018100399999999,-0.0014511999999998,0,sub_15
0.0096133999999997,0.0272518000000012,-0.0047265999999999,-0.0119363999999996,-0.017246199999999,-0.0025159999999998,0,sub_15
0.0095507999999997,0.0278564000000012,-0.0046047999999999,-0.0095783999999996,-0.016391399999999,-0.0035649999999998,0,sub_15
0.0102015999999998,0.0285418000000012,-0.0045281999999999,-0.0072213999999996,-0.014900999999999,-0.0037601999999998,0,sub_15
0.0116977999999998,0.0282906000000012,-0.0041933999999999,-0.0048623999999996,-0.013196599999999,-0.0041693999999998,0,sub_15
0.0132917999999998,0.0267566000000012,-0.0045187999999999,-0.0031513999999996,-0.012557799999999,-0.0039407999999997,0,sub_15
0.0159523999999998,0.0249362000000012,-0.0056589999999999,-0.0033587999999996,-0.011273799999999,-0.0035127999999998,0,sub_15
0.0179383999999998,0.0249256000000012,-0.0064015999999998,-0.0046369999999996,-0.009994399999999,-0.0026687999999998,0,sub_15
0.0188293999999998,0.0246780000000012,-0.0065035999999998,-0.0057019999999996,-0.009352199999999,-0.0024633999999998,0,sub_15
0.0188625999999998,0.0247826000000012,-0.0067717999999998,-0.0072013999999996,-0.009776599999999,-0.0016185999999998,0,sub_15
0.0166003999999998,0.0255462000000012,-0.0061631999999998,-0.0084885999999996,-0.009975199999999,-0.0003429999999998,0,sub_15
0.0134293999999998,0.0272386000000012,-0.0051615999999998,-0.0089203999999996,-0.009750799999999,0.0009380000000001,0,sub_15
0.0098491999999998,0.0276470000000012,-0.0039343999999998,-0.0089207999999996,-0.009311399999999,0.0013672000000001,0,sub_15
0.0070791999999998,0.0282846000000012,-0.0041603999999998,-0.0093459999999996,-0.008868799999999,0.0013662000000001,0,sub_15
0.0053443999999998,0.0294024000000012,-0.0035939999999998,-0.0093377999999996,-0.007784999999999,0.0005128000000001,0,sub_15
0.0057541999999998,0.0306264000000012,-0.0036127999999998,-0.0086833999999996,-0.006501199999999,-0.0014069999999998,0,sub_15
0.0079081999999998,0.0307152000000012,-0.0038695999999999,-0.0080317999999996,-0.006280999999999,-0.0037527999999998,0,sub_15
0.0113151999999998,0.0304550000000012,-0.0049021999999999,-0.0074009999999996,-0.007578399999999,-0.0060941999999998,0,sub_15
0.0145297999999997,0.0303018000000012,-0.0058309999999999,-0.0067749999999996,-0.008879999999999,-0.0073673999999998,0,sub_15
0.0169375999999997,0.0299818000000012,-0.0066019999999998,-0.0059385999999996,-0.009760599999999,-0.0075715999999998,0,sub_15
0.0179391999999998,0.0291680000000012,-0.0066737999999998,-0.0053221999999996,-0.010009799999999,-0.0056415999999998,0,sub_15
0.0166249999999998,0.0293446000000012,-0.0066785999999998,-0.0047105999999996,-0.010050999999999,-0.0024299999999998,0,sub_15
0.0136757999999997,0.0303542000000012,-0.0059741999999998,-0.0034429999999996,-0.008793399999999,0.0016366000000001,0,sub_15
0.0109761999999998,0.0315312000000012,-0.0054325999999998,-0.0011017999999996,-0.007109199999999,0.0046418000000001,0,sub_15
0.0084195999999998,0.0325724000000012,-0.0051673999999998,0.0012378000000003,-0.006487599999999,0.0070074000000001,0,sub_15
0.0069293999999998,0.0334570000000012,-0.0045001999999998,0.0046252000000003,-0.006537799999999,0.0076706000000001,0,sub_15
0.0063283999999998,0.0342044000000012,-0.0046403999999998,0.0080220000000003,-0.006367199999999,0.0064108000000001,0,sub_15
0.0065739999999997,0.0341030000000012,-0.0040089999999998,0.0116410000000003,-0.005128599999999,0.0042964000000001,0,sub_15
0.0072647999999997,0.0320218000000012,-0.0031185999999998,0.0150534000000003,-0.001973599999999,0.0026056000000001,0,sub_15
0.0078913999999997,0.0294862000000012,-0.0026331999999998,0.0180484000000003,0.0031012000000009,0.0006958000000001,0,sub_15
0.0085937999999997,0.0261050000000012,-0.0031717999999998,0.0189326000000003,0.0086428000000009,-0.0005869999999998,0,sub_15
0.0103679999999997,0.0220382000000012,-0.0033593999999998,0.0181032000000003,0.0137598000000009,-0.0008129999999998,0,sub_15
0.0141349999999998,0.0182912000000012,-0.0048191999999999,0.0142826000000003,0.0182474000000009,-0.0008453999999998,0,sub_15
0.0183299999999998,0.0166414000000012,-0.0057293999999999,0.0091740000000003,0.0203984000000009,-0.0015247999999998,0,sub_15
0.0221445999999998,0.0162590000000012,-0.0067945999999998,0.0029902000000003,0.0212824000000009,-0.0026353999999998,0,sub_15
0.0258327999999998,0.0174792000000012,-0.0081419999999998,-0.0031993999999996,0.0208880000000009,-0.0037443999999998,0,sub_15
0.0263391999999998,0.0221754000000012,-0.0088181999999998,-0.0089737999999996,0.0185722000000009,-0.0042071999999998,0,sub_15
0.0239763999999998,0.0278516000000012,-0.0087983999999998,-0.0115579999999996,0.0145382000000009,-0.0040045999999998,0,sub_15
0.0197299999999998,0.0334264000000012,-0.0078107999999998,-0.0120161999999996,0.0098534000000009,-0.0027179999999998,0,sub_15
0.0150487999999998,0.0371302000000012,-0.0064079999999999,-0.0103387999999996,0.0051526000000009,-0.0007773999999998,0,sub_15
0.0098815999999998,0.0392342000000012,-0.0050943999999998,-0.0067431999999996,1.9000000000945e-05,0.0011770000000001,0,sub_15
0.0066107999999997,0.0388686000000012,-0.0041871999999998,-0.0012023999999996,-0.002745999999999,0.0022932000000001,0,sub_15
0.0046019999999997,0.0372396000000012,-0.0038921999999998,0.0043508000000003,-0.003590199999999,0.0025524000000001,0,sub_15
0.0042787999999997,0.0337842000000012,-0.0047539999999998,0.0090582000000003,-0.003787999999999,0.0017366000000001,0,sub_15
0.0049657999999997,0.0316120000000012,-0.0056263999999998,0.0120624000000003,-0.003339599999999,0.0006944000000001,0,sub_15
0.0071333999999997,0.0303400000000012,-0.0063961999999999,0.0133684000000003,-0.000967799999999,-0.0003619999999998,0,sub_15
0.0094647999999997,0.0291234000000012,-0.0070821999999999,0.0131664000000003,0.0011652000000009,-0.0007933999999998,0,sub_15
0.0115791999999997,0.0275246000000012,-0.0071265999999999,0.0114652000000003,0.0026618000000009,-0.0005933999999998,0,sub_15
0.0128641999999997,0.0285540000000012,-0.0072145999999999,0.0091172000000003,0.0037302000000009,0.0006706000000001,0,sub_15
0.0131909999999997,0.0299970000000012,-0.0073541999999999,0.0070016000000003,0.0035560000000009,0.0021608000000001,0,sub_15
0.0126053999999998,0.0311320000000012,-0.0067581999999999,0.0057356000000003,0.0021022000000009,0.0032312000000001,0,sub_15
0.0138239999999997,0.0289486000000012,-0.0063975999999998,0.0044736000000003,0.0006518000000009,0.0034472000000001,0,sub_15
0.0160053999999997,0.0273984000000012,-0.0060499999999998,0.0017198000000003,-0.001003999999999,0.0030120000000001,0,sub_15
0.0179361999999997,0.0250058000000012,-0.0069159999999998,-0.0016691999999996,-0.002440999999999,0.0017176000000001,0,sub_15
0.0201009999999998,0.0220406000000012,-0.0066633999999998,-0.0046525999999996,-0.002639399999999,0.0006288000000001,0,sub_15
0.0228343999999997,0.0201358000000012,-0.0076617999999998,-0.0080597999999996,-0.001984999999999,-0.0002503999999998,0,sub_15
0.0221001999999998,0.0218032000000012,-0.0080199999999998,-0.0125375999999996,-0.001542399999999,-0.0004959999999998,0,sub_15
0.0192801999999998,0.0244960000000012,-0.0079863999999998,-0.0148679999999996,-0.000856599999999,0.0003452000000001,0,sub_15
0.0158111999999998,0.0274482000000012,-0.0068377999999998,-0.0157067999999996,0.0002468000000009,0.0020510000000001,0,sub_15
0.0121087999999998,0.0297818000000012,-0.0064485999999998,-0.0154795999999996,0.0009210000000009,0.0035510000000001,0,sub_15
0.0076065999999998,0.0325054000000012,-0.0049111999999999,-0.0139731999999996,0.0013778000000009,0.0050604000000001,0,sub_15
0.0036989999999998,0.0342894000000012,-0.0046023999999999,-0.0099035999999996,0.0018282000000009,0.0059466000000001,0,sub_15
0.0017479999999998,0.0341072000000012,-0.0047723999999998,-0.0067067999999996,0.0011770000000009,0.0061834000000001,0,sub_15
0.0014745999999998,0.0323574000000012,-0.0035283999999998,-0.0043605999999996,-0.000105399999999,0.0051332000000001,0,sub_15
0.0059339999999998,0.0292644000000012,-0.0036951999999998,-0.0026459999999996,-0.000316599999999,0.0032228000000001,0,sub_15
0.0107055999999998,0.0262050000000012,-0.0052163999999998,-0.0034981999999996,0.0001256000000009,0.0010834000000001,0,sub_15
0.0166025999999997,0.0231578000000012,-0.0059003999999998,-0.0052067999999996,0.0005684000000009,-0.0004207999999998,0,sub_15
0.0216743999999998,0.0215496000000012,-0.0070959999999999,-0.0071183999999996,0.0029312000000009,-0.0023561999999998,0,sub_15
0.0246053999999998,0.0219556000000012,-0.0098853999999998,-0.0096689999999996,0.0063580000000009,-0.0034429999999998,0,sub_15
0.0222855999999998,0.0250024000000012,-0.0108243999999998,-0.0143723999999996,0.0074408000000009,-0.0026189999999998,0,sub_15
0.0187157999999997,0.0286104000000012,-0.0092831999999998,-0.0160889999999996,0.0072260000000009,-0.0007077999999998,0,sub_15
0.0139355999999997,0.0326502000000012,-0.0068433999999998,-0.0158869999999996,0.0067906000000009,0.0014306000000001,0,sub_15
0.0085225999999997,0.0348776000000012,-0.0039025999999998,-0.0137703999999996,0.0059190000000009,0.0044376000000001,0,sub_15
0.0043571999999997,0.0362500000000012,-0.0017557999999998,-0.0095293999999996,0.0028972000000009,0.0074658000000001,0,sub_15
0.0028721999999997,0.0362768000000012,2.1600000000094363e-05,-0.0003645999999996,0.0015706000000009,0.0086034000000001,0,sub_15
0.0044205999999998,0.0339326000000012,0.000406,0.0096702000000003,0.0013164000000009,0.0071820000000001,0,sub_15
0.0077367999999997,0.0304172000000012,-0.0010793999999999,0.0165120000000003,0.0019290000000009,0.0048826000000001,0,sub_15
0.0121819999999997,0.0284882000000012,-0.0037629999999999,0.0207942000000003,0.0017024000000009,0.0014980000000001,0,sub_15
0.0172113999999998,0.0268178000000012,-0.0051797999999999,0.0238006000000003,0.0021334000000009,-0.0023271999999998,0,sub_15
0.0197649999999998,0.0254454000000012,-0.0075503999999999,0.0231682000000003,0.0012936000000009,-0.0048943999999998,0,sub_15
0.0200381999999997,0.0262646000000012,-0.0097287999999998,0.0197522000000003,0.0006672000000009,-0.0051311999999998,0,sub_15
0.0176787999999997,0.0292920000000012,-0.0098433999999998,0.0173906000000003,-0.001247199999999,-0.0038633999999998,0,sub_15
0.0141103999999998,0.0309580000000012,-0.0080127999999998,0.0164994000000003,-0.002756599999999,-0.0010913999999998,0,sub_15
0.0109287999999998,0.0303956000000012,-0.0058857999999998,0.0153948000000003,-0.003628599999999,0.0023192000000001,0,sub_15
0.0095635999999998,0.0295924000000012,-0.0037413999999998,0.0142998000000003,-0.003643399999999,0.0044470000000001,0,sub_15
0.0084253999999998,0.0268012000000012,-0.0030315999999999,0.0134296000000003,-0.002375399999999,0.0052928000000001,0,sub_15
