userAcceleration.x,userAcceleration.y,userAcceleration.z,rotationRate.x,rotationRate.y,rotationRate.z,label,subject
0.0020801999999998,0.0078390000000012,-0.0024451999999999,0.0078642000000003,-0.0052213999999991,-0.0088591999999999,0,sub_17
0.0041657999999998,0.0014292000000012,-0.0002597999999999,0.0078444000000003,-0.010137199999999,-0.0084213999999999,0,sub_17
0.0059665999999998,-0.0029389999999987,0.0011458,0.0069766000000003,-0.012498399999999,-0.0067107999999999,0,sub_17
0.0059415999999998,-0.0051697999999987,0.0020424,0.0058984000000003,-0.013582999999999,-0.0043623999999999,0,sub_17
0.0044559999999998,-0.0063835999999987,0.0012272000000001,0.0048240000000003,-0.0142399999999991,-0.0024417999999999,0,sub_17
0.0029217999999998,-0.0071561999999987,-0.0005351999999998,0.0033238000000003,-0.0146823999999991,-0.0005243999999999,0,sub_17
0.0006937999999998,-0.0088351999999987,-0.0024923999999998,0.0016130000000003,-0.0134065999999991,0.0015986,0,sub_17
-0.0027150000000001,-0.0091833999999987,-0.0046341999999998,-0.0007195999999996,-0.0085049999999991,0.0032852,0,sub_17
-0.0060662000000001,-0.0090461999999987,-0.0070785999999998,-0.0038923999999996,-0.0014665999999991,0.0041086,0,sub_17
-0.0080606000000001,-0.0055297999999987,-0.0085025999999999,-0.0072771999999996,0.0066540000000008,0.0047126,0,sub_17
-0.0081826000000001,0.0018512000000012,-0.0102587999999999,-0.0100209999999996,0.0145610000000008,0.0048942,0,sub_17
-0.0073354000000001,0.0106226000000012,-0.0117151999999999,-0.0112749999999996,0.0203374000000008,0.003807,0,sub_17
-0.0052640000000001,0.0181066000000012,-0.0119025999999998,-0.0101971999999996,0.0214234000000008,0.0014602,0,sub_17
-0.0021330000000001,0.0234808000000012,-0.0108657999999998,-0.0063713999999996,0.0169596000000008,-0.0006465999999999,0,sub_17
0.0009689999999998,0.0253214000000012,-0.0091471999999998,-0.0010649999999996,0.0082160000000008,-0.0031619999999998,0,sub_17
0.0024959999999998,0.0200952000000012,-0.0062647999999998,0.0050884000000003,-0.0018097999999991,-0.0054563999999998,0,sub_17
0.0038773999999997,0.0137778000000012,-0.0033733999999998,0.0099566000000003,-0.0116231999999991,-0.0064781999999998,0,sub_17
0.0047553999999997,0.0054644000000012,-0.0013199999999999,0.0122668000000003,-0.0195243999999991,-0.0058099999999998,0,sub_17
0.0044637999999998,-0.0018765999999987,0.000413,0.0118166000000003,-0.0231601999999991,-0.0038845999999999,0,sub_17
0.0029515999999998,-0.0082833999999987,0.0010526,0.0101006000000003,-0.0225345999999991,-0.0009053999999999,0,sub_17
0.0011727999999998,-0.0106517999999987,0.0007646,0.0064700000000003,-0.0201995999999991,0.0024856,0,sub_17
-0.0012032000000001,-0.0125353999999986,-0.0010939999999999,0.0022118000000003,-0.0159413999999991,0.0050152,0,sub_17
-0.0036194000000001,-0.0120111999999986,-0.0033165999999999,-0.0013933999999996,-0.0093309999999991,0.0066908,0,sub_17
-0.0052994000000001,-0.0100503999999986,-0.0061335999999999,-0.0047727999999996,-0.0010123999999991,0.0072974,0,sub_17
-0.0066194000000001,-0.0056343999999986,-0.0088083999999999,-0.0081457999999996,0.0079554000000008,0.0070456,0,sub_17
-0.0078706000000001,0.0001712000000012,-0.0112661999999998,-0.0102377999999996,0.0160708000000008,0.0057356,0,sub_17
-0.0081206000000001,0.0072114000000012,-0.0127185999999998,-0.0108437999999996,0.0220522000000008,0.0040114,0,sub_17
-0.0067056000000001,0.0145652000000012,-0.0130873999999998,-0.0101829999999996,0.0244098000000008,0.0016598,0,sub_17
-0.0051000000000001,0.0205938000000012,-0.0128335999999998,-0.0074047999999996,0.0229258000000008,-0.0008857999999999,0,sub_17
-0.0029480000000001,0.0238672000000012,-0.0111147999999998,-0.0029403999999996,0.0167420000000008,-0.0034103999999999,0,sub_17
4.959999999983919e-05,0.0226492000000012,-0.0081687999999999,0.0023632000000003,0.0079960000000008,-0.0052847999999999,0,sub_17
0.0024177999999998,0.0183104000000012,-0.0045685999999999,0.0076572000000003,-0.0018195999999991,-0.0060897999999999,0,sub_17
0.0035083999999998,0.0120182000000012,-0.0018011999999999,0.0116652000000003,-0.0116357999999991,-0.0056219999999999,0,sub_17
0.0039451999999997,0.0039336000000012,0.0003044,0.0129040000000003,-0.0199619999999991,-0.0045305999999999,0,sub_17
0.0046005999999997,-0.0035331999999987,0.001497,0.0122380000000003,-0.0238117999999991,-0.0023901999999999,0,sub_17
0.0043615999999997,-0.0091487999999987,0.001513,0.0096668000000003,-0.023397199999999,0.000586,0,sub_17
0.0022287999999997,-0.0139671999999987,0.0003074,0.0056174000000003,-0.019992999999999,0.0031208,0,sub_17
-0.0004784000000002,-0.0163051999999986,-0.0017047999999998,0.0011566000000003,-0.013602799999999,0.0052216,0,sub_17
-0.0031410000000001,-0.0154893999999986,-0.0036789999999998,-0.0032933999999996,-0.0050719999999991,0.0068886,0,sub_17
-0.0065164000000001,-0.0115431999999987,-0.0068585999999998,-0.0077349999999996,0.0045276000000008,0.0077,0,sub_17
-0.0089838000000001,-0.0043397999999987,-0.0102371999999998,-0.0113169999999996,0.0139234000000008,0.0070236,0,sub_17
-0.0094974000000001,0.0054686000000012,-0.0123849999999998,-0.0129843999999996,0.0209732000000008,0.0052956,0,sub_17
-0.0077672000000001,0.0148088000000012,-0.0132793999999998,-0.0121057999999996,0.0241816000000008,0.0029492,0,sub_17
-0.0056876000000001,0.0221456000000012,-0.0138091999999998,-0.0082553999999996,0.0229098000000008,-0.0004387999999998,0,sub_17
-0.0023094000000001,0.0244890000000012,-0.0121651999999998,-0.0027189999999996,0.0163082000000008,-0.0044493999999998,0,sub_17
0.0003903999999998,0.0227500000000012,-0.0090631999999998,0.0036526000000003,0.0064982000000008,-0.0075969999999998,0,sub_17
0.0030967999999998,0.0163752000000012,-0.0054233999999999,0.0089494000000003,-0.0035269999999991,-0.0092563999999998,0,sub_17
0.0040407999999998,0.0079594000000012,-0.0022021999999999,0.0123260000000003,-0.0120601999999991,-0.0094353999999998,0,sub_17
0.0044295999999998,-0.0013683999999987,0.0009076,0.0129316000000003,-0.0178223999999991,-0.0075009999999999,0,sub_17
0.0032807999999998,-0.0092875999999987,0.0019938,0.0111966000000003,-0.0201751999999991,-0.0036601999999999,0,sub_17
0.0023909999999998,-0.0156501999999987,0.001662,0.0073440000000003,-0.0186865999999991,0.0003744,0,sub_17
0.0001633999999998,-0.0182025999999987,0.0002474,0.0022276000000003,-0.0137839999999991,0.0041822,0,sub_17
-0.0025128000000001,-0.0159015999999987,-0.0024117999999998,-0.0039413999999996,-0.0063181999999991,0.0073382,0,sub_17
-0.0047346000000001,-0.0102409999999987,-0.0062867999999998,-0.0090271999999996,0.0032802000000008,0.0090036,0,sub_17
-0.0063870000000001,-0.0018109999999987,-0.0088453999999998,-0.0126105999999995,0.0133054000000008,0.0091792,0,sub_17
-0.0071460000000001,0.0083982000000012,-0.0110115999999998,-0.0138583999999995,0.0197048000000008,0.0083078,0,sub_17
-0.0064712000000001,0.0181218000000012,-0.0128009999999998,-0.0121331999999995,0.0214128000000008,0.0059676,0,sub_17
-0.0044862000000001,0.0219726000000012,-0.0122369999999998,-0.0074303999999995,0.0195016000000008,0.00258,0,sub_17
-0.0024110000000001,0.0237472000000012,-0.0106793999999998,-0.0016789999999995,0.0131142000000008,-0.0012217999999999,0,sub_17
0.0001829999999998,0.0214246000000012,-0.0085889999999998,0.0040562000000003,0.0033172000000008,-0.0048057999999999,0,sub_17
0.0018839999999998,0.0152030000000012,-0.0052039999999999,0.0087226000000003,-0.0056287999999991,-0.0071165999999999,0,sub_17
0.0030653999999997,0.0081334000000012,-0.0024633999999999,0.0112590000000003,-0.0120177999999991,-0.0077363999999999,0,sub_17
0.0036131999999997,0.0018836000000012,-0.0010803999999999,0.0110198000000003,-0.0171327999999991,-0.0070905999999999,0,sub_17
0.0034867999999997,-0.0044141999999987,0.0004748,0.0090764000000003,-0.0190561999999991,-0.0038969999999999,0,sub_17
0.0024257999999997,-0.0095063999999987,0.0009422,0.0062890000000003,-0.0179973999999991,0.0001414,0,sub_17
0.0001823999999997,-0.0127295999999987,-0.0007843999999999,0.0026590000000003,-0.0148049999999991,0.0037458,0,sub_17
-0.0022226000000002,-0.0143247999999987,-0.0026227999999999,-0.0016015999999995,-0.0099039999999991,0.0069162,0,sub_17
-0.0055140000000001,-0.0125941999999987,-0.0047295999999998,-0.0052029999999995,-0.0018053999999991,0.009019,0,sub_17
-0.0080346000000001,-0.0071347999999987,-0.0078581999999998,-0.0090021999999995,0.0073686000000008,0.0087688,0,sub_17
-0.0092116000000001,0.0004686000000012,-0.0110801999999998,-0.0121583999999995,0.0161186000000008,0.0074556,0,sub_17
-0.0085966000000001,0.0101384000000012,-0.0126949999999998,-0.0129745999999995,0.0225208000000008,0.0055188,0,sub_17
-0.0070204000000001,0.0186202000000012,-0.0137217999999998,-0.0114589999999996,0.0248694000000008,0.0029626,0,sub_17
-0.0042952000000001,0.0240552000000011,-0.0131665999999998,-0.0078281999999996,0.0223122000000008,0.0004212,0,sub_17
-0.0015616000000001,0.0248838000000012,-0.0112419999999998,-0.0027267999999996,0.0146364000000008,-0.0021031999999999,0,sub_17
0.0005325999999998,0.0217416000000011,-0.0082139999999998,0.0032156000000003,0.0044002000000008,-0.0044047999999999,0,sub_17
0.0022889999999998,0.0142690000000012,-0.0050069999999999,0.0078702000000003,-0.0062625999999991,-0.0054329999999999,0,sub_17
0.0036783999999998,0.0061858000000012,-0.0017153999999999,0.0108236000000003,-0.0147925999999991,-0.0056211999999999,0,sub_17
0.0044795999999998,-0.0016889999999987,0.0005706,0.0116464000000003,-0.0203399999999991,-0.0043263999999999,0,sub_17
0.0039545999999998,-0.0080575999999987,0.0021846,0.0103470000000003,-0.0220501999999991,-0.0017695999999999,0,sub_17
0.0029399999999998,-0.0118553999999987,0.0021842,0.0073512000000003,-0.0205619999999991,0.0016258,0,sub_17
0.0013341999999998,-0.0129579999999987,0.0010982,0.0035192000000003,-0.0160847999999991,0.004157,0,sub_17
-0.0012262000000001,-0.0121021999999987,-0.0009573999999999,-9.419999999960588e-05,-0.0103241999999991,0.005837,0,sub_17
-0.0044730000000001,-0.0088707999999987,-0.0041461999999999,-0.0034863999999996,-0.0041333999999991,0.0062362,0,sub_17
-0.0065578000000001,-0.0048235999999987,-0.0076791999999998,-0.0058041999999996,0.0029096000000008,0.0057872,0,sub_17
-0.0081764000000001,0.0014608000000012,-0.0103655999999998,-0.0074731999999996,0.0105944000000008,0.0040602,0,sub_17
-0.0087616000000001,0.0083148000000012,-0.0127645999999998,-0.0080831999999996,0.0165712000000008,0.0023428,0,sub_17
-0.0086832000000001,0.0137992000000012,-0.0142757999999998,-0.0078477999999996,0.0197730000000008,0.0006312,0,sub_17
-0.0057880000000001,0.0170902000000012,-0.0131491999999998,-0.0065569999999996,0.0202024000000008,-0.0012831999999999,0,sub_17
-0.0023794000000002,0.0185262000000012,-0.0107159999999999,-0.0037817999999996,0.0169960000000008,-0.0031899999999999,0,sub_17
0.0010703999999997,0.0175560000000012,-0.0082053999999999,-0.0001703999999996,0.0099516000000008,-0.0050861999999999,0,sub_17
0.0034611999999997,0.0139390000000012,-0.0049627999999999,0.0040746000000003,0.0014136000000008,-0.0069759999999999,0,sub_17
0.0054607999999997,0.0083128000000012,-0.0009633999999999,0.0076784000000003,-0.0064863999999991,-0.0080163999999999,0,sub_17
0.0052043999999997,0.0018126000000012,0.001129,0.0097884000000003,-0.0133201999999991,-0.0080003999999999,0,sub_17
0.0043359999999998,-0.0041539999999987,0.0015176,0.0099788000000003,-0.0173733999999991,-0.0069255999999999,0,sub_17
0.0030301999999998,-0.0101557999999987,0.0017262,0.0086860000000003,-0.0180165999999991,-0.0047971999999999,0,sub_17
0.0008025999999998,-0.0136473999999987,0.0004038,0.0050528000000003,-0.0158869999999991,-0.0014069999999999,0,sub_17
-0.0011726000000001,-0.0130887999999987,-0.0027107999999999,0.0007920000000003,-0.0116219999999991,0.0013352,0,sub_17
-0.0039510000000001,-0.0086047999999987,-0.0059755999999999,-0.0032431999999996,-0.0043603999999991,0.0030052,0,sub_17
-0.0063594000000001,-0.0031099999999987,-0.0083957999999999,-0.0064193999999996,0.0029034000000008,0.0033994,0,sub_17
-0.0078886000000001,0.0036986000000012,-0.0107597999999999,-0.0085323999999996,0.0084624000000008,0.0029484,0,sub_17
-0.0072938000000001,0.0106098000000012,-0.0123473999999999,-0.0083001999999996,0.0121016000000008,0.001021,0,sub_17
-0.0061460000000001,0.0152330000000012,-0.0129211999999999,-0.0063677999999996,0.0140312000000008,-0.0011059999999999,0,sub_17
-0.0038356000000001,0.0165318000000012,-0.0116055999999999,-0.0033805999999996,0.0121108000000008,-0.0030053999999998,0,sub_17
-0.0011498000000002,0.0153830000000012,-0.0093465999999999,-0.0001895999999996,0.0084836000000008,-0.0044739999999998,0,sub_17
0.0010713999999997,0.0125022000000012,-0.0066419999999999,0.0027804000000003,0.0037894000000008,-0.0053017999999998,0,sub_17
0.0028201999999997,0.0073296000000012,-0.0036243999999999,0.0051146000000003,-0.0007059999999991,-0.0052875999999999,0,sub_17
0.0039321999999997,0.0020534000000012,-0.0003355999999999,0.0059526000000003,-0.0049863999999991,-0.0044295999999999,0,sub_17
0.0045575999999997,-0.0031345999999987,0.001446,0.0061512000000003,-0.0079905999999991,-0.0025093999999999,0,sub_17
0.0033939999999997,-0.0056279999999987,0.0007756,0.0048572000000003,-0.0103519999999991,-0.0001731999999999,0,sub_17
0.0015119999999997,-0.0076675999999987,-0.0005717999999999,0.0031460000000003,-0.0103691999999991,0.0023708,0,sub_17
-0.0010990000000002,-0.0064535999999987,-0.0032179999999999,0.0001598000000003,-0.0082357999999991,0.00427,0,sub_17
-0.0038688000000001,-0.0036459999999987,-0.0063655999999999,-0.0023901999999996,-0.0046101999999991,0.0055294,0,sub_17
-0.0059048000000001,0.0005538000000012,-0.0094583999999998,-0.0049303999999996,8.520000000086722e-05,0.0057192,0,sub_17
-0.0069526000000001,0.0044048000000012,-0.0114051999999998,-0.0059799999999995,0.0045780000000008,0.0052736,0,sub_17
-0.0067338000000001,0.0085614000000012,-0.0120463999999998,-0.0061779999999995,0.0077930000000008,0.003981,0,sub_17
-0.0061164000000001,0.0105954000000012,-0.0116535999999998,-0.0042499999999995,0.0088718000000008,0.0022788,0,sub_17
-0.0040484000000001,0.0109924000000012,-0.0105365999999998,-0.0018971999999995,0.0086742000000008,-0.0002733999999999,0,sub_17
-0.0022872000000001,0.0102950000000012,-0.0084911999999999,0.0004450000000004,0.0065574000000008,-0.0023959999999999,0,sub_17
-0.0002294000000001,0.0088080000000012,-0.0058235999999998,0.0027874000000003,0.0037864000000008,-0.0040851999999999,0,sub_17
0.0017235999999998,0.0061920000000012,-0.0038349999999998,0.0042714000000003,0.0008018000000008,-0.0049255999999999,0,sub_17
0.0032271999999997,0.0034018000000012,-0.0018079999999998,0.0046896000000003,-0.0017685999999991,-0.0044959999999999,0,sub_17
0.0031823999999997,-0.0004771999999987,-0.0005101999999998,0.0044582000000003,-0.0045573999999991,-0.0021477999999999,0,sub_17
0.0030331999999997,-0.0037089999999987,-8.659999999987253e-05,0.0033780000000003,-0.0060657999999991,0.0004066,0,sub_17
0.0016459999999997,-0.0063639999999987,-0.0006803999999998,0.0014520000000003,-0.0062909999999991,0.002526,0,sub_17
-0.0003562000000001,-0.0066773999999987,-0.0025027999999998,-0.0006767999999996,-0.0050207999999991,0.0037876,0,sub_17
-0.0019370000000001,-0.0050409999999987,-0.0048331999999998,-0.0030161999999996,-0.0026715999999991,0.0044092,0,sub_17
-0.0035678000000001,-0.0008317999999987,-0.0070283999999999,-0.0049173999999996,0.0013840000000008,0.004177,0,sub_17
-0.0056328000000001,0.0038410000000012,-0.0094365999999999,-0.0055363999999995,0.0050124000000008,0.0030998,0,sub_17
-0.0061170000000001,0.0088836000000012,-0.0108775999999999,-0.0050989999999995,0.0071556000000008,0.002035,0,sub_17
-0.0055654000000001,0.0120362000000012,-0.0109829999999999,-0.0033889999999996,0.0073780000000008,0.0007678,0,sub_17
-0.0043734000000001,0.0124870000000012,-0.0096049999999999,-0.0008273999999996,0.0065346000000008,-0.0011329999999998,0,sub_17
-0.0029576000000001,0.0116256000000012,-0.0080981999999999,0.0017254000000003,0.0037738000000008,-0.0030313999999998,0,sub_17
-0.0007766000000001,0.0087098000000012,-0.0062229999999999,0.0038440000000003,-5.339999999911319e-05,-0.0042905999999998,0,sub_17
0.0008387999999998,0.0042530000000012,-0.0041813999999999,0.0055404000000003,-0.0030393999999991,-0.0049157999999998,0,sub_17
0.0014019999999998,-0.0004599999999987,-0.0020201999999999,0.0057442000000003,-0.0047463999999991,-0.0044847999999998,0,sub_17
0.0010287999999998,-0.0035077999999987,-0.0016955999999999,0.0046678000000003,-0.005599999999999,-0.0032093999999998,0,sub_17
0.0002037999999998,-0.0055215999999987,-0.0022533999999999,0.0027428000000003,-0.005178399999999,-0.0015081999999999,0,sub_17
-0.0012698000000001,-0.0060109999999987,-0.0032425999999999,0.0006120000000003,-0.0030515999999991,0.0001892,0,sub_17
-0.0028758000000001,-0.0042463999999987,-0.0051767999999999,-0.0023683999999996,-0.0004939999999991,0.0014528,0,sub_17
-0.0045854000000001,-0.0006037999999987,-0.0073097999999999,-0.0042761999999996,0.0027016000000008,0.0020822,0,sub_17
-0.0059300000000001,0.0033140000000012,-0.0092153999999999,-0.0051161999999996,0.0054700000000008,0.0020786,0,sub_17
-0.0058468000000001,0.0067802000000012,-0.0101973999999999,-0.0053169999999996,0.0073916000000008,0.00122,0,sub_17
-0.0050422000000001,0.0093132000000012,-0.0099343999999999,-0.0044549999999996,0.0078208000000008,-0.0002699999999999,0,sub_17
-0.0035164000000001,0.0104482000000012,-0.0089807999999999,-0.0023107999999996,0.0078226000000008,-0.0026051999999999,0,sub_17
-0.0015420000000001,0.0094324000000012,-0.0082169999999999,-0.0003885999999996,0.0067566000000008,-0.0040859999999999,0,sub_17
0.0003285999999998,0.0068864000000012,-0.0059817999999999,0.0015268000000003,0.0044146000000008,-0.0051383999999999,0,sub_17
0.0017495999999998,0.0039440000000012,-0.0041825999999999,0.0034382000000003,0.0022816000000008,-0.0051227999999999,0,sub_17
0.0018999999999998,0.0015322000000012,-0.0036795999999999,0.0038514000000003,0.0005738000000008,-0.0036227999999999,0,sub_17
0.0015391999999998,0.0003118000000012,-0.0032671999999999,0.0029776000000003,-0.0013475999999991,-0.0008495999999999,0,sub_17
0.0010347999999998,0.0004104000000012,-0.0029019999999999,0.0018952000000003,-0.0024151999999991,0.0017074,0,sub_17
8.159999999983857e-05,0.0017600000000012,-0.0040553999999999,0.0001738000000003,-0.0030585999999991,0.00426,0,sub_17
-0.0007036000000001,0.0033528000000012,-0.0047105999999999,-0.0013303999999996,-0.0036993999999991,0.0059594,0,sub_17
-0.0007774000000001,0.0052482000000012,-0.0056611999999998,-0.0017585999999996,-0.0036999999999991,0.0059586,0,sub_17
-0.0009332000000001,0.0059224000000012,-0.0060667999999998,-0.0011139999999996,-0.0034869999999991,0.0048968,0,sub_17
-0.0011058000000001,0.0058946000000012,-0.0068775999999998,-0.0002521999999996,-0.0032713999999991,0.0029818,0,sub_17
-0.0012024000000001,0.0051284000000012,-0.0067959999999998,0.0010410000000003,-0.0024163999999991,0.0006418,0,sub_17
-0.0021178000000001,0.0037128000000012,-0.0067955999999998,0.0021218000000003,-0.0011353999999991,-0.0014865999999999,0,sub_17
-0.0026330000000001,0.0020698000000012,-0.0061733999999998,0.0025582000000003,-6.739999999911374e-05,-0.0025531999999999,0,sub_17
-0.0030504000000001,0.0008072000000012,-0.0060789999999998,0.0023524000000003,0.0012134000000008,-0.0029835999999999,0,sub_17
-0.0025464000000001,0.0009362000000012,-0.0056195999999998,0.0012912000000003,0.0022832000000008,-0.0032059999999999,0,sub_17
-0.0021398000000001,0.0018496000000012,-0.0054753999999999,-0.0001947999999996,0.0039874000000008,-0.0025807999999999,0,sub_17
-0.0012830000000001,0.0027172000000012,-0.0050981999999999,-0.0016883999999995,0.0048358000000008,-0.0010999999999999,0,sub_17
-0.0006860000000001,0.0036430000000012,-0.0047177999999999,-0.0027581999999995,0.0048314000000008,0.0001712,0,sub_17
-7.980000000016128e-05,0.0044416000000012,-0.0045815999999999,-0.0036125999999995,0.0046158000000008,0.0008032,0,sub_17
-0.0004596000000001,0.0037824000000012,-0.0045905999999998,-0.0025523999999995,0.0035396000000008,0.001877,0,sub_17
-0.0005210000000001,0.0033430000000012,-0.0051091999999998,-0.0014989999999996,0.0009776000000008,0.0023148,0,sub_17
-0.0007006000000001,0.0036382000000012,-0.0055735999999998,-0.0002235999999996,-0.0005163999999991,0.0018984,0,sub_17
-0.0008246000000001,0.0038692000000012,-0.0064577999999998,0.0008424000000003,-0.0013697999999991,0.001266,0,sub_17
-0.0015054000000001,0.0041858000000012,-0.0067469999999998,0.0016892000000003,-0.0022271999999991,0.0014888,0,sub_17
-0.0016322000000001,0.0045286000000012,-0.0069639999999999,0.0014740000000003,-0.0022275999999991,0.0014894,0,sub_17
-0.0017538000000001,0.0047210000000012,-0.0064893999999999,0.0010484000000003,-0.0013761999999991,0.0017012,0,sub_17
-0.0015190000000001,0.0037718000000012,-0.0063629999999999,0.0004066000000003,-0.0009509999999991,0.0021256,0,sub_17
-0.0015158000000001,0.0031322000000012,-0.0054795999999999,0.0001904000000003,-0.0007399999999991,0.0025534,0,sub_17
-0.0005768000000001,0.0027168000000012,-0.0048207999999999,0.0001924000000003,-0.0007381999999991,0.0021262,0,sub_17
-0.0002590000000001,0.0026226000000012,-0.0049573999999999,0.0006200000000003,-0.0009509999999991,0.0017022,0,sub_17
-0.0006790000000001,0.0025502000000012,-0.0051787999999999,0.0010486000000003,-0.0011627999999991,0.0010646,0,sub_17
-0.0010720000000001,0.0032728000000012,-0.0047827999999999,0.0012658000000003,-0.0011599999999991,0.0002116,0,sub_17
-0.0015104000000001,0.0036456000000012,-0.0056357999999999,0.0010582000000003,-0.0009545999999991,-0.0004271999999999,0,sub_17
-0.0021728000000001,0.0038798000000012,-0.0064019999999998,0.0006362000000003,-0.0003247999999991,-0.0004271999999999,0,sub_17
-0.0027926000000001,0.0043218000000012,-0.0063023999999998,-0.0004257999999996,0.0005194000000008,-0.0002181999999999,0,sub_17
-0.0027748000000001,0.0044356000000012,-0.0064139999999998,-0.0006371999999996,0.0009336000000008,0.000211,0,sub_17
-0.0029150000000001,0.0043804000000012,-0.0066039999999998,-0.0004237999999996,0.0007080000000008,0.0004302,0,sub_17
-0.0026356000000001,0.0043322000000012,-0.0061875999999998,-0.0002093999999996,0.0007080000000008,0.0002180000000001,0,sub_17
-0.0024378000000001,0.0041476000000012,-0.0060695999999999,0.0002184000000003,0.0007072000000008,7.400000000130045e-06,0,sub_17
-0.0020440000000001,0.0037352000000012,-0.0059599999999999,0.0006430000000003,-0.0001491999999991,-0.0002021999999998,0,sub_17
-0.0014826000000001,0.0031352000000012,-0.0054563999999999,0.0006436000000003,-0.0001527999999991,-0.0002023999999998,0,sub_17
-0.0011626000000001,0.0033812000000012,-0.0052605999999999,0.0004298000000003,-0.0001563999999991,9.800000000130016e-06,0,sub_17
-0.0006210000000001,0.0034742000000012,-0.0050357999999998,-1.999999996057673e-07,-0.0005861999999991,0.0004346000000001,0,sub_17
-0.0007112000000001,0.0040460000000012,-0.0051947999999998,-0.0002187999999996,-0.0012305999999991,0.0010748,0,sub_17
-0.0007906000000001,0.0040122000000012,-0.0051507999999998,-0.0002217999999996,-0.0016575999999991,0.001289,0,sub_17
-0.0012514000000001,0.0040562000000012,-0.0057051999999998,-0.0004407999999996,-0.0027229999999991,0.0015026,0,sub_17
-0.0013756000000001,0.0030016000000012,-0.0057831999999998,-0.0006549999999996,-0.0029353999999991,0.0015014,0,sub_17
-0.0019104000000001,0.0025926000000012,-0.0058175999999998,-0.0004383999999996,-0.0027259999999991,0.0010772,0,sub_17
-0.0021260000000001,0.0020854000000012,-0.0053593999999998,-0.0002179999999996,-0.0018765999999991,0.0004386,0,sub_17
-0.0025824000000001,0.0025810000000012,-0.0052365999999998,-0.0004251999999996,-0.0008143999999991,0.000224,0,sub_17
-0.0027838000000001,0.0029716000000012,-0.0048501999999999,-0.0002047999999996,0.0002472000000008,-0.0002011999999999,0,sub_17
-0.0026656000000001,0.0039286000000012,-0.0051023999999999,0.0002252000000003,0.0006682000000008,-0.0004105999999999,0,sub_17
-0.0024938000000001,0.0044260000000012,-0.0056181999999999,0.0004396000000003,0.0006684000000008,-0.0006225999999999,0,sub_17
-0.0020902000000001,0.0047328000000012,-0.0059667999999999,1.200000000035422e-05,0.0004568000000008,-0.0006251999999999,0,sub_17
-0.0016932000000001,0.0044290000000012,-0.0060531999999999,0.0002234000000003,3.000000000086653e-05,-0.0006229999999999,0,sub_17
