userAcceleration.x,userAcceleration.y,userAcceleration.z,rotationRate.x,rotationRate.y,rotationRate.z,label,subject
-0.0005528000000001,0.0033850000000012,-0.0036269999999999,-0.0065563999999996,0.0120520000000008,-0.0005133999999998,0,sub_17
-0.0008652000000001,0.0046390000000012,-0.0034617999999999,-0.0071853999999996,0.0152526000000008,-0.0009487999999998,0,sub_17
0.0011011999999998,0.0070918000000012,-0.0031423999999999,-0.0071775999999996,0.0165326000000008,-0.0013777999999998,0,sub_17
0.0023341999999998,0.0097532000000012,-0.0023469999999999,-0.0056867999999996,0.0154638000000008,-0.0017933999999998,0,sub_17
0.0043789999999997,0.0105192000000012,-0.0012803999999999,-0.0031433999999996,0.0124814000000008,-0.0019857999999999,0,sub_17
0.0058061999999997,0.0104394000000012,0.0002266,-0.0001809999999996,0.0073688000000008,-0.0025995999999999,0,sub_17
0.0072939999999998,0.0081832000000012,0.001393,0.0023488000000003,0.0009794000000008,-0.0032149999999999,0,sub_17
0.0072743999999998,0.0045052000000012,0.0023536,0.0040242000000003,-0.0043469999999991,-0.0025557999999999,0,sub_17
0.0071325999999997,0.0005202000000012,0.0031276,0.0044194000000003,-0.0083955999999991,-0.0006253999999999,0,sub_17
0.0061737999999997,-0.0015683999999987,0.0034524,0.0035468000000003,-0.0107437999999991,0.0012944,0,sub_17
0.0049997999999997,-0.0028293999999987,0.0028636,0.0016188000000003,-0.0105315999999991,0.0032034,0,sub_17
0.0036645999999997,-0.0025289999999987,0.0021556,-0.0007283999999996,-0.0088257999999991,0.004894,0,sub_17
0.0040971999999997,0.0001496000000012,0.0008368,-0.0024295999999996,-0.0069047999999991,0.0055206,0,sub_17
0.0033303999999998,0.0027046000000012,-0.0008641999999998,-0.0026361999999996,-0.0043465999999991,0.0050906,0,sub_17
0.0025777999999998,0.0044328000000012,-0.0023065999999998,-0.0019883999999996,-0.0022149999999991,0.004026,0,sub_17
0.0017641999999998,0.0058752000000012,-0.0038385999999998,-0.0009165999999996,-0.0013605999999991,0.0023252,0,sub_17
0.0012669999999998,0.0068758000000012,-0.0052961999999998,0.0005868000000003,-7.899999999911606e-05,-1.4199999999906824e-05,0,sub_17
3.219999999981752e-05,0.0063304000000012,-0.0056183999999998,0.0018746000000003,0.0009894000000008,-0.0021409999999999,0,sub_17
0.0002587999999997,0.0053198000000012,-0.0056347999999999,0.0023128000000003,0.0018470000000008,-0.0038481999999999,0,sub_17
0.0003409999999997,0.0056944000000012,-0.0052761999999998,0.0021100000000003,0.0031304000000008,-0.0049193999999999,0,sub_17
0.0005785999999997,0.0058422000000012,-0.0045053999999998,0.0016908000000003,0.0048362000000008,-0.0049245999999999,0,sub_17
0.0005479999999997,0.0063020000000012,-0.0034463999999998,0.0006106000000003,0.0048364000000008,-0.0032245999999999,0,sub_17
0.0017049999999997,0.0065436000000012,-0.0022727999999999,-0.0004751999999996,0.0039826000000008,-0.0010963999999999,0,sub_17
0.0030791999999997,0.0073198000000012,-0.0012617999999998,-0.0011341999999996,0.0027028000000008,0.000608,0,sub_17
0.0043609999999997,0.0063726000000012,-0.0003289999999999,-0.0011531999999996,0.0012086000000008,0.0021036,0,sub_17
0.0058597999999997,0.0047912000000012,0.0010196,-0.0009597999999996,-0.0011359999999991,0.0029608,0,sub_17
0.0070063999999997,0.0026662000000012,0.0016652,-0.0005387999999996,-0.0026279999999991,0.002752,0,sub_17
0.0060269999999997,0.0016890000000012,0.0013780000000001,-0.0001149999999996,-0.0036931999999991,0.002329,0,sub_17
0.0046803999999998,0.0012750000000012,0.0006798,9.820000000038298e-05,-0.0041195999999991,0.0016872,0,sub_17
0.0037143999999998,0.0022308000000012,-0.0003933999999999,-0.0003201999999996,-0.0030505999999991,0.0006118,0,sub_17
0.0026299999999998,0.0038230000000011,-0.0019761999999999,-0.0003145999999996,-0.0019855999999991,0.0001802,0,sub_17
0.0016603999999998,0.0056368000000011,-0.0036459999999999,0.0003312000000003,-0.0011351999999991,-0.0004601999999999,0,sub_17
0.0016457999999998,0.0063744000000011,-0.0043881999999999,0.0009780000000003,-7.159999999913614e-05,-0.0011009999999999,0,sub_17
0.0015791999999998,0.0061104000000012,-0.0034111999999999,0.0022572000000003,-0.0005011999999991,-0.0013051999999999,0,sub_17
0.0022027999999997,0.0047128000000012,-0.0021237999999999,0.0028850000000003,-0.0024243999999991,-0.0004437999999999,0,sub_17
0.0029777999999997,0.0030792000000012,-0.0012569999999999,0.0024468000000003,-0.0034941999999991,0.00105,0,sub_17
0.0027273999999997,0.0012614000000012,-0.0004223999999999,0.0007386000000003,-0.0028807999999991,0.0033862,0,sub_17
0.0022459999999997,0.0007444000000012,-0.0001869999999999,-0.0020267999999996,-0.0003453999999991,0.005499,0,sub_17
0.0026647999999997,0.0009730000000012,-0.0002549999999999,-0.0056331999999996,0.0041138000000008,0.006749,0,sub_17
0.0029141999999997,0.0024232000000012,-0.0015103999999999,-0.0073173999999996,0.0077192000000008,0.0067314,0,sub_17
0.0034155999999997,0.0045496000000012,-0.0020065999999999,-0.0075117999999996,0.0089818000000008,0.005232,0,sub_17
0.0041911999999997,0.0068216000000012,-0.0021201999999999,-0.0053693999999996,0.0079210000000008,0.0022574,0,sub_17
0.0046627999999997,0.0077730000000012,-0.0021845999999999,-0.0019545999999996,0.0053634000000008,-0.0004927999999999,0,sub_17
0.0044393999999997,0.0084148000000011,-0.0028279999999999,0.0008174000000003,0.0028056000000008,-0.0026065999999999,0,sub_17
0.0035523999999998,0.0082630000000012,-0.0025811999999999,0.0020986000000003,0.0019532000000008,-0.0036645999999999,0,sub_17
0.0020757999999998,0.0073976000000012,-0.0027433999999998,0.0023194000000004,0.0025892000000008,-0.0038833999999999,0,sub_17
0.0023761999999998,0.0060536000000012,-0.0023365999999998,0.0014666000000004,0.0030106000000008,-0.0028275999999999,0,sub_17
0.0035565999999998,0.0051366000000011,-0.0015069999999998,0.0006062000000004,0.0021522000000008,-0.0013427999999999,0,sub_17
0.0040481999999998,0.0036788000000012,-0.0002851999999998,0.0018716000000003,-0.0002059999999991,0.0003724,0,sub_17
0.0045783999999998,0.0016532000000012,0.0006184000000001,0.0027046000000003,-0.0040531999999991,0.0018728,0,sub_17
0.0054055999999997,0.0003410000000012,0.0012754,0.0031064000000003,-0.0076843999999991,0.003803,0,sub_17
0.0045079999999997,-0.0001593999999987,0.00118,0.0026662000000003,-0.0089679999999991,0.0055108,0,sub_17
0.0035917999999997,-0.0005061999999987,0.0008078,0.0011772000000003,-0.0068429999999991,0.0069918,0,sub_17
0.0029895999999997,0.0009376000000012,1.180000000008442e-05,-0.0020061999999995,-0.0025789999999991,0.0078172,0,sub_17
0.0029765999999997,0.0036838000000012,-0.0008855999999999,-0.0034815999999995,0.0014678000000008,0.0082276,0,sub_17
0.0022311999999998,0.0057682000000012,-0.0014749999999999,-0.0030385999999995,0.0038086000000008,0.0073718,0,sub_17
0.0022579999999998,0.0076548000000012,-0.0022687999999999,-0.0015355999999996,0.0038054000000008,0.0056718,0,sub_17
0.0016845999999998,0.0093220000000012,-0.0032877999999999,0.0010260000000003,0.0016752000000008,0.0033424,0,sub_17
0.0017317999999998,0.0091318000000012,-0.0033393999999999,0.0033712000000003,-0.0010933999999991,0.0010124,0,sub_17
0.0009241999999998,0.0082788000000012,-0.0035147999999998,0.0050790000000003,-0.0025839999999991,-0.0006829999999999,0,sub_17
0.0006555999999998,0.0074580000000012,-0.0029263999999998,0.0052962000000003,-0.0027935999999991,-0.0017493999999998,0,sub_17
0.0007305999999998,0.0059514000000012,-0.0021089999999998,0.0042340000000003,-0.0019391999999991,-0.0015473999999998,0,sub_17
0.0009099999999998,0.0044204000000012,-0.0016431999999998,0.0025276000000003,-0.0010857999999991,-0.0004951999999998,0,sub_17
0.0006931999999998,0.0038700000000012,-0.0016703999999998,0.0010328000000003,0.0001896000000008,0.0014124000000001,0,sub_17
0.0007647999999998,0.0034278000000012,-0.0013085999999999,-0.0010961999999996,0.0021088000000008,0.002674,0,sub_17
0.0006059999999998,0.0037500000000012,-0.0020425999999998,-0.0032243999999996,0.0038168000000008,0.0035084,0,sub_17
0.0005165999999998,0.0039690000000012,-0.0024717999999998,-0.0044949999999996,0.0055274000000008,0.00307,0,sub_17
0.0008477999999998,0.0047146000000012,-0.0026053999999998,-0.0051177999999996,0.0076670000000008,0.0013536,0,sub_17
0.0013905999999998,0.0049750000000012,-0.0029955999999998,-0.0050955999999996,0.0095964000000008,-0.0016397999999999,0,sub_17
0.0017917999999997,0.0046316000000011,-0.0026855999999998,-0.0042239999999996,0.0102458000000008,-0.0046311999999999,0,sub_17
0.0025201999999997,0.0039050000000011,-0.0022793999999999,-0.0022901999999996,0.0100382000000008,-0.0074001999999999,0,sub_17
0.0029307999999997,0.0039124000000011,-0.0015135999999999,-0.0003641999999996,0.0093996000000008,-0.0088867999999998,0,sub_17
0.0031523999999997,0.0044024000000011,-0.0011771999999999,0.0004864000000003,0.0083324000000008,-0.0088849999999998,0,sub_17
0.0040165999999997,0.0054060000000011,-0.0005047999999999,0.0002652000000003,0.0074770000000008,-0.0076089999999998,0,sub_17
0.0046601999999998,0.0073458000000011,-0.0004225999999999,-0.0003825999999996,0.0076846000000008,-0.0056909999999998,0,sub_17
0.0049203999999997,0.0086916000000011,0.0005124,-0.0010333999999996,0.0076774000000008,-0.0033455999999998,0,sub_17
0.0054643999999997,0.0097492000000012,0.0007702,-0.0012621999999996,0.0053172000000008,-0.0012131999999998,0,sub_17
0.0061647999999997,0.0092706000000012,0.0019624,-0.0002145999999996,0.0012516000000008,7.60000000001133e-05,0,sub_17
0.0052223999999997,0.0073774000000011,0.0022212,0.0021008000000003,-0.0049515999999991,0.0020174000000001,0,sub_17
0.0050107999999997,0.0053222000000012,0.0030904,0.0046162000000003,-0.0137139999999991,0.004391,0,sub_17
0.0036643999999998,0.0038084000000012,0.003289,0.0064858000000003,-0.0224789999999991,0.008042,0,sub_17
0.0019319999999998,0.0019400000000012,0.0018164,0.0062226000000003,-0.0291007999999991,0.0125352,0,sub_17
3.91999999998372e-05,0.0021578000000012,-0.0013213999999999,0.0025684000000003,-0.0301729999999991,0.0174248,0,sub_17
-0.0012046000000001,0.0040750000000012,-0.0036421999999999,-0.0031869999999996,-0.0250549999999991,0.0212238,0,sub_17
-0.0018158000000001,0.0061100000000012,-0.0058663999999999,-0.0082777999999996,-0.0167361999999991,0.0228756,0,sub_17
0.0016871999999998,0.0066764000000012,-0.0059169999999999,-0.0105679999999995,-0.0079789999999991,0.0189916,0,sub_17
0.0050815999999998,0.0071380000000012,-0.0044069999999999,-0.0077093999999995,0.0007850000000008,0.0089478,0,sub_17
0.0066339999999998,0.0041500000000012,-0.0009933999999999,0.0004760000000004,0.0048552000000008,-0.0040437999999999,0,sub_17
0.0083421999999998,0.0005148000000012,0.0018284,0.0103454000000004,0.0029574000000008,-0.0178705999999999,0,sub_17
0.0078977999999998,-0.0031461999999987,0.0037066,0.0180642000000004,0.0002050000000008,-0.0289227999999999,0,sub_17
0.0043777999999998,-0.0041043999999987,0.0028202,0.0200056000000003,0.0004292000000008,-0.0333961999999999,0,sub_17
0.0015981999999998,-0.0028301999999987,0.0020522,0.0153028000000004,0.0023478000000008,-0.0295857999999999,0,sub_17
0.0014797999999998,0.0020592000000012,0.0003944,0.0065244000000004,0.0055374000000008,-0.0204773999999999,0,sub_17
0.0016535999999998,0.0078336000000012,-0.0012951999999998,-0.0026921999999995,0.0085060000000008,-0.0090215999999999,0,sub_17
0.0025829999999998,0.0138414000000012,-0.0025179999999998,-0.0097807999999995,0.0093402000000008,0.0015972,0,sub_17
0.0037627999999998,0.0168428000000012,-0.0026827999999998,-0.0126075999999995,0.0063346000000008,0.009687,0,sub_17
0.0049729999999998,0.0171074000000012,-0.0028915999999998,-0.0109449999999995,0.0011990000000008,0.0137514,0,sub_17
0.0049387999999998,0.0139918000000012,-0.0019829999999998,-0.0062853999999996,-0.0056385999999991,0.0146474,0,sub_17
0.0046879999999998,0.0088510000000012,-0.0003491999999998,-0.0005511999999996,-0.0131095999999991,0.0132014,0,sub_17
0.0047287999999997,0.0030222000000012,0.0008208,0.0037048000000003,-0.0182275999999991,0.010674,0,sub_17
0.0042367999999997,-0.0003301999999987,0.0005174,0.0062826000000003,-0.0180241999999991,0.0076944,0,sub_17
0.0030721999999997,-0.0021265999999987,0.0004068,0.0065286000000003,-0.0141915999999991,0.0049076,0,sub_17
0.0022779999999997,-0.0019731999999987,-0.0002083999999999,0.0046524000000003,-0.0075825999999991,0.002316,0,sub_17
0.0017363999999997,-0.0003375999999987,-0.0011121999999998,0.0025638000000003,-0.0001233999999991,0.0003628,0,sub_17
0.0018463999999997,0.0016604000000012,-0.0019651999999998,0.0015352000000003,0.0058408000000008,-0.0015811999999999,0,sub_17
0.0019011999999997,0.0027422000000012,-0.0017191999999998,0.0009122000000003,0.0079804000000008,-0.0032973999999999,0,sub_17
0.0022991999999997,0.0034052000000012,-0.0013075999999998,0.0011266000000003,0.0069194000000008,-0.0045763999999999,0,sub_17
0.0030349999999997,0.0041620000000011,-0.0014699999999998,0.0015458000000003,0.0047890000000008,-0.0049981999999999,0,sub_17
0.0037399999999998,0.0047030000000011,-0.0017715999999998,0.0009064000000003,0.0043456000000008,-0.0049983999999999,0,sub_17
0.0034165999999998,0.0050082000000011,-0.0014303999999998,-0.0003719999999996,0.0051786000000008,-0.0039365999999999,0,sub_17
0.0039665999999998,0.0052620000000012,-0.0006645999999998,-0.0018655999999995,0.0060106000000008,-0.0024489999999999,0,sub_17
0.0043741999999998,0.0057794000000012,-0.0007843999999998,-0.0027231999999995,0.0057760000000008,-0.0011691999999999,0,sub_17
0.0046273999999998,0.0062330000000012,-0.0007217999999999,-0.0029463999999995,0.0038364000000008,-0.0003099999999999,0,sub_17
0.0039797999999998,0.0071214000000012,-0.0011367999999999,-0.0023233999999995,0.0014848000000008,0.0011928,0,sub_17
0.0033273999999998,0.0081312000000012,-0.0018469999999999,-0.0019081999999995,-0.0002245999999991,0.0020526,0,sub_17
0.0022697999999998,0.0089910000000012,-0.0030795999999999,-0.0012757999999995,-0.0012947999999991,0.0026992,0,sub_17
0.0016459999999998,0.0096396000000012,-0.0035443999999999,-0.0012819999999995,-0.0023429999999991,0.0035318,0,sub_17
0.0016945999999998,0.0086972000000012,-0.0034305999999999,-0.0010709999999996,-0.0029639999999991,0.003938,0,sub_17
0.0027439999999998,0.0069686000000012,-0.0027313999999999,-0.0008505999999996,-0.0025155999999991,0.0032748,0,sub_17
0.0036497999999998,0.0046000000000012,-0.0013923999999999,-0.0006261999999996,-0.0016393999999991,0.0021836,0,sub_17
0.0048381999999997,0.0026354000000012,0.0004312,2.880000000036304e-05,-0.0007611999999991,0.000241,0,sub_17
0.0056209999999997,0.0002816000000012,0.002386,0.0004786000000003,0.0015920000000008,-0.0025361999999999,0,sub_17
0.0061961999999997,4.400000001239567e-06,0.0033916,0.0011456000000003,0.0047966000000008,-0.0053129999999998,0,sub_17
0.0058315999999997,0.0008166000000012,0.0036194,0.0018040000000003,0.0060838000000008,-0.0080875999999998,0,sub_17
0.0054773999999997,0.0022760000000012,0.0022228,0.0028652000000003,0.0052442000000008,-0.0099897999999999,0,sub_17
0.0046575999999997,0.0038618000000012,0.0008182,0.0037024000000003,0.0035472000000008,-0.0103969999999999,0,sub_17
0.0033321999999997,0.0059242000000012,-0.0014661999999999,0.0034660000000003,0.0020602000000008,-0.0091029999999999,0,sub_17
0.0010283999999997,0.0071828000000012,-0.0038767999999999,0.0015236000000003,0.0016410000000008,-0.0069673999999999,0,sub_17
-0.0012952000000001,0.0075124000000012,-0.0047397999999999,-0.0006319999999996,0.0022834000000008,-0.0037663999999999,0,sub_17
-0.0022944000000001,0.0074218000000012,-0.0048265999999999,-0.0029915999999995,0.0024928000000008,-0.0007921999999999,0,sub_17
-0.0028904000000001,0.0070816000000012,-0.0052265999999999,-0.0049185999999995,0.0033424000000008,0.0015434,0,sub_17
-0.0024140000000001,0.0066756000000012,-0.0050443999999999,-0.0051327999999996,0.0039788000000008,0.0023958,0,sub_17
-0.0011948000000001,0.0060614000000012,-0.0040407999999999,-0.0038605999999996,0.0031402000000008,0.0023988,0,sub_17
0.0010947999999998,0.0060902000000011,-0.0031241999999999,-0.0025797999999996,0.0027338000000008,0.000906,0,sub_17
0.0024065999999998,0.0066602000000012,-0.0022003999999999,-0.0008673999999996,0.0031790000000008,-0.0007983999999999,0,sub_17
0.0047531999999998,0.0068332000000012,-0.0011273999999999,0.0002010000000003,0.0027742000000008,-0.0025063999999998,0,sub_17
0.0067491999999998,0.0064972000000012,0.0001648,0.0012656000000003,0.0017294000000008,-0.0039999999999998,0,sub_17
0.0080915999999998,0.0058682000000012,0.0017242,0.0021182000000003,0.0008768000000008,-0.0046337999999998,0,sub_17
0.0090231999999998,0.0047050000000012,0.0022302,0.0027448000000003,-0.0018959999999991,-0.0044123999999998,0,sub_17
0.0100687999999998,0.0028972000000012,0.0027688,0.0029458000000003,-0.0038175999999991,-0.0035539999999999,0,sub_17
0.0088363999999998,0.0013176000000012,0.0030946,0.0027180000000003,-0.0042431999999991,-0.0020599999999999,0,sub_17
0.0070723999999998,0.0004198000000012,0.0028542,0.0018490000000004,-0.0044551999999991,-0.0001433999999999,0,sub_17
0.0061807999999998,0.0009756000000012,0.001561,0.0007706000000004,-0.0044507999999991,0.0011306,0,sub_17
0.0046685999999997,0.0024070000000012,0.0006062,-8.959999999959694e-05,-0.0033819999999991,0.0024048,0,sub_17
0.0019809999999997,0.0040464000000012,-0.0007901999999999,-0.0009507999999995,-0.0027383999999991,0.0034658,0,sub_17
0.0007417999999997,0.0049708000000012,-0.0021081999999999,-0.0018051999999995,-0.0023119999999991,0.0041002,0,sub_17
0.0015057999999997,0.0062100000000012,-0.0024233999999999,-0.0022269999999995,-0.0001841999999991,0.0051628,0,sub_17
0.0020033999999997,0.0060762000000012,-0.0018575999999999,-0.0030785999999995,0.0023668000000008,0.00729,0,sub_17
0.0036489999999998,0.0053508000000012,-0.0009667999999999,-0.0043507999999995,0.0066244000000008,0.0096232,0,sub_17
0.0057799999999997,0.0049888000000012,0.0006492,-0.0049801999999995,0.0115186000000008,0.01196,0,sub_17
0.0074249999999997,0.0050420000000012,0.0025936,-0.0054085999999995,0.0138548000000008,0.0145154,0,sub_17
0.0074673999999997,0.0050826000000012,0.0030146,-0.0067029999999995,0.0127876000000008,0.016428,0,sub_17
0.0067335999999997,0.0055726000000012,0.002712,-0.0075695999999995,0.0112954000000008,0.0177032,0,sub_17
0.0043251999999997,0.0053070000000012,0.000987,-0.0080145999999995,0.0078854000000008,0.0183454,0,sub_17
0.0025455999999998,0.0045910000000012,-0.0009237999999999,-0.0093139999999996,0.0038412000000008,0.0185552,0,sub_17
0.0010903999999998,0.0041836000000012,-0.0030463999999999,-0.0108103999999996,0.0025706000000008,0.0179054,0,sub_17
-0.0008996000000001,0.0040076000000012,-0.0047423999999999,-0.0112261999999996,0.0044894000000008,0.0168392,0,sub_17
-0.0017838000000001,0.0038586000000012,-0.0058515999999999,-0.0109979999999996,0.0059850000000008,0.014496,0,sub_17
-0.0015612000000001,0.0050812000000012,-0.0060991999999999,-0.0097009999999996,0.0066296000000008,0.0108796,0,sub_17
-0.0012286000000001,0.0066266000000012,-0.0063567999999999,-0.0069083999999996,0.0066340000000008,0.0062062,0,sub_17
-0.0004618000000001,0.0077452000000012,-0.0058653999999999,-0.0034825999999996,0.0055694000000008,0.0019658,0,sub_17
0.0008807999999997,0.0078404000000012,-0.0045457999999999,0.0001524000000003,0.0036536000000008,-0.0016383999999998,0,sub_17
0.0024377999999997,0.0071700000000012,-0.0032891999999999,0.0025024000000003,0.0025868000000008,-0.0033295999999998,0,sub_17
0.0061527999999997,0.0068790000000012,-0.0011429999999999,0.0027272000000003,0.0070526000000008,-0.0014109999999998,0,sub_17
0.0150905999999997,0.0076304000000012,0.0029754,0.0051202000000003,0.0227882000000008,0.0041404000000001,0,sub_17
0.0164997999999997,0.0057826000000012,0.0062358,0.0122136000000003,0.0427444000000008,0.0131464000000001,0,sub_17
0.0161011999999998,0.0044280000000012,0.0099716,0.0184372000000003,0.0605672000000008,0.0236444,0,sub_17
0.0121907999999998,0.0026392000000012,0.0121294,0.0227240000000003,0.0743504000000008,0.0337068,0,sub_17
0.0059627999999998,-0.0007151999999987,0.0122274,0.0248360000000003,0.0772822000000008,0.0420588000000001,0,sub_17
-0.0039052000000001,-0.0043907999999987,0.0089804,0.0181366000000003,0.0630000000000008,0.0471666,0,sub_17
-0.0062782000000001,-0.0046137999999987,0.0037542,0.0035362000000004,0.0442962000000008,0.048584,0,sub_17
-0.0086352000000001,-0.0050441999999987,-0.0016035999999998,-0.0129489999999995,0.0317844000000008,0.0482714,0,sub_17
-0.0096354000000001,-0.0031389999999987,-0.0063695999999998,-0.0296119999999995,0.0260952000000008,0.0468804000000001,0,sub_17
-0.0095424000000001,0.0007544000000012,-0.0110363999999998,-0.0426297999999995,0.0233764000000008,0.0442396000000001,0,sub_17
-0.0099394000000001,0.0060950000000012,-0.0145729999999998,-0.0470925999999996,0.0238288000000008,0.0403726,0,sub_17
-0.0105160000000001,0.0115292000000012,-0.0156505999999998,-0.0442967999999996,0.0219250000000008,0.0333546,0,sub_17
-0.0087410000000001,0.0174794000000012,-0.0173269999999998,-0.0357659999999996,0.0117022000000008,0.0238236,0,sub_17
-0.0032450000000001,0.0222614000000012,-0.0184101999999998,-0.0200091999999996,-0.0062105999999991,0.013071,0,sub_17
0.0014819999999998,0.0232322000000012,-0.0163157999999998,-0.0012485999999996,-0.0213569999999991,0.0016846,0,sub_17
0.0049051999999998,0.0210504000000012,-0.0128113999999999,0.0168842000000003,-0.0328825999999991,-0.0088561999999999,0,sub_17
0.0089137999999997,0.0141614000000012,-0.0070681999999999,0.0303316000000003,-0.0399407999999991,-0.0158105999999998,0,sub_17
0.0168753999999997,0.0072272000000012,-0.0002351999999999,0.0382592000000003,-0.0369813999999991,-0.0189709999999998,0,sub_17
0.0247159999999997,0.0006752000000012,0.0082028,0.0419796000000003,-0.0154919999999991,-0.0170569999999998,0,sub_17
0.0278421999999997,-0.0065411999999987,0.0178866,0.0438162000000003,0.0204662000000008,-0.0087653999999998,0,sub_17
0.0259553999999997,-0.0138753999999987,0.0257668,0.0394440000000003,0.0562150000000008,0.0039696000000001,0,sub_17
0.0233071999999998,-0.0135567999999987,0.0283988,0.0303332000000003,0.0858002000000008,0.0192504,0,sub_17
0.0149987999999998,-0.0136657999999987,0.0280662,0.0162708000000003,0.1087850000000008,0.0377098,0,sub_17
0.0039447999999998,-0.0141749999999987,0.02571,-0.0068193999999996,0.1179494000000008,0.0569784,0,sub_17
-0.0035812000000001,-0.0100101999999987,0.0192556,-0.0405911999999995,0.1147890000000008,0.071664,0,sub_17
-0.0043250000000001,-0.0020789999999987,0.0118936,-0.0762679999999995,0.1127100000000008,0.0839848,0,sub_17
-0.0017016000000001,0.0057124000000012,0.0037402,-0.1097783999999995,0.1157452000000008,0.0941776,0,sub_17
0.0037007999999998,0.0156972000000012,-0.0039361999999999,-0.1342983999999995,0.1208968000000008,0.1001576,0,sub_17
0.0057495999999998,0.0245160000000012,-0.0102559999999999,-0.1451529999999996,0.1219772000000008,0.1000428000000001,0,sub_17
0.0038639999999998,0.0276814000000012,-0.0162661999999999,-0.1396465999999996,0.1077038000000008,0.0949720000000001,0,sub_17
4.8399999999818034e-05,0.0263764000000012,-0.0216517999999999,-0.1209609999999995,0.0755148000000008,0.0831796000000001,0,sub_17
-0.0043500000000001,0.0208696000000012,-0.0237871999999999,-0.0916211999999996,0.0337268000000008,0.0650648,0,sub_17
-0.0075374000000001,0.0128482000000012,-0.0231311999999999,-0.0573507999999996,-0.0074213999999991,0.0424970000000001,0,sub_17
-0.0083962000000001,0.0040876000000012,-0.0218609999999999,-0.0213311999999995,-0.0420239999999991,0.019036,0,sub_17
-0.0058046000000001,-0.0007457999999987,-0.0188059999999999,0.0108956000000004,-0.064050799999999,-0.0025445999999999,0,sub_17
-0.0038646000000001,-0.0026649999999987,-0.0150141999999999,0.0372066000000003,-0.069028599999999,-0.0201289999999998,0,sub_17
