userAcceleration.x,userAcceleration.y,userAcceleration.z,rotationRate.x,rotationRate.y,rotationRate.z,label,subject
-0.0076356000000001,-0.0156983999999986,-0.0028049999999999,0.0236412000000003,0.0464732000000008,-0.0231411999999998,0,sub_14
-0.0131750000000001,-0.0109247999999986,-0.0049489999999999,0.0238106000000003,0.0464356000000008,-0.0141669999999998,0,sub_14
-0.0192384000000001,-0.0062775999999987,-0.0082379999999999,0.0216110000000003,0.0440524000000008,-0.0026425999999998,0,sub_14
-0.0281490000000001,-0.0025977999999987,-0.0132265999999999,0.0170404000000003,0.0380486000000008,0.0105790000000001,0,sub_14
-0.0356112000000001,-7.859999999870878e-05,-0.0177771999999999,0.0111806000000003,0.0299174000000008,0.0244354000000001,0,sub_14
-0.0413710000000001,0.0007978000000012,-0.0212557999999999,0.0049008000000003,0.0205204000000008,0.0355132000000001,0,sub_14
-0.0467932000000001,0.0025756000000012,-0.0240081999999999,-0.0002913999999996,0.0102840000000008,0.0425064000000001,0,sub_14
-0.0510782000000001,0.0044360000000012,-0.0248419999999999,-0.0041737999999996,0.0009186000000008,0.0437390000000001,0,sub_14
-0.0530098000000001,0.0065076000000012,-0.0234907999999999,-0.0056791999999996,-0.0063065999999991,0.0404990000000001,0,sub_14
-0.0512826000000001,0.0074764000000012,-0.0216761999999999,-0.0058803999999995,-0.0116053999999991,0.0338472000000001,0,sub_14
-0.0481810000000001,0.0077150000000012,-0.0196139999999999,-0.0050023999999996,-0.0151991999999991,0.0261326000000001,0,sub_14
-0.0449064000000001,0.0048746000000012,-0.0180491999999999,-0.0030703999999996,-0.019015199999999,0.0197416000000001,0,sub_14
-0.0389070000000001,-4.659999999872856e-05,-0.0154819999999999,-0.0005241999999996,-0.024554199999999,0.0174164000000001,0,sub_14
-0.0313568000000001,-0.0042571999999987,-0.0126707999999999,0.0020064000000003,-0.030106799999999,0.0185094000000001,0,sub_14
-0.0256044000000001,-0.0070941999999987,-0.0093643999999999,0.0055798000000003,-0.032690599999999,0.0195990000000001,0,sub_14
-0.0182870000000001,-0.0088583999999987,-0.0075049999999999,0.0098202000000003,-0.032706399999999,0.0172718000000001,0,sub_14
-0.0112606000000001,-0.0098653999999986,-0.0055077999999999,0.0128024000000003,-0.030151799999999,0.0125824000000001,0,sub_14
-0.0085196000000001,-0.0099375999999986,-0.0036931999999999,0.0128184000000002,-0.024384999999999,0.0063726000000001,0,sub_14
-0.0070758000000001,-0.0110219999999987,-0.0033463999999999,0.0094282000000003,-0.017326399999999,-0.0002899999999998,0,sub_14
-0.0074094000000001,-0.0137631999999987,-0.0038441999999999,0.0041216000000003,-0.0138877999999991,-0.0031087999999998,0,sub_14
-0.0116164000000001,-0.0171759999999987,-0.0031597999999999,-0.0018651999999996,-0.0140901999999991,-0.0005865999999998,0,sub_14
-0.0171266000000001,-0.0191421999999987,-0.0031649999999999,-0.0070215999999996,-0.0145283999999991,0.0068554000000001,0,sub_14
-0.0219476000000001,-0.0197707999999987,-0.0061437999999999,-0.0096147999999996,-0.0139237999999991,0.0156024000000001,0,sub_14
-0.0268658000000001,-0.0160785999999987,-0.0086327999999999,-0.0079289999999996,-0.0135359999999991,0.0216020000000001,0,sub_14
-0.0300454000000001,-0.0097163999999987,-0.0101233999999999,-0.0042901999999996,-0.0107917999999991,0.0226984000000001,0,sub_14
-0.0299692000000001,-0.0018097999999987,-0.0122425999999999,0.0013100000000003,-0.0041979999999991,0.0184624000000001,0,sub_14
-0.0277522000000001,0.0061386000000012,-0.0141643999999999,0.0060902000000003,0.0037018000000008,0.0080234000000001,0,sub_14
-0.0252116000000001,0.0134410000000012,-0.0152599999999999,0.0083122000000003,0.0092900000000008,-0.0060687999999998,0,sub_14
-0.0223986000000001,0.0164296000000012,-0.0156391999999999,0.0051854000000003,0.0121254000000008,-0.0197673999999998,0,sub_14
-0.0207560000000001,0.0161638000000012,-0.0161831999999999,-0.0020097999999996,0.0122036000000008,-0.0330635999999998,0,sub_14
-0.0220286000000001,0.0128626000000012,-0.0142565999999999,-0.0107163999999996,0.0109366000000008,-0.0439397999999998,0,sub_14
-0.0238206000000001,0.0075794000000012,-0.0124425999999999,-0.0168797999999996,0.0090088000000008,-0.0515925999999998,0,sub_14
-0.0263448000000001,0.0007006000000012,-0.0101561999999999,-0.0175089999999996,0.0078984000000008,-0.0553623999999998,0,sub_14
-0.0284246000000001,-0.0062781999999987,-0.0086789999999999,-0.0136619999999996,0.0091024000000008,-0.0556855999999998,0,sub_14
-0.0302814000000001,-0.0119239999999987,-0.0072947999999999,-0.0066355999999996,0.0115496000000008,-0.0500059999999998,0,sub_14
-0.0309112000000001,-0.0160001999999987,-0.0073511999999999,0.0005770000000003,0.0127600000000008,-0.0392749999999998,0,sub_14
-0.0311056000000001,-0.0182401999999987,-0.0068327999999999,0.0047726000000003,0.0126812000000008,-0.0232223999999998,0,sub_14
-0.0303920000000001,-0.0171701999999987,-0.0072433999999999,0.0031976000000003,0.0121896000000008,-0.0055001999999998,0,sub_14
-0.0303200000000001,-0.0150335999999987,-0.0082497999999999,-0.0015761999999996,0.0108622000000008,0.0109188000000001,0,sub_14
-0.0302362000000001,-0.0120891999999987,-0.0093271999999999,-0.0059341999999996,0.0085930000000008,0.0231002000000001,0,sub_14
-0.0293502000000001,-0.0088967999999987,-0.0101737999999999,-0.0077047999999996,0.0069752000000008,0.0299578000000001,0,sub_14
-0.0283518000000001,-0.0063205999999987,-0.0115303999999999,-0.0055971999999996,0.0058018000000008,0.0289372000000001,0,sub_14
-0.0266040000000001,-0.0034977999999987,-0.0139451999999999,0.0005846000000003,0.0042076000000008,0.0230316000000001,0,sub_14
-0.0248154000000001,-0.0003855999999987,-0.0145021999999999,0.0082656000000003,0.0013400000000008,0.0145744000000001,0,sub_14
-0.0229974000000001,0.0018826000000012,-0.0153567999999999,0.0136268000000003,-0.0018377999999991,0.0054292000000001,0,sub_14
-0.0224922000000001,0.0031352000000012,-0.0148507999999999,0.0145004000000003,-0.0056423999999991,-0.0028917999999998,0,sub_14
-0.0226258000000001,0.0035612000000012,-0.0140799999999999,0.0110728000000003,-0.009053999999999,-0.0074295999999998,0,sub_14
-0.0240544000000001,0.0012472000000012,-0.0119077999999999,0.0048608000000003,-0.011828599999999,-0.0089965999999998,0,sub_14
-0.0261988000000001,-0.0020471999999987,-0.0103907999999999,-0.0017825999999996,-0.012908199999999,-0.0077913999999998,0,sub_14
-0.0282184000000001,-0.0053607999999987,-0.0086983999999999,-0.0067181999999996,-0.011658799999999,-0.0044407999999998,0,sub_14
-0.0289220000000001,-0.0076823999999987,-0.0080563999999999,-0.0090913999999996,-0.009143399999999,-0.0002195999999998,0,sub_14
-0.0281806000000001,-0.0095921999999987,-0.0074869999999999,-0.0097325999999996,-0.0061711999999991,0.0029766000000001,0,sub_14
-0.0266298000000001,-0.0100447999999987,-0.0067789999999999,-0.0084467999999996,-0.0029873999999991,0.0049042000000001,0,sub_14
-0.0243202000000001,-0.0100073999999987,-0.0068593999999999,-0.0063035999999996,-0.0002277999999991,0.0055566000000001,0,sub_14
-0.0212688000000001,-0.0094407999999987,-0.0074433999999999,-0.0046045999999996,0.0017032000000008,0.0055242000000001,0,sub_14
-0.0187722000000001,-0.0085707999999987,-0.0085481999999999,-0.0039791999999996,0.0015100000000008,0.0048462000000001,0,sub_14
-0.0182628000000001,-0.0077487999999986,-0.0092841999999999,-0.0029327999999996,-0.0001749999999991,0.0039594000000001,0,sub_14
-0.0197728000000001,-0.0067369999999986,-0.0104259999999999,-0.0018843999999996,-0.0018585999999991,0.0026454000000001,0,sub_14
-0.0218628000000001,-0.0053215999999986,-0.0111359999999999,2.1200000000341436e-05,-0.0031171999999991,0.0009094000000001,0,sub_14
-0.0252038000000001,-0.0047021999999986,-0.0116749999999999,0.0017320000000003,-0.0048173999999991,-0.0016401999999998,0,sub_14
-0.0288916000000001,-0.0039523999999986,-0.0120329999999999,0.0040916000000003,-0.0041779999999991,-0.0037609999999998,0,sub_14
-0.0315712000000001,-0.0029957999999987,-0.0120629999999999,0.0060244000000003,-0.0024761999999991,-0.0048177999999998,0,sub_14
-0.0317882000000001,-0.0033477999999987,-0.0123665999999999,0.0058092000000003,-0.0011915999999991,-0.0043961999999998,0,sub_14
-0.0303022000000001,-0.0044937999999986,-0.0128567999999999,0.0028136000000003,9.660000000089372e-05,-0.0024985999999998,0,sub_14
-0.0289994000000001,-0.0051113999999986,-0.0122803999999999,2.440000000034151e-05,0.0007416000000008,0.0002560000000001,0,sub_14
-0.0278802000000001,-0.0068477999999986,-0.0111153999999999,-0.0017035999999996,0.0001046000000008,0.0030196000000001,0,sub_14
-0.0262180000000001,-0.0076015999999986,-0.0111225999999999,-0.0021425999999996,0.0001074000000008,0.0045094000000001,0,sub_14
-0.0252696000000001,-0.0077929999999987,-0.0107721999999999,-0.0004297999999996,0.0009554000000008,0.0040930000000001,0,sub_14
-0.0245038000000001,-0.0065361999999987,-0.0100517999999999,0.0029946000000003,0.0009528000000008,0.0017670000000001,0,sub_14
-0.0231386000000001,-0.0061861999999987,-0.0102957999999999,0.0051428000000003,0.0013826000000008,-0.0009959999999998,0,sub_14
-0.0219124000000001,-0.0048795999999987,-0.0111099999999999,0.0043074000000003,0.0013784000000008,-0.0033017999999998,0,sub_14
-0.0221468000000001,-0.0049905999999987,-0.0107183999999999,0.0019698000000003,-0.0001135999999991,-0.0051887999999998,0,sub_14
-0.0225898000000001,-0.0050387999999987,-0.0106179999999999,-0.0005879999999996,-0.0018231999999991,-0.0057953999999998,0,sub_14
-0.0244984000000001,-0.0065431999999987,-0.0103671999999999,-0.0022891999999996,-0.0020475999999991,-0.0055433999999998,0,sub_14
-0.0265058000000001,-0.0070673999999987,-0.0099981999999999,-0.0025015999999996,-0.0022815999999991,-0.0042125999999998,0,sub_14
-0.0275454000000001,-0.0074329999999987,-0.0099453999999999,-0.0014365999999996,-0.0014383999999991,-0.0029243999999998,0,sub_14
-0.0280704000000001,-0.0071207999999987,-0.0105453999999999,-0.0003707999999996,-0.0001697999999991,-0.0014231999999998,0,sub_14
-0.0283254000000001,-0.0070327999999986,-0.0109547999999999,-0.0003755999999996,0.0006674000000008,-0.0001279999999998,0,sub_14
-0.0283864000000001,-0.0059037999999986,-0.0112041999999999,-0.0010215999999996,0.0008692000000008,0.0007362000000001,0,sub_14
-0.0280940000000001,-0.0048025999999987,-0.0113439999999999,-0.0003739999999996,0.0019274000000008,-0.0005281999999998,0,sub_14
-0.0280716000000001,-0.0042557999999987,-0.0113845999999999,0.0019844000000003,0.0025588000000008,-0.0030617999999998,0,sub_14
-0.0277806000000001,-0.0039915999999986,-0.0114257999999999,0.0054174000000003,0.0034052000000008,-0.0070837999999998,0,sub_14
-0.0272742000000001,-0.0037541999999987,-0.0114843999999999,0.0094954000000003,0.0046856000000008,-0.0111161999999998,0,sub_14
-0.0263898000000001,-0.0040419999999987,-0.0118823999999999,0.0114310000000003,0.0051170000000008,-0.0140941999999998,0,sub_14
-0.0257958000000001,-0.0049819999999987,-0.0121873999999999,0.0107900000000003,0.0038450000000008,-0.0151651999999998,0,sub_14
-0.0251230000000001,-0.0054059999999987,-0.0122111999999999,0.0073646000000003,0.0023612000000008,-0.0141189999999998,0,sub_14
-0.0246612000000001,-0.0053105999999987,-0.0125499999999999,0.0020192000000003,0.0010942000000008,-0.0111555999999998,0,sub_14
-0.0249698000000001,-0.0058131999999987,-0.0120477999999999,-0.0035453999999996,-0.0012383999999991,-0.0079787999999998,0,sub_14
-0.0252720000000001,-0.0064431999999987,-0.0116177999999999,-0.0063283999999996,-0.0027249999999991,-0.0056381999999998,0,sub_14
-0.0258918000000001,-0.0064875999999987,-0.0109887999999999,-0.0067539999999996,-0.0020881999999991,-0.0034975999999998,0,sub_14
-0.0269648000000001,-0.0071253999999987,-0.0111141999999999,-0.0056809999999996,-0.0012403999999991,-0.0022013999999998,0,sub_14
-0.0278978000000001,-0.0081113999999987,-0.0111931999999999,-0.0039797999999996,-0.0016759999999991,-0.0013343999999998,0,sub_14
-0.0284378000000001,-0.0076545999999987,-0.0109857999999999,-0.0018517999999996,-0.0021129999999991,-0.0004643999999998,0,sub_14
-0.0284290000000001,-0.0072477999999987,-0.0109743999999999,-0.0005731999999996,-0.0021137999999991,0.0006180000000001,0,sub_14
-0.0281916000000001,-0.0070325999999987,-0.0115297999999999,-0.0003651999999996,-0.002963199999999,0.0016940000000001,0,sub_14
-0.0270478000000001,-0.0064753999999987,-0.0115847999999999,5.700000000034141e-05,-0.004236799999999,0.0021312000000001,0,sub_14
-0.0264590000000001,-0.0056899999999987,-0.0108567999999999,0.0004850000000003,-0.004868799999999,0.0019266000000001,0,sub_14
-0.0262840000000001,-0.0057457999999987,-0.0111237999999999,0.0011368000000003,-0.004006599999999,0.0008670000000001,0,sub_14
-0.0267444000000001,-0.0061303999999987,-0.0110399999999999,0.0026362000000003,-0.0040067999999991,-0.0004043999999998,0,sub_14
-0.0266342000000001,-0.0062695999999986,-0.0108031999999999,0.0041412000000003,-0.0040017999999991,-0.0029575999999998,0,sub_14
-0.0275536000000001,-0.0067299999999987,-0.0099645999999999,0.0065074000000003,-0.0033563999999991,-0.0065739999999998,0,sub_14
-0.0278262000000001,-0.0076931999999986,-0.0088733999999999,0.0110132000000003,-0.0020765999999991,-0.0108169999999998,0,sub_14
-0.0276612000000001,-0.0072465999999986,-0.0083685999999999,0.0159404000000003,-0.0003735999999991,-0.0135587999999998,0,sub_14
-0.0269808000000001,-0.0061455999999986,-0.0078209999999999,0.0200006000000003,0.0011082000000008,-0.0135289999999998,0,sub_14
-0.0267674000000001,-0.0041603999999987,-0.0078291999999999,0.0219032000000003,0.0013030000000008,-0.0094533999999998,0,sub_14
-0.0272680000000001,-0.0017999999999987,-0.0091087999999999,0.0195124000000003,0.0006410000000008,-0.0004927999999998,0,sub_14
-0.0286412000000001,0.0010232000000012,-0.0116461999999999,0.0126158000000003,-0.0002397999999991,0.0137776000000001,0,sub_14
-0.0309156000000001,0.0022088000000012,-0.0131337999999999,0.0018560000000003,-0.0032543999999991,0.0310114000000001,0,sub_14
-0.0338150000000001,0.0021612000000012,-0.0143495999999998,-0.0114631999999996,-0.0068955999999991,0.0473736000000001,0,sub_14
-0.0362172000000001,0.0006886000000012,-0.0157651999999998,-0.0239125999999996,-0.0103131999999991,0.0603234000000001,0,sub_14
-0.0360440000000001,-0.0020535999999987,-0.0154839999999998,-0.0327087999999996,-0.013504799999999,0.0677516000000001,0,sub_14
-0.0338084000000001,-0.0059305999999987,-0.0134771999999999,-0.0361419999999996,-0.017113799999999,0.0683812000000001,0,sub_14
-0.0299126000000001,-0.0104389999999987,-0.0115073999999999,-0.0337755999999996,-0.019011199999999,0.0622126000000001,0,sub_14
-0.0243470000000001,-0.0138299999999987,-0.0103361999999999,-0.0258339999999996,-0.018993599999999,0.0518076000000001,0,sub_14
-0.0188956000000001,-0.0164519999999987,-0.0082879999999999,-0.0144609999999996,-0.017911599999999,0.0386476000000001,0,sub_14
-0.0145944000000001,-0.0174067999999987,-0.0073285999999999,-0.0032917999999996,-0.0155505999999991,0.0246222000000001,0,sub_14
-0.0121196000000001,-0.0168703999999987,-0.0062861999999999,0.0061714000000003,-0.012758399999999,0.0107978000000001,0,sub_14
-0.0108946000000001,-0.0144487999999987,-0.0059295999999999,0.0134892000000003,-0.011029999999999,-0.0015445999999998,0,sub_14
-0.0115674000000001,-0.0117705999999987,-0.0055319999999999,0.0182278000000003,-0.009727399999999,-0.0123837999999998,0,sub_14
-0.0134682000000001,-0.0094851999999987,-0.0066249999999999,0.0201830000000003,-0.007574999999999,-0.0202523999999998,0,sub_14
-0.0167698000000001,-0.0068747999999987,-0.0077725999999999,0.0208360000000003,-0.006498599999999,-0.0242831999999998,0,sub_14
-0.0205110000000001,-0.0042601999999987,-0.0095607999999999,0.0189102000000003,-0.0056415999999991,-0.0244859999999998,0,sub_14
-0.0249270000000001,-0.0017185999999987,-0.0110173999999999,0.0156986000000003,-0.0041485999999991,-0.0227759999999998,0,sub_14
-0.0299102000000001,0.0004710000000012,-0.0129491999999999,0.0112026000000003,-0.0028733999999991,-0.0181087999999998,0,sub_14
-0.0338822000000001,0.0026756000000012,-0.0139613999999999,0.0056270000000003,-0.0028785999999991,-0.0119519999999998,0,sub_14
-0.0377678000000001,0.0036716000000012,-0.0151833999999999,-0.0008067999999996,-0.0033095999999991,-0.0051597999999998,0,sub_14
-0.0411052000000001,0.0035338000000012,-0.0163331999999999,-0.0065973999999996,-0.0033119999999991,0.0010168000000001,0,sub_14
-0.0426268000000001,0.0020480000000012,-0.0172065999999999,-0.0108915999999996,-0.0026803999999991,0.0072032000000001,0,sub_14
-0.0415698000000001,0.0001742000000012,-0.0176669999999999,-0.0134635999999996,-0.0020409999999991,0.0099832000000001,0,sub_14
-0.0381072000000001,-0.0029329999999987,-0.0158301999999999,-0.0128137999999996,-0.0016061999999991,0.0078722000000001,0,sub_14
-0.0328612000000001,-0.0057045999999987,-0.0129763999999999,-0.0078715999999996,-0.0007397999999991,0.0006632000000001,0,sub_14
-0.0272936000000001,-0.0082931999999987,-0.0104351999999999,-0.0005727999999996,-0.0005135999999991,-0.0088999999999998,0,sub_14
-0.0219172000000001,-0.0095419999999987,-0.0091511999999999,0.0062962000000003,-0.0015617999999991,-0.0191055999999998,0,sub_14
-0.0185370000000001,-0.0102311999999987,-0.0070551999999999,0.0118660000000003,-0.0038957999999991,-0.0263275999999998,0,sub_14
-0.0183490000000001,-0.0096119999999987,-0.0070833999999999,0.0152568000000003,-0.0060277999999991,-0.0271311999999998,0,sub_14
-0.0192262000000001,-0.0077679999999987,-0.0077427999999999,0.0143570000000003,-0.0071043999999991,-0.0217703999999998,0,sub_14
-0.0203314000000001,-0.0057143999999987,-0.0083673999999999,0.0102442000000003,-0.0073319999999991,-0.0128011999999998,0,sub_14
-0.0217960000000001,-0.0043675999999987,-0.0075919999999999,0.0046292000000003,-0.0077741999999991,-0.0021329999999998,0,sub_14
-0.0242910000000001,-0.0041295999999987,-0.0080473999999999,-0.0020459999999996,-0.0069335999999991,0.0083124000000001,0,sub_14
-0.0262488000000001,-0.0044609999999987,-0.0089395999999999,-0.0099743999999996,-0.0060871999999991,0.0165882000000001,0,sub_14
-0.0287232000000001,-0.0053627999999987,-0.0104385999999999,-0.0161927999999996,-0.0073659999999991,0.0221010000000001,0,sub_14
-0.0311020000000001,-0.0047131999999987,-0.0120271999999999,-0.0191987999999996,-0.0086257999999991,0.0245950000000001,0,sub_14
-0.0334402000000001,-0.0034307999999987,-0.0141557999999999,-0.0189867999999996,-0.0088203999999991,0.0243326000000001,0,sub_14
-0.0343780000000001,-0.0018537999999987,-0.0156153999999999,-0.0164201999999996,-0.0098651999999991,0.0215240000000001,0,sub_14
-0.0349644000000001,-0.0007177999999987,-0.0157807999999999,-0.0125635999999996,-0.0106935999999991,0.0168014000000001,0,sub_14
-0.0344322000000001,-0.0002227999999987,-0.0153555999999999,-0.0091175999999996,-0.0095963999999991,0.0103644000000001,0,sub_14
-0.0329154000000001,-0.0016151999999987,-0.0143169999999999,-0.0048107999999996,-0.0085153999999991,0.0027018000000001,0,sub_14
-0.0303096000000001,-0.0043689999999987,-0.0124367999999999,-0.0013585999999996,-0.0072199999999991,-0.0045395999999998,0,sub_14
-0.0267490000000001,-0.0062425999999987,-0.0105247999999999,0.0010278000000003,-0.0040101999999991,-0.0100817999999998,0,sub_14
-0.0234508000000001,-0.0073697999999987,-0.0091945999999999,0.0029808000000003,-0.0022555999999991,-0.0139981999999998,0,sub_14
-0.0207980000000001,-0.0081731999999987,-0.0078063999999999,0.0047070000000003,-0.0009363999999991,-0.0153517999999998,0,sub_14
-0.0189644000000001,-0.0082783999999987,-0.0074785999999999,0.0038614000000003,0.0008058000000008,-0.0137329999999998,0,sub_14
-0.0194306000000001,-0.0080567999999987,-0.0075607999999999,0.0008658000000003,0.0014800000000008,-0.0095639999999998,0,sub_14
-0.0213504000000001,-0.0084671999999987,-0.0075521999999999,-0.0027823999999996,0.0004478000000008,-0.0043289999999998,0,sub_14
-0.0236228000000001,-0.0082277999999987,-0.0081015999999999,-0.0057915999999996,0.0006510000000008,0.0007772000000001,0,sub_14
-0.0258584000000001,-0.0076607999999987,-0.0093715999999999,-0.0073033999999996,0.0010644000000008,0.0052526000000001,0,sub_14
-0.0289400000000001,-0.0074731999999987,-0.0103951999999998,-0.0075321999999996,0.0004150000000008,0.0080294000000001,0,sub_14
-0.0309452000000001,-0.0065249999999987,-0.0119179999999998,-0.0068967999999996,-1.599999999910624e-05,0.0086752000000001,0,sub_14
-0.0323740000000001,-0.0057069999999987,-0.0137139999999999,-0.0060473999999996,0.0002350000000008,0.0077940000000001,0,sub_14
-0.0332040000000001,-0.0045535999999987,-0.0143399999999999,-0.0039149999999996,0.0002718000000008,0.0060676000000001,0,sub_14
-0.0336566000000001,-0.0039869999999987,-0.0143179999999999,-0.0022111999999996,-0.0007525999999991,0.0036988000000001,0,sub_14
-0.0325454000000001,-0.0040695999999987,-0.0139847999999999,-0.0013579999999996,-0.0011347999999991,0.0013230000000001,0,sub_14
-0.0308864000000001,-0.0044877999999987,-0.0131121999999999,-8.019999999967775e-05,-0.0017323999999991,-0.0008357999999998,0,sub_14
-0.0292336000000001,-0.0042637999999987,-0.0114461999999999,0.0022754000000003,-0.0025817999999991,-0.0035955999999998,0,sub_14
-0.0280720000000001,-0.0044849999999987,-0.0099565999999999,0.0035682000000003,-0.0025751999999991,-0.0063639999999998,0,sub_14
-0.0262766000000001,-0.0050605999999987,-0.0094979999999999,0.0042208000000003,-0.0017175999999991,-0.0082833999999998,0,sub_14
-0.0250814000000001,-0.0051513999999987,-0.0093875999999999,0.0035754000000003,-0.0010445999999991,-0.0082901999999998,0,sub_14
-0.0245382000000001,-0.0059175999999987,-0.0090821999999999,0.0018556000000003,-0.0003745999999991,-0.0065953999999998,0,sub_14
-0.0252808000000001,-0.0063141999999986,-0.0094681999999999,0.0001252000000003,-0.0001383999999991,-0.0029773999999998,0,sub_14
-0.0262546000000001,-0.0061567999999986,-0.0106401999999999,-0.0016159999999996,-0.0003359999999991,0.0025640000000001,0,sub_14
-0.0282376000000001,-0.0055589999999986,-0.0117787999999999,-0.0027197999999996,-0.0007505999999991,0.0085372000000001,0,sub_14
-0.0298312000000001,-0.0049757999999986,-0.0133801999999999,-0.0035973999999996,-0.0016177999999991,0.0130186000000001,0,sub_14
-0.0303360000000001,-0.0032453999999987,-0.0138715999999999,-0.0040279999999996,-0.0016197999999991,0.0138702000000001,0,sub_14
-0.0291122000000001,-0.0024267999999987,-0.0135543999999999,-0.0042251999999996,-0.0009679999999991,0.0108770000000001,0,sub_14
-0.0270272000000001,-0.0027539999999987,-0.0129701999999999,-0.0033303999999996,-5.519999999914621e-05,0.0042400000000001,0,sub_14
-0.0240114000000001,-0.0034367999999987,-0.0117997999999999,-0.0034899999999996,0.0017214000000008,-0.0043281999999998,0,sub_14
-0.0215266000000001,-0.0044505999999987,-0.0098189999999999,-0.0034351999999996,0.0032858000000008,-0.0133217999999998,0,sub_14
-0.0205220000000001,-0.0059105999999987,-0.0088537999999999,-0.0031833999999996,0.0037740000000008,-0.0197489999999998,0,sub_14
-0.0205048000000001,-0.0071719999999987,-0.0086361999999999,-0.0033793999999996,0.0040326000000008,-0.0216923999999998,0,sub_14
-0.0223672000000001,-0.0090931999999987,-0.0092325999999999,-0.0053131999999996,0.0040274000000008,-0.0187147999999998,0,sub_14
-0.0268240000000001,-0.0099519999999987,-0.0097039999999999,-0.0068461999999996,0.0027244000000008,-0.0112461999999998,0,sub_14
-0.0318980000000001,-0.0080201999999987,-0.0110875999999999,-0.0066835999999996,0.0016174000000008,-0.0009887999999998,0,sub_14
-0.0361808000000001,-0.0069091999999987,-0.0129547999999999,-0.0064959999999996,0.0018300000000008,0.0079752000000001,0,sub_14
-0.0386282000000001,-0.0062127999999987,-0.0145773999999999,-0.0060729999999996,0.0033346000000008,0.0133072000000001,0,sub_14
-0.0388540000000001,-0.0045871999999987,-0.0146733999999999,-0.0030663999999996,0.0050630000000008,0.0137432000000001,0,sub_14
-0.0349584000000001,-0.0019467999999987,-0.0136997999999999,0.0021094000000003,0.0087252000000008,0.0082100000000001,0,sub_14
-0.0292260000000001,-0.0020743999999987,-0.0135585999999999,0.0075186000000003,0.0126168000000008,-0.0015947999999998,0,sub_14
-0.0237356000000001,-0.0023451999999987,-0.0131881999999998,0.0107748000000003,0.0141404000000008,-0.0124697999999998,0,sub_14
-0.0192164000000001,-0.0021387999999987,-0.0125617999999998,0.0106056000000003,0.0133316000000008,-0.0231519999999998,0,sub_14
-0.0163982000000001,-0.0032973999999987,-0.0108067999999998,0.0074632000000003,0.0121282000000008,-0.0334361999999998,0,sub_14
-0.0161984000000001,-0.0064423999999987,-0.0105711999999998,0.0043158000000003,0.0107084000000008,-0.0428655999999998,0,sub_14
-0.0179078000000001,-0.0090927999999986,-0.0082631999999999,0.0026574000000003,0.0101280000000008,-0.0503629999999998,0,sub_14
-0.0213454000000001,-0.0110215999999986,-0.0070951999999999,0.0056844000000003,0.0116454000000008,-0.0537709999999998,0,sub_14
-0.0260510000000001,-0.0123593999999986,-0.0065491999999999,0.0116806000000003,0.0141972000000008,-0.0520321999999998,0,sub_14
-0.0302680000000001,-0.0120097999999986,-0.0081089999999999,0.0167718000000003,0.0162748000000008,-0.0432397999999998,0,sub_14
-0.0335602000000001,-0.0095751999999986,-0.0101597999999998,0.0169096000000003,0.0155702000000008,-0.0270009999999998,0,sub_14
-0.0359980000000001,-0.0067489999999987,-0.0127345999999998,0.0114774000000003,0.0140164000000008,-0.0067405999999998,0,sub_14
-0.0367822000000001,-0.0036151999999987,-0.0142237999999998,0.0017854000000003,0.0105806000000008,0.0124240000000001,0,sub_14
-0.0360418000000001,-0.0010621999999987,-0.0145403999999998,-0.0087419999999996,0.0067394000000008,0.0270968000000001,0,sub_14
-0.0351308000000001,0.0017100000000012,-0.0149051999999999,-0.0175201999999996,0.0037786000000008,0.0332350000000001,0,sub_14
