userAcceleration.x,userAcceleration.y,userAcceleration.z,rotationRate.x,rotationRate.y,rotationRate.z,label,subject
0.0018189999999998,0.0129748000000011,-0.0035123999999999,-0.0010395999999995,-0.0023641999999991,0.0011128,0,sub_6
0.0009703999999997,0.0134604000000011,-0.0048677999999999,-0.0006061999999995,-0.0006621999999991,0.0013274,0,sub_6
0.0010543999999997,0.0137648000000011,-0.0043987999999999,-0.0003841999999995,0.0016790000000008,0.0017532,0,sub_6
0.0018787999999997,0.0136896000000012,-0.0037595999999999,4.1600000000454296e-05,0.0038228000000008,0.001334,0,sub_6
0.0021029999999997,0.0135328000000012,-0.0027347999999999,-0.0003871999999995,0.0044832000000008,-0.0003709999999999,0,sub_6
0.0028611999999997,0.0129414000000012,-0.0021149999999999,-0.0014673999999995,0.0032258000000008,-0.0014371999999999,0,sub_6
0.0036867999999998,0.0118072000000012,-0.0017483999999999,-0.0023409999999995,0.0009008000000008,-0.0020733999999999,0,sub_6
0.0035593999999998,0.0109628000000012,-0.0026625999999999,-0.0029993999999995,-0.0009989999999991,-0.0027085999999999,0,sub_6
0.0028901999999998,0.0114434000000012,-0.0036961999999999,-0.0032213999999995,-0.0020669999999991,-0.0018541999999999,0,sub_6
0.0023381999999998,0.0119010000000012,-0.0043923999999999,-0.0019505999999995,-0.0016555999999991,0.000718,0,sub_6
0.0014499999999998,0.0128446000000011,-0.0042677999999999,-0.0004597999999995,3.420000000085108e-05,0.0030762,0,sub_6
-0.0001620000000001,0.0138928000000011,-0.0038719999999999,0.0010186000000004,0.0008826000000008,0.0043762,0,sub_6
-0.0002928000000001,0.0149180000000011,-0.0035083999999999,0.0020674000000004,0.0002446000000008,0.0048206,0,sub_6
0.0001147999999998,0.0150622000000011,-0.0030499999999999,0.0022772000000004,0.0011078000000008,0.003548,0,sub_6
0.0007467999999998,0.0143894000000011,-0.0023627999999999,0.0022754000000004,0.0013368000000008,0.0012064,0,sub_6
0.0019469999999998,0.0141972000000012,-0.0022175999999999,0.0020516000000004,-0.0001385999999991,-0.0009207999999999,0,sub_6
0.0034327999999998,0.0134274000000012,-0.0025443999999999,0.0012002000000004,-0.0011947999999991,-0.0024207999999999,0,sub_6
0.0041661999999998,0.0124490000000011,-0.0025221999999999,0.0003458000000004,-0.0016169999999991,-0.0026397999999999,0,sub_6
0.0038691999999998,0.0118944000000011,-0.0028415999999999,-0.0005221999999995,-0.0022429999999991,-0.0019975999999999,0,sub_6
0.0036943999999998,0.0124028000000011,-0.0033355999999998,-0.0011805999999995,-0.0032975999999991,-0.0009261999999999,0,sub_6
0.0031833999999998,0.0121340000000011,-0.0035589999999999,-0.0014093999999995,-0.0037145999999991,0.0001476,0,sub_6
0.0025209999999998,0.0124690000000011,-0.0036627999999999,-0.0014153999999995,-0.0024261999999991,0.0007932,0,sub_6
0.0015851999999998,0.0127684000000011,-0.0036327999999999,-0.0014145999999995,-0.0004951999999991,0.0005834,0,sub_6
0.0016069999999997,0.0127998000000011,-0.0028497999999999,-0.0009821999999995,0.0005696000000008,0.0003714,0,sub_6
0.0013833999999997,0.0126782000000011,-0.0021269999999999,-0.0007621999999995,0.0016360000000008,-5.559999999991672e-05,0,sub_6
0.0019733999999997,0.0127346000000011,-0.0020603999999999,-0.0007593999999995,0.0020630000000008,-0.0002697999999999,0,sub_6
0.0021931999999997,0.0125866000000011,-0.0019865999999999,-0.0014003999999995,0.0016400000000008,-0.0004873999999999,0,sub_6
0.0025749999999997,0.0126752000000012,-0.0018705999999999,-0.0018347999999995,0.0010170000000008,-0.0004877999999998,0,sub_6
0.0027481999999997,0.0124886000000012,-0.0015233999999999,-0.0016299999999995,0.0003908000000008,-0.0002701999999998,0,sub_6
0.0031995999999997,0.0121360000000012,-0.0021643999999999,-0.0020643999999995,-2.019999999916867e-05,-5.739999999989672e-05,0,sub_6
0.0022463999999997,0.0123510000000012,-0.0024937999999999,-0.0024957999999995,0.0002080000000008,0.0001546000000001,0,sub_6
0.0013995999999997,0.0127688000000012,-0.0023173999999999,-0.0020719999999995,0.0010716000000008,0.0005854000000001,0,sub_6
0.0010657999999997,0.0126556000000012,-0.0022257999999999,-0.0020719999999995,0.0014960000000008,0.001012,0,sub_6
0.0010695999999998,0.0129692000000012,-0.0023845999999998,-0.0020709999999995,0.0012846000000008,0.000585,0,sub_6
0.0008693999999997,0.0128638000000012,-0.0023337999999999,-0.0016383999999995,0.0017126000000008,-0.0002671999999998,0,sub_6
0.0015615999999997,0.0123520000000011,-0.0030381999999999,-0.0014145999999995,0.0029946000000008,-0.0013355999999998,0,sub_6
0.0029625999999997,0.0114170000000011,-0.0031939999999999,-0.0014075999999995,0.0040734000000008,-0.0021903999999998,0,sub_6
0.0033813999999997,0.0111388000000011,-0.0032747999999999,-0.0007643999999995,0.0047222000000008,-0.0026127999999998,0,sub_6
0.0033239999999997,0.0108252000000011,-0.0039919999999999,-0.0005565999999995,0.0045160000000008,-0.0019691999999998,0,sub_6
0.0029851999999998,0.0114230000000011,-0.0036427999999999,-0.0007793999999995,0.0040958000000008,-0.0006871999999998,0,sub_6
0.0020991999999998,0.0116744000000012,-0.0025801999999999,-0.0005723999999995,0.0038886000000008,0.0001702000000001,0,sub_6
0.0011301999999998,0.0120624000000012,-0.0022755999999999,-0.0003647999999995,0.0028218000000008,0.0003868,0,sub_6
0.0012883999999998,0.0122234000000012,-0.0021579999999999,-0.0003693999999994,0.0015502000000008,0.000387,0,sub_6
0.0014745999999997,0.0121436000000012,-0.0023457999999999,-0.0005807999999994,0.0013464000000008,-4.279999999991676e-05,0,sub_6
0.0020597999999997,0.0112750000000011,-0.0027999999999999,-0.0001549999999994,0.0002890000000008,-0.0006807999999999,0,sub_6
0.0029829999999997,0.0107774000000011,-0.0031435999999999,-0.0001635999999995,-0.0014101999999991,-0.0002525999999999,0,sub_6
0.0028791999999997,0.0111378000000011,-0.0032983999999999,-0.0001683999999995,-0.0018329999999991,0.0006012,0,sub_6
0.0024429999999997,0.0108678000000011,-0.0035477999999999,-0.0001683999999995,-0.0018329999999991,0.0006012,0,sub_6
0.0023079999999997,0.0112928000000011,-0.0029693999999999,0.0006832000000004,-0.0022619999999991,0.0006078,0,sub_6
0.0020091999999998,0.0116478000000011,-0.0032573999999999,0.0009014000000004,-0.0014097999999991,0.0003946,0,sub_6
0.0019283999999998,0.0116530000000011,-0.0031587999999999,0.0009024000000004,-0.0014089999999991,0.0001808,0,sub_6
0.0027903999999998,0.0114564000000011,-0.0031197999999999,0.0011106000000004,-0.0024685999999991,0.0001826,0,sub_6
0.0028407999999998,0.0111782000000011,-0.0028249999999999,0.0011034000000004,-0.0028925999999991,0.0012504,0,sub_6
0.0024519999999998,0.0108108000000011,-0.0029829999999999,0.0004608000000004,-0.0024613999999991,0.002099,0,sub_6
0.0023307999999998,0.0109132000000011,-0.0028575999999999,-0.0004007999999995,-0.0030953999999991,0.0031612,0,sub_6
0.0019117999999998,0.0117202000000011,-0.0027787999999999,-0.0003983999999995,-0.0024499999999991,0.0031596,0,sub_6
0.0017529999999998,0.0113022000000011,-0.0030111999999999,-0.0003925999999995,-0.0011715999999991,0.003158,0,sub_6
0.0018405999999998,0.0115356000000012,-0.0032923999999999,-0.0001733999999995,-0.0007427999999991,0.0023044,0,sub_6
0.0025479999999998,0.0115596000000012,-0.0033885999999999,0.0004716000000004,-0.0007407999999991,0.0012408,0,sub_6
0.0025861999999998,0.0116274000000012,-0.0030755999999999,0.0015478000000004,-0.0005227999999991,-3.4199999999916846e-05,0,sub_6
0.0022707999999998,0.0111856000000012,-0.0030493999999999,0.0021914000000004,-0.0009449999999991,-0.0006705999999999,0,sub_6
0.0020737999999998,0.0117630000000012,-0.0035093999999999,0.0024112000000004,-0.0013631999999991,-0.0019507999999999,0,sub_6
0.0021943999999998,0.0123050000000012,-0.0040687999999999,0.0024176000000004,-0.0007195999999991,-0.0021655999999999,0,sub_6
0.0020123999999998,0.0120982000000012,-0.0040517999999999,0.0015676000000004,-0.0002877999999991,-0.0019589999999999,0,sub_6
0.0024653999999998,0.0118444000000012,-0.0040893999999999,0.0011388000000004,-7.579999999916859e-05,-0.0013213999999999,0,sub_6
0.0031425999999998,0.0115112000000012,-0.0050749999999999,0.0007130000000004,0.0007754000000008,-0.0006843999999999,0,sub_6
0.0030283999999997,0.0109176000000012,-0.0050649999999999,6.52000000004743e-05,0.0003464000000008,0.0005936,0,sub_6
0.0025779999999997,0.0110576000000012,-0.0039381999999999,-0.0001463999999995,0.0001300000000008,0.0012336,0,sub_6
0.0015585999999997,0.0118112000000012,-0.0035235999999999,-0.0001387999999995,0.0003424000000008,0.00102,0,sub_6
0.0005195999999997,0.0124594000000012,-0.0034537999999999,7.640000000047431e-05,-0.0009365999999991,0.0005962,0,sub_6
5.799999999786792e-06,0.0128420000000012,-0.0030441999999999,-0.0005599999999995,-0.0024229999999991,-0.0004743999999999,0,sub_6
5.739999999980682e-05,0.0130984000000012,-0.0027173999999999,-0.0007553999999995,-0.0007151999999991,-0.0015459999999998,0,sub_6
0.0008819999999998,0.0129070000000012,-0.0026565999999999,-0.0005257999999995,0.0022692000000008,-0.0021891999999998,0,sub_6
0.0018027999999998,0.0123392000000012,-0.0028735999999999,-0.0005247999999994,0.0031188000000008,-0.0015493999999998,0,sub_6
0.0028041999999998,0.0117888000000012,-0.0028403999999999,-0.0011619999999994,0.0043968000000008,-0.0009145999999998,0,sub_6
0.0029915999999998,0.0116318000000012,-0.0025953999999999,-0.0007291999999995,0.0054504000000008,-5.6999999999896855e-05,0,sub_6
0.0024305999999998,0.0119876000000012,-0.0019533999999999,-8.379999999950572e-05,0.0060780000000008,0.000589,0,sub_6
0.0012677999999998,0.0123976000000012,-0.0022743999999998,-9.49999999995057e-05,0.0030860000000008,0.0012352,0,sub_6
0.0007691999999998,0.0126130000000011,-0.0023863999999999,0.0001120000000004,0.0005218000000008,0.0012414,0,sub_6
-2.020000000017326e-05,0.0122730000000011,-0.0026163999999998,0.0007602000000004,-0.0001211999999991,-3.3799999999917053e-05,0,sub_6
0.0003093999999998,0.0122214000000011,-0.0023227999999998,0.0014052000000004,-0.0003313999999991,-0.0013107999999999,0,sub_6
0.0010081999999998,0.0119222000000011,-0.0023359999999999,0.0013994000000004,-0.0022461999999991,-0.0019491999999999,0,sub_6
0.0016839999999998,0.0108676000000011,-0.0021641999999999,0.0009688000000004,-0.0037333999999991,-0.0025913999999999,0,sub_6
0.0024925999999998,0.0105462000000011,-0.0022095999999999,0.0007600000000004,-0.0033079999999991,-0.0025933999999999,0,sub_6
0.0032301999999998,0.0106420000000011,-0.0024091999999999,0.0005464000000004,-0.0026747999999991,-0.0013137999999999,0,sub_6
0.0029123999999998,0.0105480000000011,-0.0030247999999999,0.0001224000000004,-0.0022505999999991,-0.0008899999999998,0,sub_6
0.0030215999999998,0.0103216000000011,-0.0031141999999999,0.0009852000000004,-0.0018247999999991,-0.0019527999999998,0,sub_6
0.0022425999999998,0.0113786000000011,-0.0033911999999999,0.0020606000000004,-0.0016129999999991,-0.0030137999999998,0,sub_6
0.0011851999999998,0.0118874000000011,-0.0035585999999999,0.0024930000000004,-0.0020337999999991,-0.0047193999999998,0,sub_6
0.0006403999999998,0.0125170000000011,-0.0030627999999999,0.0018586000000004,-0.0022385999999991,-0.0062191999999998,0,sub_6
0.0010151999999998,0.0126090000000011,-0.0025125999999999,0.0016418000000004,-0.0026629999999991,-0.0057963999999999,0,sub_6
0.0008731999999998,0.0124884000000011,-0.0032373999999999,0.0003526000000004,-0.0020277999999991,-0.0030321999999999,0,sub_6
0.0010081999999998,0.0119058000000012,-0.0038769999999999,-0.0013587999999995,-0.0005379999999991,-0.0004855999999999,0,sub_6
0.0009427999999998,0.0116578000000012,-0.0037401999999999,-0.0028595999999994,0.0007362000000008,0.00249,0,sub_6
0.0007161999999998,0.0113824000000012,-0.0039127999999999,-0.0028677999999995,0.0009434000000008,0.0046228,0,sub_6
0.0004821999999998,0.0117422000000012,-0.0038531999999999,-0.0028667999999994,0.0009444000000008,0.0044092,0,sub_6
0.0009757999999998,0.0118080000000012,-0.0031989999999999,-0.0026515999999994,-0.0009645999999991,0.002063,0,sub_6
0.0025471999999998,0.0115350000000012,-0.0029317999999999,-0.0013635999999994,-0.0015987999999991,-0.0002773999999999,0,sub_6
0.0040371999999998,0.0105186000000012,-0.0028141999999999,0.0003540000000004,-0.0007465999999991,-0.0017619999999999,0,sub_6
0.0042383999999998,0.0105520000000012,-0.0028183999999999,-7.839999999950595e-05,-0.0009585999999991,-0.0011247999999999,0,sub_6
0.0033475999999998,0.0100830000000012,-0.0030715999999999,-0.0015931999999995,-0.0026657999999991,0.0014296,0,sub_6
0.0022385999999998,0.0105686000000011,-0.0036235999999999,-0.0024591999999995,-0.0022453999999991,0.0041994,0,sub_6
0.0008367999999998,0.0110738000000011,-0.0033447999999999,-0.0035385999999995,-0.0026731999999991,0.0061142,0,sub_6
-3.140000000019325e-05,0.0123198000000011,-0.0025775999999999,-0.0048293999999995,-0.0050083999999991,0.0056798,0,sub_6
1.3999999998067424e-06,0.0118764000000011,-0.0023357999999999,-0.0035377999999995,-0.0052147999999991,0.0029116,0,sub_6
0.0013899999999998,0.0116624000000011,-0.0025443999999999,-0.0022393999999995,-0.0043543999999991,-0.0002851999999999,0,sub_6
0.0020631999999998,0.0109806000000012,-0.0023357999999999,-0.0009469999999995,-0.0024401999999991,-0.0011327999999999,0,sub_6
0.0020153999999998,0.0102264000000012,-0.0023711999999999,-0.0007233999999995,0.0001126000000008,-0.0009203999999999,0,sub_6
0.0013583999999998,0.0101570000000012,-0.0026427999999999,-0.0024297999999995,0.0009662000000008,-0.0002921999999999,0,sub_6
0.0014387999999998,0.0107952000000012,-0.0023061999999999,-0.0041533999999995,-0.0003175999999991,0.002048,0,sub_6
0.0007723999999998,0.0112300000000012,-0.0027065999999999,-0.0041517999999995,0.0018040000000008,0.0037548,0,sub_6
-0.0001208000000001,0.0117928000000012,-0.0024053999999999,-0.0045651999999995,0.0037272000000008,0.0026812,0,sub_6
-0.0001774000000001,0.0116606000000012,-0.0020829999999999,-0.0049909999999995,0.0024564000000008,0.0011844,0,sub_6
0.0011745999999997,0.0109678000000012,-0.0021737999999999,-0.0028523999999995,0.0037264000000008,0.0014114,0,sub_6
0.0010721999999997,0.0102510000000012,-0.0032797999999999,-0.0017659999999994,0.0075604000000008,0.0005614,0,sub_6
0.0007853999999997,0.0103286000000012,-0.0028025999999999,-0.0021941999999994,0.0071370000000008,0.0001336,0,sub_6
0.0012515999999997,0.0101902000000012,-0.0023049999999999,-0.0026493999999994,0.0024458000000008,0.0014202,0,sub_6
0.0024127999999997,0.0102746000000012,-0.0020837999999999,-0.0015927999999995,0.0011606000000008,0.002072,0,sub_6
0.0017601999999997,0.0101792000000012,-0.0029177999999999,-0.0011609999999995,0.0020132000000008,0.001435,0,sub_6
0.0021187999999998,0.0099596000000012,-0.0022537999999999,-0.0009543999999995,0.0005210000000008,0.0014384,0,sub_6
0.0022405999999998,0.0099284000000012,-0.0009633999999999,-0.0007419999999995,0.0005194000000008,0.0016536,0,sub_6
0.0019501999999998,0.0101158000000012,-0.0010605999999999,-0.0011599999999995,0.0020138000000008,0.0012214,0,sub_6
0.0011269999999998,0.0106176000000012,-0.0022013999999999,-0.0018067999999995,0.0003126000000008,0.0010054,0,sub_6
0.0004677999999998,0.0114470000000011,-0.0021369999999999,-0.0028871999999995,-0.0022359999999991,0.000795,0,sub_6
-2.9800000000193245e-05,0.0119880000000011,-0.0027663999999998,-0.0028833999999995,-0.0015899999999991,-5.279999999991758e-05,0,sub_6
0.0004521999999998,0.0116846000000011,-0.0041225999999998,-0.0026633999999994,-0.0003057999999991,-0.0008997999999999,0,sub_6
0.0016403999999998,0.0110390000000011,-0.0047477999999998,-0.0015947999999995,-8.959999999916778e-05,-0.0017395999999999,0,sub_6
0.0017371999999998,0.0110212000000011,-0.0048465999999999,-0.0011603999999995,0.0024680000000008,-0.0015185999999999,0,sub_6
0.0019779999999998,0.0111212000000011,-0.0042045999999999,-0.0013631999999995,0.0048122000000008,-0.0015229999999999,0,sub_6
0.0025291999999997,0.0112626000000011,-0.0032907999999999,-0.0013727999999995,0.0033182000000008,-0.0008801999999999,0,sub_6
0.0015061999999997,0.0108210000000011,-0.0031203999999999,-0.0011661999999995,0.0024628000000008,-0.0002367999999999,0,sub_6
0.0001923999999997,0.0110178000000011,-0.0037685999999999,-0.0018025999999995,0.0026830000000008,-0.0004529999999999,0,sub_6
8.299999999976679e-05,0.0111640000000011,-0.0027529999999999,-0.0011559999999995,0.0029014000000008,-0.0013011999999999,0,sub_6
0.0006685999999997,0.0106574000000012,-0.0028441999999999,-9.019999999950576e-05,0.0018384000000008,-0.0017175999999999,0,sub_6
0.0007339999999997,0.0105010000000012,-0.0029213999999999,-9.219999999950576e-05,0.0007782000000008,-0.0019277999999999,0,sub_6
0.0012635999999997,0.0101642000000012,-0.0031455999999999,-0.0018127999999995,-0.0017717999999991,-0.0010797999999999,0,sub_6
0.0017547999999997,0.0097776000000012,-0.0026445999999999,-0.0024643999999995,-0.0022041999999991,0.0010526,0,sub_6
0.0012585999999998,0.0094022000000012,-0.0028193999999999,-0.0035283999999995,-0.0007125999999991,0.0018978,0,sub_6
0.0006067999999998,0.0097348000000012,-0.0026109999999999,-0.0041537999999994,0.0012132000000008,0.0021028,0,sub_6
0.0001203999999998,0.0104306000000012,-0.0025241999999999,-0.0032855999999994,0.0031340000000008,0.0023182,0,sub_6
-0.0001266000000001,0.0109786000000011,-0.0024649999999999,-0.0013417999999995,0.0050586000000008,0.0006184,0,sub_6
0.0003249999999998,0.0115388000000011,-0.0029243999999999,-0.0006801999999995,0.0052884000000008,-0.0023699999999999,0,sub_6
0.0015331999999998,0.0106920000000011,-0.0034235999999999,-0.0008873999999995,0.0040222000000008,-0.0034397999999999,0,sub_6
0.0016085999999998,0.0107590000000011,-0.0030377999999999,0.0001738000000004,0.0035890000000008,-0.0025771999999999,0,sub_6
0.0019045999999998,0.0097944000000011,-0.0038753999999999,-0.0017531999999995,0.0018920000000008,-0.0028019999999999,0,sub_6
0.0018933999999997,0.0110002000000012,-0.0030265999999999,-0.0015541999999995,0.0001810000000008,-0.0013029999999999,0,sub_6
0.0012095999999998,0.0106960000000012,-0.0026359999999999,-0.0007063999999995,0.0005974000000008,0.0004116,0,sub_6
0.0002303999999998,0.0114672000000012,-0.0019563999999999,-0.0002741999999995,-0.0002587999999991,0.000838,0,sub_6
0.0001433999999998,0.0108686000000012,-0.0029217999999999,-0.0004859999999995,-0.0032379999999991,-1.919999999991798e-05,0,sub_6
-0.0002700000000001,0.0112004000000012,-0.0025681999999999,0.0016686000000004,-0.0019643999999991,-0.0008653999999999,0,sub_6
-0.0001370000000001,0.0100254000000012,-0.0034033999999999,0.0019152000000004,0.0010246000000008,-0.0027951999999999,0,sub_6
0.0005797999999998,0.0104370000000012,-0.0030325999999999,0.0023666000000004,0.0027318000000008,-0.0040811999999999,0,sub_6
0.0011163999999998,0.0107656000000012,-0.0032277999999999,0.0034346000000004,0.0029412000000008,-0.0040739999999999,0,sub_6
0.0018527999999998,0.0106592000000012,-0.0029463999999999,0.0030118000000004,0.0037948000000008,-0.0040779999999998,0,sub_6
0.0017003999999998,0.0101014000000012,-0.0027301999999998,0.0012980000000004,0.0027338000000008,-0.0036613999999998,0,sub_6
0.0014029999999998,0.0101046000000011,-0.0024381999999998,0.0006568000000004,0.0001756000000008,-0.0034545999999998,0,sub_6
0.0009469999999998,0.0103722000000011,-0.0023633999999999,-0.0001949999999995,-0.0015303999999991,-0.0030365999999998,0,sub_6
0.0006763999999998,0.0100574000000011,-0.0022207999999999,-0.0012477999999995,-0.0013147999999991,-0.0034769999999998,0,sub_6
0.0006975999999997,0.0103534000000011,-0.0024181999999999,-0.0014529999999995,-0.0015317999999991,-0.0030563999999998,0,sub_6
0.0015847999999997,0.0111076000000011,-0.0028223999999999,-0.0005823999999995,0.0001650000000008,-0.0026305999999998,0,sub_6
0.0019185999999997,0.0108408000000011,-0.0023841999999999,-0.0005775999999995,0.0027156000000008,-0.0011381999999998,0,sub_6
0.0007831999999997,0.0106318000000011,-0.0022911999999999,-0.0018683999999995,0.0003764000000008,-0.0011441999999998,0,sub_6
0.0004185999999997,0.0107296000000011,-0.0029517999999999,-0.0018739999999994,-0.0030395999999991,-0.0009277999999998,0,sub_6
-0.0008574000000001,0.0108512000000011,-0.0034393999999999,-0.0016421999999994,-0.0024031999999991,-0.0019969999999998,0,sub_6
-0.0013786000000001,0.0102120000000011,-0.0035793999999999,-0.0016257999999994,-0.0030409999999991,-0.0039205999999998,0,sub_6
-0.0007810000000001,0.0107366000000011,-0.0031189999999999,0.0003186000000004,-0.0030419999999991,-0.0068997999999998,0,sub_6
0.0004073999999998,0.0106766000000011,-0.0037477999999999,0.0039844000000004,0.0007834000000008,-0.0092307999999998,0,sub_6
0.0012083999999998,0.0105554000000011,-0.0034593999999999,0.0048646000000004,0.0048360000000008,-0.0111527999999998,0,sub_6
0.0026233999999998,0.0099856000000011,-0.0035111999999999,0.0063678000000004,0.0067492000000008,-0.0113583999999999,0,sub_6
0.0030541999999998,0.0105162000000011,-0.0027265999999999,0.0078652000000004,0.0086572000000008,-0.0102821999999999,0,sub_6
0.0030479999999998,0.0105194000000012,-0.0031315999999999,0.0070174000000004,0.0116360000000008,-0.0085827999999999,0,sub_6
0.0030295999999997,0.0098964000000012,-0.0026887999999999,0.0059522000000004,0.0124736000000008,-0.0056013999999999,0,sub_6
0.0029219999999997,0.0098542000000012,-0.0032519999999998,0.0053062000000004,0.0103320000000008,-0.0038949999999999,0,sub_6
0.0035849999999997,0.0109186000000012,-0.0036045999999998,0.0046706000000004,0.0107462000000008,-0.0019781999999999,0,sub_6
0.0027527999999997,0.0101600000000012,-0.0044809999999999,0.0036160000000004,0.0124420000000008,-0.0004931999999999,0,sub_6
0.0027571999999997,0.0106006000000012,-0.0042521999999999,0.0014686000000004,0.0073280000000008,-7.539999999991789e-05,0,sub_6
0.0043569999999998,0.0116388000000012,-0.0037981999999999,-0.0002661999999995,0.0026408000000008,0.001414,0,sub_6
0.0035857999999998,0.0106858000000012,-0.0040073999999999,-0.0006919999999995,0.0051896000000008,0.0037578,0,sub_6
0.0031291999999998,0.0099018000000012,-0.0036337999999999,-0.0026163999999995,0.0024178000000008,0.0039634,0,sub_6
0.0049201999999998,0.0106006000000012,-0.0026879999999999,-0.0045399999999995,0.0015566000000008,0.0058756,0,sub_6
0.0033017999999998,0.0101224000000012,-0.0032649999999998,-0.0045267999999995,0.0064328000000008,0.0099304,0,sub_6
0.0009413999999998,0.0094832000000012,-0.0039057999999998,-0.0072971999999995,0.0070660000000008,0.0118348,0,sub_6
0.0017495999999998,0.0107334000000012,-0.0028609999999998,-0.0090187999999995,0.0047086000000008,0.0148186,0,sub_6
0.0001217999999998,0.0103950000000012,-0.0019405999999998,-0.0094503999999995,0.0074644000000008,0.0186576,0,sub_6
-0.0016632000000001,0.0099090000000012,-0.0021749999999999,-0.0107535999999995,0.0051142000000008,0.0214288,0,sub_6
-0.0016082000000001,0.0096232000000012,-0.0024049999999999,-0.0124855999999995,-0.0002071999999991,0.0216372,0,sub_6
-0.0026346000000001,0.0102042000000012,-0.0027911999999999,-0.0107737999999995,-0.0023401999999991,0.0190952,0,sub_6
-0.0040160000000001,0.0106800000000012,-0.0036287999999999,-0.0079703999999995,-0.0025449999999991,0.0129264,0,sub_6
-0.0031450000000001,0.0116404000000012,-0.0045853999999999,-0.0041029999999995,-0.0044535999999991,0.005699,0,sub_6
-0.0032642000000001,0.0119812000000012,-0.0042711999999999,0.0012744000000004,-0.0033821999999991,-0.0021625999999999,0,sub_6
-0.0029750000000001,0.0118508000000012,-0.0039309999999999,0.0057916000000004,-0.0016769999999991,-0.0078945999999999,0,sub_6
-0.0016444000000001,0.0110080000000012,-0.0035431999999999,0.0073072000000004,0.0017326000000008,-0.0093837999999999,0,sub_6
0.0001975999999998,0.0101662000000012,-0.0029287999999999,0.0056012000000004,0.0040736000000008,-0.0072621999999999,0,sub_6
0.0013119999999997,0.0090856000000012,-0.0024579999999999,0.0026064000000004,0.0061992000000008,-0.0034401999999999,0,sub_6
0.0029055999999997,0.0083068000000011,-0.0034749999999999,-0.0012505999999994,0.0072592000000008,0.0012318,0,sub_6
0.0044137999999997,0.0082800000000011,-0.0037421999999999,-0.0038149999999994,0.0081068000000008,0.0037878,0,sub_6
0.0040385999999997,0.0090422000000011,-0.0031301999999999,-0.0042409999999994,0.0085268000000008,0.0048636,0,sub_6
0.0025659999999997,0.0097604000000011,-0.0025875999999999,-0.0038173999999995,0.0061818000000008,0.004026,0,sub_6
0.0005703999999998,0.0101926000000011,-0.0023783999999999,-0.0033965999999995,0.0019244000000008,0.001909,0,sub_6
-0.0012206000000001,0.0107936000000012,-0.0026325999999998,-0.0025395999999995,-0.0008405999999991,-0.0008477999999999,0,sub_6
