userAcceleration.x,userAcceleration.y,userAcceleration.z,rotationRate.x,rotationRate.y,rotationRate.z,label,subject
-0.0042232000000002,-0.0191387999999987,0.020181,-0.0091341999999995,-0.007360599999999,-0.0106795999999998,0,sub_19
-0.0036146000000002,-0.0195749999999987,0.0212206,-0.0095291999999995,-0.010110399999999,-0.0108839999999998,0,sub_19
-0.0029584000000002,-0.0205483999999987,0.0219494,-0.0090667999999995,-0.012223199999999,-0.0112967999999998,0,sub_19
-0.0026582000000002,-0.0213347999999987,0.0217234,-0.0077941999999995,-0.013507599999999,-0.0108589999999998,0,sub_19
-0.0025068000000002,-0.0212907999999987,0.0222346,-0.0056643999999995,-0.013306199999999,-0.0097761999999999,0,sub_19
-0.0020944000000002,-0.0220223999999987,0.0219782,-0.0035181999999995,-0.011827999999999,-0.0084865999999999,0,sub_19
-0.0026832000000002,-0.0223441999999987,0.0223458,-0.0022197999999995,-0.008856199999999,-0.0069911999999998,0,sub_19
-0.0027772000000002,-0.0223157999999987,0.0224426,-0.0004917999999995,-0.004822199999999,-0.0050669999999998,0,sub_19
-0.0030030000000002,-0.0223503999999987,0.0224908,0.0016610000000004,-0.001003799999999,-0.0029255999999998,0,sub_19
-0.0031946000000002,-0.0227897999999987,0.0220782,0.0040214000000004,0.0017478000000009,-0.0005679999999998,0,sub_19
-0.0036820000000002,-0.0228893999999987,0.0225128,0.0067932000000004,0.0038584000000009,0.0020124000000001,0,sub_19
-0.0040258000000002,-0.0226259999999987,0.021614,0.0093526000000004,0.0061828000000009,0.004591,0,sub_19
-0.0042714000000002,-0.0222703999999987,0.021619,0.0116996000000004,0.0082966000000008,0.0067412,0,sub_19
-0.0047242000000002,-0.0215273999999987,0.0219862,0.0134244000000004,0.0104388000000008,0.0082512,0,sub_19
-0.0046716000000002,-0.0211707999999987,0.0217726,0.0142976000000004,0.0123736000000008,0.0091146,0,sub_19
-0.0044536000000002,-0.0199607999999987,0.0213496,0.0149576000000004,0.0134604000000008,0.009123,0,sub_19
-0.0043666000000002,-0.0191183999999987,0.0213132,0.0149782000000004,0.0141258000000008,0.0084866,0,sub_19
-0.0045478000000002,-0.0183139999999987,0.0212364,0.0137148000000004,0.0135190000000008,0.0074156,0,sub_19
-0.0042108000000002,-0.0184837999999987,0.0211636,0.0124346000000004,0.0122504000000008,0.0061264,0,sub_19
-0.0044102000000002,-0.0179477999999987,0.0212014,0.0117956000000004,0.0114046000000008,0.0050548,0,sub_19
-0.0045510000000002,-0.0183715999999987,0.0208874,0.0103076000000003,0.0109904000000009,0.0033358,0,sub_19
-0.0048676000000002,-0.0184317999999987,0.0212644,0.0088180000000004,0.0105746000000009,0.002044,0,sub_19
-0.0047502000000001,-0.0192815999999987,0.0213088,0.0075532000000004,0.0110356000000009,0.0003246,0,sub_19
-0.0040836000000001,-0.0199295999999987,0.021442,0.0058568000000004,0.0110694000000009,-0.0007561999999999,0,sub_19
-0.0041184000000001,-0.0206683999999987,0.022002,0.0047996000000003,0.0108880000000009,-0.0018321999999999,0,sub_19
-0.0036146000000001,-0.0206467999999987,0.0231186,0.0043788000000004,0.0111254000000009,-0.0016225999999998,0,sub_19
-0.0034490000000001,-0.0213209999999987,0.0231864,0.0056648000000004,0.0113568000000009,-0.0014009999999998,0,sub_19
-0.0036412000000001,-0.0214177999999987,0.0231374,0.0075832000000004,0.0119850000000009,-0.0003201999999998,0,sub_19
-0.0041826000000001,-0.0216925999999987,0.0228502,0.0103570000000004,0.0132486000000009,0.0009794000000001,0,sub_19
-0.0038316000000001,-0.0211699999999987,0.0227568,0.0122756000000004,0.0145238000000009,0.0022694000000001,0,sub_19
-0.0042930000000001,-0.0215547999999987,0.0221184,0.0141970000000004,0.0162260000000009,0.0033452,0,sub_19
-0.0041108000000001,-0.0213783999999987,0.0219364,0.0152592000000004,0.0168650000000009,0.00463,0,sub_19
-0.0040870000000001,-0.0214517999999987,0.0221168,0.0156824000000004,0.0175072000000009,0.0056968,0,sub_19
-0.0044616000000001,-0.0204397999999987,0.0219534,0.0161084000000004,0.0185762000000008,0.0065492,0,sub_19
-0.0045122000000001,-0.0204217999999987,0.0216298,0.0163218000000003,0.0194244000000008,0.0074042,0,sub_19
-0.0042380000000002,-0.0202675999999987,0.0213788,0.0158922000000003,0.0192112000000008,0.0078288,0,sub_19
-0.0039260000000002,-0.0202537999999987,0.0207412,0.0150406000000003,0.0194282000000008,0.007609,0,sub_19
-0.0036358000000002,-0.0195761999999987,0.0202864,0.0139718000000004,0.0187936000000008,0.0073886,0,sub_19
-0.0029222000000002,-0.0196637999999987,0.0205668,0.0129160000000004,0.0181866000000008,0.0065434,0,sub_19
-0.0029228000000002,-0.0197627999999987,0.0209234,0.0124992000000004,0.0171520000000008,0.0054894,0,sub_19
-0.0032206000000001,-0.0194925999999987,0.0208066,0.0122940000000004,0.0163272000000008,0.0050776,0,sub_19
-0.0036876000000001,-0.0192301999999987,0.0218618,0.0116640000000004,0.0157178000000008,0.004449,0,sub_19
-0.0039788000000001,-0.0195753999999987,0.0223382,0.0118882000000004,0.0153184000000008,0.003826,0,sub_19
-0.0039452000000001,-0.0205795999999987,0.0226472,0.0110308000000004,0.0140448000000008,0.0033944,0,sub_19
-0.0040114000000001,-0.0214267999999987,0.0227512,0.0095382000000004,0.0140510000000008,0.0031704,0,sub_19
-0.0039964000000001,-0.0219721999999987,0.0232108,0.0086894000000004,0.0146948000000008,0.0027364,0,sub_19
-0.0037720000000002,-0.0216597999999987,0.0227906,0.0091050000000004,0.0149106000000008,0.0027422,0,sub_19
-0.0039316000000002,-0.0215675999999987,0.0225018,0.0086682000000004,0.0153426000000008,0.002742,0,sub_19
-0.0045222000000002,-0.0206529999999987,0.0222448,0.0090810000000004,0.0149194000000008,0.0027486,0,sub_19
-0.0038412000000001,-0.0206637999999987,0.0221764,0.0099166000000004,0.0134302000000008,0.002546,0,sub_19
-0.0031660000000001,-0.0201711999999987,0.0217832,0.0096856000000004,0.0117326000000008,0.0021226,0,sub_19
-0.0025160000000001,-0.0209201999999987,0.0214764,0.0079748000000004,0.0106742000000008,0.0018984,0,sub_19
-0.0020008000000001,-0.0215189999999987,0.0211958,0.0060478000000004,0.0091896000000009,0.0018868,0,sub_19
-0.0013054000000001,-0.0222151999999987,0.0204648,0.0032702000000004,0.0083470000000009,0.0018686,0,sub_19
-0.0017902000000001,-0.0219691999999987,0.01949,0.0002460000000004,0.0072682000000009,0.0020556,0,sub_19
-0.0013814000000001,-0.0217753999999987,0.0187388,-0.0019267999999995,0.0055482000000009,0.0020358,0,sub_19
-0.0016768000000001,-0.0215207999999987,0.0182836,-0.0028249999999995,0.0023332000000009,0.0018132,0,sub_19
-0.0016536000000002,-0.0212533999999987,0.017736,-0.0026553999999995,-0.000884599999999,0.0013844,0,sub_19
-0.0023006000000002,-0.0211121999999987,0.0184904,-0.0018465999999995,-0.003893199999999,0.001387,0,sub_19
-0.0028864000000002,-0.0210121999999987,0.0194218,-0.0007873999999995,-0.005601199999999,0.0013966,0,sub_19
-0.0047260000000002,-0.0211593999999987,0.0210232,-0.0001511999999995,-0.006455599999999,0.0014022,0,sub_19
-0.0063472000000002,-0.0214869999999987,0.0232372,-0.0001813999999995,-0.0045801999999991,0.0007518,0,sub_19
-0.0070732000000002,-0.0212793999999987,0.0244526,-0.0019175999999995,-0.0024857999999991,8.920000000005746e-05,0,sub_19
-0.0070838000000002,-0.0211213999999987,0.0246882,-0.0032261999999995,-0.0008163999999991,-0.0012107999999999,0,sub_19
-0.0066284000000001,-0.0208507999999987,0.0250486,-0.0041089999999995,0.0006384000000008,-0.0025073999999999,0,sub_19
-0.0049620000000001,-0.0206757999999987,0.0240312,-0.0049973999999995,0.0014516000000008,-0.0031623999999999,0,sub_19
-0.0035332000000001,-0.0204685999999987,0.022112,-0.0052183999999995,-3.979999999911095e-05,-0.0029483999999999,0,sub_19
-0.0029400000000001,-0.0205397999999987,0.0217248,-0.0043773999999995,-0.0021757999999991,-0.0022987999999999,0,sub_19
-0.0024850000000001,-0.0208765999999987,0.0218546,-0.0031085999999995,-0.0034637999999991,-0.0010063999999999,0,sub_19
-0.0023578000000001,-0.0213025999999987,0.0219984,-0.0020521999999995,-0.0043257999999991,0.0004976,0,sub_19
-0.0035060000000001,-0.0220047999999987,0.0227476,-0.0006241999999995,-0.004830399999999,0.0013444,0,sub_19
-0.0044320000000001,-0.0224009999999987,0.0237566,-4.119999999957825e-05,-0.0038389999999991,0.001756,0,sub_19
-0.0050158000000001,-0.0225765999999987,0.0243306,0.0007592000000004,-0.0019961999999991,0.002168,0,sub_19
-0.0052218000000001,-0.0220591999999987,0.023698,0.0009222000000004,6.380000000088901e-05,0.002148,0,sub_19
-0.0048358000000001,-0.0214935999999987,0.0228628,0.0008670000000004,0.0010592000000008,0.0021278,0,sub_19
-0.0042370000000001,-0.0212297999999987,0.0223836,0.0008708000000004,0.0019114000000008,0.0021266,0,sub_19
-0.0035060000000001,-0.0208111999999987,0.0217042,0.0017224000000004,0.0019068000000008,0.00256,0,sub_19
-0.0025358000000001,-0.0204343999999987,0.021154,0.0025148000000003,0.0018238000000008,0.0021188,0,sub_19
-0.0025304000000001,-0.0204431999999987,0.0216924,0.0028806000000003,0.0017422000000008,0.0016746,0,sub_19
-0.0028140000000001,-0.0206821999999987,0.0215366,0.0034628000000003,0.0020870000000008,0.0010176,0,sub_19
-0.0030964000000001,-0.0205301999999987,0.0217504,0.0040410000000003,0.0017916000000008,0.0005752,0,sub_19
-0.0033210000000002,-0.0202835999999987,0.0226056,0.0037658000000004,0.0012870000000008,-8.67999999999025e-05,0,sub_19
-0.0043036000000002,-0.0206265999999987,0.0229562,0.0031238000000004,0.0006510000000008,-0.0003039999999999,0,sub_19
-0.0043184000000002,-0.0209731999999987,0.0221506,0.0014150000000004,1.880000000088905e-05,-0.0005287999999999,0,sub_19
-0.0037802000000002,-0.0210627999999987,0.0221966,-0.0009349999999995,-0.0012487999999991,-0.0011843999999999,0,sub_19
-0.0030138000000002,-0.0209413999999987,0.0215166,-0.0034973999999995,-0.002302399999999,-0.0018419999999999,0,sub_19
-0.0026500000000001,-0.0212351999999987,0.0203314,-0.0052609999999995,-0.003434799999999,-0.0022983999999999,0,sub_19
-0.0023006000000001,-0.0209869999999987,0.0197144,-0.0065977999999995,-0.004568799999999,-0.0027519999999999,0,sub_19
-0.0025124000000001,-0.0201447999999987,0.0200682,-0.0068687999999995,-0.006343999999999,-0.0036243999999999,0,sub_19
-0.0034492000000001,-0.0196973999999987,0.0204188,-0.0071455999999995,-0.008760799999999,-0.0038551999999999,0,sub_19
-0.0037560000000001,-0.0202955999999987,0.0205934,-0.0072069999999995,-0.010540199999999,-0.0038715999999999,0,sub_19
-0.0041434000000002,-0.0205139999999987,0.0212638,-0.0074279999999995,-0.012668399999999,-0.0042975999999999,0,sub_19
-0.0036232000000002,-0.0208899999999987,0.0215726,-0.0078605999999995,-0.014581799999999,-0.0049389999999999,0,sub_19
-0.0037316000000001,-0.0215959999999987,0.021639,-0.0089351999999995,-0.016070399999999,-0.0047309999999998,0,sub_19
-0.0043984000000001,-0.0212793999999987,0.0216176,-0.0096089999999995,-0.016539999999999,-0.0047489999999998,0,sub_19
-0.0051180000000001,-0.0208719999999987,0.0217124,-0.0102827999999995,-0.017221799999999,-0.0049801999999998,0,sub_19
-0.0046798000000001,-0.0206053999999987,0.0217608,-0.0109527999999995,-0.016838999999999,-0.0049991999999998,0,sub_19
-0.0049424000000001,-0.0208471999999987,0.0216698,-0.0111977999999995,-0.016671799999999,-0.0048013999999998,0,sub_19
-0.0043556000000002,-0.0211397999999987,0.0214706,-0.0101615999999995,-0.016295799999999,-0.0045947999999999,0,sub_19
-0.0034112000000001,-0.0225475999999987,0.0212162,-0.0095223999999995,-0.015874399999999,-0.0039497999999999,0,sub_19
-0.0028362000000001,-0.0231349999999987,0.0213542,-0.0090993999999995,-0.015666999999999,-0.0028789999999999,0,sub_19
-0.0024758000000001,-0.0230493999999987,0.0212764,-0.0089047999999995,-0.015908999999999,-0.0020299999999999,0,sub_19
-0.0028286000000001,-0.0227429999999987,0.0216048,-0.0084939999999995,-0.015512399999999,-0.0011801999999999,0,sub_19
-0.0031748000000001,-0.0223877999999987,0.0221482,-0.0078659999999995,-0.014264399999999,-0.0003299999999999,0,sub_19
-0.0035032000000001,-0.0217653999999987,0.0230996,-0.0057393999999995,-0.012168599999999,0.0003158,0,sub_19
-0.0036926000000001,-0.0211547999999987,0.0240754,-0.0042463999999995,-0.009215799999999,0.0003154,0,sub_19
-0.0040044000000001,-0.0206489999999987,0.024625,-0.0025317999999995,-0.006880599999999,0.0009654,0,sub_19
-0.0038954000000001,-0.0203221999999987,0.0245254,-0.0012427999999995,-0.004543199999999,0.0013988,0,sub_19
-0.0036434000000002,-0.0202357999999987,0.024058,-0.0014523999999995,-0.003265999999999,0.001823,0,sub_19
-0.0035314000000002,-0.0197087999999987,0.0234036,-0.0027431999999995,-0.002852399999999,0.002019,0,sub_19
-0.0034208000000002,-0.0193113999999987,0.0223902,-0.0031851999999995,-0.003506999999999,0.002222,0,sub_19
-0.0036392000000002,-0.0198239999999987,0.0222256,-0.0031927999999995,-0.003095399999999,0.0017858,0,sub_19
-0.0033094000000002,-0.0200121999999987,0.021896,-0.0034157999999995,-0.002896799999999,0.001562,0,sub_19
-0.0037536000000001,-0.0202381999999987,0.0219078,-0.0027851999999995,-0.002913399999999,0.001131,0,sub_19
-0.0037108000000001,-0.0206367999999987,0.021756,-0.0021439999999995,-0.003126999999999,0.0007084,0,sub_19
-0.0038926000000001,-0.0207829999999987,0.021767,-0.0017161999999995,-0.002915399999999,0.0007112,0,sub_19
-0.0040630000000001,-0.0207557999999987,0.0211104,-0.0021409999999995,-0.002699999999999,0.0004944,0,sub_19
-0.0044814000000001,-0.0206465999999987,0.0211108,-0.0021389999999995,-0.002910599999999,-0.0001461999999999,0,sub_19
-0.0046490000000001,-0.0202889999999987,0.0210188,-0.0027821999999995,-0.002912999999999,-0.0007949999999999,0,sub_19
-0.0045398000000002,-0.0200323999999987,0.0210614,-0.0032111999999995,-0.002915199999999,-0.0016559999999998,0,sub_19
-0.0038966000000002,-0.0197509999999987,0.0206844,-0.0027915999999995,-0.003985799999999,-0.0025095999999998,0,sub_19
-0.0039810000000001,-0.0193845999999987,0.0211562,-0.0027975999999995,-0.004629599999999,-0.0031529999999998,0,sub_19
-0.0037836000000001,-0.0189483999999987,0.0209872,-0.0034465999999995,-0.005485799999999,-0.0033733999999998,0,sub_19
-0.0036026000000001,-0.0190869999999987,0.0213818,-0.0040895999999995,-0.006122599999999,-0.0033771999999998,0,sub_19
-0.0034288000000001,-0.0193795999999987,0.0211424,-0.0045173999999995,-0.006334199999999,-0.0033797999999999,0,sub_19
-0.0036706000000001,-0.0204661999999987,0.0217346,-0.0057787999999995,-0.005878599999999,-0.0040233999999999,0,sub_19
-0.0029950000000001,-0.0213111999999987,0.0210224,-0.0064059999999995,-0.006066799999999,-0.0040207999999999,0,sub_19
-0.0029900000000001,-0.0221679999999987,0.02188,-0.0066055999999995,-0.005831399999999,-0.0038019999999999,0,sub_19
-0.0030660000000001,-0.0218915999999987,0.0221768,-0.0057363999999995,-0.005597999999999,-0.0040029999999998,0,sub_19
-0.0036824000000001,-0.0215403999999987,0.0226276,-0.0055081999999995,-0.004938799999999,-0.0035681999999998,0,sub_19
-0.0038934000000001,-0.0211055999999987,0.0227716,-0.0048691999999995,-0.004517399999999,-0.0029231999999998,0,sub_19
-0.0039862000000001,-0.0205279999999987,0.0229544,-0.0040195999999995,-0.004735999999999,-0.0022761999999998,0,sub_19
-0.0035216000000001,-0.0203499999999987,0.0221154,-0.0025277999999995,-0.004955199999999,-0.0020519999999998,0,sub_19
-0.0034380000000001,-0.0207139999999987,0.0216156,-0.0024979999999995,-0.004693799999999,-0.0018267999999998,0,sub_19
-0.0032360000000002,-0.0210105999999987,0.0212496,-0.0016185999999995,-0.005287599999999,-0.0015945999999999,0,sub_19
-0.0036876000000002,-0.0209839999999987,0.0210916,-0.0015897999999995,-0.005239199999999,-0.0013691999999998,0,sub_19
-0.0038694000000002,-0.0211157999999987,0.0207052,-0.0017695999999995,-0.004549199999999,-0.0015731999999998,0,sub_19
-0.0039406000000001,-0.0209895999999987,0.0210826,-0.0028021999999995,-0.003642999999999,-0.0017835999999998,0,sub_19
-0.0033786000000001,-0.0211173999999987,0.020587,-0.0023765999999995,-0.003432999999999,-0.0013535999999998,0,sub_19
-0.0033708000000001,-0.0213519999999987,0.0203128,-0.0021593999999995,-0.002793599999999,-0.0015665999999998,0,sub_19
-0.0033696000000001,-0.0217645999999987,0.020495,-0.0019451999999995,-0.001944599999999,-0.0009253999999998,0,sub_19
-0.0033650000000001,-0.0221519999999987,0.0214306,-0.0010897999999995,-0.000884799999999,-0.0002797999999999,0,sub_19
-0.0040948000000002,-0.0220475999999987,0.0212024,0.0004318000000004,6.200000000908604e-06,0.00059,0,sub_19
-0.0047742000000002,-0.0220319999999987,0.0217272,0.0015286000000004,0.0013248000000008,0.0014562,0,sub_19
-0.0045614000000002,-0.0217371999999987,0.022026,0.0024090000000004,0.0022172000000008,0.002535,0,sub_19
-0.0044684000000002,-0.0212529999999987,0.0216362,0.0041430000000004,0.0024700000000008,0.0029798,0,sub_19
-0.0046660000000002,-0.0206519999999987,0.0213142,0.0048110000000004,0.0027274000000008,0.0032034,0,sub_19
-0.0042492000000001,-0.0207929999999987,0.0216046,0.0043860000000003,0.0031550000000008,0.0031998,0,sub_19
-0.0036602000000001,-0.0201755999999987,0.0213324,0.0039620000000003,0.0033712000000008,0.0027692,0,sub_19
-0.0040162000000001,-0.0198711999999987,0.0211236,0.0029222000000003,0.0032038000000008,0.0019108,0,sub_19
-0.0040252000000001,-0.0196791999999987,0.0210492,0.0010270000000004,0.0028254000000009,0.0012602,0,sub_19
-0.0042018000000001,-0.0199271999999987,0.0208186,-0.0002309999999995,0.0020178000000009,0.0008282,0,sub_19
-0.0045184000000002,-0.0200365999999987,0.020488,-0.0008487999999995,0.0009958000000009,0.0001874,0,sub_19
-0.0050154000000002,-0.0204277999999987,0.0208008,-0.0016817999999995,-0.000451399999999,-0.0004543999999999,0,sub_19
-0.0045832000000002,-0.0205799999999987,0.0209654,-0.0021113999999995,-0.001513399999999,-0.0008833999999999,0,sub_19
-0.0044514000000002,-0.0206441999999987,0.0206882,-0.0018961999999995,-0.001724599999999,-0.0015225999999999,0,sub_19
-0.0039982000000002,-0.0209413999999987,0.020656,-0.0021057999999995,-0.001720399999999,-0.0023785999999999,0,sub_19
-0.0036434000000002,-0.0210595999999987,0.0204762,-0.0018661999999995,-0.001683599999999,-0.0025817999999999,0,sub_19
-0.0030502000000002,-0.0208441999999987,0.0201154,-0.0016275999999995,-0.001859999999999,-0.0027847999999999,0,sub_19
-0.0031194000000002,-0.0212479999999987,0.0203086,-0.0009661999999995,-0.002041199999999,-0.0021301999999999,0,sub_19
-0.0036526000000002,-0.0215381999999987,0.0205812,-0.0007293999999995,-0.002006999999999,-0.0016923999999999,0,sub_19
-0.0035878000000002,-0.0211633999999987,0.0206,-0.0002763999999995,-0.001546599999999,-0.0014673999999999,0,sub_19
-0.0035460000000002,-0.0211169999999987,0.0213006,-0.0004887999999995,-0.001120599999999,-0.0012557999999998,0,sub_19
-0.0039478000000001,-0.0211793999999987,0.0212802,-0.0002763999999995,-0.000909999999999,-0.0008271999999998,0,sub_19
-0.0040010000000001,-0.0203717999999987,0.021032,-0.0004867999999995,-0.000270199999999,-0.0008293999999998,0,sub_19
-0.0036268000000001,-0.0203843999999987,0.0213804,-0.0002743999999995,-0.000271799999999,-0.0006143999999998,0,sub_19
-0.0043608000000001,-0.0203525999999987,0.0216274,0.0001742000000004,-2.919999999909137e-05,0.0002542000000001,0,sub_19
-0.0044614000000001,-0.0203397999999987,0.0213572,0.0008380000000004,2.2000000009086365e-06,0.0004836,0,sub_19
-0.0042820000000001,-0.0213311999999987,0.021585,0.0012922000000004,0.0006744000000009,0.000497,0,sub_19
-0.0045190000000002,-0.0223211999999987,0.0217002,0.0017474000000004,0.0015596000000009,0.0005102,0,sub_19
-0.0047010000000002,-0.0217983999999987,0.0213734,0.0019892000000004,0.0024456000000009,0.000522,0,sub_19
-0.0040214000000002,-0.0216517999999987,0.0211112,0.0011356000000004,0.0020242000000009,8.920000000009748e-05,0,sub_19
-0.0041240000000002,-0.0213711999999987,0.0206654,0.0007052000000004,0.0009612000000009,-0.0001259999999999,0,sub_19
-0.0040774000000002,-0.0205489999999987,0.020662,0.0006986000000004,-0.000105799999999,0.0003026,0,sub_19
-0.0038104000000002,-0.0201437999999987,0.0203496,0.0009258000000004,-0.001357999999999,0.0001014,0,sub_19
-0.0034492000000002,-0.0204533999999987,0.0205614,0.0009436000000004,-0.001969599999999,-0.0003155999999999,0,sub_19
-0.0039506000000002,-0.0203089999999987,0.020645,0.0018148000000004,-0.001947399999999,-8.659999999990255e-05,0,sub_19
-0.0040604000000002,-0.0200495999999987,0.0212618,0.0018382000000004,-0.000856199999999,-7.859999999990257e-05,0,sub_19
-0.0043998000000002,-0.0199703999999987,0.0213752,0.0016512000000004,0.0002384000000009,-0.0007129999999999,0,sub_19
-0.0043982000000002,-0.0202195999999987,0.0221266,0.0016570000000004,0.0015166000000008,-0.0007145999999999,0,sub_19
-0.0044538000000002,-0.0199437999999987,0.0222262,0.0020886000000004,0.0027926000000008,-0.0004995999999999,0,sub_19
-0.0039382000000002,-0.0207735999999987,0.0221416,0.0027428000000004,0.0045070000000008,-0.0004959999999999,0,sub_19
-0.0038088000000001,-0.0214561999999987,0.0218554,0.0040332000000003,0.0060038000000008,0.0001534,0,sub_19
-0.0039336000000001,-0.0216435999999987,0.0225494,0.0051044000000003,0.0070716000000008,0.0016564,0,sub_19
-0.0043690000000001,-0.0212947999999987,0.0223728,0.0059662000000003,0.0083560000000008,0.0025166,0,sub_19
-0.0046510000000001,-0.0217049999999987,0.0225214,0.0064022000000004,0.0098548000000008,0.0033736,0,sub_19
-0.0053182000000001,-0.0205435999999987,0.0223484,0.0074692000000004,0.0107000000000008,0.0042346,0,sub_19
-0.0052696000000002,-0.0207763999999987,0.0226792,0.0087484000000004,0.0111190000000008,0.0048838,0,sub_19
-0.0044076000000002,-0.0207597999999987,0.0216066,0.0102546000000004,0.0136714000000008,0.0046774,0,sub_19
-0.0032016000000002,-0.0215259999999987,0.0218174,0.0111158000000004,0.0155850000000009,0.0048946,0,sub_19
-0.0017182000000002,-0.0213249999999987,0.0213042,0.0132656000000004,0.0177176000000009,0.0049102,0,sub_19
-0.0005828000000002,-0.0225399999999987,0.021755,0.0152088000000004,0.0209178000000009,0.0044958,0,sub_19
-0.0001106000000002,-0.0216027999999987,0.0216176,0.0171626000000004,0.0258250000000009,0.0034384,0,sub_19
-0.0005852000000002,-0.0207327999999987,0.0226368,0.0189048000000004,0.0300980000000009,0.001312,0,sub_19
-0.0014960000000001,-0.0180995999999987,0.0231098,0.0204376000000003,0.0347996000000009,-0.0012435999999998,0,sub_19
-0.0029200000000001,-0.0157979999999987,0.023908,0.0211008000000003,0.0382130000000009,-0.0029525999999998,0,sub_19
-0.0041264000000001,-0.0131711999999987,0.024218,0.0208988000000003,0.0394972000000009,-0.0042375999999998,0,sub_19
-0.0054850000000001,-0.0118067999999987,0.0247726,0.0191848000000003,0.0369538000000009,-0.0042423999999998,0,sub_19
-0.0062306000000001,-0.0112177999999987,0.0244794,0.0157390000000004,0.0307868000000009,-0.0023317999999998,0,sub_19
-0.0068906000000002,-0.0128005999999987,0.0223506,0.0118480000000004,0.0216342000000009,0.0006476,0,sub_19
