userAcceleration.x,userAcceleration.y,userAcceleration.z,rotationRate.x,rotationRate.y,rotationRate.z,label,subject
0.0170841999999997,0.0265662000000012,0.0021266,-2.6399999999534215e-05,-0.001698199999999,-0.0009469999999999,0,sub_2
0.0164915999999997,0.0279360000000012,0.0017848,0.0001864000000004,-0.002336199999999,-0.0009439999999999,0,sub_2
0.0162531999999997,0.0283220000000012,0.0020526,0.0006184000000004,-0.001696799999999,-0.0009411999999999,0,sub_2
0.0160493999999997,0.0287884000000012,0.0015282,0.0010508000000004,-0.000844399999999,-0.0013665999999999,0,sub_2
0.0158463999999997,0.0288516000000012,0.0008568,0.0021186000000004,-0.001059599999999,-0.0017859999999999,0,sub_2
0.0159323999999997,0.0281940000000012,0.0005334,0.0031846000000004,-0.001276399999999,-0.0017781999999999,0,sub_2
0.0174523999999997,0.0269256000000012,0.0013142,0.0036096000000004,-0.000839399999999,-0.0015613999999999,0,sub_2
0.0181787999999997,0.0263930000000012,0.0014134,0.0031792000000004,-0.000188799999999,-0.0007097999999999,0,sub_2
0.0188027999999998,0.0265666000000012,0.0010736,0.0033832000000004,-0.000182199999999,0.000788,0,sub_2
0.0192701999999997,0.0269344000000012,0.0013846,0.0035864000000004,-0.000176399999999,0.0024994,0,sub_2
0.0193741999999997,0.0270366000000012,0.001917,0.0035800000000004,4.560000000090815e-05,0.0035682,0,sub_2
0.0184135999999997,0.0275972000000012,0.0017056,0.0037904000000004,-0.0001699999999991,0.0039972,0,sub_2
0.0174579999999997,0.0276834000000012,0.0019234,0.0042162000000004,-0.0008089999999991,0.0035738,0,sub_2
0.0168431999999997,0.0278234000000012,0.0018512,0.0042136000000004,-0.0012151999999991,0.0027144,0,sub_2
0.0165731999999997,0.0276404000000012,0.0010578000000001,0.0035716000000004,-0.0016183999999991,0.0016368,0,sub_2
0.0169519999999997,0.0271956000000012,0.0008532000000001,0.0033544000000004,-0.0020247999999991,0.0009894,0,sub_2
0.0171733999999997,0.0271780000000012,0.0009430000000001,0.0033536000000004,-0.0013681999999991,0.0007696,0,sub_2
0.0176433999999997,0.0269912000000012,0.0005794000000001,0.0029212000000004,-0.0007143999999991,0.0016148,0,sub_2
0.0180083999999997,0.0271466000000012,2.5800000000108983e-05,0.0020696000000004,0.0001392000000008,0.002035,0,sub_2
0.0186255999999997,0.0272274000000012,0.000482,0.0020696000000004,0.0005636000000008,0.0024616,0,sub_2
0.0185703999999997,0.0271984000000012,0.0007532,0.0024936000000004,0.0005596000000008,0.0031054,0,sub_2
0.0187491999999997,0.0263152000000012,0.0002846,0.0022712000000004,-6.519999999913184e-05,0.0033062,0,sub_2
0.0188197999999997,0.0258864000000012,-0.0004913999999999,0.0016266000000004,-0.0006843999999991,0.0024358,0,sub_2
0.0191045999999997,0.0247920000000012,-0.0003089999999999,0.0014050000000004,-0.0019449999999991,0.0017828,0,sub_2
0.0190735999999997,0.0245018000000012,0.000834,0.0013998000000004,-0.0023549999999991,0.001344,0,sub_2
0.0186807999999998,0.0243764000000012,0.000915,0.0007580000000004,-0.0012737999999991,0.0015398,0,sub_2
0.0181603999999998,0.0252844000000012,0.0008176,0.0001158000000004,-0.0010611999999991,0.002176,0,sub_2
0.0189347999999998,0.0256238000000012,0.001377,0.0003196000000004,-0.0021313999999991,0.003247,0,sub_2
0.0199621999999998,0.0258692000000012,0.0019632,0.0003166000000004,-0.0025583999999991,0.0034612,0,sub_2
0.0206487999999998,0.0252388000000012,0.0015196,-0.0001131999999995,-0.0025593999999991,0.004099,0,sub_2
0.0209735999999998,0.0254426000000012,0.0008244,-0.0005499999999995,-0.0036115999999991,0.0043044,0,sub_2
0.0201931999999998,0.0259792000000012,0.0012236,-0.0011973999999995,-0.0038115999999991,0.0047208,0,sub_2
0.0178693999999998,0.0273852000000012,0.001447,-0.0014103999999995,-0.0025207999999991,0.0049248,0,sub_2
0.0154381999999998,0.0289132000000012,0.0016168000000001,-0.0012013999999995,-0.002508999999999,0.0049198,0,sub_2
0.0139775999999998,0.0299124000000012,0.0014898000000001,-0.0005617999999995,-0.003344199999999,0.0032098,0,sub_2
0.0142065999999998,0.0299078000000012,0.0025218,-0.0005493999999995,-0.003757599999999,5.800000000069291e-06,0,sub_2
0.0154443999999998,0.0286404000000012,0.0023656,-0.0001091999999995,-0.003959399999999,-0.0031953999999999,0,sub_2
0.0166875999999998,0.0268020000000012,0.0018892,-0.0001053999999995,-0.003727599999999,-0.0053335999999999,0,sub_2
0.0169027999999998,0.0252634000000012,0.001998,0.0001108000000004,-0.001799799999999,-0.0055497999999998,0,sub_2
0.0163019999999997,0.0240794000000012,0.0021052,-0.0007407999999994,0.0011920000000009,-0.0044927999999998,0,sub_2
0.0156499999999997,0.0233176000000012,0.0024604,-0.0018067999999995,0.0046082000000009,-0.0027969999999998,0,sub_2
0.0154671999999997,0.0229934000000012,0.0032528,-0.0035069999999995,0.0086682000000008,-0.0017473999999998,0,sub_2
0.0169139999999997,0.0232274000000012,0.0027008,-0.0056253999999995,0.0120844000000008,-0.0017665999999998,0,sub_2
0.0206843999999997,0.0240474000000012,0.0015438,-0.0079599999999995,0.0133770000000008,-0.0032799999999998,0,sub_2
0.0240943999999998,0.0254372000000012,0.0006062,-0.0090259999999995,0.0118962000000008,-0.0049947999999998,0,sub_2
0.0265519999999997,0.0272290000000012,-0.0001379999999999,-0.0094805999999995,0.0082848000000008,-0.0052107999999998,0,sub_2
0.0267683999999997,0.0294288000000012,-0.0006961999999999,-0.0093105999999995,0.0031722000000008,-0.0034977999999998,0,sub_2
0.0249131999999997,0.0314720000000012,0.0003082,-0.0087213999999995,-0.0023729999999991,-0.0004991999999998,0,sub_2
0.0211691999999997,0.0326060000000012,0.0009596,-0.0079149999999995,-0.0070669999999991,0.0024996000000001,0,sub_2
0.0158435999999997,0.0325012000000012,0.0020478,-0.0066673999999995,-0.0089909999999991,0.0050708,0,sub_2
0.0105841999999997,0.0316222000000012,0.0025028,-0.0047499999999995,-0.0087879999999991,0.0059386,0,sub_2
0.0069137999999997,0.0302514000000012,0.0027586,-0.0019627999999995,-0.0068757999999991,0.0048874,0,sub_2
0.0058627999999997,0.0286192000000012,0.00237,0.0010474000000004,-0.0041071999999991,0.0025548,0,sub_2
0.0053011999999998,0.0275652000000012,0.0020890000000001,0.0034066000000004,-0.0002655999999991,0.0006372,0,sub_2
0.0076149999999998,0.0279334000000012,0.0012002000000001,0.0051190000000004,0.0031478000000008,-0.0002161999999999,0,sub_2
0.0107905999999998,0.0280558000000012,0.0019332000000001,0.0072516000000004,0.0063414000000008,0.0002154,0,sub_2
0.0144113999999998,0.0284156000000012,0.0021792000000001,0.0087364000000004,0.0082572000000008,0.0010716,0,sub_2
0.0163601999999998,0.0287390000000012,0.0022486000000001,0.0097934000000004,0.0097494000000008,0.0017116,0,sub_2
0.0190883999999998,0.0282452000000012,0.0030754,0.0115004000000004,0.0101678000000008,0.0021504,0,sub_2
0.0209281999999997,0.0270160000000012,0.003512,0.0134150000000004,0.0088828000000008,0.0021654,0,sub_2
0.0224785999999997,0.0255896000000012,0.002271,0.0140464000000004,0.0069632000000008,0.0021724,0,sub_2
0.0243095999999997,0.0238662000000012,0.0009288,0.0131730000000004,0.0052676000000008,0.0027984,0,sub_2
0.0257599999999997,0.0228428000000012,0.0010222,0.0122930000000004,0.0033538000000008,0.0047064,0,sub_2
0.0247435999999997,0.0231742000000012,0.0011838,0.0109880000000004,0.0025042000000008,0.007251,0,sub_2
0.0231497999999998,0.0241020000000012,0.00112,0.0088316000000004,0.0022960000000008,0.0100026,0,sub_2
0.0209357999999998,0.0262890000000012,0.0009234,0.0068894000000004,0.0012390000000008,0.0116884,0,sub_2
0.0179909999999998,0.0278258000000012,0.0017124,0.0066702000000004,-3.859999999915268e-05,0.0116884,0,sub_2
0.0160155999999997,0.0284782000000012,0.0017858,0.0066730000000004,-0.0013091999999991,0.0097672,0,sub_2
0.0159489999999997,0.0284586000000012,0.002039,0.0068904000000004,-0.0036407999999991,0.006567,0,sub_2
0.0165589999999997,0.0275564000000012,0.0024134,0.0075372000000004,-0.0051077999999991,0.0025064,0,sub_2
0.0168229999999997,0.0264862000000012,0.0025928,0.0075518000000004,-0.0044435999999991,-0.0011339999999999,0,sub_2
0.0171617999999997,0.0257796000000012,0.0019674,0.0067100000000004,-0.0031423999999991,-0.0034993999999999,0,sub_2
0.0170923999999997,0.0254614000000012,0.002515,0.0058644000000004,-0.0018445999999991,-0.0050101999999998,0,sub_2
0.0165137999999997,0.0244692000000012,0.0028764,0.0050224000000004,0.0011544000000008,-0.0056685999999998,0,sub_2
0.0156653999999997,0.0239758000000012,0.0024692,0.0026916000000004,0.0047846000000008,-0.0056895999999998,0,sub_2
0.0152401999999997,0.0245840000000012,0.0010092,0.0001484000000004,0.0075674000000008,-0.0067791999999998,0,sub_2
0.0155695999999997,0.0259338000000011,0.0009584,-0.0013269999999995,0.0088622000000008,-0.0095685999999998,0,sub_2
0.0160685999999998,0.0269070000000011,0.0004066,-0.0025909999999995,0.0095178000000008,-0.0125691999999999,0,sub_2
0.0182115999999998,0.0274732000000011,-0.0001129999999999,-0.0040855999999995,0.0076122000000008,-0.0142863999999998,0,sub_2
0.0208603999999997,0.0282588000000011,-0.0004949999999999,-0.0045265999999995,0.0042056000000008,-0.0144987999999998,0,sub_2
0.0234413999999997,0.0279898000000011,0.00041,-0.0045525999999995,0.0005752000000008,-0.0123579999999998,0,sub_2
0.0233409999999997,0.0277658000000011,0.0001448,-0.0045833999999995,-0.002210799999999,-0.0082953999999998,0,sub_2
0.0214601999999997,0.0280282000000012,0.0003758,-0.0039711999999995,-0.003935399999999,-0.0038023999999998,0,sub_2
0.0178049999999997,0.0286338000000012,0.0007902,-0.0029167999999995,-0.003737999999999,-0.0008041999999998,0,sub_2
0.0142197999999998,0.0283118000000012,0.001858,-0.0018489999999995,-0.003104199999999,-0.0003701999999998,0,sub_2
0.0119147999999998,0.0275586000000012,0.0020168,-0.0007677999999995,-0.001397599999999,-0.0018601999999998,0,sub_2
0.0126099999999998,0.0265168000000012,0.002103,-0.0003255999999995,0.0007366000000008,-0.0031415999999998,0,sub_2
0.0161313999999997,0.0245550000000012,0.001546,-0.0009549999999995,0.0026580000000008,-0.0035757999999998,0,sub_2
0.0206587999999997,0.0234076000000012,0.000905,-0.0022361999999995,0.0035104000000008,-0.0025175999999999,0,sub_2
0.0247675999999997,0.0230760000000012,0.0003148,-0.0039517999999994,0.0041452000000008,3.3200000000088715e-05,0,sub_2
0.0278679999999997,0.0233010000000012,0.0003126,-0.0056817999999994,0.0026454000000008,0.003655,0,sub_2
0.0289127999999997,0.0246550000000012,0.0010246,-0.0080399999999995,-0.0001313999999991,0.0057804,0,sub_2
0.0284503999999998,0.0265942000000012,0.0013684,-0.0095447999999995,-0.0035477999999991,0.0072716,0,sub_2
0.0254783999999997,0.0280250000000012,0.0018332,-0.0101873999999995,-0.0061105999999991,0.0076994,0,sub_2
0.0201135999999997,0.0301210000000012,0.000403,-0.0108243999999995,-0.0084559999999991,0.007059,0,sub_2
0.0152183999999997,0.0316196000000012,-0.0011221999999999,-0.0114495999999995,-0.0097303999999991,0.0049216,0,sub_2
0.0127261999999997,0.0318758000000012,-0.0013523999999998,-0.0108027999999995,-0.0099387999999991,0.0032172,0,sub_2
0.0113209999999997,0.0311064000000012,-0.0007923999999999,-0.0101483999999995,-0.009291599999999,0.0006572,0,sub_2
0.0112653999999997,0.0305880000000012,-0.0013781999999999,-0.0109855999999995,-0.008425199999999,-0.0021271999999999,0,sub_2
0.0126105999999997,0.0300528000000012,-0.0004497999999999,-0.0109987999999995,-0.007363599999999,-0.0038557999999999,0,sub_2
0.0131577999999997,0.0293936000000012,0.0025632,-0.0086677999999995,-0.0050393999999991,-0.0036467999999999,0,sub_2
0.0120927999999997,0.0285972000000012,0.0036944,-0.0061215999999995,-0.0018655999999991,-0.0030101999999999,0,sub_2
0.0101605999999998,0.0287702000000012,0.0036536,-0.0037923999999995,0.0006690000000008,-0.0021605999999999,0,sub_2
0.0097929999999997,0.0284230000000012,0.0035698,-0.0001887999999995,0.0025572000000008,-0.0006601999999999,0,sub_2
0.0113549999999997,0.0271648000000012,0.0037018,0.0032320000000004,0.0050976000000008,0.0004286,0,sub_2
0.0142887999999997,0.0266234000000012,0.0024886,0.0045150000000004,0.0063688000000008,0.0010768,0,sub_2
0.0181523999999997,0.0260614000000012,0.001394,0.0051262000000004,0.0061438000000008,0.0015032,0,sub_2
0.0213533999999997,0.0250490000000012,0.0009352,0.0050972000000004,0.0061332000000008,0.0021384,0,sub_2
0.0220545999999998,0.0251942000000012,0.0010386,0.0042176000000004,0.0067648000000008,0.0027668,0,sub_2
0.0212199999999998,0.0256110000000012,0.0009060000000001,0.0022692000000004,0.0067618000000008,0.003175,0,sub_2
0.0192779999999997,0.0260432000000012,0.0006694000000001,0.0007496000000004,0.0061224000000008,0.0025188,0,sub_2
0.0166263999999997,0.0263140000000012,0.0008902000000001,-0.0009533999999995,0.0057074000000008,0.0012254,0,sub_2
0.0146645999999997,0.0268358000000011,0.0016046000000001,-0.0032917999999995,0.0063598000000008,-7.359999999993136e-05,0,sub_2
0.0137157999999997,0.0263140000000011,0.0018632000000001,-0.0051995999999995,0.0076508000000008,-0.0015839999999999,0,sub_2
0.0134545999999997,0.0260670000000011,0.0020796,-0.0062491999999995,0.0106406000000008,-0.0024497999999999,0,sub_2
0.0137829999999998,0.0252316000000012,0.0023482,-0.0081483999999995,0.0153346000000008,-0.0024691999999999,0,sub_2
0.0156825999999998,0.0254182000000012,0.0021136,-0.0106945999999995,0.0193880000000008,-0.0016375999999999,0,sub_2
0.0183181999999997,0.0254308000000012,0.0015502,-0.0134635999999995,0.0215240000000008,-0.0005915999999999,0,sub_2
0.0227583999999997,0.0260318000000012,0.0008778,-0.0158117999999995,0.0213144000000008,0.0002496,0,sub_2
0.0271549999999997,0.0260268000000012,0.0013094,-0.0168901999999995,0.0183324000000008,0.000676,0,sub_2
0.0291085999999997,0.0260342000000012,0.0016734,-0.0169085999999995,0.0138552000000008,0.0011118,0,sub_2
0.0280449999999997,0.0266944000000012,0.0019416,-0.0160751999999995,0.0089490000000009,0.0015542,0,sub_2
0.0249011999999997,0.0280384000000012,0.0019354,-0.0131139999999995,0.0031814000000009,0.0024398,0,sub_2
0.0199277999999997,0.0287586000000012,0.0024634,-0.0097287999999995,-0.002160999999999,0.0035384,0,sub_2
0.0153401999999997,0.0295568000000012,0.0026512,-0.0078275999999995,-0.005579999999999,0.0044106,0,sub_2
0.0122047999999997,0.0306930000000012,0.0021458,-0.0061215999999995,-0.007718399999999,0.00443,0,sub_2
0.0100505999999997,0.0309416000000012,0.0022786,-0.0037621999999995,-0.007088399999999,0.0042366,0,sub_2
0.0079901999999997,0.0306772000000012,0.0017214,-0.0009643999999995,-0.004539999999999,0.003403,0,sub_2
0.0063243999999997,0.0310766000000012,0.0020712,0.0018392000000004,-0.0009253999999991,0.0023546,0,sub_2
0.0054825999999997,0.0312440000000012,0.0026426,0.0050676000000004,0.0018372000000008,0.0008828,0,sub_2
0.0065733999999997,0.0309446000000012,0.0032594,0.0087112000000004,0.0039610000000008,-0.0005899999999999,0,sub_2
0.0087489999999997,0.0300124000000012,0.0031336,0.0114976000000004,0.0050234000000008,-0.0022809999999999,0,sub_2
0.0135527999999997,0.0294454000000012,0.0027606000000001,0.0127874000000004,0.0065130000000008,-0.0029147999999999,0,sub_2
0.0186259999999997,0.0288198000000012,0.0019162000000001,0.0136644000000004,0.0073708000000008,-0.0022637999999998,0,sub_2
0.0223659999999997,0.0283988000000012,0.0015856000000001,0.0147450000000004,0.0075828000000008,-0.0001149999999998,0,sub_2
0.0240927999999997,0.0280402000000012,0.0020484000000001,0.0151760000000004,0.0069398000000008,0.0033122000000001,0,sub_2
0.0252297999999997,0.0271172000000012,0.0022542,0.0153868000000004,0.0054426000000008,0.00738,0,sub_2
0.0247027999999997,0.0258636000000012,0.003608,0.0153854000000004,0.0026738000000008,0.0099524,0,sub_2
0.0237357999999997,0.0253060000000012,0.004066,0.0153720000000004,0.0003276000000008,0.0105962,0,sub_2
0.0218789999999998,0.0254168000000012,0.0033394,0.0157940000000004,-0.0013757999999991,0.0099604,0,sub_2
0.0204241999999998,0.0253736000000012,0.002681,0.0162198000000004,-0.0028635999999991,0.0086834,0,sub_2
0.0191727999999998,0.0255706000000012,0.0024218,0.0170772000000004,-0.0034997999999991,0.0071946,0,sub_2
0.0179491999999998,0.0253442000000012,0.0017588,0.0175076000000004,-0.003285799999999,0.0065564,0,sub_2
0.0168503999999998,0.0240722000000012,0.0013652,0.0179362000000004,-0.003285599999999,0.0061322,0,sub_2
0.0174609999999998,0.0220542000000012,0.0011362,0.0175084000000004,-0.003497199999999,0.0061296,0,sub_2
0.0171651999999998,0.0205858000000012,0.0011362,0.0155920000000004,-0.002850599999999,0.0059018,0,sub_2
0.0171091999999998,0.0206804000000012,0.0009528,0.0128248000000004,-0.001349399999999,0.0058806,0,sub_2
0.0169359999999998,0.0223412000000012,0.0009304,0.0105018000000004,0.0001452000000008,0.005437,0,sub_2
0.0170539999999998,0.0240654000000012,0.001719,0.0083882000000004,0.0012112000000008,0.0054226,0,sub_2
0.0163419999999998,0.0260148000000012,0.0024706,0.0064882000000004,0.0018520000000008,0.004983,0,sub_2
0.0169283999999998,0.0277004000000012,0.002665,0.0060778000000004,0.0020598000000008,0.0049816,0,sub_2
0.0173703999999998,0.0281334000000012,0.00272,0.0065210000000004,0.0016278000000008,0.0043462,0,sub_2
0.0186949999999998,0.0278716000000012,0.0026132,0.0069488000000004,0.0012026000000008,0.0037088,0,sub_2
0.0198767999999998,0.0275566000000012,0.0020304,0.0065250000000004,0.0009944000000008,0.0028516,0,sub_2
0.0213121999999998,0.0275234000000012,0.001543,0.0065240000000004,0.0005692000000008,0.0026386,0,sub_2
0.0222029999999998,0.0270900000000012,0.0010816,0.0067714000000004,-0.0005319999999991,0.0030662,0,sub_2
0.0229997999999998,0.0264534000000012,0.0014172,0.0063738000000004,-0.0022717999999991,0.0039172,0,sub_2
0.0226127999999998,0.0258152000000012,0.0020868,0.0059734000000004,-0.0042261999999991,0.0051958,0,sub_2
0.0215633999999997,0.0253262000000012,0.0023846,0.0055710000000004,-0.0055457999999991,0.0075418,0,sub_2
0.0193337999999997,0.0252120000000012,0.0018876,0.0041094000000004,-0.0051571999999991,0.0098782,0,sub_2
0.0170323999999997,0.0260148000000012,0.0018742,0.0024004000000004,-0.0040917999999991,0.0113604,0,sub_2
0.0146501999999997,0.0273668000000012,0.0016844,0.0015460000000004,-0.0030285999999991,0.012635,0,sub_2
0.0134203999999997,0.0283328000000012,0.0015566,0.0015460000000004,-0.002604199999999,0.0130616,0,sub_2
0.0131617999999997,0.0288052000000012,0.0014418000000001,0.0030444000000004,-0.002817399999999,0.0117904,0,sub_2
0.0147219999999997,0.0285138000000012,0.0018134,0.0049940000000004,-0.002413799999999,0.0094476,0,sub_2
0.0164413999999997,0.0279436000000012,0.0009776000000001,0.0063092000000004,-0.001153999999999,0.006672,0,sub_2
0.0185733999999998,0.0274130000000012,0.0007754000000001,0.0069784000000004,-0.000745799999999,0.0043204,0,sub_2
0.0213901999999998,0.0263282000000012,0.0018208000000001,0.0061444000000004,-0.000977599999999,0.0034548,0,sub_2
0.0235475999999998,0.0278578000000012,0.0036602000000001,0.0010632000000004,0.0060384000000008,0.0053276,0,sub_2
0.0287177999999998,0.0303258000000012,0.0039932000000001,0.0006068000000004,0.0047402000000008,0.0106672,0,sub_2
0.0289215999999998,0.0299790000000012,0.0028064,0.0064796000000004,-0.0095883999999991,0.0190588,0,sub_2
0.0292463999999998,0.0266972000000012,-0.0017313999999999,0.0104696000000004,-0.0168743999999991,0.0261462,0,sub_2
0.0256715999999998,0.0241710000000012,-0.0066975999999999,0.0064348000000004,-0.0094159999999991,0.029313,0,sub_2
0.0229667999999998,0.0207590000000012,-0.0061115999999999,0.0042906000000004,-0.012176599999999,0.0288742,0,sub_2
0.0154301999999998,0.0185134000000012,-0.0019573999999999,-0.0014599999999995,-0.015754399999999,0.0228566,0,sub_2
0.0111799999999998,0.0219870000000012,-0.0005065999999999,-0.0103723999999995,-0.011230399999999,0.0135912,0,sub_2
0.0065457999999998,0.0281684000000012,0.0035832,-0.0135333999999995,-0.009069199999999,0.0041554,0,sub_2
0.0055619999999998,0.0327422000000012,0.0070994,-0.0071655999999995,-0.018674399999999,-0.0017833999999999,0,sub_2
0.0043913999999998,0.0341592000000012,0.0055802000000001,0.0004978000000004,-0.023177399999999,-0.0060105999999998,0,sub_2
0.0058721999999998,0.0334020000000012,0.0023532000000001,0.0062686000000004,-0.018736599999999,-0.0074849999999999,0,sub_2
0.0101747999999997,0.0289082000000012,0.0040476000000001,0.0095026000000004,-0.0106511999999991,-0.0079029999999999,0,sub_2
0.0156063999999997,0.0254290000000012,0.0045084,0.0107874000000004,-0.0074653999999991,-0.0068327999999999,0,sub_2
0.0198829999999997,0.0236380000000012,0.0044018,0.0122752000000004,-0.0062025999999991,-0.0042601999999999,0,sub_2
0.0234111999999997,0.0234912000000012,0.002339,0.0129018000000004,-0.0049435999999991,1.5600000000088806e-05,0,sub_2
0.0237787999999997,0.0236208000000012,0.0008062,0.0130980000000004,-0.0038987999999991,0.0049294,0,sub_2
0.0229347999999997,0.0247436000000012,-0.0008235999999998,0.0124406000000004,-0.0039119999999991,0.0087704,0,sub_2
0.0202875999999997,0.0256688000000012,-0.0012907999999998,0.0098200000000004,-0.0043455999999991,0.0108624,0,sub_2
0.0178429999999997,0.0260626000000012,-0.0009279999999998,0.0067880000000004,-0.0047639999999991,0.0095332,0,sub_2
0.0159755999999997,0.0269956000000012,0.0005092000000001,0.0048258000000004,-0.0070933999999991,0.0056502,0,sub_2
0.0159083999999998,0.0273548000000012,0.0010248000000001,0.0043580000000004,-0.010275999999999,0.0007106,0,sub_2
0.0162537999999998,0.0272854000000012,0.001211,0.0036836000000004,-0.011541999999999,-0.0038055999999999,0,sub_2
0.0168009999999998,0.0263066000000012,0.0017224,0.0032694000000004,-0.011104999999999,-0.0061589999999999,0,sub_2
0.0176073999999998,0.0259092000000012,0.0015696,0.0026330000000004,-0.010674799999999,-0.0065911999999998,0,sub_2
0.0182637999999998,0.0248880000000012,0.0014896,0.0019514000000004,-0.009394399999999,-0.0059925999999998,0,sub_2
0.0186493999999998,0.0249822000000012,0.0013338,0.0008404000000004,-0.0081147999999991,-0.0047561999999998,0,sub_2
0.0185901999999998,0.0250350000000012,0.0015448,0.0007886000000004,-0.0076947999999991,-0.0026565999999998,0,sub_2
0.0190839999999998,0.0253102000000012,0.0019048,0.0009558000000004,-0.0068457999999991,-0.0014107999999998,0,sub_2
0.0184051999999998,0.0258018000000012,0.0015212,0.0009164000000004,-0.0051413999999991,-0.0008083999999999,0,sub_2
0.0180667999999998,0.0268510000000012,0.0010746,0.0007088000000004,-0.0040743999999991,-0.0010249999999999,0,sub_2
0.0174155999999998,0.0272130000000012,0.0011184,0.0009260000000004,-0.0036473999999991,-0.0014511999999999,0,sub_2
