userAcceleration.x,userAcceleration.y,userAcceleration.z,rotationRate.x,rotationRate.y,rotationRate.z,label,subject
0.0004459999999998,0.0249414000000012,0.0004484,-0.0128895999999995,-0.0111675999999991,0.0255744,0,sub_21
0.0009247999999998,0.0239680000000012,5.020000000010771e-05,-0.0064655999999995,-0.0073489999999991,0.0232814,0,sub_21
0.0005641999999998,0.0222108000000012,-0.0013023999999998,-0.0017255999999995,-0.0011695999999991,0.0181964,0,sub_21
-0.0007328000000001,0.0210696000000012,-0.0018711999999998,0.0004444000000004,0.0009774000000008,0.0122268,0,sub_21
-0.0004204000000001,0.0188562000000012,-0.0020811999999998,0.0009094000000004,0.0010100000000009,0.0036842,0,sub_21
-0.0004310000000002,0.0165060000000012,-0.0026415999999998,0.0005286000000004,0.0019012000000009,-0.0057199999999999,0,sub_21
-6.400000000205243e-06,0.0153948000000012,-0.0027875999999999,0.0016348000000004,0.0034178000000009,-0.0129779999999998,0,sub_21
-0.0001750000000002,0.0155044000000012,-0.0027437999999999,0.0042188000000004,0.0059708000000009,-0.0165783999999998,0,sub_21
0.0010481999999997,0.0157642000000012,-0.0021121999999998,0.0070124000000004,0.0102172000000009,-0.0176155999999998,0,sub_21
0.0003221999999997,0.0164242000000012,-0.0030299999999998,0.0108536000000004,0.0127454000000008,-0.0160795999999998,0,sub_21
0.0024003999999998,0.0153032000000012,-0.0036169999999998,0.0138270000000004,0.0133538000000008,-0.0132653999999998,0,sub_21
0.0038189999999998,0.0141376000000012,-0.0041553999999998,0.0150886000000004,0.0135396000000008,-0.0098217999999998,0,sub_21
0.0058649999999998,0.0125936000000012,-0.0049893999999998,0.0135788000000004,0.0126816000000008,-0.0070537999999998,0,sub_21
0.0052831999999998,0.0113078000000012,-0.0058097999999998,0.0105706000000004,0.0103392000000008,-0.0047217999999998,0,sub_21
0.0041433999999998,0.0101798000000012,-0.0054837999999998,0.0069256000000004,0.0099122000000008,-0.0030223999999999,0,sub_21
0.0014003999999998,0.0103348000000012,-0.0040751999999998,0.0034948000000004,0.0101222000000008,-0.0008949999999999,0,sub_21
0.0006917999999997,0.0114584000000012,-0.0033083999999998,5.920000000042124e-05,0.0084180000000008,0.0003802,0,sub_21
0.0001987999999997,0.0124406000000012,-0.0014207999999998,-0.0020933999999995,0.0054386000000008,-0.0002567999999999,0,sub_21
0.0019133999999997,0.0120910000000012,0.0003566000000001,-0.0044505999999995,0.0033164000000009,-0.0019645999999999,0,sub_21
0.0030233999999997,0.0115944000000012,0.0002854,-0.0074483999999995,0.0001346000000009,-0.0028361999999999,0,sub_21
0.0033283999999997,0.0107406000000012,-0.0017379999999999,-0.0100221999999995,-0.003475799999999,-0.0034905999999999,0,sub_21
0.0020527999999997,0.0091294000000011,-0.0023349999999999,-0.0098125999999995,-0.004752999999999,-0.0039147999999999,0,sub_21
0.0010835999999997,0.0072368000000011,-0.0029727999999999,-0.0091733999999995,-0.003270599999999,-0.0022031999999999,0,sub_21
-0.0004444000000001,0.0058374000000012,-0.0033903999999999,-0.0068319999999995,-0.0020081999999991,-0.0004695999999999,0,sub_21
-0.0007642000000001,0.0064052000000012,-0.0036411999999999,-0.0034263999999995,-0.0020253999999991,0.0006322,0,sub_21
3.9999999979448845e-07,0.0090686000000012,-0.0027857999999999,-0.0008705999999995,-0.0011873999999991,0.001727,0,sub_21
0.0006239999999997,0.0124258000000012,-0.0027903999999999,-0.0002379999999995,-0.000769799999999,0.0030224,0,sub_21
0.0006721999999997,0.0152360000000012,-0.0037781999999999,-3.9799999999558376e-05,-0.003115999999999,0.0032502,0,sub_21
0.0009967999999997,0.0179662000000012,-0.0051041999999998,-0.0006855999999995,-0.004392199999999,0.0032472,0,sub_21
0.0010729999999997,0.0213838000000012,-0.0058377999999998,-0.0011027999999995,-0.003321199999999,0.0021746,0,sub_21
0.0001929999999998,0.0249962000000012,-0.0051275999999998,-0.0004491999999995,-0.001401799999999,0.0011084,0,sub_21
5.899999999983475e-05,0.0274576000000012,-0.0036741999999998,0.0012946000000004,0.0003120000000009,0.0002402,0,sub_21
0.0004883999999998,0.0278254000000012,-0.0026415999999998,0.0034566000000004,0.0011678000000009,0.0004442,0,sub_21
0.0004859999999998,0.0281750000000012,-0.0024421999999998,0.0051956000000004,0.0028774000000009,0.0006444,0,sub_21
0.0005663999999998,0.0267730000000012,-0.0022315999999998,0.0060878000000004,0.0067178000000008,0.0014768,0,sub_21
0.0001923999999998,0.0234694000000012,-0.0035357999999998,0.0071896000000004,0.0094932000000008,0.0020984,0,sub_21
-0.0007684000000001,0.0205728000000012,-0.0054419999999998,0.0074174000000004,0.0124760000000008,0.0018826,0,sub_21
-0.0012606000000001,0.0188480000000012,-0.0066337999999999,0.0076518000000004,0.0175868000000008,0.002305,0,sub_21
-0.0017312000000001,0.0166846000000012,-0.0058129999999999,0.0066138000000004,0.0218496000000008,0.0041936,0,sub_21
-0.0011516000000001,0.0140108000000012,-0.0039827999999999,0.0044772000000004,0.0195098000000008,0.0065104,0,sub_21
0.0014579999999998,0.0111642000000011,-0.0008605999999999,0.0010566000000004,0.0152612000000008,0.0077523999999999,0,sub_21
0.0044295999999998,0.0049850000000011,0.000831,-0.0006501999999995,0.0103762000000008,0.0068708,0,sub_21
0.0069899999999998,-0.0017275999999988,0.0011784,-0.0025703999999995,0.0035820000000008,0.0040672,0,sub_21
0.0097983999999998,-0.0079333999999988,-0.0013517999999999,-0.0030123999999995,-0.0038571999999991,1.4400000000050135e-05,0,sub_21
0.0100143999999998,-0.0118743999999987,-0.0031055999999999,-0.0047057999999995,-0.008083399999999,-0.0072559999999999,0,sub_21
0.0088307999999998,-0.0067903999999987,-0.0051651999999999,-0.0068221999999995,-0.0108191999999991,-0.0138903999999999,0,sub_21
0.0062055999999998,0.0028740000000012,-0.0057423999999999,-0.0055359999999995,-0.0089219999999991,-0.0145233999999999,0,sub_21
0.0026409999999998,0.0136070000000012,-0.0047849999999999,-0.0033963999999995,-0.0046933999999991,-0.0128031999999999,0,sub_21
-0.0007808000000001,0.0249968000000012,-0.0017843999999999,-0.0031953999999995,-0.0034451999999991,-0.0100245999999999,0,sub_21
-0.0019780000000001,0.0345904000000012,-0.0018315999999999,-0.0002357999999995,-0.0007347999999991,-0.0023145999999999,0,sub_21
-0.0037430000000001,0.0345502000000012,-0.0030839999999999,0.0048632000000004,0.0040952000000008,0.0062622,0,sub_21
-0.0041710000000001,0.0328570000000012,-0.0039807999999999,0.0039914000000004,0.0036576000000008,0.0098886,0,sub_21
-0.0035796000000001,0.0298856000000012,-0.0041417999999999,0.0027074000000004,0.0028098000000008,0.0098808,0,sub_21
-0.0022716000000001,0.0241232000000012,-0.0050103999999999,0.0042240000000004,0.0057960000000008,0.0077512,0,sub_21
-0.0014044000000001,0.0172720000000012,-0.0046399999999999,0.0059646000000004,0.0085786000000008,0.0030596,0,sub_21
0.0009973999999998,0.0125658000000012,-0.0029391999999999,0.0045006000000004,0.0075294000000008,-0.0029263999999999,0,sub_21
0.0033799999999998,0.0072782000000012,-0.0010011999999999,0.0030338000000004,0.0066900000000008,-0.0080579999999998,0,sub_21
0.0055553999999998,0.0031468000000012,0.0002916,0.0011230000000004,0.0041390000000008,-0.0110541999999998,0,sub_21
0.0067289999999997,0.0006138000000012,-0.0016685999999999,-0.0016575999999995,-0.0018187999999991,-0.0138383999999998,0,sub_21
0.0072643999999997,0.0014192000000012,-0.0039069999999998,-0.0025083999999995,-0.0052281999999991,-0.0161851999999998,0,sub_21
0.0061081999999997,0.0019850000000012,-0.0062031999999998,0.0007134000000004,-0.0014009999999991,-0.0170221999999998,0,sub_21
0.0049645999999997,0.0060852000000012,-0.0062339999999998,0.0032872000000004,0.0011484000000008,-0.0174347999999999,0,sub_21
0.0044091999999997,0.0132566000000012,-0.0060429999999998,0.0032830000000004,0.0013466000000008,-0.0150851999999999,0,sub_21
0.0042727999999998,0.0214832000000012,-0.0030141999999998,0.0032730000000004,0.0042984000000009,-0.0086799999999999,0,sub_21
0.0017493999999998,0.0264744000000012,-0.0015459999999999,0.0013360000000004,0.0055532000000009,-0.0024995999999999,0,sub_21
0.0002775999999998,0.0297406000000012,6.660000000008829e-05,-0.0016889999999995,0.0002148000000009,0.0017588,0,sub_21
-0.0008178000000001,0.0298384000000012,-0.0006377999999999,-0.0023485999999995,-0.002356999999999,0.0047484,0,sub_21
-0.0016594000000001,0.0248542000000012,-0.0031705999999999,-0.0010627999999995,-0.0010831999999991,0.0047558,0,sub_21
-0.0021738000000001,0.0196542000000012,-0.0050515999999999,0.0006672000000004,0.0010532000000008,0.0017742,0,sub_21
-0.0001450000000001,0.0156686000000012,-0.0048203999999999,0.0019628000000004,0.0029720000000008,0.0002852,0,sub_21
0.0006697999999998,0.0127252000000012,-0.0041981999999999,0.0021828000000004,0.0055002000000008,-0.0001493999999998,0,sub_21
0.0022609999999998,0.0104134000000012,-0.0051679999999998,0.0013196000000004,0.0054712000000008,0.0004798,0,sub_21
0.0035333999999998,0.0101134000000012,-0.0052525999999998,0.0013120000000004,0.0060776000000008,0.0013278,0,sub_21
0.0034131999999998,0.0114898000000012,-0.0049957999999998,0.0008794000000004,0.0077482000000008,0.0028124,0,sub_21
0.0033703999999998,0.0122438000000012,-0.0027425999999998,0.0004352000000004,0.0058012000000008,0.0032334,0,sub_21
0.0044621999999998,0.0133870000000011,-0.0026337999999998,-0.0012833999999995,0.0021896000000008,0.0021578,0,sub_21
0.0047647999999998,0.0142208000000011,-0.0020847999999999,-0.0012823999999995,0.0009174000000008,0.0006638,0,sub_21
0.0024093999999998,0.0153930000000011,-0.0019085999999999,-0.0012881999999995,-0.0005729999999991,0.000452,0,sub_21
0.0008279999999998,0.0149274000000011,-0.0018825999999999,-0.0008805999999995,-0.0046231999999991,0.0006736,0,sub_21
-0.0002530000000001,0.0150504000000011,-0.0028545999999999,-0.0006755999999995,-0.0063459999999991,0.0008954,0,sub_21
-0.0001710000000001,0.0152018000000012,-0.0040945999999999,0.0016708000000004,-0.004886399999999,0.0026234,0,sub_21
-0.0005818000000001,0.0147924000000012,-0.0044243999999999,0.0029504000000004,-0.002998799999999,0.0047708,0,sub_21
0.0006901999999998,0.0144150000000012,-0.0030003999999999,0.0033794000000004,-0.002803199999999,0.0045644,0,sub_21
0.0017231999999998,0.0146816000000012,-0.0031201999999998,0.0031722000000004,-0.003450799999999,0.0026454,0,sub_21
0.0024569999999998,0.0155868000000012,-0.0041765999999998,0.0029646000000004,-0.004718199999999,8.180000000008996e-05,0,sub_21
0.0023413999999998,0.0166666000000012,-0.0038689999999998,0.0029704000000004,-0.006622999999999,-0.0031203999999999,0,sub_21
0.0017845999999998,0.0166412000000012,-0.0034657999999998,0.0046752000000004,-0.009403399999999,-0.0065219999999999,0,sub_21
0.0017445999999998,0.0164416000000012,-0.0038471999999998,0.0065992000000004,-0.010481799999999,-0.0094971999999999,0,sub_21
0.0003011999999998,0.0146862000000012,-0.0037609999999999,0.0076724000000004,-0.009432799999999,-0.0109853999999999,0,sub_21
-0.0009408000000001,0.0136524000000012,-0.0035329999999999,0.0087410000000004,-0.008387799999999,-0.0114053999999999,0,sub_21
-0.0008586000000001,0.0118764000000012,-0.0030671999999999,0.0083122000000004,-0.007341199999999,-0.0109813999999999,0,sub_21
0.0007309999999998,0.0118430000000012,-0.0022345999999999,0.0051164000000004,-0.005840399999999,-0.0105783999999999,0,sub_21
0.0014001999999997,0.0122192000000011,-0.0014755999999999,0.0016976000000004,-0.005620599999999,-0.0093205999999999,0,sub_21
0.0029981999999997,0.0137780000000012,-0.0007923999999999,0.0004088000000004,-0.006260399999999,-0.0080467999999999,0,sub_21
0.0045577999999997,0.0141038000000012,-0.0011377999999999,0.0016874000000004,-0.004365599999999,-0.0069475999999999,0,sub_21
0.0048553999999997,0.0145730000000011,-0.0014769999999999,0.0036108000000004,-0.0007709999999991,-0.0052049999999999,0,sub_21
0.0034273999999997,0.0137790000000011,-0.0028027999999999,0.0038158000000004,0.0021826000000008,-0.0015509999999999,0,sub_21
0.0021631999999998,0.0137184000000012,-0.0038661999999999,0.0038034000000004,0.0042848000000008,0.0021026,0,sub_21
0.0020637999999998,0.0145898000000011,-0.0038649999999998,0.0042168000000004,0.0065968000000008,0.0061862,0,sub_21
0.0014197999999998,0.0149432000000011,-0.0041567999999998,0.0037766000000004,0.0070106000000008,0.0096008,0,sub_21
0.0002079999999998,0.0142340000000012,-0.0057163999999998,0.0024752000000004,0.0040254000000008,0.0113046,0,sub_21
-0.0004310000000001,0.0151874000000012,-0.0063093999999998,0.0039630000000004,0.0006198000000008,0.009183,0,sub_21
-0.0005470000000001,0.0155516000000012,-0.0058475999999998,0.0069590000000004,-0.0006561999999991,0.006001,0,sub_21
-0.0012058000000001,0.0169560000000012,-0.0063195999999998,0.0082492000000004,-0.0021475999999991,0.0011132,0,sub_21
-0.0010898000000001,0.0176974000000012,-0.0053583999999998,0.0082610000000004,-0.004057199999999,-0.0046375999999999,0,sub_21
-0.0003880000000002,0.0196872000000011,-0.0035589999999998,0.0086910000000004,-0.007885799999999,-0.0103829999999999,0,sub_21
0.0017317999999997,0.0178530000000011,-0.0021067999999998,0.0076120000000004,-0.012995999999999,-0.0140007999999999,0,sub_21
0.0028579999999997,0.0161690000000011,-0.0033553999999998,0.0046184000000004,-0.016184599999999,-0.0169935999999999,0,sub_21
0.0034545999999997,0.0118306000000012,-0.0035347999999999,0.0022666000000004,-0.017453799999999,-0.0172219999999999,0,sub_21
0.0041063999999997,0.0109082000000012,-0.0038239999999998,0.0005520000000004,-0.017878999999999,-0.0159515999999999,0,sub_21
0.0049795999999997,0.0110252000000012,-0.0026089999999998,-0.0007279999999995,-0.0140623999999991,-0.0129681999999999,0,sub_21
0.0050271999999997,0.0133984000000012,-0.0018875999999998,-0.0013707999999995,-0.0089773999999991,-0.0080593999999999,0,sub_21
0.0045949999999997,0.0149592000000012,-0.0020495999999998,-0.0016061999999995,-0.0062451999999991,-0.0012217999999999,0,sub_21
0.0044343999999997,0.0177090000000012,-0.0017875999999998,-0.0012003999999995,-0.0043631999999991,0.0045532,0,sub_21
0.0036237999999997,0.0182718000000012,-0.0015681999999999,-0.0012185999999995,-0.0026893999999991,0.009471,0,sub_21
0.0016775999999998,0.0174722000000012,-0.0029529999999999,-0.0014435999999995,-0.0020621999999991,0.0126732,0,sub_21
-0.0005174000000001,0.0160628000000012,-0.0036783999999998,-0.0008053999999995,-0.0018539999999991,0.0133184,0,sub_21
-0.0011304000000001,0.0149302000000012,-0.0023001999999998,0.0004806000000004,-0.0024899999999991,0.0114054,0,sub_21
-0.0016944000000001,0.0133416000000012,-0.0021161999999998,0.0006942000000004,-0.0037477999999991,0.0075718,0,sub_21
-0.0018588000000001,0.0123554000000012,-0.0018671999999998,-0.0001511999999995,-0.003933999999999,0.0030886,0,sub_21
-0.0018226000000001,0.0116962000000012,-0.0014525999999998,-0.0009937999999995,-0.002632399999999,-0.0005417999999999,0,sub_21
-0.0012004000000002,0.0130950000000011,-0.0021985999999998,-0.0024765999999995,-0.000691799999999,-0.0035367999999999,0,sub_21
6.299999999979481e-05,0.0142010000000011,-0.0024457999999998,-0.0026867999999995,-3.579999999908613e-05,-0.0060937999999999,0,sub_21
0.0025517999999997,0.0135518000000011,-0.0019221999999998,-0.0018207999999995,0.0010332000000009,-0.0077983999999998,0,sub_21
0.0039175999999997,0.0123342000000011,-0.0023671999999999,-0.0018111999999995,0.0033760000000008,-0.0075877999999998,0,sub_21
0.0043479999999997,0.0144082000000012,-0.0030207999999998,-0.0033009999999995,0.0057188000000008,-0.0061057999999999,0,sub_21
0.0043213999999998,0.0163364000000012,-0.0020677999999998,-0.0030799999999995,0.0091200000000008,-0.0043993999999999,0,sub_21
0.0039381999999998,0.0162490000000012,-0.0016289999999998,-0.0013779999999995,0.0142330000000008,-0.0018095999999999,0,sub_21
0.0016731999999998,0.0165414000000012,-0.0048857999999998,-0.0024603999999995,0.0182854000000008,0.0020442,0,sub_21
-0.0001598000000001,0.0177018000000012,-0.0072225999999998,-0.0022693999999995,0.0187198000000008,0.003775,0,sub_21
0.0004047999999998,0.0164086000000012,-0.0052025999999998,0.0019892000000004,0.0180912000000008,0.0014764000000001,0,sub_21
0.0003161999999997,0.0138096000000012,-0.0058637999999998,0.0054002000000004,0.0168340000000008,-0.0027501999999998,0,sub_21
-0.0008434000000002,0.0140136000000012,-0.0083489999999999,0.0017768000000004,0.0138794000000008,-0.0066171999999998,0,sub_21
0.0009203999999997,0.0157330000000012,-0.0042229999999999,-0.0020695999999995,0.0087950000000008,-0.0104831999999998,0,sub_21
0.0037137999999997,0.0155366000000012,0.0004338,-0.0031697999999995,0.0039156000000008,-0.0128273999999998,0,sub_21
0.0044929999999997,0.0143104000000012,0.0009892,-0.0038547999999995,-0.0009755999999991,-0.0126049999999998,0,sub_21
0.0044333999999998,0.0126456000000012,0.00025,-0.0051905999999995,-0.0054495999999991,-0.0096101999999998,0,sub_21
0.0048391999999998,0.0117418000000012,0.0006754,-0.0065195999999995,-0.0065223999999991,-0.0046969999999998,0,sub_21
0.0044431999999998,0.0116008000000012,-0.0009737999999999,-0.0065597999999995,-0.0041967999999991,0.0017164000000001,0,sub_21
0.0045135999999998,0.0126398000000012,-0.0028785999999998,-0.0072113999999995,-0.0008095999999991,0.0076896,0,sub_21
0.0048879999999998,0.0128484000000012,-0.0052311999999998,-0.0076523999999995,0.0004522000000008,0.0121714,0,sub_21
0.0055071999999998,0.0150542000000012,-0.0047569999999998,-0.0085115999999995,0.0008746000000009,0.013874,0,sub_21
0.0046193999999998,0.0167670000000012,-0.0024305999999998,-0.0066127999999995,-0.000375799999999,0.0128466,0,sub_21
0.0028623999999998,0.0171208000000012,-0.0014817999999998,-0.0045053999999995,-0.004389799999999,0.0101152,0,sub_21
-0.0002376000000001,0.0172054000000012,-0.0015177999999999,-0.0036781999999995,-0.007974999999999,0.0078014,0,sub_21
-0.0031912000000001,0.0172300000000012,-0.0006277999999999,-0.0049703999999995,-0.007295799999999,0.0065356,0,sub_21
-0.0041032000000001,0.0156364000000012,-0.0005469999999999,-0.0060557999999995,-0.006623399999999,0.0067668,0,sub_21
-0.0013664000000001,0.0137640000000012,-0.0016145999999999,-0.0049935999999995,-0.008116799999999,0.0063488,0,sub_21
0.0017479999999998,0.0132036000000012,-0.0021541999999998,-0.0022061999999995,-0.007265799999999,0.0042306,0,sub_21
0.0044657999999998,0.0140326000000012,-0.0034281999999998,0.0010154000000004,-0.005348399999999,0.0014734000000001,0,sub_21
0.0046253999999998,0.0166878000000012,-0.0051421999999998,0.0029358000000004,-0.006840599999999,-6.799999999890358e-06,0,sub_21
0.0035019999999998,0.0209328000000012,-0.0045227999999998,0.0058968000000004,-0.009382799999999,0.0006632000000001,0,sub_21
0.0002165999999998,0.0234948000000012,-0.0034963999999998,0.0088616000000004,-0.009587399999999,0.0028258000000001,0,sub_21
-0.0038016000000001,0.0240224000000012,-0.0040635999999999,0.0105452000000004,-0.009151799999999,0.0058332000000001,0,sub_21
-0.0069296000000001,0.0226262000000012,-0.0020265999999999,0.0118050000000004,-0.008711999999999,0.0081966,0,sub_21
-0.0069246000000001,0.0197252000000012,0.0003596,0.0126648000000004,-0.005063999999999,0.0077758000000001,0,sub_21
-0.0066860000000001,0.0154406000000012,0.0013426,0.0116324000000003,-0.000997799999999,0.0041314000000001,0,sub_21
-0.0056954000000001,0.0115268000000012,-0.0009637999999999,0.0093256000000003,0.0020170000000008,-0.0018705999999998,0,sub_21
-0.0031998000000001,0.0117222000000012,-0.0002419999999999,0.0076690000000003,0.0071694000000008,-0.0087153999999998,0,sub_21
-0.0011896000000001,0.0124094000000012,-0.0008587999999998,0.0042930000000004,0.0114678000000008,-0.0136483999999998,0,sub_21
0.0027233999999997,0.0135316000000012,-0.0021285999999998,0.0004394000000004,0.0093566000000008,-0.0136625999999998,0,sub_21
0.0075101999999997,0.0115552000000012,-0.0039995999999998,-0.0004423999999995,0.0070090000000008,-0.0104511999999998,0,sub_21
0.0138019999999997,0.0086168000000012,-0.0033287999999998,-0.0013213999999995,0.0059372000000008,-0.0066003999999998,0,sub_21
0.0177537999999997,0.0034886000000012,-0.0042521999999998,-0.0058165999999995,0.0050912000000008,-0.0042805999999998,0,sub_21
0.0164199999999997,0.0047512000000012,-0.0059625999999998,-0.0122139999999995,0.0089366000000008,-0.0013391999999999,0,sub_21
0.0086671999999997,0.0092646000000012,-0.0061759999999999,-0.0179473999999995,0.0144988000000008,-0.0020273999999999,0,sub_21
0.0014619999999997,0.0159768000000012,-0.0044533999999999,-0.0160029999999995,0.0128158000000008,-0.0090617999999999,0,sub_21
-0.0056474000000001,0.0206044000000012,-0.0032805999999999,-0.0110693999999995,0.0100468000000008,-0.0175509999999999,0,sub_21
-0.0118262000000001,0.0244650000000012,-0.0027023999999999,-0.0059069999999995,0.0123836000000008,-0.0243359999999999,0,sub_21
-0.0137406000000001,0.0228822000000012,-0.0022851999999999,0.0011700000000004,0.0138596000000008,-0.0306791999999999,0,sub_21
-0.0114026000000001,0.0184454000000012,0.0009172,0.0116678000000004,0.0151174000000008,-0.0387073999999999,0,sub_21
-0.0074234000000001,0.0137714000000012,0.0026482,0.0055032000000004,0.0155676000000008,-0.0434327999999999,0,sub_21
-0.0027054000000001,0.0128110000000012,0.0015398,-0.0051701999999995,0.0156008000000008,-0.0424391999999999,0,sub_21
0.0015967999999998,0.0127112000000012,-0.0003811999999999,-0.0096683999999995,0.0185720000000008,-0.0356379999999999,0,sub_21
0.0073739999999998,0.0127902000000012,-0.0005113999999999,-0.0094875999999995,0.0185424000000008,-0.0283727999999999,0,sub_21
0.0144781999999998,0.0125094000000012,-0.0014799999999998,-0.0127221999999995,0.0178678000000008,-0.0181407999999999,0,sub_21
0.0194707999999998,0.0147608000000012,-0.0048181999999998,-0.0093221999999995,0.0239784000000008,-0.0055211999999999,0,sub_21
0.0202565999999998,0.0166188000000012,-0.0059347999999998,-0.0059257999999995,0.0294488000000008,0.0073128,0,sub_21
0.0219293999999998,0.0129004000000012,-0.0037987999999998,-0.0044957999999995,0.0219408000000008,0.0173724,0,sub_21
0.0222785999999998,0.0082650000000012,-0.0031453999999999,-0.0062385999999995,0.0157418000000008,0.0224942,0,sub_21
0.0180871999999998,0.0088052000000012,-0.0068341999999999,-0.0131221999999995,0.0085014000000008,0.0275828,0,sub_21
0.0103349999999998,0.0127650000000012,-0.0071763999999999,-0.0225439999999995,0.0065946000000008,0.0330742,0,sub_21
0.0036369999999998,0.0155122000000012,-0.0041719999999999,-0.0255433999999995,0.0055356000000008,0.0368892,0,sub_21
-0.0031754000000001,0.0201146000000012,-0.0021091999999999,-0.0234065999999995,0.0025626000000009,0.0354016,0,sub_21
-0.0102628000000001,0.0236334000000012,-0.0010501999999999,-0.0210725999999996,-0.004457399999999,0.0334932,0,sub_21
-0.0154474000000001,0.0224910000000012,0.0008902,-0.0154947999999996,-0.002962399999999,0.0305282,0,sub_21
-0.0165658000000001,0.0197382000000012,-0.0019823999999999,-0.0086445999999996,-0.005085999999999,0.025654,0,sub_21
-0.0136696000000001,0.0201218000000012,-0.0043119999999999,-0.0060753999999995,-0.011665399999999,0.0171346,0,sub_21
-0.0097302000000001,0.0214086000000012,-0.0057475999999999,-0.0064923999999995,-0.016960399999999,0.0096608,0,sub_21
-0.0047526000000001,0.0220710000000012,-0.0045465999999999,-0.0056283999999995,-0.019500399999999,0.0047564000000001,0,sub_21
0.0007267999999998,0.0218494000000012,-0.0042549999999999,-0.0028793999999995,-0.025880999999999,0.0015742000000001,0,sub_21
0.0054005999999997,0.0187288000000012,0.000111,0.0011508000000004,-0.030991999999999,-0.0005325999999998,0,sub_21
0.0065511999999997,0.0139774000000012,0.0003068,0.0062736000000004,-0.0286567999999991,-0.0009319999999998,0,sub_21
0.0065631999999997,0.0081626000000012,0.0002486,0.0073568000000004,-0.0207773999999991,0.0009832000000001,0,sub_21
0.0047621999999997,0.0058504000000012,-0.0045367999999999,0.0056728000000004,-0.0101237999999991,0.0041574,0,sub_21
0.0060101999999997,0.0086836000000012,-0.0073447999999999,-0.0022047999999995,-0.0020171999999991,0.0083648,0,sub_21
0.0045571999999997,0.0134388000000012,-0.0074909999999999,-0.0117883999999995,0.0054594000000008,0.0117066,0,sub_21
0.0039835999999997,0.0190818000000012,-0.0041363999999999,-0.0186123999999995,0.0088818000000008,0.0142182,0,sub_21
0.0024095999999997,0.0267516000000012,-0.0027775999999999,-0.0190477999999995,0.0071780000000009,0.014431,0,sub_21
-9.180000000018478e-05,0.0294998000000012,0.0005472,-0.0184249999999995,0.0016222000000009,0.0142484,0,sub_21
