userAcceleration.x,userAcceleration.y,userAcceleration.z,rotationRate.x,rotationRate.y,rotationRate.z,label,subject
-0.0062730000000002,-0.0049353999999987,-0.0035245999999999,-0.0039015999999995,0.0028028000000009,0.014404,0,sub_11
-0.0078286000000002,-0.0065253999999987,-0.0041791999999999,-0.0040967999999995,0.0070638000000009,0.0146108,0,sub_11
-0.0078634000000002,-0.0038575999999987,-0.0050907999999999,-0.0030059999999995,0.0092034000000008,0.0114112,0,sub_11
-0.0061502000000002,0.0002250000000012,-0.0068585999999999,-0.0019141999999995,0.0087976000000009,0.0054372,0,sub_11
-0.0035302000000002,0.0031320000000012,-0.0074831999999999,3.0600000000448845e-05,0.0058238000000009,-0.0018039999999999,0,sub_11
-0.0017298000000002,0.0039768000000011,-0.0064837999999999,0.0030278000000004,0.0011360000000009,-0.0075399999999999,0,sub_11
-0.0008224000000002,0.0058860000000011,-0.0063013999999999,0.0038856000000004,-0.002700599999999,-0.0111555999999999,0,sub_11
-0.0003734000000002,0.0057128000000011,-0.0068325999999999,0.0038850000000004,-0.004840799999999,-0.0120021999999999,0,sub_11
-0.0007128000000002,0.0039998000000011,-0.0064317999999999,0.0034490000000004,-0.006350799999999,-0.0102887999999999,0,sub_11
-0.0024556000000002,0.0010460000000011,-0.0050279999999999,0.0021496000000004,-0.006363199999999,-0.0060249999999999,0,sub_11
-0.0043098000000002,0.0001192000000011,-0.0036515999999999,0.0006484000000004,-0.003181799999999,-0.0011257999999999,0,sub_11
-0.0042520000000002,-0.0001619999999988,-0.0040711999999999,0.0006560000000004,0.0023422000000009,0.0027126,0,sub_11
-0.0032306000000002,-0.0007065999999988,-0.0055887999999999,-0.0003993999999995,0.0070246000000009,0.0048356,0,sub_11
-0.0037348000000002,-0.0013791999999988,-0.0053669999999999,-0.0010311999999995,0.0082888000000009,0.006111,0,sub_11
-0.0046224000000002,-1.5199999998824488e-05,-0.0048961999999999,-0.0010221999999995,0.0089150000000009,0.0065372,0,sub_11
-0.0044890000000002,0.0011520000000011,-0.0058615999999999,-0.0005747999999995,0.0099744000000009,0.0048294,0,sub_11
-0.0050134000000002,0.0020752000000011,-0.0066415999999999,-0.0005627999999995,0.0086934000000009,0.0026944,0,sub_11
-0.0067962000000002,0.0034820000000011,-0.0071535999999999,6.940000000046913e-05,0.0035726000000009,0.0012096,0,sub_11
-0.0070788000000002,0.0047048000000011,-0.0082419999999999,5.300000000046912e-05,-0.001958999999999,-0.0007061999999999,0,sub_11
-0.0058952000000002,0.0044194000000011,-0.0096157999999999,-0.0003793999999995,-0.006418799999999,-0.0039081999999999,0,sub_11
-0.0041614000000002,0.0034340000000011,-0.0088485999999999,-0.0005939999999995,-0.010448599999999,-0.0060455999999999,0,sub_11
-0.0023594000000002,0.0020920000000011,-0.0067023999999999,5.160000000046907e-05,-0.011716799999999,-0.0068987999999999,0,sub_11
-0.0004608000000002,0.0006298000000011,-0.0047525999999999,0.0007114000000004,-0.008728199999999,-0.0066889999999999,0,sub_11
0.0010829999999997,-0.0004329999999988,-0.0041679999999999,0.0003066000000004,-0.003611999999999,-0.0047801999999999,0,sub_11
0.0005711999999997,-0.0006343999999988,-0.0039489999999999,-0.0009651999999995,0.0006464000000009,-0.0007399999999999,0,sub_11
-0.0012722000000002,-8.619999999880431e-05,-0.0044115999999999,-0.0022531999999995,0.0034028000000009,0.003734,0,sub_11
-0.0024492000000002,0.0011838000000011,-0.0056157999999999,-0.0039639999999995,0.0061640000000009,0.0073506,0,sub_11
-0.0037798000000002,0.0015148000000011,-0.0059467999999999,-0.0054651999999995,0.0065870000000009,0.009476,0,sub_11
-0.0054858000000002,0.0024888000000011,-0.0063433999999999,-0.0054755999999995,0.0044618000000009,0.0101204,0,sub_11
-0.0058264000000002,0.0030066000000011,-0.0058929999999999,-0.0044113999999995,0.0021276000000009,0.0088498,0,sub_11
-0.0046338000000002,0.0032364000000011,-0.0058301999999999,-0.0031249999999995,1.2400000000938744e-05,0.0058714,0,sub_11
-0.0037420000000002,0.0027250000000011,-0.0062625999999999,-0.0014185999999995,-0.004444399999999,0.0020442,0,sub_11
-0.0034512000000002,0.0021058000000011,-0.0060379999999999,7.060000000044921e-05,-0.008479599999999,-0.0005031999999999,0,sub_11
-0.0034152000000002,0.0003184000000011,-0.0052667999999999,0.0005032000000004,-0.008900399999999,-0.0022087999999999,0,sub_11
-0.0039210000000002,-0.0013983999999988,-0.0047943999999999,0.0002956000000004,-0.008045799999999,-0.0026385999999999,0,sub_11
-0.0050890000000002,-0.0029017999999988,-0.0039349999999999,0.0007252000000004,-0.006559399999999,-0.0017829999999999,0,sub_11
-0.0044906000000002,-0.0021589999999988,-0.0041207999999999,0.0011710000000004,-0.002088199999999,-0.0005125999999999,0,sub_11
-0.0030008000000002,-0.0009955999999988,-0.0055153999999999,0.0016264000000004,0.0026036000000009,-0.0011651999999999,0,sub_11
-0.0011722000000002,0.0004338000000011,-0.0060847999999999,0.0022846000000004,0.0047390000000009,-0.0020267999999999,0,sub_11
-0.0002626000000002,0.0014872000000011,-0.0058967999999999,0.0033610000000004,0.0055918000000009,-0.0022427999999999,0,sub_11
-0.0003484000000002,0.0041364000000011,-0.0062199999999999,0.0033706000000004,0.0070852000000009,-0.0018261999999999,0,sub_11
-0.0009228000000002,0.0040418000000011,-0.0064791999999999,0.0025162000000004,0.0066630000000009,-0.0020451999999999,0,sub_11
-0.0017486000000002,0.0033224000000011,-0.0069621999999999,0.0014330000000004,0.0034694000000009,-0.0016213999999999,0,sub_11
-0.0029106000000002,0.0027970000000011,-0.0075005999999999,0.0009804000000004,-0.001220599999999,-0.0005501999999999,0,sub_11
-0.0042546000000002,0.0026056000000011,-0.0074383999999999,0.0007526000000004,-0.004415599999999,-0.0005477999999999,0,sub_11
-0.0042578000000002,0.0016636000000011,-0.0079721999999999,0.0003280000000004,-0.005472799999999,-0.0018327999999999,0,sub_11
-0.0050732000000002,0.0005922000000011,-0.0069197999999999,0.0009694000000004,-0.006534599999999,-0.0028965999999999,0,sub_11
-0.0057074000000002,-0.0011189999999988,-0.0051137999999999,0.0014060000000004,-0.005041599999999,-0.0033241999999999,0,sub_11
-0.0063856000000002,-0.0017731999999987,-0.0035669999999999,0.0016446000000004,-0.000138999999999,-0.0037575999999999,0,sub_11
-0.0057384000000002,-0.0016565999999987,-0.0038573999999999,0.0023080000000004,0.0049728000000009,-0.0035471999999999,0,sub_11
-0.0050584000000002,-0.0010927999999987,-0.0047115999999999,0.0020984000000004,0.0062502000000009,-0.0031229999999999,0,sub_11
-0.0046384000000002,0.0011726000000012,-0.0069175999999999,0.0003818000000004,0.0051866000000009,-0.0020653999999999,0,sub_11
-0.0039258000000002,0.0039018000000012,-0.0084723999999999,-0.0011309999999995,0.0022040000000009,-0.0007901999999999,0,sub_11
-0.0037778000000002,0.0051656000000011,-0.0088807999999999,-0.0030761999999995,-0.002478199999999,0.0004846,0,sub_11
-0.0036930000000002,0.0057938000000011,-0.0084339999999999,-0.0052337999999995,-0.006946799999999,0.0017576,0,sub_11
-0.0038214000000002,0.0056814000000011,-0.0076925999999999,-0.0058927999999995,-0.010143199999999,0.0032532,0,sub_11
-0.0036232000000002,0.0039234000000011,-0.0065671999999999,-0.0052591999999995,-0.011635199999999,0.0036874,0,sub_11
-0.0041696000000002,0.0011806000000011,-0.0050733999999999,-0.0044025999999995,-0.011846399999999,0.0032668,0,sub_11
-0.0037328000000002,-0.0013145999999988,-0.0042271999999999,-0.0033241999999995,-0.009717999999999,0.0028444,0,sub_11
-0.0028676000000001,-0.0027747999999988,-0.0040343999999999,-0.0015931999999995,-0.005246399999999,0.0019962,0,sub_11
-0.0028498000000001,-0.0039175999999987,-0.0036379999999999,-0.0004955999999995,-0.000136999999999,0.0019904,0,sub_11
-0.0034178000000001,-0.0038729999999987,-0.0036527999999999,-0.0006907999999995,0.0043290000000009,0.0041128,0,sub_11
-0.0036142000000001,-0.0020245999999987,-0.0046307999999999,-0.0021727999999995,0.0083694000000009,0.0072952,0,sub_11
-0.0041180000000002,-0.0004679999999987,-0.0061339999999999,-0.0034481999999995,0.0107054000000009,0.0102674,0,sub_11
-0.0054572000000002,0.0003844000000012,-0.0062831999999999,-0.0049637999999995,0.0077132000000009,0.0138858,0,sub_11
-0.0066044000000002,0.0014446000000011,-0.0059281999999999,-0.0060671999999995,0.0028040000000009,0.0170892,0,sub_11
-0.0072378000000002,0.0025442000000011,-0.0054707999999999,-0.0071617999999995,-0.001248799999999,0.0192232,0,sub_11
-0.0077524000000002,0.0036022000000011,-0.0065269999999999,-0.0076163999999995,-0.005728399999999,0.0209348,0,sub_11
-0.0086668000000002,0.0044646000000011,-0.0060045999999999,-0.0074283999999995,-0.011268799999999,0.0224348,0,sub_11
-0.0083484000000002,0.0051290000000011,-0.0064645999999999,-0.0070107999999995,-0.014885599999999,0.0222248,0,sub_11
-0.0046218000000002,0.0053254000000011,-0.0080533999999999,-0.0063615999999995,-0.016577199999999,0.0198774,0,sub_11
-0.0006210000000002,0.0043012000000011,-0.0083393999999999,-0.0048473999999995,-0.018049199999999,0.0151858,0,sub_11
0.0015397999999997,0.0019188000000011,-0.0055309999999999,-0.0016175999999995,-0.019307399999999,0.0087968,0,sub_11
0.0034585999999998,0.0002844000000011,-0.0044367999999999,0.0026958000000004,-0.017371599999999,0.0004924,0,sub_11
0.0033541999999997,-0.0025489999999988,-0.0037909999999999,0.0068122000000004,-0.010964399999999,-0.0069645999999999,0,sub_11
-0.0006240000000002,-0.0062371999999988,-0.0023311999999999,0.0094292000000004,-0.003708199999999,-0.0122967999999999,0,sub_11
-0.0046892000000002,-0.0076389999999988,-0.0017477999999999,0.0103308000000004,0.0039714000000009,-0.0150761999999999,0,sub_11
-0.0054732000000002,-0.0068689999999988,-0.0033289999999998,0.0099610000000004,0.0144218000000009,-0.0170135999999999,0,sub_11
-0.0005924000000002,-0.0050257999999988,-0.0058067999999998,0.0078784000000004,0.0242364000000009,-0.0183211999999999,0,sub_11
0.0047789999999997,-0.0018785999999988,-0.0049683999999998,0.0057642000000004,0.0272324000000009,-0.0194065999999999,0,sub_11
0.0104755999999997,0.0031664000000011,-0.0034155999999998,0.0049100000000004,0.0278718000000009,-0.0183435999999999,0,sub_11
0.0126907999999997,0.0076312000000011,-0.0048449999999999,0.0057530000000004,0.0291326000000009,-0.0147073999999999,0,sub_11
0.0121665999999997,0.0106134000000011,-0.0058023999999999,0.0067700000000004,0.0248406000000009,-0.0078579999999999,0,sub_11
0.0037729999999997,0.0111022000000011,-0.0056661999999999,0.0045462000000004,0.0154312000000009,0.0028208,0,sub_11
-0.0068614000000002,0.0099686000000011,-0.0080531999999999,-0.0011011999999995,0.0049644000000009,0.0147642,0,sub_11
-0.0172960000000002,0.0066762000000011,-0.0099817999999999,-0.0063073999999995,-0.004430199999999,0.0245728,0,sub_11
-0.0248198000000002,0.0021826000000011,-0.0078837999999999,-0.0108543999999995,-0.012748999999999,0.03118,0,sub_11
-0.0301844000000002,-0.0013317999999988,-0.0071835999999999,-0.0160051999999995,-0.016152599999999,0.0345718,0,sub_11
-0.0314214000000002,-0.0025287999999988,-0.0068919999999999,-0.0177255999999995,-0.020402399999999,0.0335022,0,sub_11
-0.0274820000000001,-0.0021189999999988,-0.0087915999999999,-0.0153583999999995,-0.022726999999999,0.026685,0,sub_11
-0.0144174000000002,-0.0035503999999988,-0.0053479999999999,-0.0086709999999995,-0.0195023999999989,0.0136952,0,sub_11
-0.0004374000000002,-0.0019229999999988,-0.0070567999999999,-0.0026379999999995,-0.023715199999999,-0.0035625999999999,0,sub_11
0.0100909999999997,-0.0026331999999988,-0.0065445999999999,0.0036084000000004,-0.025806799999999,-0.0186849999999999,0,sub_11
0.0165181999999997,-0.0041617999999987,-0.0036703999999999,0.0100964000000004,-0.016413599999999,-0.0269875999999999,0,sub_11
0.0209777999999997,-0.0034599999999987,0.000979,0.0155022000000004,-0.002149599999999,-0.0269719999999999,0,sub_11
0.0166831999999997,0.0011524000000012,-0.0016071999999999,0.0142320000000004,0.0059292000000009,-0.0195175999999999,0,sub_11
0.0121303999999997,0.0012466000000011,-0.0015119999999999,0.0116806000000004,0.0203776000000009,-0.0054571999999999,0,sub_11
0.0065587999999997,0.0030686000000011,-0.0031259999999999,0.0071742000000004,0.0267384000000009,0.0081726,0,sub_11
0.0029839999999997,0.0045934000000011,-0.0068281999999999,0.0011470000000004,0.0228928000000009,0.0160402,0,sub_11
-0.0025174000000002,0.0021358000000011,-0.0073697999999999,-0.0042217999999995,0.0186368000000009,0.0194264,0,sub_11
-0.0104356000000002,-0.0010937999999987,-0.0067643999999999,-0.0061309999999995,0.0190746000000009,0.0210836,0,sub_11
-0.0188768000000002,-0.0015737999999987,-0.0060671999999999,-0.0071819999999995,0.0173916000000009,0.0195448,0,sub_11
-0.0223312000000002,0.0003318000000012,-0.0072065999999999,-0.0056607999999995,0.0146490000000009,0.0143934,0,sub_11
-0.0227508000000002,0.0020846000000012,-0.0082033999999999,-0.0024213999999995,0.0114862000000009,0.0062636,0,sub_11
-0.0198312000000002,0.0037906000000012,-0.0099009999999999,0.0003740000000004,0.0036412000000009,-0.0027179999999999,0,sub_11
-0.0133476000000002,0.0052412000000011,-0.0103175999999999,0.0016322000000004,-0.009751399999999,-0.0112377999999999,0,sub_11
-0.0063616000000002,0.0057040000000011,-0.0099129999999999,0.0035286000000004,-0.021450399999999,-0.0176189999999999,0,sub_11
-0.0005076000000002,0.0041452000000011,-0.0073741999999999,0.0048020000000004,-0.024431799999999,-0.0191017999999999,0,sub_11
0.0040081999999997,0.0022560000000011,-0.0050859999999999,0.0035258000000004,-0.021014399999999,-0.0157175999999999,0,sub_11
0.0065471999999997,-3.419999999880394e-05,-0.0045659999999999,0.0011692000000004,-0.016968599999999,-0.0087097999999999,0,sub_11
0.0065129999999997,-0.0021365999999987,-0.0038257999999999,-0.0001127999999995,-0.010373399999999,-0.0008431999999999,0,sub_11
0.0051711999999997,-0.0029459999999987,-0.0032491999999999,-0.0020195999999995,-0.000791399999999,0.006588,0,sub_11
0.0027167999999997,-0.0041193999999987,-0.0029693999999999,-0.0034987999999995,0.0064558000000009,0.0114614,0,sub_11
-0.0008304000000002,-0.0044115999999987,-0.0033471999999999,-0.0034939999999995,0.0096432000000009,0.0135936,0,sub_11
-0.0046156000000002,-0.0017181999999987,-0.0050619999999999,-0.0030517999999995,0.0098676000000009,0.0103918,0,sub_11
-0.0077138000000002,0.0004818000000011,-0.0068647999999999,-0.0026155999999995,0.0054184000000009,0.0037776,0,sub_11
-0.0080554000000002,0.0007210000000011,-0.0055427999999999,0.0010428000000004,0.0052056000000009,-0.0036885999999999,0,sub_11
-0.0090646000000002,0.0048788000000011,-0.0096323999999999,0.0027532000000004,-0.004574199999999,-0.0145743999999999,0,sub_11
-0.0071164000000002,0.0028418000000011,-0.0076525999999999,0.0059724000000004,-0.008616199999999,-0.0231067999999999,0,sub_11
-0.0065444000000002,-0.0002195999999987,-0.0033539999999999,0.0093992000000004,-0.006298199999999,-0.0239547999999999,0,sub_11
-0.0055246000000002,0.0005998000000012,-0.0037731999999999,0.0093940000000004,-0.003135399999999,-0.0199139999999999,0,sub_11
-0.0069878000000002,0.0025652000000012,-0.0066519999999999,0.0061330000000004,-0.010604999999999,-0.0139449999999999,0,sub_11
-0.0063132000000002,-0.0003963999999987,-0.0044007999999998,0.0028902000000004,-0.007872599999999,-0.0017933999999999,0,sub_11
-0.0070498000000002,0.0015340000000012,-0.0051389999999998,-0.0022871999999995,-0.008117199999999,0.0105622,0,sub_11
-0.0065618000000002,0.0033166000000011,-0.0060121999999998,-0.0059567999999995,-0.010476199999999,0.0175898,0,sub_11
-0.0051368000000002,0.0011382000000011,-0.0046869999999998,-0.0065939999999995,-0.008970599999999,0.0203348,0,sub_11
-0.0031764000000002,-0.0007499999999988,-0.0047541999999998,-0.0065565999999995,-0.002980399999999,0.0198742,0,sub_11
-0.0025298000000002,-0.0008927999999988,-0.0040783999999999,-0.0043767999999995,0.0002514000000009,0.0147318,0,sub_11
-0.0035082000000002,0.0005004000000011,-0.0062395999999999,-0.0019913999999995,-0.000556199999999,0.007246,0,sub_11
-0.0039958000000002,0.0013108000000011,-0.0084663999999999,-0.0008909999999995,-0.002424399999999,-0.0002473999999999,0,sub_11
-0.0053540000000002,0.0021766000000011,-0.0082843999999999,-0.0002327999999995,-0.004108199999999,-0.0060089999999999,0,sub_11
-0.0064610000000002,0.0026610000000011,-0.0070691999999999,0.0010532000000004,-0.006229599999999,-0.0094157999999999,0,sub_11
-0.0044430000000002,0.0027074000000011,-0.0067885999999999,0.0025458000000004,-0.007737399999999,-0.0107125999999999,0,sub_11
-0.0015540000000002,-0.0001295999999988,-0.0063965999999999,0.0040344000000004,-0.008611999999999,-0.0105147999999999,0,sub_11
0.0001553999999997,-0.0024843999999988,-0.0044341999999999,0.0048840000000004,-0.007785999999999,-0.0088279999999999,0,sub_11
0.0004593999999997,-0.0041709999999988,-0.0034983999999999,0.0044582000000004,-0.003767999999999,-0.0050177999999999,0,sub_11
0.0004221999999997,-0.0056295999999988,-0.0030877999999999,0.0034000000000004,0.0028054000000009,-0.0003605999999999,0,sub_11
-0.0014462000000002,-0.0061617999999988,-0.0027825999999999,0.0017044000000004,0.0110974000000009,0.0053854,0,sub_11
-0.0035160000000002,-0.0034291999999988,-0.0018751999999999,0.0004454000000004,0.0200332000000009,0.009638,0,sub_11
-0.0038430000000001,-0.0003299999999988,-0.0040963999999999,0.0004666000000004,0.0255692000000009,0.0104856,0,sub_11
-0.0023358000000001,0.0020632000000011,-0.0069119999999999,0.0017508000000004,0.0234540000000009,0.0072868,0,sub_11
-0.0012570000000002,0.0059080000000011,-0.0094085999999999,0.0023870000000004,0.0177268000000009,0.0021652,0,sub_11
-0.0016776000000002,0.0073720000000011,-0.0095759999999999,0.0028082000000004,0.0109378000000009,-0.0035975999999999,0,sub_11
-0.0028798000000002,0.0067564000000011,-0.0100607999999998,0.0021528000000004,0.0035072000000009,-0.0078713999999999,0,sub_11
-0.0048466000000002,0.0057398000000011,-0.0104915999999998,-0.0010783999999995,-0.003503599999999,-0.0083181999999999,0,sub_11
-0.0084012000000002,0.0043916000000011,-0.0084835999999998,-0.0041097999999995,-0.010110599999999,-0.0051263999999999,0,sub_11
-0.0109086000000001,0.0014736000000011,-0.0060131999999998,-0.0064923999999995,-0.013741199999999,-0.0008655999999999,0,sub_11
-0.0104658000000001,-0.0005983999999988,-0.0053677999999998,-0.0077909999999995,-0.014813999999999,0.0021178,0,sub_11
-0.0085380000000002,-0.0026117999999988,-0.0042605999999999,-0.0071527999999995,-0.013969199999999,0.003403,0,sub_11
-0.0055200000000002,-0.0044173999999988,-0.0028973999999999,-0.0045745999999995,-0.010352199999999,0.0029886,0,sub_11
-0.0018634000000002,-0.0048719999999988,-0.0023163999999999,-0.0009055999999995,-0.003322399999999,0.0006546,0,sub_11
0.0014847999999997,-0.0052313999999988,-0.0015447999999999,0.0033998000000004,0.0026406000000009,-0.0018871999999999,0,sub_11
0.0033893999999997,-0.0033289999999988,-0.0027711999999999,0.0057734000000004,0.0075392000000009,-0.0029455999999999,0,sub_11
0.0040707999999997,-0.0006515999999988,-0.0056053999999999,0.0055652000000004,0.0092450000000009,-0.0025223999999999,0,sub_11
0.0026453999999997,0.0019558000000011,-0.0068071999999999,0.0040534000000004,0.0073242000000009,-0.0003939999999999,0,sub_11
0.0007163999999997,0.0034230000000011,-0.0073567999999999,0.0010432000000004,0.0054044000000009,0.0027922,0,sub_11
-0.0021154000000002,0.0046280000000011,-0.0083185999999999,-0.0023899999999995,0.0034896000000009,0.0051208,0,sub_11
-0.0051536000000002,0.0027064000000011,-0.0081655999999999,-0.0043291999999995,0.0009504000000009,0.0061814,0,sub_11
-0.0080178000000002,0.0006530000000011,-0.0066913999999999,-0.0045583999999995,-0.001804199999999,0.0063996,0,sub_11
-0.0103270000000002,-0.0010525999999988,-0.0050791999999999,-0.0037053999999995,-0.003063599999999,0.0047006,0,sub_11
-0.0103706000000002,-0.0022135999999988,-0.0058949999999999,-0.0021977999999995,-0.002614799999999,0.0015084,0,sub_11
-0.0099482000000002,-0.0032993999999988,-0.0068107999999998,-0.0004873999999995,-0.003873799999999,-0.0010391999999999,0,sub_11
-0.0098126000000002,-0.0028199999999988,-0.0061687999999998,0.0003576000000004,-0.007067399999999,-0.0023111999999999,0,sub_11
-0.0077514000000002,-0.0011277999999988,-0.0058685999999998,0.0001462000000004,-0.007489399999999,-0.0031667999999999,0,sub_11
-0.0043260000000002,0.0006712000000011,-0.0071727999999998,0.0010034000000004,-0.006852399999999,-0.0033751999999999,0,sub_11
-0.0019604000000002,0.0010494000000011,-0.0073051999999998,0.0012134000000004,-0.007045999999999,-0.0029427999999999,0,sub_11
0.0006715999999997,0.0007644000000011,-0.0073949999999998,-6.639999999955116e-05,-0.006381999999999,-0.0025219999999999,0,sub_11
0.0038551999999997,0.0002510000000011,-0.0071595999999999,-0.0013345999999995,-0.003797999999999,-0.0027445999999999,0,sub_11
0.0040821999999997,-0.0003483999999988,-0.0058581999999999,-0.0008947999999995,-0.000794799999999,-0.0027419999999999,0,sub_11
0.0034861999999997,-0.0012477999999988,-0.0044809999999999,-0.0008769999999995,0.0039120000000009,-0.0021037999999999,0,sub_11
0.0028493999999997,-0.0020799999999988,-0.0049123999999999,-0.0006443999999995,0.0088090000000009,-0.0014675999999999,0,sub_11
0.0015839999999997,-0.0017565999999988,-0.0048331999999999,0.0002206000000004,0.0115748000000009,-0.0012513999999999,0,sub_11
-0.0015720000000002,-0.0009203999999988,-0.0045959999999999,0.0019276000000004,0.0122054000000009,-0.0005991999999999,0,sub_11
-0.0033248000000002,-0.0007325999999988,-0.0054039999999999,0.0027808000000004,0.0136838000000009,-0.0001685999999999,0,sub_11
-0.0046082000000002,0.0005364000000011,-0.0070257999999999,0.0023472000000004,0.0128264000000009,-0.0005983999999999,0,sub_11
-0.0054162000000002,0.0022526000000011,-0.0066361999999999,0.0021182000000004,0.0096264000000009,-0.0014509999999999,0,sub_11
-0.0053472000000002,0.0013786000000011,-0.0061367999999999,0.0023276000000004,0.0087694000000009,-0.0025173999999999,0,sub_11
-0.0059980000000002,0.0004504000000011,-0.0056921999999999,0.0025454000000004,0.0094056000000009,-0.0040127999999999,0,sub_11
-0.0085190000000002,0.0003090000000011,-0.0057623999999999,0.0025386000000004,0.0074900000000009,-0.0044375999999999,0,sub_11
-0.0102050000000002,-0.0002135999999988,-0.0057519999999999,0.0023088000000004,0.0045054000000009,-0.0037943999999999,0,sub_11
-0.0101766000000002,0.0013018000000011,-0.0074385999999999,0.0012310000000004,0.0023814000000009,-0.0031553999999999,0,sub_11
-0.0089004000000002,0.0021156000000011,-0.0088269999999999,-0.0004915999999995,-0.000381199999999,-0.0020925999999999,0,sub_11
-0.0072806000000002,0.0019974000000011,-0.0086749999999999,-0.0022313999999995,-0.006554399999999,-0.0005983999999999,0,sub_11
-0.0041446000000002,0.0007066000000011,-0.0072693999999999,-0.0035301999999995,-0.009321199999999,0.0011082,0,sub_11
-0.0011008000000002,-0.0002581999999988,-0.0059831999999999,-0.0035237999999995,-0.007189599999999,0.0021766,0,sub_11
0.0004027999999997,-0.0018235999999988,-0.0045937999999999,-0.0030931999999995,-0.005914399999999,0.0026052,0,sub_11
0.0007239999999997,-0.0026851999999987,-0.0045737999999999,-0.0020235999999995,-0.005703399999999,0.002185,0,sub_11
0.0005051999999997,-0.0025081999999987,-0.0045619999999999,-0.0009413999999995,-0.003147199999999,0.0013346,0,sub_11
-0.0001550000000002,-0.0020485999999987,-0.0045515999999999,0.0007858000000004,-0.000376599999999,-0.0003659999999999,0,sub_11
-0.0007168000000002,-0.0016985999999987,-0.0048521999999999,0.0018752000000004,0.0026084000000009,-0.0024999999999999,0,sub_11
-0.0030850000000002,-0.0024977999999987,-0.0050703999999999,0.0031732000000004,0.0058006000000009,-0.0033507999999999,0,sub_11
-0.0070498000000002,-0.0010191999999988,-0.0042623999999999,0.0036006000000004,0.0070706000000009,-0.0022823999999999,0,sub_11
-0.0096890000000002,0.0001390000000011,-0.0055335999999999,0.0023140000000004,0.0079162000000009,-0.0001571999999999,0,sub_11
-0.0108486000000001,0.0013942000000011,-0.0079679999999999,-0.0004745999999995,0.0068494000000009,0.0019598,0,sub_11
-0.0118426000000001,0.0017614000000011,-0.0085093999999999,-0.0022149999999995,0.0010962000000009,0.0036642,0,sub_11
-0.0105712000000002,0.0025774000000011,-0.0086105999999999,-0.0039573999999995,-0.006144199999999,0.0043022,0,sub_11
-0.0070300000000002,0.0023558000000011,-0.0083797999999999,-0.0052529999999995,-0.011246199999999,0.0025906,0,sub_11
-0.0026196000000002,0.0007238000000011,-0.0069365999999999,-0.0039675999999995,-0.012937599999999,3.74000000000466e-05,0,sub_11
-0.0001306000000002,-0.0010101999999988,-0.0047015999999999,-0.0011809999999995,-0.012717599999999,-0.0022941999999999,0,sub_11
0.0023149999999997,-0.0019411999999988,-0.0044831999999999,0.0011846000000004,-0.011005799999999,-0.0044169999999999,0,sub_11
