userAcceleration.x,userAcceleration.y,userAcceleration.z,rotationRate.x,rotationRate.y,rotationRate.z,label,subject
0.0045127999999998,0.0395350000000012,-0.0051423999999998,-0.0015463999999996,-0.002146599999999,-0.0023135999999998,0,sub_15
0.0062811999999998,0.0383698000000012,-0.0056543999999999,0.0001510000000003,-0.003646599999999,-0.0016589999999998,0,sub_15
0.0077439999999998,0.0365674000000012,-0.0062591999999999,-0.0002881999999996,-0.005778199999999,-0.0010183999999998,0,sub_15
0.0089197999999998,0.0351524000000012,-0.0065195999999999,-0.0026467999999996,-0.007689999999999,-0.0003913999999998,0,sub_15
0.0088391999999998,0.0352516000000012,-0.0059961999999998,-0.0066801999999996,-0.010220599999999,1.4800000000112646e-05,0,sub_15
0.0072875999999997,0.0363574000000012,-0.0049189999999998,-0.0094265999999996,-0.011264399999999,0.0004280000000001,0,sub_15
0.0056431999999997,0.0374966000000012,-0.0041773999999998,-0.0093935999999996,-0.011251599999999,0.0006458000000001,0,sub_15
0.0041269999999997,0.0395842000000012,-0.0033393999999998,-0.0074371999999996,-0.010818599999999,0.0006628000000001,0,sub_15
0.0025805999999997,0.0403414000000012,-0.0026711999999998,-0.0037729999999996,-0.010178599999999,0.0006914000000001,0,sub_15
0.0016551999999998,0.0401404000000012,-0.0023679999999999,0.0011450000000003,-0.007852199999999,0.0007228000000001,0,sub_15
0.0018219999999998,0.0382242000000012,-0.0021931999999998,0.0056354000000003,-0.005737399999999,0.0007516000000001,0,sub_15
0.0026343999999998,0.0365492000000012,-0.0029451999999998,0.0073520000000003,-0.004037399999999,0.0003342000000001,0,sub_15
0.0033743999999998,0.0350972000000012,-0.0037117999999998,0.0077864000000003,-0.002970999999999,-0.0003049999999998,0,sub_15
0.0042831999999998,0.0351524000000012,-0.0037985999999998,0.0071430000000002,-0.000831799999999,-0.0005227999999998,0,sub_15
0.0051967999999998,0.0352628000000012,-0.0044995999999998,0.0060690000000002,0.0002444000000009,-0.0009559999999998,0,sub_15
0.0060957999999998,0.0362386000000012,-0.0051001999999998,0.0041386000000002,0.0006844000000009,-0.0013943999999998,0,sub_15
0.0059619999999998,0.0369980000000012,-0.0047277999999999,0.0030540000000002,-0.000158399999999,-0.0013979999999998,0,sub_15
0.0061423999999998,0.0372166000000011,-0.0046189999999999,0.0021866000000003,-0.000149999999999,-0.0014009999999998,0,sub_15
0.0059637999999997,0.0375322000000011,-0.0049599999999999,0.0019714000000003,-0.000575399999999,-0.0014019999999998,0,sub_15
0.0054913999999998,0.0377934000000012,-0.0042869999999999,0.0030372000000003,5.6600000000938194e-05,-0.0005407999999998,0,sub_15
0.0052843999999997,0.0378684000000012,-0.0036145999999999,0.0047092000000003,0.0011170000000009,0.0001096000000001,0,sub_15
0.0059521999999997,0.0378486000000012,-0.0033721999999999,0.0059546000000003,0.0021788000000009,0.0007570000000001,0,sub_15
0.0058673999999997,0.0370950000000012,-0.0040109999999999,0.0072008000000003,0.0036660000000009,0.0016174000000001,0,sub_15
0.0055383999999998,0.0363744000000012,-0.0042763999999999,0.0071668000000003,0.0045210000000009,0.0018288000000001,0,sub_15
0.0052183999999997,0.0358776000000012,-0.0046487999999999,0.0060612000000003,0.0041022000000009,0.0018208000000001,0,sub_15
0.0047831999999998,0.0359642000000012,-0.0049681999999999,0.0043514000000003,0.0032568000000009,0.0015962000000001,0,sub_15
0.0037027999999998,0.0363356000000012,-0.0051807999999998,0.0032864000000003,0.0034744000000009,0.0013748000000001,0,sub_15
0.0035075999999998,0.0373068000000012,-0.0043227999999998,0.0028588000000003,0.0028384000000008,0.0009454000000001,0,sub_15
0.0035789999999998,0.0378694000000012,-0.0038619999999998,0.0037014000000003,0.0030482000000009,0.0005258000000001,0,sub_15
0.0038789999999998,0.0385396000000012,-0.0037147999999998,0.0045468000000003,0.0036850000000009,-0.0001079999999998,0,sub_15
0.0044881999999998,0.0383668000000012,-0.0039189999999998,0.0060314000000003,0.0045310000000008,-0.0003101999999998,0,sub_15
0.0052349999999998,0.0377006000000012,-0.0041785999999999,0.0075160000000003,0.0053770000000008,-0.0005123999999998,0,sub_15
0.0055371999999998,0.0371626000000012,-0.0048299999999999,0.0081460000000003,0.0060128000000008,-0.0007203999999998,0,sub_15
0.0067309999999998,0.0366730000000012,-0.0049333999999999,0.0075058000000003,0.0062272000000008,-0.0005113999999998,0,sub_15
0.0074643999999998,0.0362826000000012,-0.0052853999999999,0.0072906000000003,0.0062264000000008,-8.559999999984734e-05,0,sub_15
0.0078529999999998,0.0357400000000012,-0.0055205999999999,0.0072838000000003,0.0051594000000008,0.0003430000000001,0,sub_15
0.0077811999999998,0.0353870000000012,-0.0053345999999999,0.0070666000000003,0.0043180000000009,0.0005598000000001,0,sub_15
0.0081357999999998,0.0356944000000012,-0.0047263999999999,0.0064236000000003,0.0036912000000009,0.0007734000000001,0,sub_15
0.0072439999999998,0.0360802000000012,-0.0052711999999999,0.0066332000000003,0.0028484000000009,0.0009932000000001,0,sub_15
0.0063055999999998,0.0364996000000012,-0.0053135999999998,0.0072676000000003,0.0013656000000009,0.0010032000000001,0,sub_15
0.0054177999999998,0.0376414000000012,-0.0050739999999998,0.0070486000000003,9.820000000093816e-05,0.0012206000000001,0,sub_15
0.0046993999999998,0.0383942000000012,-0.0044539999999998,0.0064018000000003,-0.000966599999999,0.0016448000000001,0,sub_15
0.0041867999999998,0.0380372000000012,-0.0049247999999998,0.0057522000000003,-0.002458199999999,0.0022832000000001,0,sub_15
0.0043147999999998,0.0364026000000012,-0.0046649999999998,0.0036088000000003,-0.004156799999999,0.0026978000000001,0,sub_15
0.0049841999999998,0.0346674000000012,-0.0049845999999998,-0.0006625999999996,-0.004760599999999,0.0024574000000001,0,sub_15
0.0054389999999998,0.0327552000000012,-0.0053017999999998,-0.0059931999999996,-0.004080599999999,0.0017806000000001,0,sub_15
0.0063393999999998,0.0324376000000012,-0.0056731999999998,-0.0111113999999996,-0.003402199999999,0.0013190000000001,0,sub_15
0.0067177999999998,0.0330944000000012,-0.0050481999999998,-0.0149463999999996,-0.002513599999999,0.0004388000000001,0,sub_15
0.0072759999999998,0.0349110000000012,-0.0045747999999998,-0.0177153999999996,-0.001417399999999,-6.99999999984732e-06,0,sub_15
0.0072227999999998,0.0360060000000012,-0.0034165999999998,-0.0189907999999996,-0.000135399999999,0.0001960000000001,0,sub_15
0.0064917999999998,0.0373400000000012,-0.0033373999999999,-0.0179189999999996,0.0011382000000009,0.0004156000000001,0,sub_15
0.0062129999999998,0.0377452000000012,-0.0034563999999999,-0.0159937999999996,0.0019846000000009,0.0002144000000001,0,sub_15
0.0056735999999998,0.0367730000000012,-0.0042581999999999,-0.0153641999999996,0.0019932000000009,0.0002218000000001,0,sub_15
0.0050209999999998,0.0361078000000012,-0.0050219999999998,-0.0145221999999996,0.0013636000000009,-0.0001957999999998,0,sub_15
0.0046319999999998,0.0360536000000012,-0.0061679999999998,-0.0136773999999996,0.0015852000000009,-0.0004005999999998,0,sub_15
0.0047875999999998,0.0363998000000012,-0.0043897999999998,-0.0130449999999996,0.0020208000000009,-0.0006073999999998,0,sub_15
0.0050083999999998,0.0356180000000012,-0.0038203999999998,-0.0122019999999996,0.0020286000000009,-0.0005983999999998,0,sub_15
0.0055119999999998,0.0356148000000012,-0.0028193999999998,-0.0098491999999996,0.0032986000000009,-0.0005835999999998,0,sub_15
0.0064755999999998,0.0358360000000012,-0.0023967999999999,-0.0072715999999996,0.0062758000000009,-0.0014239999999998,0,sub_15
0.0071565999999998,0.0360438000000012,-0.0019237999999999,-0.0049129999999996,0.0081878000000009,-0.0020509999999998,0,sub_15
0.0079637999999998,0.0350320000000012,-0.0039803999999999,-0.0038433999999996,0.0086110000000009,-0.0022575999999998,0,sub_15
0.0077413999999998,0.0350520000000012,-0.0049551999999999,-0.0038615999999996,0.0088256000000009,-0.0022581999999998,0,sub_15
0.0068301999999998,0.0349384000000012,-0.0053447999999999,-0.0049513999999996,0.0081910000000009,-0.0020513999999998,0,sub_15
0.0056567999999998,0.0346494000000012,-0.0049465999999999,-0.0060479999999996,0.0073380000000009,-0.0005625999999998,0,sub_15
0.0045767999999998,0.0343466000000012,-0.0044229999999998,-0.0067157999999996,0.0066974000000009,0.0007152000000001,0,sub_15
0.0037911999999998,0.0349862000000012,-0.0034815999999998,-0.0065281999999996,0.0060556000000009,0.0015718000000001,0,sub_15
0.0036719999999998,0.0358152000000012,-0.0028311999999998,-0.0048203999999996,0.0062626000000009,0.0015834000000001,0,sub_15
0.0036009999999998,0.0368954000000012,-0.0031259999999998,-0.0016093999999996,0.0083828000000009,0.0013894000000001,0,sub_15
0.0032947999999998,0.0381632000000012,-0.0032919999999998,0.0028550000000003,0.0094264000000009,0.0003512000000001,0,sub_15
0.0031985999999998,0.0385764000000012,-0.0033765999999999,0.0079546000000003,0.0089782000000009,-0.0011079999999998,0,sub_15
0.0040877999999998,0.0385376000000012,-0.0044113999999999,0.0124092000000003,0.0076790000000009,-0.0023569999999998,0,sub_15
0.0049875999999998,0.0381078000000012,-0.0051097999999999,0.0157952000000003,0.0063820000000009,-0.0031861999999998,0,sub_15
0.0067793999999997,0.0379450000000012,-0.0055103999999999,0.0176808000000003,0.0040230000000009,-0.0035971999999998,0,sub_15
0.0081819999999997,0.0363226000000012,-0.0062059999999999,0.0176692000000003,0.0016786000000009,-0.0033805999999998,0,sub_15
0.0096369999999997,0.0357688000000012,-0.0071447999999999,0.0157382000000003,0.0001904000000009,-0.0025375999999998,0,sub_15
0.0098397999999997,0.0346844000000012,-0.0072711999999999,0.0135950000000003,-0.000447199999999,-0.0010561999999998,0,sub_15
0.0089419999999997,0.0348402000000012,-0.0060011999999999,0.0110034000000003,-0.001301399999999,0.0004192000000001,0,sub_15
0.0077959999999998,0.0343416000000012,-0.0052493999999999,0.0084100000000003,-0.002581599999999,0.0018950000000001,0,sub_15
0.0071881999999997,0.0346690000000012,-0.0054047999999999,0.0056042000000003,-0.004072399999999,0.0029424000000001,0,sub_15
0.0062525999999998,0.0355490000000012,-0.0045013999999999,0.0036586000000003,-0.004923599999999,0.0031404000000001,0,sub_15
0.0055335999999998,0.0359782000000012,-0.0023819999999999,0.0040714000000003,-0.004075199999999,0.0024980000000001,0,sub_15
0.0053145999999998,0.0348322000000012,-0.0029341999999999,0.0042886000000003,-0.003648199999999,0.0020718000000001,0,sub_15
0.0051751999999998,0.0344004000000012,-0.0036689999999999,0.0040800000000003,-0.003430999999999,0.0012156000000001,0,sub_15
0.0052815999999998,0.0338764000000012,-0.0028711999999999,0.0045172000000003,-0.001937799999999,0.0003622000000001,0,sub_15
0.0054803999999998,0.0333202000000012,-0.0033567999999998,0.0039034000000003,-0.000870799999999,-0.0002867999999998,0,sub_15
0.0053963999999998,0.0343122000000012,-0.0046931999999998,0.0011474000000003,-0.001289599999999,-0.0005217999999998,0,sub_15
0.0054513999999998,0.0356606000000012,-0.0048723999999998,-0.0003303999999996,-0.002138799999999,-0.0007473999999998,0,sub_15
0.0060915999999998,0.0359754000000012,-0.0053403999999998,-0.0001011999999996,-0.002569599999999,-0.0005341999999998,0,sub_15
0.0057919999999998,0.0366966000000012,-0.0058877999999998,0.0007642000000003,-0.003642599999999,-0.0001021999999998,0,sub_15
0.0056043999999998,0.0367114000000012,-0.0055473999999998,0.0031054000000003,-0.004292599999999,0.0005558000000001,0,sub_15
0.0058773999999998,0.0361162000000012,-0.0055193999999998,0.0056628000000003,-0.004303999999999,0.0012148000000001,0,sub_15
0.0064809999999998,0.0353150000000012,-0.0059083999999998,0.0073708000000003,-0.003672399999999,0.0016532000000001,0,sub_15
0.0068617999999998,0.0346430000000012,-0.0053385999999998,0.0080166000000003,-0.002608599999999,0.0014426000000001,0,sub_15
0.0071879999999998,0.0344962000000012,-0.0051843999999998,0.0071974000000003,-0.002192199999999,0.0012236000000001,0,sub_15
0.0069305999999998,0.0340910000000012,-0.0052265999999998,0.0053134000000003,-0.001558199999999,0.0007832000000001,0,sub_15
0.0066667999999998,0.0330318000000012,-0.0055049999999998,0.0032084000000003,-0.002627999999999,0.0003434000000001,0,sub_15
0.0061419999999998,0.0330634000000012,-0.0046455999999998,0.0006736000000003,-0.004123199999999,0.0001148000000001,0,sub_15
0.0048447999999998,0.0347728000000012,-0.0029341999999998,-0.0018553999999996,-0.004339999999999,-0.0001151999999998,0,sub_15
0.0040609999999998,0.0355948000000012,-0.0008949999999998,-0.0026981999999996,-0.002205799999999,-0.0003373999999998,0,sub_15
0.0041975999999998,0.0366260000000012,0.0002582000000001,-0.0022571999999996,0.0005642000000009,-0.0007651999999998,0,sub_15
0.0043325999999998,0.0367098000000012,-1.1999999999872185e-05,-0.0013671999999996,0.0033082000000009,-0.0011885999999998,0,sub_15
0.0047139999999998,0.0360014000000012,-0.0019211999999998,-0.0002627999999996,0.0062644000000009,-0.0016105999999998,0,sub_15
0.0058283999999998,0.0342660000000012,-0.0038671999999998,0.0006128000000003,0.0062370000000009,-0.0016033999999997,0,sub_15
0.0074831999999998,0.0326544000000012,-0.0057295999999998,-1.5799999999655845e-05,0.0040836000000009,-0.0013901999999998,0,sub_15
0.0082959999999998,0.0323904000000012,-0.0069819999999998,-0.0015063999999996,0.0004398000000009,-0.0007537999999998,0,sub_15
0.0087739999999998,0.0337248000000012,-0.0060493999999999,-0.0027971999999996,-0.001050399999999,9.360000000019266e-05,0,sub_15
0.0084619999999998,0.0359956000000012,-0.0038211999999998,-0.0028001999999996,-0.001052999999999,0.0007344000000001,0,sub_15
0.0076409999999998,0.0373226000000012,-0.0027791999999998,-0.0019437999999996,0.0002198000000009,0.0013798000000001,0,sub_15
0.0058963999999998,0.0388932000000012,-0.0023093999999998,0.0004082000000003,0.0017012000000009,0.0018216000000001,0,sub_15
0.0050247999999998,0.0382914000000012,-0.0032551999999998,0.0029612000000003,0.0029500000000009,0.0020552000000001,0,sub_15
0.0040863999999997,0.0372164000000012,-0.0040843999999998,0.0052978000000003,0.0029238000000009,0.0016480000000001,0,sub_15
0.0042895999999998,0.0352716000000012,-0.0054485999999998,0.0063446000000003,0.0009838000000009,0.0014478000000001,0,sub_15
0.0054317999999998,0.0343298000000012,-0.0053563999999998,0.0058978000000003,-0.001375399999999,0.0008104000000001,0,sub_15
0.0069165999999998,0.0332000000000012,-0.0050659999999998,0.0037478000000003,-0.003088599999999,-5.339999999984732e-05,0,sub_15
0.0079131999999998,0.0328144000000012,-0.0043361999999999,0.0016122000000003,-0.003931599999999,-0.0004945999999998,0,sub_15
0.0089717999999998,0.0338134000000012,-0.0035569999999999,-0.0005195999999996,-0.003497999999999,-0.0005101999999998,0,sub_15
0.0097487999999998,0.0339294000000012,-0.0032795999999999,-0.0022367999999996,-0.002006999999999,-0.0005239999999998,0,sub_15
0.0092109999999998,0.0336314000000012,-0.0039867999999999,-0.0033119999999996,0.0001200000000009,-0.0003205999999998,0,sub_15
0.0081501999999998,0.0335292000000012,-0.0048647999999999,-0.0039641999999996,0.0016056000000009,0.0001002000000001,0,sub_15
0.0073929999999998,0.0348378000000012,-0.0043479999999999,-0.0039793999999996,0.0022376000000009,0.0003130000000001,0,sub_15
0.0068239999999998,0.0352616000000012,-0.0043511999999998,-0.0031465999999996,0.0013760000000009,0.0003200000000001,0,sub_15
0.0058857999999998,0.0368410000000012,-0.0040011999999998,-0.0016567999999996,0.0005186000000009,0.0003314000000001,0,sub_15
0.0052591999999998,0.0383596000000012,-0.0036949999999998,0.0002578000000003,-0.000766399999999,0.0003464000000001,0,sub_15
0.0055339999999998,0.0392468000000012,-0.0039431999999998,0.0032392000000003,-0.002055199999999,0.0003690000000001,0,sub_15
0.0055271999999998,0.0384798000000012,-0.0044867999999998,0.0060064000000003,-0.003768399999999,0.0001768000000001,0,sub_15
0.0055517999999998,0.0369358000000012,-0.0053945999999999,0.0074770000000003,-0.004196199999999,0.0001866000000001,0,sub_15
0.0059881999999998,0.0350796000000012,-0.0063991999999999,0.0066014000000003,-0.004402799999999,0.0001798000000001,0,sub_15
0.0064651999999998,0.0341464000000012,-0.0061091999999999,0.0057240000000003,-0.005247799999999,-3.999999999986731e-05,0,sub_15
0.0064387999999997,0.0333982000000012,-0.0050541999999999,0.0039950000000003,-0.005451599999999,-5.299999999984733e-05,0,sub_15
0.0064699999999997,0.0330342000000012,-0.0042963999999998,0.0020584000000003,-0.004376199999999,-6.879999999984732e-05,0,sub_15
0.0068145999999997,0.0332786000000012,-0.0041823999999998,0.0003542000000003,-0.004155599999999,-0.0005081999999998,0,sub_15
0.0064999999999997,0.0333742000000012,-0.0031101999999998,0.0003494000000003,-0.005008599999999,-0.0002935999999998,0,sub_15
0.0071279999999997,0.0330104000000012,-0.0028389999999998,0.0003522000000003,-0.003944999999999,0.0001324000000001,0,sub_15
0.0080853999999998,0.0326208000000012,-0.0028277999999998,-8.399999999965592e-05,-0.003084799999999,-0.0002987999999998,0,sub_15
0.0086745999999998,0.0324780000000012,-0.0033017999999998,-0.0005219999999996,-0.002226599999999,-0.0003027999999998,0,sub_15
0.0089935999999998,0.0322068000000012,-0.0029569999999998,-0.0011703999999996,-0.000516199999999,-9.579999999984731e-05,0,sub_15
0.0091265999999998,0.0319376000000012,-0.0033865999999998,-0.0030951999999996,0.0018386000000009,-0.0001119999999998,0,sub_15
0.0087753999999998,0.0317506000000012,-0.0038227999999998,-0.0058763999999996,0.0031330000000009,-0.0005601999999998,0,sub_15
0.0082935999999998,0.0320678000000012,-0.0053589999999998,-0.0080089999999996,0.0039900000000008,6.480000000015267e-05,0,sub_15
0.0068365999999998,0.0336482000000012,-0.0049341999999998,-0.0092921999999996,0.0037798000000008,0.0004834000000001,0,sub_15
0.0052927999999998,0.0341038000000012,-0.0048635999999998,-0.0086721999999996,0.0020714000000008,0.0011308000000001,0,sub_15
0.0042887999999998,0.0349466000000012,-0.0050243999999998,-0.0074111999999996,-0.0004871999999991,0.0007154000000001,0,sub_15
0.0034853999999998,0.0369226000000012,-0.0052479999999998,-0.0052957999999996,-0.0030479999999991,9.240000000015276e-05,0,sub_15
0.0030997999999998,0.0375846000000012,-0.0031505999999998,-0.0021067999999996,-0.004545599999999,-0.0009517999999998,0,sub_15
0.0044657999999998,0.0361144000000012,-0.0027645999999999,0.0002326000000003,-0.005400199999999,-0.0022163999999998,0,sub_15
0.0065859999999998,0.0356556000000012,-0.0040025999999999,0.0006688000000003,-0.004968799999999,-0.0039231999999998,0,sub_15
0.0091445999999998,0.0353366000000012,-0.0047713999999999,0.0013148000000003,-0.004329399999999,-0.0045603999999998,0,sub_15
0.0104791999999998,0.0340610000000012,-0.0055117999999999,0.0013092000000003,-0.005395599999999,-0.0043453999999998,0,sub_15
0.0112007999999998,0.0340078000000012,-0.0063717999999998,-0.0004245999999996,-0.008375199999999,-0.0032857999999998,0,sub_15
0.0112413999999998,0.0339422000000012,-0.0067001999999998,-0.0021581999999996,-0.011142599999999,-0.0020127999999998,0,sub_15
0.0107651999999998,0.0340348000000012,-0.0052193999999998,-0.0032487999999996,-0.012636599999999,-9.599999999984724e-05,0,sub_15
0.0096005999999998,0.0340940000000012,-0.0039669999999998,-0.0032631999999996,-0.012215999999999,0.0016122000000001,0,sub_15
0.0082743999999998,0.0340182000000012,-0.0029563999999998,-0.0024143999999996,-0.010092199999999,0.0028968000000001,0,sub_15
0.0070631999999998,0.0338078000000012,-0.0027539999999999,-0.0006987999999996,-0.007756399999999,0.0033330000000001,0,sub_15
0.0065871999999998,0.0336142000000012,-0.0041529999999999,-0.0002615999999996,-0.005838799999999,0.0029062000000001,0,sub_15
0.0059511999999998,0.0341834000000012,-0.0043757999999998,0.0003860000000003,-0.005197599999999,0.0018418000000001,0,sub_15
0.0060045999999998,0.0341216000000012,-0.0038889999999998,0.0008156000000003,-0.005832999999999,0.0005636000000001,0,sub_15
0.0069825999999998,0.0333998000000012,-0.0040267999999998,0.0005988000000003,-0.006248999999999,-0.0007211999999998,0,sub_15
0.0082511999999998,0.0322636000000012,-0.0049955999999998,-0.0004637999999996,-0.005169799999999,-0.0022273999999998,0,sub_15
0.0082821999999998,0.0331470000000012,-0.0045263999999998,-0.0004641999999996,-0.004310799999999,-0.0028713999999998,0,sub_15
0.0078855999999998,0.0331832000000012,-0.0049295999999999,-0.0006855999999996,-0.004306599999999,-0.0026613999999998,0,sub_15
0.0070581999999998,0.0340588000000012,-0.0059233999999999,-0.0009119999999996,-0.005155599999999,-0.0022363999999998,0,sub_15
0.0068553999999998,0.0345654000000012,-0.0063861999999999,-0.0007053999999996,-0.005586599999999,-0.0011661999999998,0,sub_15
0.0063243999999998,0.0351964000000012,-0.0054171999999999,0.0005662000000003,-0.006447399999999,-8.799999999984714e-05,0,sub_15
0.0064971999999998,0.0345334000000012,-0.0047099999999999,0.0020442000000003,-0.006871599999999,0.0012034000000001,0,sub_15
0.0072567999999998,0.0340796000000012,-0.0042305999999999,0.0031050000000003,-0.006012599999999,0.0016358000000001,0,sub_15
0.0076959999999998,0.0334156000000012,-0.0042101999999999,0.0037450000000003,-0.004085999999999,0.0018500000000001,0,sub_15
0.0072623999999998,0.0334874000000012,-0.0040925999999999,0.0037430000000003,-0.003007799999999,0.0016338000000001,0,sub_15
0.0068143999999998,0.0338406000000012,-0.0048293999999999,0.0035266000000003,-0.002141799999999,0.0014162000000001,0,sub_15
0.0066395999999998,0.0342404000000012,-0.0052505999999999,0.0028904000000002,-0.001923999999999,0.0007706000000001,0,sub_15
0.0061549999999998,0.0341968000000012,-0.0055401999999999,0.0028896000000003,-0.002137199999999,0.0007708000000001,0,sub_15
0.0058531999999998,0.0337104000000012,-0.0048197999999999,0.0033184000000003,-0.001924799999999,0.0005600000000001,0,sub_15
0.0059765999999997,0.0341430000000012,-0.0043357999999998,0.0039706000000003,-0.001065399999999,0.0001356000000001,0,sub_15
0.0063417999999997,0.0343100000000012,-0.0040387999999998,0.0050468000000003,-0.000634599999999,-7.139999999986716e-05,0,sub_15
0.0067845999999998,0.0333264000000012,-0.0042223999999998,0.0061240000000003,0.0002216000000009,-6.539999999986718e-05,0,sub_15
0.0074819999999998,0.0330716000000012,-0.0042813999999998,0.0065628000000003,0.0012940000000009,-0.0002777999999998,0,sub_15
0.0082527999999998,0.0333726000000012,-0.0049369999999998,0.0061424000000003,0.0013032000000009,-0.0002811999999998,0,sub_15
0.0088195999999998,0.0330512000000012,-0.0056585999999999,0.0059234000000003,0.0002378000000009,-6.759999999984717e-05,0,sub_15
0.0093367999999998,0.0326258000000012,-0.0057807999999999,0.0050672000000003,2.6000000000918365e-05,0.0003538000000001,0,sub_15
0.0093721999999998,0.0331096000000012,-0.0057349999999998,0.0044250000000003,2.660000000091836e-05,0.0007766000000001,0,sub_15
0.0093585999999998,0.0335354000000012,-0.0055905999999998,0.0039974000000003,-0.000184999999999,0.0007740000000001,0,sub_15
0.0085041999999998,0.0334648000000012,-0.0054331999999998,0.0037924000000003,0.0002612000000009,0.0007760000000001,0,sub_15
0.0076245999999998,0.0330130000000012,-0.0049627999999998,0.0038016000000003,0.0009198000000009,0.0007792000000001,0,sub_15
0.0064987999999998,0.0329996000000012,-0.0052579999999998,0.0033810000000003,0.0007286000000009,0.0005670000000001,0,sub_15
0.0058771999999998,0.0332298000000012,-0.0051349999999998,0.0031750000000003,0.0005374000000009,0.0001426000000001,0,sub_15
0.0055389999999998,0.0330098000000012,-0.0051825999999998,0.0031784000000003,-8.219999999906175e-05,0.0001474000000001,0,sub_15
0.0061221999999998,0.0331506000000012,-0.0051405999999998,0.0027496000000003,-0.000718999999999,-6.839999999986718e-05,0,sub_15
0.0070195999999998,0.0331692000000012,-0.0045959999999998,0.0027506000000003,-0.000718199999999,-0.0002819999999998,0,sub_15
0.0078583999999998,0.0327256000000012,-0.0044377999999998,0.0023340000000003,0.0001652000000009,-0.0004985999999998,0,sub_15
0.0084801999999998,0.0326484000000012,-0.0054247999999998,0.0012742000000003,0.0008360000000009,-0.0002921999999998,0,sub_15
0.0085115999999998,0.0331650000000012,-0.0057539999999998,0.0004270000000003,0.0010808000000009,-0.0002973999999998,0,sub_15
0.0081663999999998,0.0335018000000012,-0.0053035999999998,0.0004264000000003,0.0002558000000009,0.0001320000000001,0,sub_15
0.0080193999999998,0.0336824000000012,-0.0053353999999999,0.0002114000000003,-0.000781599999999,0.0005602000000001,0,sub_15
0.0077871999999998,0.0340274000000012,-0.0046947999999999,0.0008458000000003,-0.001425599999999,0.0012062000000001,0,sub_15
0.0079791999999998,0.0338526000000012,-0.0035953999999999,0.0021212000000003,-0.001858799999999,0.0018566000000001,0,sub_15
0.0077473999999997,0.0338768000000012,-0.0032963999999999,0.0027594000000003,-0.001862799999999,0.0022882000000001,0,sub_15
0.0082575999999997,0.0334426000000012,-0.0036799999999999,0.0029810000000003,-0.000341199999999,0.0022892000000001,0,sub_15
0.0082659999999997,0.0332560000000012,-0.0043811999999999,0.0025624000000003,0.0013950000000009,0.0024992000000001,0,sub_15
0.0080249999999998,0.0330214000000012,-0.0055039999999999,0.0010720000000003,0.0014330000000009,0.0020630000000001,0,sub_15
0.0077093999999998,0.0325736000000012,-0.0064479999999999,-0.0021299999999996,0.0001996000000009,0.0014028000000001,0,sub_15
