userAcceleration.x,userAcceleration.y,userAcceleration.z,rotationRate.x,rotationRate.y,rotationRate.z,label,subject
0.0141997999999997,0.0312502000000012,-0.0022995999999998,-0.0012673999999995,0.0014442000000008,-0.0028451999999998,0,sub_21
0.0144357999999997,0.0316306000000012,-0.0036575999999998,-0.0016659999999995,0.0018750000000008,-0.0028435999999998,0,sub_21
0.0150585999999997,0.0326692000000012,-0.0035815999999998,-0.0016425999999995,0.0018758000000008,-0.0021975999999999,0,sub_21
0.0153355999999997,0.0330026000000012,-0.0032555999999998,-0.0016247999999995,0.0010226000000008,-0.0011231999999999,0,sub_21
0.0162501999999997,0.0325686000000012,-0.0038131999999998,-0.0005685999999995,-0.0006879999999991,-0.0004725999999999,0,sub_21
0.0166765999999997,0.0323534000000012,-0.0036503999999998,-0.0007809999999995,-0.0004741999999991,-0.0004743999999999,0,sub_21
0.0168327999999997,0.0318534000000012,-0.0025533999999998,7.060000000042794e-05,-0.0004787999999991,-4.119999999993048e-05,0,sub_21
0.0170523999999997,0.0306650000000012,-0.0023677999999998,0.0009232000000004,-0.0004825999999991,0.0001784,0,sub_21
0.0174087999999997,0.0309392000000012,-0.0025903999999998,0.0013548000000004,0.0001566000000008,-0.0002467999999999,0,sub_21
0.0169275999999997,0.0323436000000012,-0.0024873999999998,0.0007244000000004,0.0018648000000008,-0.0006807999999998,0,sub_21
0.0162431999999997,0.0334420000000012,-0.0025309999999998,0.0009328000000004,0.0010110000000009,-0.0004645999999998,0,sub_21
0.0157101999999997,0.0340712000000012,-0.0027385999999999,0.0009362000000004,-0.001121599999999,-0.0006707999999998,0,sub_21
0.0159739999999997,0.0340700000000012,-0.0033081999999999,0.0011546000000004,-0.002828999999999,-0.0008759999999998,0,sub_21
0.0159871999999997,0.0328850000000012,-0.0033645999999999,0.0011626000000004,-0.003471799999999,-0.0006567999999998,0,sub_21
0.0158807999999997,0.0317938000000012,-0.0030239999999999,0.0007466000000004,-0.003686199999999,-0.0006545999999999,0,sub_21
0.0165387999999997,0.0302546000000012,-0.0029219999999999,0.0005470000000004,-0.003262199999999,-0.0006517999999999,0,sub_21
0.0176827999999997,0.0291922000000012,-0.0027281999999999,0.0009756000000004,-0.002837599999999,-0.0006493999999999,0,sub_21
0.0178861999999997,0.0291834000000012,-0.0022751999999999,0.0007662000000004,-0.001772399999999,-0.0004385999999999,0,sub_21
0.0176867999999997,0.0308086000000012,-0.0022989999999999,0.0003854000000004,-0.0013663999999991,-0.0004137999999999,0,sub_21
0.0173173999999997,0.0312480000000012,-0.0021335999999998,0.0008544000000004,-0.0011789999999991,0.000258,0,sub_21
0.0168367999999997,0.0324706000000012,-0.0023191999999998,0.0002564000000004,-0.0014123999999991,0.0004956,0,sub_21
0.0158537999999997,0.0329182000000012,-0.0032711999999998,-0.0001301999999995,-0.0018603999999991,0.0009486,0,sub_21
0.0152289999999997,0.0331286000000012,-0.0032589999999998,-0.0003015999999995,-0.002307399999999,0.0009758,0,sub_21
0.0157159999999997,0.0319460000000012,-0.0029411999999998,-8.839999999959208e-05,-0.002308199999999,0.0009772,0,sub_21
0.0162299999999997,0.0318160000000012,-0.0027149999999999,-0.0002999999999995,-0.002517999999999,0.000335,0,sub_21
0.0165845999999997,0.0311622000000012,-0.0024151999999999,0.0005546000000004,-0.002519999999999,0.0001274,0,sub_21
0.0172017999999997,0.0308180000000012,-0.0022005999999999,0.0008054000000004,-0.001675399999999,-6.139999999993053e-05,0,sub_21
0.0171109999999997,0.0306946000000012,-0.0023129999999999,0.0004132000000004,-0.0012555999999991,-4.079999999993052e-05,0,sub_21
0.0169899999999997,0.0310848000000012,-0.0026271999999999,0.0002316000000004,-0.001263599999999,0.0001956,0,sub_21
0.0170123999999997,0.0318422000000012,-0.0030485999999999,-0.0001661999999995,-0.001273199999999,0.0010714,0,sub_21
0.0168383999999997,0.0324372000000012,-0.0033051999999999,-0.0003479999999995,-0.001281199999999,0.0013078,0,sub_21
0.0164733999999997,0.0328564000000012,-0.0027929999999999,-0.0005593999999995,-0.001066599999999,0.0010924,0,sub_21
0.0164685999999997,0.0325134000000012,-0.0022963999999999,-0.0003429999999995,-0.000852599999999,0.0006664,0,sub_21
0.0163269999999997,0.0317772000000012,-0.0025595999999999,-0.0001285999999995,-0.001276799999999,2.760000000004946e-05,0,sub_21
0.0164705999999997,0.0309810000000012,-0.0023887999999999,0.0003240000000004,-0.001919599999999,-0.0008025999999999,0,sub_21
0.0163989999999997,0.0308098000000012,-0.0024557999999999,0.0005662000000004,-0.001285599999999,-0.0009949999999999,0,sub_21
0.0162215999999997,0.0307276000000012,-0.0020109999999999,0.0001682000000004,-0.0002249999999991,-0.0007651999999999,0,sub_21
0.0166293999999997,0.0302750000000012,-0.0019449999999999,-1.819999999957203e-05,0.0004088000000008,-0.0005331999999999,0,sub_21
0.0170437999999997,0.0308436000000012,-0.0021079999999999,-0.0004189999999995,0.0008302000000008,-0.0003025999999999,0,sub_21
0.0167423999999997,0.0317676000000012,-0.0027727999999999,-0.0014789999999995,0.0021132000000008,-0.0005251999999999,0,sub_21
0.0169945999999997,0.0320014000000012,-0.0023313999999999,-0.0027581999999995,0.0021184000000008,-0.0007477999999999,0,sub_21
0.0172577999999997,0.0318626000000012,-0.0028223999999999,-0.0014903999999995,-1.9199999999111597e-05,-9.51999999999305e-05,0,sub_21
0.0170175999999997,0.0329282000000012,-0.0035469999999999,-0.0008561999999995,-0.0008753999999991,0.0003376,0,sub_21
0.0165717999999997,0.0325432000000012,-0.0029077999999999,-0.0010533999999995,-0.0002405999999991,0.0007768,0,sub_21
0.0166549999999997,0.0311684000000012,-0.0020637999999999,-0.0004019999999995,-0.0006739999999991,0.0012232,0,sub_21
0.0168859999999997,0.0305874000000012,-0.0027167999999999,0.0008876000000004,-0.0015355999999991,0.0016748,0,sub_21
0.0166683999999997,0.0306004000000012,-0.0025951999999999,0.0002724000000004,-4.279999999911154e-05,0.0010418,0,sub_21
0.0164125999999997,0.0307828000000012,-0.0021537999999999,7.9000000000388e-05,0.0003832000000008,0.000413,0,sub_21
0.0163981999999997,0.0316746000000012,-0.0018403999999999,0.0002904000000004,-0.000467999999999,-1.1599999999930546e-05,0,sub_21
0.0165835999999997,0.0322994000000012,-0.0019501999999999,0.0002856000000004,-0.001533199999999,-1.0199999999930544e-05,0,sub_21
0.0167691999999997,0.0317350000000012,-0.0018277999999999,7.840000000040794e-05,-0.0019549999999991,0.0002112,0,sub_21
0.0170613999999997,0.0308008000000012,-0.0013511999999999,-0.0003375999999995,-0.002159599999999,-0.0004237999999999,0,sub_21
0.0174559999999997,0.0304984000000012,-0.0015159999999998,-0.0009667999999995,-0.0019389999999991,-0.0006333999999999,0,sub_21
0.0176095999999997,0.0298398000000012,-0.0014887999999998,-0.0003157999999996,-0.0015107999999991,-0.0006207999999999,0,sub_21
0.0177831999999997,0.0295612000000012,-0.0016691999999998,0.0005504000000003,-0.0006571999999991,-0.0006071999999999,0,sub_21
0.0171683999999997,0.0311392000000012,-0.0017063999999998,0.0001274000000003,0.0001964000000008,-0.0006111999999999,0,sub_21
0.0166239999999997,0.0321572000000012,-0.0022511999999998,-8.779999999961207e-05,0.0008320000000008,0.0004548,0,sub_21
0.0166245999999997,0.0318058000000012,-0.0021795999999999,0.0001208000000003,0.0006148000000008,0.0013112,0,sub_21
0.0159671999999997,0.0315946000000012,-0.0027391999999999,0.0001180000000004,0.0004000000000008,0.0017388,0,sub_21
0.0155953999999997,0.0315794000000012,-0.0023403999999999,0.0001218000000004,0.0004062000000008,0.0019572,0,sub_21
0.0154997999999997,0.0312126000000012,-0.0017187999999999,0.0007696000000004,0.0006258000000008,0.0015388,0,sub_21
0.0159495999999997,0.0310040000000012,-0.0017161999999999,0.0009866000000004,0.0004190000000008,0.0015452,0,sub_21
0.0159573999999997,0.0313278000000012,-0.0017559999999999,0.0014170000000004,0.0004236000000009,0.0017666,0,sub_21
0.0168633999999997,0.0316904000000012,-0.0019757999999999,0.0016320000000004,0.0002152000000008,0.0022004,0,sub_21
0.0168013999999997,0.0322008000000012,-0.0017867999999999,0.0012062000000004,0.0006418000000008,0.0024106,0,sub_21
0.0168401999999997,0.0318490000000012,-0.0021381999999999,0.0007756000000004,0.0004276000000009,0.0030488,0,sub_21
0.0173295999999997,0.0316216000000012,-0.0021905999999999,0.0007754000000004,0.0002200000000009,0.003479,0,sub_21
0.0173157999999997,0.0311926000000012,-0.0027191999999999,0.0005628000000004,1.4000000000908522e-05,0.0036938,0,sub_21
0.0173743999999997,0.0307480000000012,-0.0029153999999999,0.0001406000000004,0.0004488000000009,0.0036928,0,sub_21
0.0175559999999997,0.0305110000000012,-0.0037005999999999,0.0001404000000004,2.920000000090849e-05,0.0039094,0,sub_21
0.0175559999999997,0.0307656000000012,-0.0034359999999999,-7.139999999955216e-05,3.640000000088849e-05,0.004124,0,sub_21
0.0170821999999997,0.0316342000000012,-0.0032783999999999,-7.239999999957216e-05,-0.0001765999999991,0.0041242,0,sub_21
0.0169873999999997,0.0320802000000012,-0.0030717999999998,-0.0002857999999995,-0.0001757999999991,0.0041228,0,sub_21
0.0166887999999997,0.0324494000000012,-0.0029503999999998,-0.0002865999999995,-0.0003887999999991,0.004123,0,sub_21
0.0169925999999997,0.0318936000000012,-0.0027561999999998,-0.0004931999999995,4.440000000088852e-05,0.0036948,0,sub_21
0.0170693999999997,0.0310126000000012,-0.0024887999999999,-5.859999999959216e-05,0.0004762000000008,0.0030574,0,sub_21
0.0172075999999997,0.0300758000000012,-0.0021509999999999,0.0005884000000003,0.0009066000000008,0.002635,0,sub_21
0.0174479999999997,0.0303182000000012,-0.0022959999999999,-4.199999999961223e-05,0.0015562000000008,0.0017762,0,sub_21
0.0177321999999997,0.0307800000000012,-0.0024393999999998,-0.0013135999999996,0.0019948000000008,0.0009132,0,sub_21
0.0171887999999997,0.0306552000000012,-0.0023701999999998,-0.0017413999999996,0.0017832000000008,0.0009104,0,sub_21
0.0173563999999997,0.0308914000000011,-0.0033649999999998,-0.0011117999999996,0.0002862000000008,0.0017714,0,sub_21
0.0171549999999997,0.0314668000000012,-0.0035931999999998,-0.0017537999999995,7.440000000086859e-05,0.001981,0,sub_21
0.0166269999999997,0.0311328000000011,-0.0026711999999998,-0.0013223999999995,0.0009294000000008,0.0021962,0,sub_21
0.0163059999999997,0.0307788000000011,-0.0018793999999999,-3.93999999995722e-05,0.0009310000000008,0.0019912,0,sub_21
0.0168153999999997,0.0319732000000012,-0.0027737999999998,0.0012426000000004,0.0007194000000008,0.0017864,0,sub_21
0.0173225999999997,0.0328058000000012,-0.0030093999999998,0.0010434000000003,0.0024340000000008,0.0007142,0,sub_21
0.0168425999999997,0.0331924000000012,-0.0030079999999998,0.0014794000000003,0.0030810000000008,-0.0003523999999999,0,sub_21
0.0168823999999997,0.0337804000000012,-0.0033717999999998,0.0014726000000003,0.0007408000000008,-0.0012039999999999,0,sub_21
0.0172379999999997,0.0336668000000012,-0.0036709999999998,0.0014716000000003,0.0007398000000008,-0.0009903999999999,0,sub_21
0.0170463999999997,0.0321386000000012,-0.0034119999999999,0.0008306000000003,0.0003168000000008,-0.0012079999999999,0,sub_21
0.0168793999999997,0.0316618000000012,-0.0028603999999999,0.0006142000000003,-0.0001093999999991,-0.0009953999999999,0,sub_21
0.0175617999999997,0.0308946000000012,-0.0026349999999999,0.0001848000000003,-0.0001071999999991,-0.0003593999999999,0,sub_21
0.0181369999999997,0.0298846000000012,-0.0025533999999999,0.0004012000000003,0.0009586000000008,6.58000000000696e-05,0,sub_21
0.0178831999999997,0.0306928000000012,-0.0026091999999999,0.0003984000000004,0.0003226000000008,6.440000000006961e-05,0,sub_21
0.0173857999999997,0.0320884000000012,-0.0019387999999999,0.0003994000000004,0.0009632000000008,0.0004888,0,sub_21
0.0164889999999997,0.0325268000000012,-0.0013233999999999,0.0003986000000003,0.0007532000000008,0.000487,0,sub_21
0.0165167999999997,0.0324814000000012,-0.0016565999999999,0.0008204000000003,-0.0005257999999991,0.0002778,0,sub_21
0.0163747999999997,0.0327234000000012,-0.0016715999999999,0.0010338000000003,-0.0007385999999991,6.600000000006956e-05,0,sub_21
0.0164157999999997,0.0318412000000012,-0.0014759999999999,0.0010330000000003,-0.000949799999999,-0.0001547999999999,0,sub_21
0.0171991999999997,0.0309192000000012,-0.0017133999999999,0.0010312000000003,-0.001586199999999,-0.0005885999999999,0,sub_21
0.0180803999999997,0.0300704000000012,-0.0024691999999999,0.0008180000000003,-0.001795799999999,-0.0010245999999999,0,sub_21
0.0176281999999997,0.0304532000000012,-0.0025931999999999,0.0008192000000004,-0.001580799999999,-0.0012457999999999,0,sub_21
0.0172347999999997,0.0308496000000012,-0.0031601999999999,0.0008154000000004,-0.001794599999999,-0.0008257999999999,0,sub_21
0.0170531999999997,0.0309612000000012,-0.0028149999999999,0.0008154000000004,-0.0013701999999991,-0.0003989999999999,0,sub_21
0.0167969999999997,0.0312748000000012,-0.0030561999999998,0.0003906000000004,-0.0009425999999991,-0.0004025999999999,0,sub_21
0.0165027999999997,0.0314294000000012,-0.0027519999999998,-0.0002475999999995,-0.0007263999999991,-0.0006209999999999,0,sub_21
0.0169791999999997,0.0314042000000012,-0.0028331999999998,-0.0011011999999995,-0.0009357999999991,-0.0008403999999999,0,sub_21
0.0175541999999997,0.0309420000000012,-0.0030483999999998,-0.0013185999999995,-0.0017869999999991,-0.0008533999999998,0,sub_21
0.0177831999999997,0.0308746000000012,-0.0037417999999998,-0.0013217999999995,-0.0024259999999991,-0.0008651999999998,0,sub_21
0.0178135999999997,0.0310516000000012,-0.0029151999999999,-0.0011077999999995,-0.0022133999999991,-0.0008765999999999,0,sub_21
0.0174021999999997,0.0309708000000012,-0.0023267999999999,-0.0006803999999995,-0.0020015999999991,-0.0008863999999999,0,sub_21
0.0171283999999997,0.0301998000000012,-0.0023573999999999,-0.0011111999999995,-0.0024275999999991,-0.0004741999999999,0,sub_21
0.0171223999999997,0.0309290000000012,-0.0031607999999999,-0.0008901999999995,-0.0013605999999991,-0.0011149999999999,0,sub_21
0.0167855999999997,0.0311966000000012,-0.0016761999999999,-0.0013131999999995,-0.0011433999999991,-0.0017591999999999,0,sub_21
0.0163993999999997,0.0310000000000011,-0.0016227999999999,-0.0015275999999995,-0.0015679999999991,-0.0019737999999999,0,sub_21
0.0170017999999997,0.0305912000000011,-0.0028261999999999,-0.0010997999999995,-0.0017847999999991,-0.0019831999999999,0,sub_21
0.0176015999999997,0.0313640000000012,-0.0028487999999999,-0.0008747999999995,-0.0007183999999991,-0.0030637999999999,0,sub_21
0.0177401999999997,0.0314796000000012,-0.0013891999999999,-0.0019367999999995,-0.0005021999999991,-0.0035111999999999,0,sub_21
0.0175541999999997,0.0314606000000012,-0.0025483999999999,-0.0021479999999995,-0.0005037999999991,-0.0035251999999999,0,sub_21
0.0178131999999997,0.0316530000000012,-0.0034137999999999,-0.0012989999999995,-0.001788199999999,-0.0033165999999999,0,sub_21
0.0172695999999997,0.0319472000000012,-0.0030393999999998,-0.0013007999999995,-0.002002199999999,-0.0031025999999999,0,sub_21
0.0163543999999997,0.0311604000000012,-0.0025465999999998,-0.0008719999999995,-0.000940799999999,-0.0024599999999999,0,sub_21
0.0159447999999997,0.0300592000000012,-0.0030297999999998,-0.0002339999999995,-0.0009489999999991,-0.0018233999999999,0,sub_21
0.0162903999999997,0.0295826000000012,-0.0035733999999998,0.0006212000000004,-0.0007423999999991,-0.0018263999999999,0,sub_21
0.0163635999999997,0.0297788000000012,-0.0030159999999998,0.0002058000000004,0.0009626000000008,-0.0024809999999999,0,sub_21
0.0160747999999997,0.0307478000000012,-0.0029627999999998,-4.999999999611999e-06,0.0009616000000008,-0.0029183999999999,0,sub_21
0.0164295999999997,0.0317490000000012,-0.0033995999999998,0.0002004000000003,-0.0009601999999991,-0.0029231999999999,0,sub_21
0.0161263999999997,0.0321130000000012,-0.0027487999999998,0.0006206000000003,-0.0022407999999991,-0.0027049999999999,0,sub_21
0.0169035999999997,0.0317688000000011,-0.0020121999999998,0.0006178000000003,-0.0024553999999991,-0.0022773999999999,0,sub_21
0.0170819999999997,0.0314820000000011,-0.0022613999999999,0.0004034000000004,-0.0024555999999991,-0.0020651999999999,0,sub_21
0.0181989999999997,0.0309828000000011,-0.0022519999999999,-2.2599999999571964e-05,-0.0020303999999991,-0.0018605999999999,0,sub_21
0.0192287999999997,0.0303140000000012,-0.0025237999999999,0.0004068000000004,-0.0016065999999991,-0.0020771999999999,0,sub_21
0.0198275999999997,0.0310028000000012,-0.0026213999999999,0.0006266000000004,-0.0005419999999991,-0.0025095999999999,0,sub_21
0.0186703999999997,0.0322566000000012,-0.0023201999999999,0.0004206000000004,0.0011614000000008,-0.0025185999999999,0,sub_21
0.0179073999999997,0.0325876000000012,-0.0018185999999999,0.0004204000000004,0.0017964000000008,-0.0018839999999999,0,sub_21
0.0172921999999997,0.0325400000000012,-0.0019057999999999,0.0004176000000004,0.0015816000000008,-0.0014563999999999,0,sub_21
0.0166819999999997,0.0327472000000012,-0.0022799999999999,-0.0002271999999995,0.0013674000000008,-0.0006059999999999,0,sub_21
0.0163633999999997,0.0319192000000012,-0.0028589999999999,-0.0004453999999995,0.0005150000000008,-0.0003927999999999,0,sub_21
0.0167845999999997,0.0312002000000012,-0.0031195999999999,-0.0002369999999995,-0.0009741999999991,-0.0006039999999999,0,sub_21
0.0176845999999997,0.0311874000000012,-0.0028541999999999,0.0001904000000004,-0.0016101999999991,-0.0012419999999999,0,sub_21
0.0178337999999997,0.0311362000000012,-0.0022399999999999,0.0008350000000004,-0.0016069999999991,-0.0020929999999999,0,sub_21
0.0179811999999997,0.0311790000000012,-0.0020651999999999,0.0012672000000004,-0.0011777999999991,-0.0027323999999999,0,sub_21
0.0184555999999997,0.0314240000000012,-0.0021041999999999,0.0010554000000004,-0.0005375999999991,-0.0023083999999999,0,sub_21
0.0184813999999997,0.0313506000000011,-0.0022723999999999,0.0001990000000004,-0.0005371999999991,-0.0016735999999999,0,sub_21
0.0180127999999997,0.0311320000000011,-0.0025779999999999,-2.0999999999592027e-05,-0.0013911999999991,-0.0010331999999999,0,sub_21
0.0182591999999997,0.0306726000000011,-0.0027947999999999,-2.7599999999612005e-05,-0.0020337999999991,-0.0001777999999999,0,sub_21
0.0171881999999997,0.0309500000000011,-0.0021869999999999,-2.9599999999612013e-05,-0.0022475999999991,3.600000000006974e-05,0,sub_21
0.0167931999999997,0.0308918000000011,-0.0016253999999999,-0.0002401999999996,-0.0024557999999991,3.7200000000069744e-05,0,sub_21
0.0168719999999997,0.0313528000000011,-0.0020765999999999,-2.499999999961201e-05,-0.0030907999999991,-0.0001715999999999,0,sub_21
0.0170069999999997,0.0309218000000011,-0.0030219999999999,-0.0002337999999996,-0.0032973999999991,-0.0005975999999999,0,sub_21
0.0166181999999997,0.0312206000000012,-0.0036193999999999,-1.679999999959197e-05,-0.0035061999999991,-0.0008069999999999,0,sub_21
0.0174473999999997,0.0308546000000012,-0.0038079999999999,-1.0199999999612015e-05,-0.0032873999999991,-0.0012319999999999,0,sub_21
0.0167613999999997,0.0306060000000011,-0.0034893999999999,0.0006318000000003,-0.0030757999999991,-0.0014413999999999,0,sub_21
0.0164663999999997,0.0295898000000011,-0.0033965999999998,0.0006336000000003,-0.0024373999999991,-0.0012285999999999,0,sub_21
0.0166101999999997,0.0302992000000011,-0.0034293999999998,0.0002078000000003,-0.0017983999999991,-0.0008049999999999,0,sub_21
0.0165923999999997,0.0311008000000011,-0.0035613999999998,-0.0010671999999996,-0.0011531999999991,-0.0001663999999999,0,sub_21
0.0165755999999997,0.0317030000000011,-0.0034769999999998,-0.0010687999999995,-0.001791599999999,0.0006966,0,sub_21
0.0171955999999997,0.0319424000000012,-0.0038281999999998,-0.0006453999999995,-0.002857599999999,0.0015632,0,sub_21
0.0175049999999997,0.0324544000000012,-0.0030307999999999,0.0002124000000004,-0.003069399999999,0.001577,0,sub_21
0.0175777999999997,0.0317426000000012,-0.0019491999999999,0.0008596000000004,-0.002429199999999,0.0018018,0,sub_21
0.0177825999999997,0.0310296000000012,-0.0010405999999999,0.0021406000000004,-0.002432799999999,0.0015972,0,sub_21
0.0175559999999997,0.0305416000000012,-0.0019501999999999,0.0027874000000004,-0.001792399999999,0.0007462,0,sub_21
0.0175863999999997,0.0306164000000012,-0.0025761999999999,0.0030132000000004,-8.439999999913126e-05,-0.0003227999999999,0,sub_21
0.0174735999999997,0.0307260000000012,-0.0023423999999999,0.0025902000000004,-7.679999999913129e-05,-0.0005289999999999,0,sub_21
0.0175333999999997,0.0308428000000011,-0.0027463999999999,0.0023758000000004,-0.0011351999999991,-0.0007323999999999,0,sub_21
0.0176117999999997,0.0305824000000012,-0.0034587999999999,0.0017396000000004,-0.0011267999999991,-0.0009399999999999,0,sub_21
0.0180767999999997,0.0299848000000012,-0.0025237999999999,0.0010996000000004,-0.0015463999999991,-0.0007197999999999,0,sub_21
0.0180815999999997,0.0303632000000012,-0.0014367999999999,-0.0001815999999995,-0.0021765999999991,-0.0005037999999999,0,sub_21
0.0183391999999997,0.0305110000000012,-0.0016167999999999,-0.0006101999999995,-0.0026011999999991,-0.0005061999999999,0,sub_21
0.0191399999999997,0.0309142000000012,-0.0017541999999999,-0.0006129999999995,-0.0032403999999991,-0.0005053999999999,0,sub_21
0.0194219999999997,0.0313934000000012,-0.0016839999999998,-0.0003941999999995,-0.0025975999999991,-0.0007083999999999,0,sub_21
0.0191857999999997,0.0317286000000012,-0.0012155999999998,-0.0012375999999995,-3.699999999911135e-05,-6.659999999995034e-05,0,sub_21
0.0188335999999997,0.0310962000000011,-0.0014519999999998,-0.0014341999999995,0.0038004000000008,0.0003644,0,sub_21
0.0172799999999997,0.0295806000000011,-0.0027469999999998,-0.0014095999999995,0.0089172000000008,0.000368,0,sub_21
0.0153403999999997,0.0291218000000011,-0.0033203999999998,-0.0001075999999995,0.0131782000000008,0.000168,0,sub_21
0.0136313999999997,0.0269086000000012,-0.0018105999999999,0.0003286000000004,0.0157316000000008,0.000595,0,sub_21
0.0136689999999997,0.0287012000000012,-0.0021289999999999,0.0009600000000004,0.0138120000000008,0.0006018,0,sub_21
0.0135081999999997,0.0296910000000012,-0.0019703999999999,0.0022154000000004,0.0091170000000008,0.0014712,0,sub_21
0.0148591999999997,0.0321368000000012,-0.0019447999999999,0.0036840000000004,0.0044266000000008,0.0025638,0,sub_21
0.0157357999999997,0.0322304000000012,-0.0019749999999999,0.0034562000000004,0.0020858000000008,0.0036416,0,sub_21
0.0176649999999997,0.0345608000000012,-0.0022263999999999,0.0038706000000004,-0.0004677999999991,0.0040832,0,sub_21
0.0188017999999997,0.0341542000000012,-0.0019229999999999,0.0049318000000004,-0.0015321999999991,0.0045274,0,sub_21
0.0202243999999997,0.0332274000000012,-0.0019457999999999,0.0051470000000004,-0.001737999999999,0.00411,0,sub_21
0.0205593999999997,0.0321538000000012,-0.0010537999999999,0.0040840000000004,-0.001942999999999,0.0030346,0,sub_21
0.0201197999999997,0.0317372000000012,-0.0007449999999999,0.0030170000000004,-0.003212399999999,0.001747,0,sub_21
0.0189959999999997,0.0309716000000012,-0.0024253999999999,0.0025872000000004,-0.005123199999999,0.0004646,0,sub_21
0.0176231999999997,0.0294730000000012,-0.0027533999999999,0.0021590000000004,-0.006386799999999,-0.0003841999999999,0,sub_21
0.0167669999999997,0.0295756000000012,-0.0037407999999999,0.0019510000000004,-0.0061597999999991,-0.0012333999999999,0,sub_21
0.0162443999999997,0.0300976000000012,-0.0044903999999999,0.0015266000000004,-0.0057223999999991,-0.0012297999999999,0,sub_21
0.0161155999999997,0.0302422000000012,-0.0033855999999999,0.0008852000000004,-0.0054997999999991,-0.0005865999999999,0,sub_21
0.0169583999999997,0.0295862000000012,-0.0025717999999999,3.2400000000407885e-05,-0.0046381999999991,0.000268,0,sub_21
0.0168813999999997,0.0291328000000012,-0.0036083999999998,-0.0012419999999995,-0.0035675999999991,4.400000000004968e-05,0,sub_21
0.0164757999999997,0.0296302000000012,-0.0031547999999998,-0.0027317999999995,-0.0027099999999991,3.240000000004975e-05,0,sub_21
0.0162113999999997,0.0295358000000012,-0.0021889999999998,-0.0025221999999995,-0.0031385999999991,0.0004618,0,sub_21
0.0164411999999997,0.0302350000000012,-0.0021275999999998,-0.0014621999999996,-0.0039971999999991,0.0011112,0,sub_21
0.0162423999999997,0.0315340000000012,-0.0025143999999998,-0.0010397999999996,-0.0037769999999991,0.0015448,0,sub_21
0.0167357999999997,0.0325612000000012,-0.0018701999999998,-0.0001869999999996,-0.0020695999999991,0.0026204,0,sub_21
0.0172701999999997,0.0324624000000012,-0.0016037999999998,0.0006630000000003,-0.0014257999999991,0.00327,0,sub_21
0.0177073999999997,0.0318882000000012,-0.0023473999999998,0.0013054000000003,-0.0005637999999991,0.0028496,0,sub_21
0.0179157999999997,0.0315238000000012,-0.0031161999999998,0.0015308000000003,0.0013692000000008,0.0013568,0,sub_21
