userAcceleration.x,userAcceleration.y,userAcceleration.z,rotationRate.x,rotationRate.y,rotationRate.z,label,subject
-0.0009580000000001,0.0211104000000012,0.0120478,-0.0006427999999995,-0.001957199999999,0.0004774000000001,0,sub_4
-0.0015932000000001,0.0211408000000012,0.0108664,-0.0002165999999995,-0.003651399999999,-0.0012313999999998,0,sub_4
-0.0027172000000001,0.0212116000000012,0.0106866,0.0002116000000004,-0.004707399999999,-0.0027273999999998,0,sub_4
-0.0035974000000001,0.0210310000000012,0.0097026,0.0002160000000004,-0.004910399999999,-0.0040137999999998,0,sub_4
-0.0034300000000001,0.0215400000000012,0.0093284,0.0002208000000003,-0.004057399999999,-0.0042285999999998,0,sub_4
-0.0033590000000001,0.0221718000000012,0.0090524,1.3000000000395638e-05,-0.0023537999999991,-0.0038047999999998,0,sub_4
-0.0038436000000001,0.0220506000000012,0.0094596,0.0002404000000003,-0.0004509999999991,-0.0029375999999998,0,sub_4
-0.0034074000000001,0.0216490000000012,0.009597,0.0006774000000003,0.0008112000000008,-0.0018543999999998,0,sub_4
-0.0036736000000001,0.0217006000000012,0.0100316,0.0011124000000003,0.0014348000000008,-0.0009841999999998,0,sub_4
-0.0037342000000001,0.0212364000000012,0.01075,0.0013322000000004,0.0014210000000008,-0.0003281999999998,0,sub_4
-0.0037796000000001,0.0207542000000011,0.0109856,0.0017664000000003,0.0011950000000008,-9.77999999998761e-05,0,sub_4
-0.0035116000000001,0.0211064000000011,0.0111996,0.0013358000000003,0.0003442000000008,-9.979999999989608e-05,0,sub_4
-0.0031870000000002,0.0216624000000011,0.0114342,0.0004812000000003,-7.81999999991075e-05,-0.0003189999999998,0,sub_4
-0.0027900000000002,0.0215014000000012,0.0113176,5.440000000039554e-05,-0.0002887999999991,-0.0005353999999998,0,sub_4
-0.0030608000000002,0.0217426000000012,0.0111338,-0.0001549999999996,-0.0009277999999991,-0.0009597999999998,0,sub_4
-0.0032060000000002,0.0217744000000012,0.011196,0.0002710000000004,-0.0022097999999991,-0.0009515999999998,0,sub_4
-0.0029818000000002,0.0219662000000012,0.0108578,0.0006970000000003,-0.0030673999999991,-0.0005165999999998,0,sub_4
-0.0029848000000002,0.0216684000000011,0.0104456,0.0013384000000003,-0.0032873999999991,0.0001328000000001,0,sub_4
-0.0028046000000002,0.0217604000000011,0.0102292,0.0013366000000003,-0.0035077999999991,0.0014186000000001,0,sub_4
-0.0024264000000002,0.0214562000000011,0.0095322,0.0011224000000003,-0.0028711999999991,0.0022710000000001,0,sub_4
-0.0021222000000002,0.0215906000000011,0.0098762,0.0009100000000003,-0.0015963999999991,0.0033362000000001,0,sub_4
-0.0025652000000002,0.0213792000000011,0.0103826,0.0013416000000004,-0.0001081999999991,0.0037646000000001,0,sub_4
-0.0033734000000002,0.0210822000000012,0.0103158,0.0017642000000004,0.0005342000000008,0.0037640000000001,0,sub_4
-0.0036568000000001,0.0213756000000012,0.0108134,0.0024052000000004,0.0016046000000008,0.0031236,0,sub_4
-0.0036438000000001,0.0216164000000012,0.011772,0.0028308000000004,0.0024618000000008,0.0026954,0,sub_4
-0.0039934000000001,0.0217276000000012,0.0117376,0.0026162000000004,0.0028968000000008,0.001836,0,sub_4
-0.0041154000000001,0.0213062000000012,0.0116536,0.0021806000000004,0.0026892000000008,0.0020442,0,sub_4
-0.0038416000000001,0.0216634000000012,0.0121974,0.0019634000000004,0.0022622000000009,0.0024706,0,sub_4
-0.0035462000000002,0.0217302000000012,0.0117964,0.0015298000000004,0.0011966000000009,0.0028962,0,sub_4
-0.0035962000000002,0.0217898000000012,0.011193,0.0013086000000004,-0.000294999999999,0.0031102,0,sub_4
-0.0036530000000002,0.0216102000000012,0.0110902,0.0012978000000003,-0.001785799999999,0.0028884,0,sub_4
-0.0034600000000002,0.0217286000000012,0.0101188,0.0015072000000003,-0.002210399999999,0.0022394,0,sub_4
-0.0031756000000002,0.0219534000000012,0.0097756,0.0010794000000003,-0.0022057999999991,0.0013718,0,sub_4
-0.0027578000000002,0.0217866000000012,0.0098988,0.0015052000000003,-0.0017795999999991,0.000937,0,sub_4
-0.0025830000000002,0.0217558000000012,0.0100072,0.0015042000000003,-0.0009275999999991,0.0009258000000001,0,sub_4
-0.0022010000000002,0.0215486000000012,0.009814,0.0017196000000004,-0.0002899999999991,0.0011400000000001,0,sub_4
-0.0021704000000002,0.0218028000000012,0.010241,0.0015072000000004,-0.0007127999999991,0.0004982000000001,0,sub_4
-0.0019666000000002,0.0217046000000012,0.010113,0.0015082000000004,-0.001136399999999,-0.0001421999999998,0,sub_4
-0.0024670000000002,0.0214542000000012,0.0100568,0.0006538000000004,-0.001339599999999,-0.0012183999999998,0,sub_4
-0.0026020000000002,0.0211336000000012,0.0096182,0.0002292000000004,-0.001117399999999,-0.0025055999999998,0,sub_4
-0.0024670000000002,0.0216410000000012,0.0094946,-0.0004087999999995,-0.000257799999999,-0.0031541999999998,0,sub_4
-0.0024998000000002,0.0216568000000012,0.0099208,-0.0008343999999995,0.0010246000000009,-0.0031609999999998,0,sub_4
-0.0025636000000002,0.0216794000000012,0.0101306,-0.0012647999999995,0.0016662000000008,-0.0027397999999998,0,sub_4
-0.0028148000000002,0.0223148000000012,0.0102026,-0.0012655999999995,0.0016652000000008,-0.0025261999999998,0,sub_4
-0.0028484000000002,0.0225728000000012,0.0104916,-0.0010569999999995,0.0010236000000008,-0.0020967999999998,0,sub_4
-0.0030882000000002,0.0226444000000012,0.011086,-0.0010589999999995,0.0003854000000008,-0.0023097999999998,0,sub_4
-0.0025960000000002,0.0224348000000012,0.0106482,-0.0010657999999995,-0.0002491999999991,-0.0025231999999998,0,sub_4
-0.0027832000000002,0.0219002000000012,0.010134,-0.0008545999999995,0.0001806000000008,-0.0027363999999998,0,sub_4
-0.0025636000000002,0.0216088000000012,0.0098754,-0.0010709999999995,0.0006112000000008,-0.0027389999999998,0,sub_4
-0.0023250000000002,0.0216148000000012,0.0103708,-0.0012911999999995,0.0006140000000008,-0.0023135999999998,0,sub_4
-0.0019442000000002,0.0214860000000012,0.0098456,-0.0015131999999995,0.0001904000000008,-0.0018877999999998,0,sub_4
-0.0019192000000002,0.0215724000000012,0.0105042,-0.0017285999999995,-2.279999999910756e-05,-0.0016753999999998,0,sub_4
-0.0025560000000002,0.0219822000000012,0.0107916,-0.0021591999999995,-0.0008733999999991,-0.0016773999999998,0,sub_4
-0.0025936000000001,0.0218564000000012,0.0107844,-0.0021601999999995,-0.0008743999999991,-0.0014637999999998,0,sub_4
-0.0027394000000001,0.0224428000000012,0.0107608,-0.0021595999999995,0.0001978000000008,-0.0018961999999998,0,sub_4
-0.0038090000000001,0.0220500000000012,0.0104474,-0.0017313999999995,0.0014816000000008,-0.0023255999999998,0,sub_4
-0.0045606000000001,0.0223314000000012,0.0099894,-0.0015211999999995,0.0025496000000008,-0.0019017999999998,0,sub_4
-0.0037328000000001,0.0229054000000012,0.0099698,-0.0015261999999995,0.0031922000000008,-0.0014789999999998,0,sub_4
-0.0033174000000002,0.0229824000000012,0.0105214,-0.0013207999999995,0.0031950000000008,-0.0010537999999998,0,sub_4
-0.0034430000000002,0.0222078000000012,0.0102182,-0.0015351999999995,0.0031948000000008,-0.0008415999999998,0,sub_4
-0.0034994000000002,0.0223782000000012,0.0108342,-0.0021789999999995,0.0027692000000008,-0.0004183999999998,0,sub_4
-0.0025756000000002,0.0222624000000012,0.0109656,-0.0026065999999995,0.0023454000000008,-0.0006345999999998,0,sub_4
-0.0023110000000002,0.0217208000000012,0.0111002,-0.0021827999999995,0.0027756000000008,-0.0010657999999998,0,sub_4
-0.0022440000000002,0.0216320000000012,0.0109752,-0.0015473999999995,0.0027790000000008,-0.0014949999999998,0,sub_4
-0.0025736000000002,0.0219138000000012,0.0110444,-0.0009167999999995,0.0021416000000008,-0.0014959999999998,0,sub_4
-0.0020420000000002,0.0221186000000012,0.0109734,-0.0002843999999995,0.0021426000000008,-0.0012841999999998,0,sub_4
-0.0030540000000002,0.0221112000000012,0.0108178,0.0003452000000004,0.0017166000000008,-0.0008581999999998,0,sub_4
-0.0038118000000002,0.0222034000000012,0.010406,0.0003376000000004,0.0006488000000008,-0.0002157999999998,0,sub_4
-0.0046278000000002,0.0223884000000012,0.0102938,-9.679999999958458e-05,0.0002192000000008,0.0010636000000001,0,sub_4
-0.0044168000000002,0.0227418000000012,0.010053,-0.0005283999999995,0.0002164000000008,0.0021288000000001,0,sub_4
-0.0039480000000001,0.0228744000000012,0.010306,-0.0003281999999995,-0.0002093999999991,0.0029818000000001,0,sub_4
-0.0036362000000001,0.0230550000000012,0.0105812,8.820000000041541e-05,-0.0002089999999991,0.0036222000000001,0,sub_4
-0.0032688000000001,0.0225708000000012,0.010841,0.0005066000000004,0.0002176000000008,0.0042620000000001,0,sub_4
-0.0024160000000001,0.0222596000000012,0.0107422,0.0005020000000004,0.0004368000000008,0.0038308000000001,0,sub_4
-0.0021416000000001,0.0219602000000012,0.0110646,0.0007090000000004,0.0002292000000008,0.0034016000000001,0,sub_4
-0.0021832000000001,0.0215890000000012,0.0108984,0.0009242000000003,0.0004422000000008,0.0031892000000001,0,sub_4
-0.0020344000000001,0.0214716000000012,0.0104312,0.0009242000000003,0.0002300000000008,0.0029758,0,sub_4
-0.0020174000000002,0.0220384000000012,0.0103366,0.0011386000000003,0.0004422000000008,0.002977,0,sub_4
-0.0025246000000002,0.0221708000000012,0.0103828,0.0015588000000003,0.0002276000000008,0.0031966,0,sub_4
-0.0030238000000002,0.0219946000000012,0.010157,0.0019770000000003,-0.000413199999999,0.0034168,0,sub_4
-0.0037426000000002,0.0219578000000012,0.0099414,0.0019716000000004,-0.000837599999999,0.0032064,0,sub_4
-0.0036656000000002,0.0216568000000012,0.0101902,0.0015402000000004,-0.001259799999999,0.0027792,0,sub_4
-0.0041100000000002,0.0213752000000012,0.010088,0.0008964000000004,-0.001467999999999,0.0023504,0,sub_4
-0.0039186000000002,0.0211116000000012,0.0100472,0.0004726000000004,-0.0010395999999991,0.0021332,0,sub_4
-0.0032874000000002,0.0213858000000012,0.01031,4.980000000041536e-05,2.6400000000892378e-05,0.0023424,0,sub_4
-0.0025726000000002,0.0216538000000012,0.0106092,0.0002640000000004,0.0004510000000008,0.002557,0,sub_4
-0.0029878000000002,0.0216274000000012,0.01084,0.0009052000000004,0.0008740000000009,0.0027746000000001,0,sub_4
-0.0027718000000002,0.0219878000000011,0.0115966,0.0015448000000004,0.0004454000000009,0.0025722000000001,0,sub_4
-0.0030308000000002,0.0223612000000011,0.0115318,0.0021834000000004,1.600000000091242e-05,0.0025836,0,sub_4
-0.0037078000000002,0.0221164000000012,0.0111574,0.0026086000000004,-0.000837199999999,0.0021668,0,sub_4
-0.0039130000000002,0.0219154000000012,0.0107274,0.0019680000000004,-0.001473599999999,0.0017422,0,sub_4
-0.0038170000000002,0.0223306000000012,0.0107302,0.0015426000000004,-0.001259999999999,0.0017454,0,sub_4
-0.0036540000000002,0.0222546000000012,0.0100688,0.0011158000000004,-0.001258599999999,0.0017424,0,sub_4
-0.0033252000000002,0.0221948000000012,0.010038,4.880000000041526e-05,-0.001679199999999,0.0013082000000001,0,sub_4
-0.0029852000000002,0.0223408000000012,0.0093672,-0.0003685999999995,-0.001039999999999,0.0006700000000001,0,sub_4
-0.0030290000000002,0.0222186000000012,0.0093236,-0.0003601999999996,-0.0001909999999991,0.0004618000000001,0,sub_4
-0.0031996000000002,0.0220714000000012,0.0090886,-0.0001413999999996,-0.0001941999999991,4.260000000010408e-05,0,sub_4
-0.0029700000000002,0.0221588000000012,0.0088414,-0.0001359999999996,0.0002278000000008,4.860000000010409e-05,0,sub_4
-0.0031332000000002,0.0224276000000012,0.0084838,0.0005116000000003,0.0010736000000008,5.86000000001041e-05,0,sub_4
-0.0036248000000002,0.0223234000000012,0.0092082,0.0005106000000003,0.0012848000000008,0.0004856000000001,0,sub_4
-0.0039228000000002,0.0223202000000012,0.0090848,0.0002904000000003,0.0004306000000008,0.0011262000000001,0,sub_4
-0.0035620000000002,0.0224276000000012,0.0085334,-0.0003525999999995,0.0004302000000008,0.0017626000000001,0,sub_4
-0.0037904000000002,0.0224798000000012,0.0087436,-0.0005677999999995,0.0004292000000008,0.0021884000000001,0,sub_4
-0.0038124000000001,0.0220230000000012,0.0087902,-0.0005677999999995,0.0004230000000008,0.0026180000000001,0,sub_4
-0.0033236000000001,0.0217176000000012,0.0084242,-0.0003515999999995,0.0004188000000008,0.0024084000000001,0,sub_4
-0.0028918000000001,0.0218038000000012,0.0080696,-0.0001285999999995,0.0014816000000008,0.0017700000000001,0,sub_4
-0.0033134000000001,0.0218362000000012,0.0086238,0.0003058000000004,0.0019052000000008,0.0009204000000001,0,sub_4
-0.0037360000000001,0.0216356000000012,0.0089656,0.0007372000000004,0.0019020000000008,0.0002850000000001,0,sub_4
-0.0040824000000002,0.0217186000000012,0.0090092,0.0007352000000004,0.0014758000000008,0.0002856000000001,0,sub_4
-0.0046326000000002,0.0219734000000012,0.0095882,0.0003036000000004,0.0010486000000008,0.0009240000000001,0,sub_4
-0.0046896000000002,0.0220242000000012,0.0097896,-0.0001311999999995,0.0001930000000009,0.0013442000000001,0,sub_4
-0.0047392000000002,0.0214792000000012,0.0095456,-0.0007753999999995,-2.1799999999087696e-05,0.0015484000000001,0,sub_4
-0.0042362000000001,0.0214260000000012,0.0091458,-0.0018443999999995,-0.000233399999999,0.0013224000000001,0,sub_4
-0.0039610000000001,0.0215520000000012,0.0093862,-0.0031219999999995,0.0001968000000008,0.0006668000000001,0,sub_4
-0.0029678000000001,0.0218640000000012,0.008809,-0.0039709999999995,0.0008392000000008,-0.0001995999999998,0,sub_4
-0.0026794000000001,0.0218396000000012,0.009114,-0.0041765999999995,0.0019078000000008,-0.0008433999999998,0,sub_4
-0.0019658000000001,0.0220266000000012,0.0096344,-0.0037489999999995,0.0021194000000008,-0.0008405999999998,0,sub_4
-0.0022838000000001,0.0220698000000012,0.0100946,-0.0028955999999995,0.0023286000000008,-0.0006211999999998,0,sub_4
-0.0022010000000001,0.0220148000000012,0.0098706,-0.0018325999999995,0.0016848000000008,-0.0003991999999998,0,sub_4
-0.0029364000000001,0.0217288000000012,0.0105296,-0.0005577999999995,0.0008282000000008,-0.0006123999999998,0,sub_4
-0.0037070000000001,0.0220392000000012,0.0104526,-0.0003509999999995,-0.0004499999999991,-0.0010459999999998,0,sub_4
-0.0042594000000001,0.0223982000000012,0.0099554,-0.0007813999999995,-0.0010867999999991,-0.0014849999999998,0,sub_4
-0.0044610000000002,0.0224890000000012,0.0092852,-0.0012097999999995,-0.0010853999999991,-0.0017111999999998,0,sub_4
-0.0045894000000002,0.0227092000000012,0.0097412,-0.0018477999999995,-1.879999999912776e-05,-0.0017265999999998,0,sub_4
-0.0040806000000001,0.0227284000000012,0.009832,-0.0022725999999995,0.0008332000000008,-0.0013033999999998,0,sub_4
-0.0034472000000001,0.0225684000000012,0.0100142,-0.0016333999999996,0.0014668000000008,-0.0004451999999998,0,sub_4
-0.0030310000000001,0.0221330000000012,0.0105768,-0.0007827999999996,0.0014612000000008,0.0002016000000001,0,sub_4
-0.0031436000000001,0.0219968000000012,0.0109556,-0.0001493999999996,0.0008192000000008,0.0004106000000001,0,sub_4
-0.0028870000000001,0.0214536000000012,0.0108692,0.0004820000000003,-0.0006733999999991,0.0001936000000001,0,sub_4
-0.0032258000000001,0.0211296000000012,0.0101466,0.0006886000000003,-0.0015261999999991,0.0001864000000001,0,sub_4
-0.0035768000000001,0.0211134000000012,0.0100584,0.0002580000000004,-0.0017375999999991,0.0001738000000001,0,sub_4
-0.0039386000000002,0.0214160000000012,0.0095586,-0.0001715999999995,-0.0015235999999991,0.0003744000000001,0,sub_4
-0.0035384000000002,0.0211028000000012,0.0090258,-0.0005955999999995,-0.0008829999999991,0.0003708000000001,0,sub_4
-0.0041398000000001,0.0214178000000012,0.008654,-0.0003793999999995,-0.0002445999999991,0.0003714000000001,0,sub_4
-0.0045094000000001,0.0214404000000012,0.008816,-0.0003755999999995,0.0003954000000008,0.0001570000000001,0,sub_4
-0.0046498000000001,0.0210826000000012,0.0090032,-0.0005847999999995,0.0012494000000008,-0.0004959999999998,0,sub_4
-0.0044192000000001,0.0211114000000012,0.0090842,-0.0007959999999995,0.0016772000000008,-0.0011485999999998,0,sub_4
-0.0046532000000001,0.0213020000000012,0.0095412,-0.0010089999999995,0.0021034000000008,-0.0013739999999998,0,sub_4
-0.0042838000000001,0.0214936000000012,0.0102718,-0.0014371999999995,0.0027410000000008,-0.0009599999999999,0,sub_4
-0.0041626000000002,0.0217896000000012,0.0105602,-0.0016549999999995,0.0027386000000008,-0.0005437999999999,0,sub_4
-0.0042386000000002,0.0219954000000012,0.0099192,-0.0012321999999995,0.0023092000000008,-0.0001129999999999,0,sub_4
-0.0043476000000002,0.0217894000000012,0.0096764,-0.0014503999999995,0.0018814000000008,0.000527,0,sub_4
-0.0042156000000002,0.0220942000000012,0.0095408,-0.0012455999999995,0.0012342000000008,0.0013758,0,sub_4
-0.0040928000000001,0.0222714000000012,0.0090674,-0.0008255999999995,0.0005878000000008,0.0017986,0,sub_4
-0.0038050000000001,0.0221762000000012,0.0090482,2.120000000041533e-05,-5.999999999910784e-05,0.0022244000000001,0,sub_4
-0.0037370000000001,0.0224718000000012,0.009179,0.0008690000000004,-0.0004945999999991,0.0026500000000001,0,sub_4
-0.0033866000000001,0.0225542000000012,0.0093116,0.0023618000000004,-0.0002907999999991,0.0026520000000001,0,sub_4
-0.0040126000000001,0.0224060000000012,0.0094294,0.0032182000000004,-7.89999999991078e-05,0.0022304000000001,0,sub_4
-0.0044394000000002,0.0220590000000012,0.0095822,0.0036458000000004,-7.95999999990878e-05,0.0020198000000001,0,sub_4
-0.0047258000000002,0.0220742000000012,0.0092278,0.0032160000000003,-0.000292999999999,0.0024444000000001,0,sub_4
-0.0049850000000002,0.0216890000000012,0.0090106,0.0027886000000003,-0.000512399999999,0.0030776000000001,0,sub_4
-0.0058610000000002,0.0214518000000012,0.0089118,0.0019344000000003,-0.001366799999999,0.0030676000000001,0,sub_4
-0.0050872000000002,0.0212182000000012,0.0090506,0.0012936000000003,-0.002434199999999,0.0028458000000001,0,sub_4
-0.0050818000000002,0.0208300000000012,0.0088688,0.0006568000000003,-0.003073599999999,0.0021962000000001,0,sub_4
-0.0047512000000002,0.0210532000000012,0.0090358,0.0002420000000004,-0.002857199999999,0.0004788000000001,0,sub_4
-0.0045334000000002,0.0213134000000012,0.009532,-0.0003883999999995,-0.001997599999999,-0.0008085999999998,0,sub_4
-0.0042426000000002,0.0216214000000012,0.0096654,-0.0005929999999995,-0.0007159999999991,-0.0014525999999998,0,sub_4
-0.0043834000000002,0.0217972000000012,0.009706,-0.0005851999999995,0.0005640000000008,-0.0018815999999998,0,sub_4
-0.0037536000000002,0.0219670000000012,0.009518,6.440000000041526e-05,0.0016244000000008,-0.0020937999999998,0,sub_4
-0.0039614000000002,0.0218668000000012,0.0097854,0.0002834000000004,0.0020464000000008,-0.0020943999999998,0,sub_4
-0.0039918000000002,0.0220266000000012,0.0096124,0.0005014000000004,0.0018310000000008,-0.0025215999999998,0,sub_4
-0.0037992000000001,0.0220554000000012,0.0095264,0.0002926000000004,0.0011928000000008,-0.0033783999999998,0,sub_4
-0.0043742000000001,0.0221136000000012,0.009076,-0.0001285999999995,0.0011928000000008,-0.0038101999999998,0,sub_4
-0.0048008000000001,0.0225092000000012,0.0087098,-0.0011935999999995,0.0014106000000008,-0.0040315999999998,0,sub_4
-0.0046014000000001,0.0226488000000012,0.0085442,-0.0020451999999995,0.0018396000000008,-0.0040381999999998,0,sub_4
-0.0044006000000001,0.0223078000000012,0.0085174,-0.0024701999999995,0.0020550000000008,-0.0042549999999998,0,sub_4
-0.0045018000000001,0.0219588000000011,0.0088954,-0.0022563999999995,0.0020494000000008,-0.0036143999999998,0,sub_4
-0.0037856000000002,0.0218438000000011,0.0092038,-0.0016169999999995,0.0014050000000008,-0.0033971999999998,0,sub_4
-0.0034958000000002,0.0214088000000011,0.0093432,-0.0009783999999995,0.0005474000000008,-0.0031795999999998,0,sub_4
-0.0036694000000002,0.0213638000000012,0.0097834,-0.0001253999999995,-0.0003099999999991,-0.0031741999999998,0,sub_4
-0.0035818000000002,0.0215944000000012,0.0096412,8.46000000004155e-05,-0.0013797999999991,-0.0027457999999998,0,sub_4
-0.0033682000000001,0.0217220000000012,0.0091256,-0.0005565999999995,-0.001590599999999,-0.0027499999999998,0,sub_4
-0.0038572000000001,0.0217434000000012,0.0089864,-0.0011947999999995,-0.000950199999999,-0.0025415999999998,0,sub_4
-0.0040188000000001,0.0220978000000012,0.0091638,-0.0016177999999995,-9.639999999908791e-05,-0.0025457999999998,0,sub_4
-0.0039538000000001,0.0218872000000012,0.008851,-0.0016141999999995,0.0003238000000009,-0.0021207999999998,0,sub_4
-0.0040784000000001,0.0216978000000012,0.0089352,-0.0016085999999995,0.0009578000000009,-0.0019095999999998,0,sub_4
-0.0043708000000001,0.0219456000000012,0.00915,-0.0013887999999995,0.0015920000000008,-0.0019103999999998,0,sub_4
-0.0045508000000001,0.0219032000000012,0.0090778,-0.0015935999999995,0.0024416000000008,-0.0021281999999998,0,sub_4
-0.0043828000000002,0.0219416000000012,0.0092356,-0.0020165999999995,0.0028632000000008,-0.0017059999999998,0,sub_4
-0.0044360000000002,0.0221750000000012,0.0089354,-0.0028711999999995,0.0030776000000008,-0.0012849999999998,0,sub_4
-0.0042330000000002,0.0222266000000012,0.009595,-0.0039371999999995,0.0032944000000008,-0.0012927999999998,0,sub_4
-0.0042040000000002,0.0216066000000012,0.0093424,-0.0045761999999995,0.0037218000000008,-0.0010841999999998,0,sub_4
-0.0036746000000002,0.0213916000000012,0.0096326,-0.0047941999999995,0.0032944000000008,-0.0008777999999998,0,sub_4
-0.0037426000000001,0.0212722000000012,0.0097442,-0.0045825999999995,0.0028680000000008,-0.0013091999999998,0,sub_4
-0.0034920000000001,0.0211114000000012,0.0101738,-0.0035173999999995,0.0024386000000008,-0.0017345999999998,0,sub_4
-0.0043630000000001,0.0210172000000012,0.009895,-0.0016025999999995,0.0017906000000008,-0.0015129999999998,0,sub_4
-0.0044608000000001,0.0214396000000012,0.0098314,9.780000000043538e-05,0.0009306000000008,-0.0012925999999998,0,sub_4
-0.0052134000000001,0.0221010000000012,0.0093598,0.0009464000000004,0.0007112000000008,-0.0004317999999998,0,sub_4
-0.0058156000000002,0.0220354000000012,0.0091514,0.0015818000000004,0.0004926000000008,0.0004274000000001,0,sub_4
-0.0063800000000002,0.0221406000000012,0.009185,0.0015808000000004,0.0009162000000008,0.0010678,0,sub_4
-0.0058368000000002,0.0220258000000012,0.0092172,0.0007226000000004,0.0009150000000008,0.0021302,0,sub_4
-0.0056256000000002,0.0222512000000012,0.0090368,-0.0001377999999995,0.0007008000000008,0.0031902,0,sub_4
-0.0045992000000002,0.0214408000000012,0.009564,-0.0003571999999995,6.080000000089208e-05,0.0036142,0,sub_4
-0.0040372000000002,0.0212046000000012,0.0093132,-0.0001489999999995,-0.0003675999999991,0.004041,0,sub_4
-0.0040758000000002,0.0210188000000012,0.0089344,5.940000000041546e-05,-0.0010081999999991,0.0042542,0,sub_4
-0.0036554000000002,0.0212892000000012,0.008287,0.0009154000000003,-0.0010075999999991,0.003403,0,sub_4
-0.0036288000000001,0.0212614000000012,0.0086674,0.0015602000000003,-0.0005811999999991,0.002766,0,sub_4
-0.0041652000000001,0.0217384000000012,0.0083558,0.0017746000000003,-0.0005809999999991,0.0025538,0,sub_4
-0.0045450000000001,0.0215134000000012,0.0085396,0.0017772000000003,-0.0003701999999991,0.0023454,0,sub_4
-0.0045422000000001,0.0217674000000012,0.0080976,0.0013510000000003,-0.0003717999999991,0.0023482,0,sub_4
