userAcceleration.x,userAcceleration.y,userAcceleration.z,rotationRate.x,rotationRate.y,rotationRate.z,label,subject
-0.0032022000000002,0.0212990000000012,0.0089522,-0.0027865999999995,0.0009678000000008,-0.0009967999999998,0,sub_4
-0.0044828000000002,0.0223530000000012,0.008829,-0.0027875999999995,0.0005424000000008,-0.0012097999999998,0,sub_4
-0.0059738000000002,0.0226502000000012,0.0083252,-0.0032105999999995,0.0005474000000008,-0.0020673999999998,0,sub_4
-0.0073832000000002,0.0225970000000012,0.008145,-0.0036279999999995,0.0014058000000008,-0.0033591999999998,0,sub_4
-0.0070696000000002,0.0228228000000012,0.007487,-0.0042577999999995,0.0029024000000008,-0.0042259999999998,0,sub_4
-0.0065716000000002,0.0223188000000012,0.0076912,-0.0044627999999995,0.0046080000000008,-0.0044489999999998,0,sub_4
-0.0052988000000002,0.0215126000000012,0.0076532,-0.0042525999999995,0.0048168000000008,-0.0035989999999998,0,sub_4
-0.0045356000000002,0.0212138000000012,0.007691,-0.0038345999999995,0.0041706000000008,-0.0023191999999999,0,sub_4
-0.0036666000000002,0.0215614000000012,0.0074966,-0.0032107999999995,0.0022442000000008,-0.0006031999999999,0,sub_4
-0.0042988000000002,0.0218846000000012,0.0077098,-0.0021563999999995,0.0005318000000008,0.0004746,0,sub_4
-0.0046500000000002,0.0220336000000012,0.0077906,-0.0010965999999996,-0.0007535999999991,0.0004802,0,sub_4
-0.0055410000000001,0.0221480000000012,0.008183,-0.0002423999999996,-0.0007583999999991,5.540000000010411e-05,0,sub_4
-0.0056936000000001,0.0221448000000012,0.0084266,0.0008250000000003,-0.0005515999999991,-0.0001545999999998,0,sub_4
-0.0052292000000001,0.0222278000000012,0.0086572,0.0016830000000003,8.380000000089184e-05,-0.0007937999999998,0,sub_4
-0.0045372000000001,0.0222820000000012,0.0089512,0.0027486000000003,-0.0001353999999991,-0.0010031999999998,0,sub_4
-0.0042230000000001,0.0221972000000012,0.0088072,0.0040240000000003,-0.0007805999999991,-0.0005661999999998,0,sub_4
-0.0043886000000001,0.0227580000000012,0.0086606,0.0052898000000003,-0.002495399999999,0.0009404000000001,0,sub_4
-0.0046370000000001,0.0229098000000012,0.0082456,0.0063432000000004,-0.004208599999999,0.0022320000000001,0,sub_4
-0.0051012000000001,0.0231058000000012,0.0083946,0.0076172000000004,-0.005076399999999,0.0037422000000001,0,sub_4
-0.0053836000000001,0.0226302000000012,0.0080176,0.0080416000000004,-0.005513399999999,0.0048186000000001,0,sub_4
-0.0054864000000001,0.0218592000000012,0.007459,0.0071904000000004,-0.005517199999999,0.0052444000000001,0,sub_4
-0.0044468000000001,0.0206062000000012,0.0069128,0.0052868000000004,-0.004443399999999,0.0035250000000001,0,sub_4
-0.0042080000000001,0.0200512000000012,0.0074768,0.0027460000000004,-0.002940399999999,0.0015870000000001,0,sub_4
-0.0044536000000001,0.0207014000000012,0.0075182,0.0004104000000004,-0.001224399999999,0.0007138000000001,0,sub_4
-0.0044776000000001,0.0215200000000012,0.0076574,-0.0017167999999995,0.0002744000000009,0.000697,0,sub_4
-0.0046352000000001,0.0218882000000012,0.0084542,-0.0025653999999995,0.0019792000000008,0.00133,0,sub_4
-0.0053910000000001,0.0216180000000012,0.0084434,-0.0027685999999995,0.0038868000000008,0.0024022,0,sub_4
-0.0059586000000001,0.0211214000000012,0.0081358,-0.0023307999999995,0.0055808000000008,0.0030518,0,sub_4
-0.0055046000000001,0.0198674000000012,0.0076872,-0.0031693999999995,0.0066462000000008,0.0021978,0,sub_4
-0.0045216000000001,0.0197776000000012,0.0076092,-0.0044325999999995,0.0072904000000008,0.0004868000000001,0,sub_4
-0.0038754000000002,0.0208022000000012,0.008234,-0.0059131999999995,0.0070830000000008,-0.0012247999999998,0,sub_4
-0.0035226000000002,0.0222898000000012,0.0091498,-0.0065551999999995,0.0060224000000008,-0.0018687999999998,0,sub_4
-0.0034304000000001,0.0234664000000012,0.0094378,-0.0072067999999995,0.0043168000000008,-0.0010165999999998,0,sub_4
-0.0037418000000001,0.0242022000000012,0.0103772,-0.0067973999999995,0.0019656000000008,0.0004848000000001,0,sub_4
-0.0041644000000001,0.0241390000000012,0.0109886,-0.0055217999999995,2.7800000000891693e-05,0.0020006000000001,0,sub_4
-0.0041998000000001,0.0226944000000012,0.0104542,-0.0036001999999995,-0.0016947999999991,0.0024526000000001,0,sub_4
-0.0041606000000001,0.0212878000000012,0.0099638,-0.0016717999999995,-0.0027747999999991,0.0020490000000001,0,sub_4
-0.0036934000000001,0.0203144000000012,0.0097464,0.0006910000000003,-0.0034251999999991,0.0003662000000001,0,sub_4
-0.0027514000000001,0.0201198000000012,0.0094058,0.0028424000000003,-0.0038607999999991,-0.0015319999999998,0,sub_4
-0.0035280000000001,0.0202678000000012,0.0089958,0.0051924000000003,-0.0047151999999991,-0.0030099999999998,0,sub_4
-0.0047202000000001,0.0211588000000012,0.0090046,0.0068928000000003,-0.0057881999999991,-0.0025695999999998,0,sub_4
-0.0055614000000001,0.0223190000000012,0.0082662,0.0083738000000003,-0.0068653999999991,-0.0008485999999998,0,sub_4
-0.0063676000000001,0.0232478000000012,0.0081098,0.0094402000000004,-0.007741799999999,0.0013060000000001,0,sub_4
-0.0083474000000002,0.0232282000000012,0.0075244,0.0094464000000004,-0.007335399999999,0.0032380000000001,0,sub_4
-0.0087940000000002,0.0229498000000012,0.0073966,0.0090326000000004,-0.005860599999999,0.0047384000000001,0,sub_4
-0.0079576000000002,0.0226910000000012,0.0066316,0.0082016000000004,-0.003314599999999,0.0051664,0,sub_4
-0.0071218000000001,0.0224822000000012,0.0069774,0.0060990000000004,0.0003044000000008,0.0047294,0,sub_4
-0.0061560000000001,0.0221308000000012,0.0067756,0.0035576000000004,0.0045744000000008,0.0047062,0,sub_4
-0.0065438000000001,0.0218364000000012,0.0076182,0.0014306000000004,0.0071344000000008,0.0057562,0,sub_4
-0.0059470000000001,0.0218560000000012,0.0072742,-0.0015603999999995,0.0084148000000008,0.0078702,0,sub_4
-0.0051454000000001,0.0214182000000012,0.0072346,-0.0045581999999995,0.0084158000000008,0.0101992000000001,0,sub_4
-0.0036178000000001,0.0195946000000012,0.007164,-0.0077715999999995,0.0071410000000008,0.0114642000000001,0,sub_4
-0.0020232000000001,0.0166374000000012,0.0074514,-0.0120461999999995,0.0048140000000008,0.0103732000000001,0,sub_4
0.0014169999999997,0.0140110000000012,0.0072488,-0.0165159999999995,0.0033526000000008,0.0060750000000001,0,sub_4
0.0039961999999997,0.0129372000000012,0.0077528,-0.0201179999999995,0.0031742000000008,-0.0001415999999998,0,sub_4
0.0051501999999997,0.0137158000000012,0.0093986,-0.0224339999999995,0.0029966000000008,-0.0076309999999998,0,sub_4
0.0045167999999997,0.0157414000000012,0.0108194,-0.0207059999999995,0.0017360000000008,-0.0135991999999998,0,sub_4
0.0023063999999997,0.0215818000000012,0.0115436,-0.0153677999999995,-0.000189199999999,-0.0163367999999998,0,sub_4
-0.0018884000000002,0.0280102000000012,0.0116988,-0.0074825999999995,-0.002347399999999,-0.0162789999999998,0,sub_4
-0.0082528000000002,0.0316122000000012,0.0115498,0.0027394000000004,-0.004735199999999,-0.0144973999999998,0,sub_4
-0.0142066000000002,0.0330984000000012,0.0095316,0.0133806000000004,-0.006706799999999,-0.0105769999999998,0,sub_4
-0.0174694000000002,0.0338952000000012,0.007536,0.0206106000000003,-0.007390599999999,-0.0060411999999998,0,sub_4
-0.0179674000000002,0.0319330000000012,0.005635,0.0238018000000003,-0.005924599999999,-0.0028181999999999,0,sub_4
-0.0148050000000002,0.0269210000000012,0.0042064,0.0235830000000003,-0.004443399999999,-0.0004735999999999,0,sub_4
-0.0085406000000002,0.0208550000000012,0.004462,0.0180334000000003,-0.003576799999999,0.0007684,0,sub_4
-0.0016904000000002,0.0158562000000012,0.005844,0.0092908000000003,-0.002904599999999,6.560000000006422e-05,0,sub_4
0.0030811999999997,0.0119136000000012,0.0075884,-0.0003003999999995,-0.0024373999999991,-0.0019247999999999,0,sub_4
0.0056811999999997,0.0097456000000012,0.0102974,-0.0077597999999995,-0.0041153999999991,-0.0036857999999998,0,sub_4
0.0058369999999997,0.0107002000000012,0.0119828,-0.0126693999999995,-0.0068725999999991,-0.0041455999999998,0,sub_4
0.0046887999999997,0.0146098000000012,0.0124204,-0.0137429999999995,-0.0098597999999991,-0.0037237999999999,0,sub_4
6.279999999980607e-05,0.0189326000000012,0.0117956,-0.0122551999999995,-0.0120061999999991,-0.0026441999999999,0,sub_4
-0.0041192000000001,0.0229590000000012,0.0103406,-0.0084163999999995,-0.0133085999999991,-0.0015491999999999,0,sub_4
-0.0075546000000001,0.0256140000000012,0.0079372,-0.0045737999999996,-0.0124713999999991,-0.0010959999999999,0,sub_4
-0.0104314000000001,0.0269594000000011,0.0064938,-0.0013529999999996,-0.0090693999999991,-0.0021459999999998,0,sub_4
-0.0129766000000001,0.0268472000000011,0.005467,0.0008124000000003,-0.0039557999999991,-0.0040601999999998,0,sub_4
-0.0121392000000001,0.0262026000000011,0.0051438,0.0014762000000003,0.0013806000000008,-0.0053459999999998,0,sub_4
-0.0107558000000001,0.0249678000000011,0.0053906,0.0014940000000003,0.0062896000000008,-0.0057811999999998,0,sub_4
-0.0085268000000001,0.0234716000000012,0.0067356,0.0014994000000004,0.0097020000000008,-0.0049327999999998,0,sub_4
-0.0064430000000001,0.0223778000000012,0.0081692,0.0012750000000004,0.0109788000000008,-0.0025875999999998,0,sub_4
-0.0048928000000001,0.0216710000000012,0.0091972,0.0018898000000004,0.0101178000000008,0.0008344000000001,0,sub_4
-0.0034826000000001,0.0206310000000012,0.0100598,0.0039966000000004,0.0077522000000008,0.0044840000000001,0,sub_4
-0.0026518000000001,0.0205136000000012,0.0105658,0.0056730000000004,0.0041116000000008,0.007705,0,sub_4
-0.0027262000000001,0.0205444000000012,0.0100308,0.0064966000000003,0.0002632000000008,0.0098374,0,sub_4
-0.0030734000000001,0.0206200000000012,0.0093198,0.0064754000000003,-0.0031503999999991,0.0104676,0,sub_4
-0.0039804000000002,0.0208008000000012,0.0081412,0.0051816000000003,-0.0057037999999991,0.0102332,0,sub_4
-0.0049400000000002,0.0219518000000012,0.0080262,0.0024028000000003,-0.0069709999999991,0.009346,0,sub_4
-0.0057988000000001,0.0225422000000012,0.0079864,0.0002736000000003,-0.0058977999999991,0.0086740000000001,0,sub_4
-0.0062446000000001,0.0232166000000012,0.0080522,-0.0007835999999995,-0.0039757999999991,0.0084504000000001,0,sub_4
-0.0067854000000001,0.0241442000000012,0.0079234,-0.0001357999999995,-0.0012125999999991,0.0095196000000001,0,sub_4
-0.0066496000000001,0.0247652000000012,0.0085056,0.0013664000000004,0.0019728000000008,0.0108080000000001,0,sub_4
-0.0062362000000001,0.0244456000000012,0.0081026,0.0041674000000004,0.0047266000000008,0.0118956000000001,0,sub_4
-0.0065930000000001,0.0234544000000012,0.0075278,0.0065398000000004,0.0062072000000008,0.0121272000000001,0,sub_4
-0.0065902000000001,0.0223138000000012,0.007172,0.0078452000000004,0.0072670000000008,0.0119246000000001,0,sub_4
-0.0051814000000001,0.0210234000000012,0.0068888,0.0068094000000004,0.0085524000000008,0.0106372000000001,0,sub_4
-0.0043912000000001,0.0196296000000012,0.0068986,0.0047086000000004,0.0098432000000008,0.0089150000000001,0,sub_4
-0.0038842000000001,0.0189958000000012,0.0077076,0.0013034000000004,0.0104994000000008,0.0076086000000001,0,sub_4
-0.0027394000000001,0.0191474000000012,0.0084158,-0.0018933999999995,0.0103018000000008,0.0065184000000001,0,sub_4
-0.0016144000000001,0.0193472000000012,0.0089946,-0.0046633999999995,0.0098906000000008,0.0052178000000001,0,sub_4
-0.0017560000000001,0.0197078000000012,0.009678,-0.0057321999999995,0.0084072000000008,0.0041440000000001,0,sub_4
-0.0017058000000001,0.0205378000000012,0.0098642,-0.0055297999999995,0.0058642000000008,0.0030908000000001,0,sub_4
-0.0028174000000001,0.0216122000000012,0.0094174,-0.0046843999999995,0.0033214000000008,0.0014010000000001,0,sub_4
-0.0038440000000001,0.0230836000000012,0.0094442,-0.0036255999999995,0.0012022000000008,0.0001394000000001,0,sub_4
-0.0057012000000001,0.0236572000000012,0.009333,-0.0017133999999995,-0.0004955999999991,-0.0006891999999998,0,sub_4
-0.0064268000000001,0.0238740000000012,0.0086868,-1.2599999999565822e-05,-0.0015541999999991,-0.0013065999999998,0,sub_4
-0.0061504000000001,0.0236882000000012,0.0080534,0.0010544000000004,-0.0019823999999991,-0.0017259999999998,0,sub_4
-0.0051492000000001,0.0227742000000012,0.007789,0.0019068000000004,-0.002622799999999,-0.0021463999999998,0,sub_4
-0.0041542000000001,0.0211210000000012,0.007763,0.0016934000000004,-0.003470799999999,-0.0030011999999998,0,sub_4
-0.0024140000000001,0.0207216000000012,0.0076604,0.0008500000000004,-0.004081999999999,-0.0042739999999998,0,sub_4
-0.0024910000000002,0.0199304000000012,0.0078528,0.0002180000000004,-0.004695599999999,-0.0051177999999998,0,sub_4
-0.0031586000000002,0.0206594000000012,0.0078394,0.0002262000000004,-0.004674799999999,-0.0053169999999998,0,sub_4
-0.0036848000000002,0.0215764000000012,0.0076358,0.0008756000000004,-0.004018799999999,-0.0050853999999998,0,sub_4
-0.0046302000000002,0.0231514000000012,0.0075216,0.0025918000000004,-0.002729999999999,-0.0042061999999998,0,sub_4
-0.0064586000000002,0.0238744000000012,0.007266,0.0040854000000004,-0.001037599999999,-0.0024885999999998,0,sub_4
-0.0076374000000002,0.0248870000000012,0.00714,0.0043006000000003,0.0010854000000008,-0.0007805999999999,0,sub_4
-0.0085708000000002,0.0249596000000012,0.0073174,0.0040890000000003,0.0029976000000008,0.000711,0,sub_4
-0.0091838000000002,0.0244442000000011,0.0071572,0.0036596000000003,0.0044894000000008,0.0024186,0,sub_4
-0.0093580000000002,0.0233464000000011,0.0067066,0.0025900000000003,0.0055592000000008,0.003695,0,sub_4
-0.0075442000000001,0.0217024000000012,0.0066652,0.0006632000000003,0.0053554000000008,0.0045396,0,sub_4
-0.0049672000000001,0.0198568000000012,0.0067206,-0.0018997999999995,0.0051570000000008,0.0045252,0,sub_4
-0.0020136000000001,0.0168374000000012,0.0072428,-0.0055267999999995,0.0045406000000008,0.0034358,0,sub_4
0.0015497999999998,0.0143544000000012,0.0077578,-0.0093617999999995,0.0034982000000008,0.0010602000000001,0,sub_4
0.0039183999999998,0.0128560000000012,0.0086712,-0.0129803999999995,0.0020330000000009,-0.0023815999999998,0,sub_4
0.0046379999999997,0.0142402000000012,0.0098944,-0.0144613999999995,0.0007760000000009,-0.0064495999999998,0,sub_4
0.0035201999999997,0.0175452000000012,0.010926,-0.0127573999999995,-0.001342799999999,-0.0098725999999998,0,sub_4
0.0006585999999998,0.0227394000000012,0.011765,-0.0080727999999995,-0.003265799999999,-0.0115659999999998,0,sub_4
-0.0041864000000001,0.0286366000000012,0.011805,-0.0014649999999995,-0.003070999999999,-0.0117529999999998,0,sub_4
-0.0122278000000001,0.0318022000000012,0.0110948,0.0057848000000004,-0.001391199999999,-0.0108691999999998,0,sub_4
-0.0206440000000001,0.0330560000000012,0.0096944,0.0138746000000003,-0.000575199999999,-0.0078419999999998,0,sub_4
-0.0230498000000001,0.0350950000000012,0.006709,0.0193984000000003,-0.000191399999999,-0.0020355999999998,0,sub_4
-0.0209720000000002,0.0331122000000012,0.0043244,0.0200222000000003,0.0021262000000009,0.0039478000000001,0,sub_4
-0.0163480000000002,0.0261852000000012,0.0031362,0.0185080000000003,0.0042268000000008,0.0090346,0,sub_4
-0.0062536000000002,0.0187716000000012,0.003131,0.0148572000000003,0.0046346000000008,0.0130404,0,sub_4
0.0053537999999997,0.0114936000000012,0.0046142,0.0063124000000004,0.0054958000000008,0.0144478,0,sub_4
0.0129975999999997,0.0040382000000012,0.0081456,-0.0041249999999995,0.0072372000000008,0.0104998,0,sub_4
0.0149673999999997,0.0018384000000012,0.0112328,-0.0120067999999995,0.0057824000000008,0.0044374,0,sub_4
0.0109733999999997,0.0076846000000012,0.0134428,-0.0173429999999995,0.0002820000000009,-0.0007201999999998,0,sub_4
0.0053257999999997,0.0171804000000012,0.0140206,-0.0194901999999995,-0.005664199999999,-0.0037185999999998,0,sub_4
-0.0013356000000002,0.0271020000000012,0.0132156,-0.0165173999999995,-0.009931399999999,-0.0047605999999998,0,sub_4
-0.0094916000000002,0.0339038000000012,0.0114968,-0.0080047999999995,-0.012530799999999,-0.0032167999999998,0,sub_4
-0.0154722000000002,0.0361794000000012,0.0087986,0.0024358000000004,-0.013008199999999,-0.0012349999999998,0,sub_4
-0.0169152000000002,0.0338404000000012,0.0065596,0.0099150000000004,-0.0087835999999991,-0.0003481999999998,0,sub_4
-0.0168252000000002,0.0293220000000011,0.005071,0.0144292000000004,-0.0017703999999991,-0.0016219999999998,0,sub_4
-0.0144602000000002,0.0247826000000012,0.0042512,0.0153130000000004,0.0046164000000008,-0.0029203999999998,0,sub_4
-0.0103026000000002,0.0213202000000011,0.0042516,0.0123402000000004,0.0080348000000008,-0.0027319999999999,0,sub_4
-0.0054016000000002,0.0203972000000012,0.0052926,0.0074270000000004,0.0093200000000008,-0.0002043999999999,0,sub_4
-0.0010988000000002,0.0193268000000012,0.0069294,0.0029204000000004,0.0080394000000008,0.0042524,0,sub_4
0.0016871999999997,0.0194704000000012,0.00835,0.0001044000000004,0.0044042000000008,0.0100058,0,sub_4
0.0015691999999998,0.0192434000000012,0.0095246,-0.0007943999999995,-8.699999999910845e-05,0.0138456,0,sub_4
-0.0001008000000001,0.0188374000000012,0.010518,-0.0003939999999995,-0.0041409999999991,0.0138484000000001,0,sub_4
-0.0025154000000001,0.0194298000000012,0.0105146,0.0004532000000004,-0.006693199999999,0.0108614000000001,0,sub_4
-0.0038708000000001,0.0208144000000012,0.0099564,0.0008892000000004,-0.007744999999999,0.0059468000000001,0,sub_4
-0.0054052000000001,0.0220040000000012,0.009558,0.0011214000000004,-0.007301999999999,0.0003878000000001,0,sub_4
-0.0056110000000002,0.0226046000000012,0.0089604,0.0009300000000004,-0.006220599999999,-0.0034605999999998,0,sub_4
-0.0054840000000002,0.0229744000000012,0.0080246,0.0002994000000004,-0.004936599999999,-0.0043211999999998,0,sub_4
-0.0043926000000002,0.0224236000000012,0.0076058,-0.0003335999999995,-0.004094199999999,-0.0032575999999998,0,sub_4
-0.0043924000000001,0.0221254000000012,0.007095,0.0005240000000004,-0.003471799999999,-0.0017561999999999,0,sub_4
-0.0045116000000001,0.0215890000000012,0.0064498,0.0018056000000004,-0.003277999999999,-3.759999999993664e-05,0,sub_4
-0.0052866000000001,0.0218852000000012,0.0061396,0.0028814000000004,-0.002227599999999,0.000824,0,sub_4
-0.0055906000000001,0.0223822000000012,0.0060198,0.0037564000000004,0.0003198000000008,0.0004004,0,sub_4
-0.0070628000000001,0.0228612000000012,0.006394,0.0039870000000004,0.0033052000000008,-0.0004563999999998,0,sub_4
-0.0075360000000001,0.0230372000000012,0.0071492,0.0025068000000004,0.0056566000000008,-0.0011105999999998,0,sub_4
-0.0072574000000002,0.0232040000000012,0.0078736,0.0005922000000004,0.0071538000000008,-0.0009121999999998,0,sub_4
-0.0059178000000002,0.0231916000000012,0.0080454,-0.0015451999999995,0.0067334000000008,-0.0004991999999998,0,sub_4
-0.0046128000000002,0.0227524000000011,0.0086632,-0.0034861999999995,0.0050260000000008,-0.0002939999999998,0,sub_4
-0.0028590000000002,0.0218686000000012,0.0087978,-0.0049965999999995,0.0033204000000008,-0.0009403999999999,0,sub_4
-0.0019198000000002,0.0213444000000011,0.0089066,-0.0050143999999995,0.0013966000000008,-0.0015761999999999,0,sub_4
-0.0015706000000002,0.0211604000000011,0.009048,-0.0043903999999995,-0.0005275999999991,-0.0026345999999999,0,sub_4
-0.0020094000000002,0.0209320000000012,0.008838,-0.0031251999999995,-0.0020289999999991,-0.0034755999999998,0,sub_4
-0.0026616000000002,0.0214314000000012,0.0088298,-0.0018497999999995,-0.0030987999999991,-0.0034653999999998,0,sub_4
-0.0038932000000002,0.0217528000000012,0.0084838,-0.0005753999999995,-0.0037449999999991,-0.0028147999999998,0,sub_4
-0.0049396000000002,0.0217210000000012,0.0081722,0.0002782000000004,-0.0035357999999991,-0.0025953999999998,0,sub_4
-0.0053082000000002,0.0222938000000012,0.0080408,0.0007150000000004,-0.0024701999999991,-0.0030213999999998,0,sub_4
-0.0059606000000002,0.0225656000000012,0.0085764,0.0009420000000004,-0.0007637999999991,-0.0036633999999998,0,sub_4
-0.0065100000000002,0.0229366000000012,0.0084602,0.0013776000000004,8.880000000089167e-05,-0.0040891999999998,0,sub_4
-0.0065964000000002,0.0231708000000012,0.0083328,0.0015942000000004,0.0003004000000008,-0.0038747999999998,0,sub_4
-0.0065168000000002,0.0233068000000012,0.0081078,0.0015944000000004,0.0007224000000008,-0.0028075999999998,0,sub_4
-0.0065300000000002,0.0227444000000012,0.0076858,0.0009474000000004,0.0011430000000008,-0.0008899999999998,0,sub_4
-0.0062166000000002,0.0223900000000012,0.007132,0.0005092000000004,0.0009220000000008,0.0014574000000001,0,sub_4
-0.0055498000000002,0.0215958000000012,0.0064486,-0.0003597999999995,0.0011298000000008,0.0029398000000001,0,sub_4
-0.0050574000000002,0.0215030000000012,0.006525,-0.0012239999999995,0.0017664000000008,0.0037808000000001,0,sub_4
-0.0046790000000002,0.0216266000000012,0.0067636,-0.0018739999999995,0.0017664000000008,0.0037694000000001,0,sub_4
-0.0045414000000002,0.0219358000000012,0.0076188,-0.0020951999999995,0.0017668000000008,0.0033338000000001,0,sub_4
-0.0042714000000002,0.0221620000000012,0.0079378,-0.0025279999999995,0.0019818000000008,0.0026826000000001,0,sub_4
-0.0043602000000002,0.0218612000000012,0.008501,-0.0025251999999995,0.0017722000000008,0.0018282000000001,0,sub_4
-0.0043484000000002,0.0215762000000012,0.008894,-0.0023099999999995,0.0007120000000008,0.0003356000000001,0,sub_4
-0.0044826000000002,0.0214250000000012,0.0083262,-0.0025223999999995,-0.0001351999999991,-0.0007329999999998,0,sub_4
-0.0044282000000002,0.0215186000000012,0.007835,-0.0025285999999995,-0.0007597999999991,-0.0018091999999998,0,sub_4
-0.0045926000000002,0.0219486000000012,0.0080388,-0.0018925999999995,-0.0011727999999991,-0.0030945999999998,0,sub_4
-0.0045768000000002,0.0231172000000012,0.008313,-0.0010461999999995,-0.0013767999999991,-0.0035241999999998,0,sub_4
-0.0045430000000002,0.0235696000000012,0.0073894,-0.0001987999999995,-0.0011553999999991,-0.0037409999999998,0,sub_4
-0.0046268000000002,0.0235366000000012,0.0072724,0.0002246000000003,-0.0005055999999991,-0.0041747999999998,0,sub_4
-0.0042424000000002,0.0235894000000012,0.006476,-0.0012603999999996,-0.0002805999999991,-0.0058945999999998,0,sub_4
-0.0033448000000002,0.0237496000000012,0.0054126,-0.0048695999999996,-3.9399999999108334e-05,-0.0097657999999998,0,sub_4
-0.0009476000000002,0.0229502000000012,0.0053312,-0.0088833999999995,0.0025570000000008,-0.0162065999999998,0,sub_4
7.839999999978628e-05,0.0196610000000012,0.0075498,-0.0109695999999995,0.0070706000000008,-0.0239219999999998,0,sub_4
-0.0002334000000002,0.0162370000000012,0.0097818,-0.0113599999999995,0.0105070000000008,-0.0301285999999998,0,sub_4
-0.0010314000000001,0.0155016000000012,0.011665,-0.0102903999999995,0.0105132000000008,-0.0322613999999999,0,sub_4
-0.0009460000000001,0.0162472000000012,0.0129702,-0.0083931999999995,0.0081592000000009,-0.0309669999999998,0,sub_4
-0.0038916000000001,0.0178978000000012,0.0130272,-0.0052455999999995,0.0034402000000009,-0.0253879999999999,0,sub_4
-0.0074252000000001,0.0223138000000012,0.0116696,-0.0025483999999995,-0.003640199999999,-0.0153187999999998,0,sub_4
