userAcceleration.x,userAcceleration.y,userAcceleration.z,rotationRate.x,rotationRate.y,rotationRate.z,label,subject
-0.0124952000000001,-0.0032589999999987,-0.0175115999999999,0.0042174000000004,0.0030796000000009,0.0018326,0,sub_9
-0.0133954000000001,-0.0032855999999987,-0.0174845999999999,0.0052894000000004,0.0024046000000009,0.0039638,0,sub_9
-0.0137890000000001,-0.0030013999999987,-0.0179411999999999,0.0050830000000004,0.0027968000000009,0.0067256,0,sub_9
-0.0142118000000001,-0.0034761999999987,-0.0181075999999998,0.0038078000000004,0.0034032000000009,0.0101204,0,sub_9
-0.0149962000000001,-0.0042895999999987,-0.0187611999999998,0.0023222000000004,0.0035886000000009,0.0124462,0,sub_9
-0.0155584000000002,-0.0053909999999987,-0.0186641999999998,0.0010400000000004,0.0035914000000009,0.0128646,0,sub_9
-0.0161170000000002,-0.0070289999999987,-0.0192143999999998,0.0004018000000004,0.0035954000000009,0.0124328,0,sub_9
-0.0164798000000002,-0.0079181999999987,-0.0200799999999998,-0.0002323999999995,0.0033906000000009,0.010933,0,sub_9
-0.0156762000000002,-0.0082449999999987,-0.0208631999999998,-0.0012671999999995,0.0035960000000009,0.0087874,0,sub_9
-0.0151612000000002,-0.0080339999999987,-0.0204363999999998,-0.0023001999999995,0.0042274000000009,0.0066414,0,sub_9
-0.0145652000000002,-0.0070043999999987,-0.0200435999999998,-0.0026879999999995,0.0061340000000009,0.0047118,0,sub_9
-0.0141576000000002,-0.0053379999999987,-0.0197651999999998,-0.0026531999999994,0.0076114000000009,0.003213,0,sub_9
-0.0133756000000002,-0.0047537999999987,-0.0189747999999998,-0.0019849999999995,0.0084440000000009,0.0025742,0,sub_9
-0.0139074000000002,-0.0044241999999987,-0.0179629999999998,-0.0009113999999995,0.0088706000000009,0.001513,0,sub_9
-0.0135354000000002,-0.0041113999999987,-0.0178235999999998,0.0003728000000004,0.0086572000000009,0.000454,0,sub_9
-0.0133344000000002,-0.0042717999999987,-0.0176995999999998,0.0010070000000004,0.0069524000000009,3.3400000000037715e-05,0,sub_9
-0.0132554000000002,-0.0042245999999987,-0.0171083999999998,0.0014262000000004,0.0050342000000009,-0.0001747999999999,0,sub_9
-0.0136468000000002,-0.0042505999999987,-0.0173639999999998,0.0018626000000004,0.0033066000000009,-0.0003897999999999,0,sub_9
-0.0136880000000002,-0.0041965999999987,-0.0180793999999998,0.0018714000000004,0.0020042000000009,3.280000000007769e-05,0,sub_9
-0.0136904000000002,-0.0047283999999987,-0.0185125999999998,0.0010286000000004,0.0011308000000009,0.0004488,0,sub_9
-0.0136566000000002,-0.0053317999999987,-0.0187863999999998,0.0010404000000004,0.0008918000000009,0.0012972,0,sub_9
-0.0136876000000002,-0.0059645999999987,-0.0193737999999999,0.0010510000000004,0.0004398000000009,0.0021458,0,sub_9
-0.0137912000000002,-0.0064501999999987,-0.0193823999999999,0.0006244000000004,0.0004414000000009,0.0021428,0,sub_9
-0.0142178000000002,-0.0067851999999987,-0.0192485999999999,0.0006272000000004,0.0008682000000009,0.0019286,0,sub_9
-0.0146828000000002,-0.0068569999999987,-0.0191807999999999,0.0010676000000004,0.0010600000000009,0.0019112,0,sub_9
-0.0149100000000002,-0.0065257999999987,-0.0195039999999999,0.0006546000000004,0.0010424000000009,0.0016744,0,sub_9
-0.0151372000000002,-0.0062885999999987,-0.0195455999999999,-0.0001811999999995,0.0018786000000009,0.0014338,0,sub_9
-0.0155596000000002,-0.0056305999999987,-0.0193837999999999,-0.0005903999999995,0.0031376000000009,0.0016228,0,sub_9
-0.0155722000000001,-0.0052461999999987,-0.0191667999999999,-0.0005785999999994,0.0035414000000009,0.002243,0,sub_9
-0.0156598000000001,-0.0047199999999987,-0.0193053999999998,-0.0001537999999994,0.0033260000000009,0.0024598,0,sub_9
-0.0151180000000001,-0.0047015999999987,-0.0191689999999998,5.960000000051176e-05,0.0031132000000009,0.002248,0,sub_9
-0.0145206000000001,-0.0046049999999987,-0.0189271999999998,0.0002748000000004,0.0026898000000009,0.0013954,0,sub_9
-0.0143570000000001,-0.0052221999999987,-0.0189019999999998,7.000000000051175e-05,0.0020356000000009,0.0005204,0,sub_9
-0.0145066000000001,-0.0053863999999987,-0.0191951999999998,-0.0003509999999994,0.0009552000000009,-0.0001419999999999,0,sub_9
-0.0147198000000001,-0.0056173999999987,-0.0185751999999998,-0.0016293999999994,-0.000125599999999,4.420000000005782e-05,0,sub_9
-0.0149036000000001,-0.0055457999999987,-0.0185247999999999,-0.0022677999999994,-0.000572199999999,0.0008748,0,sub_9
-0.0151182000000001,-0.0054513999999987,-0.0184635999999999,-0.0033317999999994,-0.000379799999999,0.002129,0,sub_9
-0.0150840000000001,-0.0050207999999987,-0.0189923999999999,-0.0033347999999994,0.0002542000000009,0.00341,0,sub_9
-0.0150356000000001,-0.0050965999999987,-0.0187685999999999,-0.0026889999999994,0.0017424000000009,0.0036262,0,sub_9
-0.0147830000000001,-0.0050633999999987,-0.0193681999999999,-0.0009713999999994,0.0034434000000009,0.002995,0,sub_9
-0.0151192000000001,-0.0049405999999987,-0.0190573999999999,0.0005328000000005,0.0040842000000009,0.0012956,0,sub_9
-0.0157534000000001,-0.0050643999999987,-0.0192695999999999,0.0024624000000004,0.0038506000000009,-0.0004325999999999,0,sub_9
-0.0161456000000001,-0.0052173999999987,-0.0193023999999999,0.0028918000000004,0.0027674000000009,-0.0015293999999999,0,sub_9
-0.0165204000000001,-0.0053241999999987,-0.0198353999999999,0.0024658000000004,0.0021098000000009,-0.0017779999999999,0,sub_9
-0.0163718000000001,-0.0057677999999987,-0.0200331999999999,0.0013986000000004,0.0023022000000009,-0.0009637999999999,0,sub_9
-0.0160272000000002,-0.0059561999999987,-0.0204639999999999,0.0003296000000004,0.0024930000000009,0.0002776,0,sub_9
-0.0149728000000002,-0.0058923999999987,-0.0204849999999999,-0.0007457999999995,0.0024890000000009,0.0021928,0,sub_9
-0.0142964000000002,-0.0057563999999987,-0.0197897999999999,-0.0009619999999995,0.0029116000000009,0.003259,0,sub_9
-0.0135610000000001,-0.0054781999999987,-0.0193069999999999,-0.0009641999999995,0.0026682000000009,0.0040882,0,sub_9
-0.0133510000000001,-0.0046491999999987,-0.0186751999999998,-0.0007501999999995,0.0022146000000009,0.0040644,0,sub_9
-0.0133354000000001,-0.0046351999999987,-0.0182721999999998,-0.0011687999999995,0.0028310000000009,0.003394,0,sub_9
-0.0137548000000001,-0.0050163999999987,-0.0183945999999998,-0.0015825999999995,0.0038760000000009,0.0020822,0,sub_9
-0.0141874000000001,-0.0046721999999987,-0.0184777999999998,-0.0022077999999995,0.0051356000000009,0.000555,0,sub_9
-0.0139580000000001,-0.0042585999999987,-0.0193011999999998,-0.0026211999999995,0.0059978000000009,-0.0015853999999999,0,sub_9
-0.0146296000000001,-0.0049637999999987,-0.0195809999999999,-0.0034697999999995,0.0045196000000009,-0.0041529999999999,0,sub_9
-0.0157068000000001,-0.0056587999999987,-0.0193413999999999,-0.0049595999999995,0.0034672000000009,-0.0060847999999998,0,sub_9
-0.0161082000000001,-0.0063901999999987,-0.0189275999999999,-0.0062349999999995,0.0028392000000009,-0.0078019999999998,0,sub_9
-0.0154862000000001,-0.0062173999999987,-0.0187753999999999,-0.0079433999999995,0.0013386000000009,-0.0091139999999999,0,sub_9
-0.0150936000000001,-0.0060605999999987,-0.0178941999999999,-0.0088031999999994,0.0004674000000009,-0.0087117999999999,0,sub_9
-0.0133932000000001,-0.0044601999999987,-0.0170743999999998,-0.0071043999999994,0.0014952000000009,-0.0059439999999999,0,sub_9
-0.0116704000000001,-0.0024355999999987,-0.0175353999999998,-0.0034957999999994,0.0010216000000009,-0.0023063999999999,0,sub_9
-0.0106378000000001,-0.0004957999999987,-0.0173725999999998,0.0003214000000005,0.0005430000000009,0.002401,0,sub_9
-0.0118760000000001,-0.0007721999999987,-0.0180817999999998,0.0047792000000005,0.0005068000000009,0.0075596,0,sub_9
-0.0136880000000001,-0.0016925999999987,-0.0184989999999998,0.0073224000000004,0.0006948000000009,0.0116364,0,sub_9
-0.0160512000000001,-0.0037815999999987,-0.0202961999999999,0.0073186000000004,0.0010976000000009,0.0129026,0,sub_9
-0.0181124000000001,-0.0056921999999987,-0.0210901999999998,0.0058290000000004,0.0019368000000009,0.012876,0,sub_9
-0.0202810000000001,-0.0075283999999987,-0.0221905999999998,0.0034916000000004,0.0023598000000009,0.011135,0,sub_9
-0.0210866000000001,-0.0089335999999987,-0.0222941999999998,0.0009456000000004,0.0030000000000009,0.0085378,0,sub_9
-0.0209514000000002,-0.0094011999999987,-0.0228759999999998,-0.0005363999999995,0.0029972000000009,0.0059488,0,sub_9
-0.0193214000000002,-0.0098725999999987,-0.0225805999999998,-0.0022347999999995,0.0030110000000009,0.0040142,0,sub_9
-0.0181910000000002,-0.0105441999999987,-0.0227325999999998,-0.0045713999999995,0.0036652000000009,0.002288,0,sub_9
-0.0164418000000002,-0.0108921999999987,-0.0230401999999998,-0.0077613999999994,0.0047468000000009,0.0009824,0,sub_9
-0.0137464000000002,-0.0089811999999987,-0.0223367999999998,-0.0128595999999994,0.0079518000000009,-0.0005655999999999,0,sub_9
-0.0126384000000002,-0.0068255999999988,-0.0200747999999998,-0.0192225999999994,0.0145702000000009,-0.0021269999999999,0,sub_9
-0.0136754000000002,-0.0036259999999988,-0.0179579999999998,-0.0240967999999994,0.0213912000000009,-0.0023961999999999,0,sub_9
-0.0143150000000002,0.0007894000000011,-0.0163363999999999,-0.0240817999999994,0.0245714000000009,-0.0021993999999999,0,sub_9
-0.0152558000000002,0.0050938000000011,-0.0146319999999999,-0.0196023999999995,0.0245386000000009,-0.0015399999999999,0,sub_9
-0.0166092000000002,0.0072676000000011,-0.0146343999999999,-0.0102417999999995,0.0198126000000009,2.680000000007772e-05,0,sub_9
-0.0167362000000002,0.0069228000000012,-0.0166633999999999,0.0020820000000004,0.0103864000000009,0.0022614,0,sub_9
-0.0162874000000002,0.0042922000000012,-0.0181613999999999,0.0150450000000004,-0.000103799999999,0.0036472,0,sub_9
-0.0157012000000002,-0.0016501999999987,-0.0197747999999999,0.0243926000000004,-0.008465399999999,0.0047796,0,sub_9
-0.0139568000000002,-0.0077047999999987,-0.0210915999999999,0.0286346000000004,-0.014461399999999,0.004805,0,sub_9
-0.0131246000000002,-0.0136001999999987,-0.0219819999999999,0.0273488000000004,-0.016175999999999,0.0045726,0,sub_9
-0.0127690000000002,-0.0176001999999987,-0.0225839999999999,0.0201078000000004,-0.014245399999999,0.003653,0,sub_9
-0.0127290000000001,-0.0194989999999987,-0.0234847999999999,0.0077612000000005,-0.008887999999999,0.0026934,0,sub_9
-0.0129024000000001,-0.0179451999999987,-0.0238449999999999,-0.0077757999999994,-0.001583799999999,0.00108,0,sub_9
-0.0147094000000001,-0.0144161999999987,-0.0226743999999999,-0.0218181999999994,0.0063526000000009,-9.659999999994212e-05,0,sub_9
-0.0184698000000001,-0.0100611999999987,-0.0201365999999999,-0.0326493999999994,0.0159848000000009,-0.0018935999999999,0,sub_9
-0.0221054000000001,-0.0052647999999987,-0.0176979999999999,-0.0360211999999994,0.0234612000000009,-0.0038493999999999,0,sub_9
-0.0228792000000002,0.0010424000000012,-0.0170437999999999,-0.0328007999999994,0.0240788000000009,-0.0055385999999999,0,sub_9
-0.0216606000000002,0.0054424000000012,-0.0164407999999999,-0.0238413999999994,0.0202004000000009,-0.0067545999999999,0,sub_9
-0.0197356000000002,0.0064828000000012,-0.0172317999999999,-0.0121195999999994,0.0143922000000009,-0.0073077999999999,0,sub_9
-0.0144824000000002,0.0031206000000012,-0.0212013999999999,-0.0014799999999995,0.0045424000000009,-0.0085043999999999,0,sub_9
-0.0104718000000002,3.8800000001201765e-05,-0.0242545999999998,0.0051170000000004,-0.005282999999999,-0.0122929999999999,0,sub_9
-0.0113690000000002,-0.0052119999999987,-0.0231549999999998,0.0096092000000004,-0.008046999999999,-0.0175991999999999,0,sub_9
-0.0174640000000002,-0.0102083999999987,-0.0220963999999998,0.0102954000000004,-0.003764399999999,-0.0235819999999998,0,sub_9
-0.0238170000000002,-0.0124685999999988,-0.0221725999999998,0.0097298000000004,0.0039268000000009,-0.0317237999999998,0,sub_9
-0.0302872000000002,-0.0109443999999988,-0.0200657999999998,0.0102272000000004,0.0105498000000009,-0.0400705999999998,0,sub_9
-0.0347114000000002,-0.0080033999999988,-0.0194357999999998,0.0151892000000004,0.0148086000000009,-0.0471011999999998,0,sub_9
-0.0345212000000002,-0.0046515999999988,-0.0232187999999998,0.0248100000000004,0.0115922000000009,-0.0536623999999998,0,sub_9
-0.0298354000000002,-0.0008119999999988,-0.0268523999999998,0.0373834000000004,0.0013322000000009,-0.0595529999999998,0,sub_9
-0.0231092000000001,0.0055698000000011,-0.0292145999999998,0.0475802000000004,-0.012748799999999,-0.0635229999999998,0,sub_9
-0.0194764000000001,0.0090568000000011,-0.0278843999999999,0.0575782000000004,-0.021723599999999,-0.0655779999999998,0,sub_9
-0.0174682000000001,0.0093132000000012,-0.0241461999999999,0.0635440000000004,-0.023237599999999,-0.0651071999999999,0,sub_9
-0.0155026000000001,0.0058702000000012,-0.0184133999999999,0.0631368000000004,-0.020287999999999,-0.0625621999999998,0,sub_9
-0.0113678000000001,-0.0007109999999987,-0.0130899999999999,0.0588956000000004,-0.013923799999999,-0.0581255999999999,0,sub_9
-0.0072976000000002,-0.0122999999999987,-0.0085245999999999,0.0512472000000004,-0.003297799999999,-0.0509407999999998,0,sub_9
0.0003745999999997,-0.0196647999999988,-0.0085315999999998,0.0363152000000004,0.0058426000000009,-0.0388911999999998,0,sub_9
0.0066501999999997,-0.0252941999999988,-0.0099787999999998,0.0147266000000004,0.0100880000000009,-0.0223951999999998,0,sub_9
0.0095581999999997,-0.0273445999999987,-0.0105151999999998,-0.0107365999999995,0.0139324000000009,-0.0027089999999999,0,sub_9
0.0072767999999997,-0.0255023999999987,-0.0096917999999998,-0.0366399999999995,0.0169176000000009,0.0191116,0,sub_9
0.0041703999999998,-0.0197295999999987,-0.0098975999999998,-0.0597763999999994,0.0194628000000009,0.0420202,0,sub_9
0.0004983999999998,-0.0143299999999987,-0.0098623999999999,-0.0786393999999994,0.0217860000000009,0.0634636,0,sub_9
-0.0001790000000001,-0.0067335999999987,-0.0099131999999999,-0.0915185999999994,0.0229996000000009,0.0832304,0,sub_9
-0.0003774000000001,0.0002402000000012,-0.0112427999999999,-0.0982059999999994,0.0218606000000009,0.0998388,0,sub_9
-0.0005368000000002,0.0049056000000012,-0.0125393999999999,-0.0988987999999994,0.0198698000000009,0.111149,0,sub_9
-0.0034924000000002,0.0062968000000012,-0.0131281999999999,-0.0933683999999994,0.0161914000000009,0.112891,0,sub_9
-0.0128832000000002,0.0116106000000012,-0.0165489999999999,-0.0799125999999994,0.0082686000000009,0.103584,0,sub_9
-0.0232042000000001,0.0141900000000012,-0.0209685999999999,-0.0574795999999995,-0.004303999999999,0.0847424,0,sub_9
-0.0327980000000001,0.0173824000000012,-0.0259785999999999,-0.0301219999999995,-0.019849199999999,0.0591024,0,sub_9
-0.0427992000000001,0.0173224000000012,-0.0319223999999999,-0.0016485999999995,-0.034135399999999,0.0294036,0,sub_9
-0.0504888000000001,0.0179890000000012,-0.0381753999999999,0.0283234000000004,-0.045239599999999,0.0018476,0,sub_9
-0.0508604000000001,0.0127068000000012,-0.0421637999999999,0.0574496000000004,-0.050604399999999,-0.0216623999999999,0,sub_9
-0.0497418000000001,0.0029302000000012,-0.0423755999999999,0.0797726000000004,-0.048284199999999,-0.0430933999999999,0,sub_9
-0.0483022000000001,-0.0066365999999987,-0.0414933999999998,0.0946516000000004,-0.038064999999999,-0.0620227999999999,0,sub_9
-0.0451432000000001,-0.0129605999999987,-0.0397101999999998,0.1018320000000004,-0.021626599999999,-0.0765213999999999,0,sub_9
-0.0388666000000001,-0.0189973999999987,-0.0361815999999998,0.0979026000000004,-0.003676799999999,-0.0863995999999999,0,sub_9
-0.0321236000000001,-0.0244341999999987,-0.0310213999999998,0.0820060000000005,0.0155718000000009,-0.0910217999999999,0,sub_9
-0.0218222000000001,-0.0241693999999987,-0.0249971999999998,0.0588318000000004,0.0365230000000009,-0.0888603999999999,0,sub_9
-0.0104028000000002,-0.0224773999999987,-0.0171519999999998,0.0322316000000005,0.0591312000000009,-0.0798445999999999,0,sub_9
0.0023827999999997,-0.0186087999999987,-0.0100913999999998,0.0068616000000005,0.0759614000000009,-0.0654717999999999,0,sub_9
0.0122611999999997,-0.0112015999999987,-0.0026885999999999,-0.0138619999999994,0.0848810000000009,-0.0482789999999999,0,sub_9
0.0177071999999997,-0.0005551999999987,0.0028464,-0.0261033999999994,0.0826894000000009,-0.0303717999999999,0,sub_9
0.0173673999999997,0.0091048000000012,0.0042238,-0.0296443999999994,0.0700268000000009,-0.0121767999999999,0,sub_9
0.0122515999999997,0.0156678000000012,0.0016386000000001,-0.0261981999999994,0.0467232000000009,0.0049686,0,sub_9
0.0052755999999997,0.0186280000000011,-0.0013847999999998,-0.0189189999999994,0.0172454000000009,0.0176622,0,sub_9
-0.0027480000000002,0.0157262000000011,-0.0056707999999998,-0.0084211999999995,-0.012014999999999,0.0265326,0,sub_9
-0.0071810000000002,0.0075512000000012,-0.0104327999999998,0.0020254000000004,-0.035303399999999,0.0327694,0,sub_9
-0.0114580000000002,-0.0012333999999987,-0.0144989999999998,0.0086782000000004,-0.051109599999999,0.0359792,0,sub_9
-0.0128976000000002,-0.0079117999999987,-0.0169263999999999,0.0115344000000004,-0.058162999999999,0.038083,0,sub_9
-0.0145170000000002,-0.0122083999999987,-0.0208005999999998,0.0109988000000004,-0.057545599999999,0.0429306,0,sub_9
-0.0177432000000001,-0.0135135999999987,-0.0243607999999998,0.0051568000000004,-0.050306799999999,0.0481598,0,sub_9
-0.0226240000000001,-0.0120789999999987,-0.0257355999999998,-0.0033407999999995,-0.038148399999999,0.0519304,0,sub_9
-0.0262616000000001,-0.0096947999999987,-0.0272283999999998,-0.0090471999999995,-0.024498999999999,0.0533684,0,sub_9
-0.0288106000000001,-0.0076025999999987,-0.0284209999999998,-0.0115377999999995,-0.014486399999999,0.0482666,0,sub_9
-0.0308040000000001,-0.0047205999999987,-0.0272853999999998,-0.0088825999999995,-0.006166999999999,0.0359388,0,sub_9
-0.0294186000000001,-0.0024013999999988,-0.0270165999999998,0.0001796000000004,-0.000623599999999,0.0196002,0,sub_9
-0.0270524000000001,-0.0023449999999988,-0.0270191999999998,0.0109248000000004,-0.000836799999999,0.0028536,0,sub_9
-0.0250666000000001,-0.0040461999999988,-0.0265467999999998,0.0193038000000004,-0.004241799999999,-0.0128371999999998,0,sub_9
-0.0246872000000001,-0.0078785999999988,-0.0253303999999999,0.0246832000000004,-0.005281199999999,-0.0239077999999998,0,sub_9
-0.0215360000000001,-0.0123355999999988,-0.0238043999999999,0.0238614000000004,-0.003340399999999,-0.0290433999999998,0,sub_9
-0.0189082000000001,-0.0175379999999987,-0.0208887999999999,0.0157676000000004,-0.000328399999999,-0.0293173999999998,0,sub_9
-0.0159056000000001,-0.0187847999999987,-0.0188649999999999,0.0056228000000004,0.0056604000000009,-0.0262853999999998,0,sub_9
-0.0119892000000001,-0.0171629999999987,-0.0164545999999998,-0.0043145999999995,0.0135532000000009,-0.0200497999999998,0,sub_9
-0.0072876000000001,-0.0131659999999987,-0.0154811999999998,-0.0138395999999995,0.0210072000000009,-0.0110333999999998,0,sub_9
-0.0048454000000002,-0.0088293999999987,-0.0144097999999998,-0.0221033999999995,0.0252568000000009,-0.0009357999999999,0,sub_9
-0.0046664000000002,-0.0042623999999987,-0.0147009999999998,-0.0271743999999995,0.0280030000000009,0.0093998,0,sub_9
-0.0060744000000001,-0.0017239999999987,-0.0140063999999998,-0.0304133999999995,0.0284046000000009,0.0183496,0,sub_9
-0.0097410000000001,-0.0003581999999987,-0.0149283999999999,-0.0327997999999995,0.0256192000000009,0.0243186,0,sub_9
-0.0138650000000001,0.0005936000000012,-0.0156195999999999,-0.0336847999999995,0.0207134000000009,0.0264552,0,sub_9
-0.0188332000000001,0.0019010000000012,-0.0171695999999999,-0.0311453999999995,0.0141074000000009,0.0245586,0,sub_9
-0.0213794000000001,0.0027748000000012,-0.0183175999999999,-0.0263313999999995,0.0055802000000009,0.0199734,0,sub_9
-0.0220110000000002,0.0034680000000011,-0.0193283999999999,-0.0193799999999995,-0.003163399999999,0.0143354,0,sub_9
-0.0205222000000002,0.0035520000000011,-0.0193175999999999,-0.0105033999999995,-0.011484999999999,0.0080694000000001,0,sub_9
-0.0188508000000002,0.0037560000000011,-0.0183903999999999,0.0015842000000004,-0.017686399999999,0.0016094000000001,0,sub_9
-0.0176086000000002,0.0024142000000011,-0.0182683999999999,0.0149560000000004,-0.020493599999999,-0.0022821999999998,0,sub_9
-0.0181314000000002,0.0018710000000011,-0.0191521999999999,0.0266876000000004,-0.021811399999999,-0.0026257999999998,0,sub_9
-0.0186448000000001,2.000000001181959e-06,-0.0209971999999999,0.0339260000000005,-0.023336599999999,-0.0004367999999999,0,sub_9
-0.0211770000000001,-0.0029709999999987,-0.0230443999999999,0.0366498000000004,-0.023001999999999,0.0034866,0,sub_9
-0.0236934000000001,-0.0065031999999987,-0.0259651999999999,0.0342536000000004,-0.021587599999999,0.0082274,0,sub_9
-0.0226550000000001,-0.0093375999999987,-0.0269201999999999,0.0263316000000004,-0.018860999999999,0.009296,0,sub_9
-0.0202680000000001,-0.0123613999999987,-0.0258811999999999,0.0169516000000004,-0.013975599999999,0.0045834,0,sub_9
-0.0191084000000002,-0.0141155999999987,-0.0242127999999999,0.0099456000000004,-0.006740599999999,-0.0037475999999999,0,sub_9
-0.0160942000000002,-0.0138149999999987,-0.0227187999999998,0.0051042000000004,-8.639999999906223e-05,-0.0119083999999999,0,sub_9
-0.0128166000000002,-0.0123303999999987,-0.0211961999999998,-0.0001811999999995,0.0046442000000009,-0.0181469999999999,0,sub_9
-0.0120704000000002,-0.0107039999999987,-0.0204391999999998,-0.0054905999999995,0.0076558000000009,-0.0207515999999999,0,sub_9
-0.0132934000000002,-0.0096901999999987,-0.0197285999999998,-0.0108239999999994,0.0091606000000009,-0.0195089999999999,0,sub_9
-0.0152378000000002,-0.0076483999999987,-0.0193095999999998,-0.0166223999999994,0.0102536000000009,-0.0159639999999999,0,sub_9
-0.0179098000000002,-0.0065871999999987,-0.0185975999999998,-0.0222053999999994,0.0111352000000009,-0.0130581999999999,0,sub_9
-0.0185480000000002,-0.0042893999999987,-0.0179865999999998,-0.0248059999999994,0.0107288000000009,-0.0103433999999999,0,sub_9
-0.0180718000000002,-0.0015661999999987,-0.0168075999999998,-0.0240059999999994,0.0073278000000009,-0.0076009999999999,0,sub_9
-0.0165266000000002,0.0014924000000012,-0.0161987999999998,-0.0208733999999994,0.0019960000000009,-0.0035579999999999,0,sub_9
-0.0143070000000002,0.0040260000000012,-0.0154869999999998,-0.0155907999999995,-0.005283599999999,0.0007612,0,sub_9
-0.0114050000000002,0.0053046000000012,-0.0153499999999998,-0.0098833999999995,-0.012141799999999,0.0059374,0,sub_9
-0.0101590000000002,0.0044616000000012,-0.0147017999999998,-0.0052303999999995,-0.017287599999999,0.0100358,0,sub_9
-0.0102918000000002,0.0025104000000012,-0.0152409999999998,-0.0008111999999995,-0.020500199999999,0.0128414,0,sub_9
-0.0110672000000002,-8.679999999879843e-05,-0.0170879999999998,0.0031948000000004,-0.023274799999999,0.01308,0,sub_9
-0.0121674000000002,-0.0034517999999987,-0.0193713999999999,0.0050804000000004,-0.024969199999999,0.0113794,0,sub_9
-0.0150520000000002,-0.0057587999999987,-0.0209349999999999,0.0063440000000004,-0.024523199999999,0.007749,0,sub_9
-0.0180564000000002,-0.0078569999999987,-0.0234369999999999,0.0074030000000004,-0.022583399999999,0.0036878,0,sub_9
-0.0200750000000002,-0.0088849999999987,-0.0251055999999999,0.0065822000000004,-0.018943999999999,4.540000000008322e-05,0,sub_9
-0.0213654000000001,-0.0096335999999987,-0.0249807999999999,0.0046992000000004,-0.013598999999999,-0.0029657999999998,0,sub_9
-0.0218252000000001,-0.0090101999999987,-0.0247109999999999,0.0026306000000004,-0.007434599999999,-0.0049445999999998,0,sub_9
-0.0209178000000001,-0.0081073999999987,-0.0244969999999999,0.0009764000000004,-0.003404799999999,-0.0062769999999998,0,sub_9
-0.0202232000000001,-0.0073379999999987,-0.0228745999999999,-0.0011075999999995,0.0001996000000009,-0.0073979999999998,0,sub_9
-0.0199798000000001,-0.0063813999999987,-0.0217689999999999,-0.0025543999999994,0.0033748000000009,-0.0083003999999998,0,sub_9
-0.0199966000000002,-0.0046187999999987,-0.0217389999999999,-0.0040057999999994,0.0059090000000009,-0.0087747999999999,0,sub_9
-0.0201922000000002,-0.0031423999999987,-0.0204481999999999,-0.0044295999999994,0.0076108000000009,-0.0077117999999999,0,sub_9
-0.0202358000000002,-0.0016493999999987,-0.0190421999999999,-0.0046515999999995,0.0082406000000009,-0.0051503999999999,0,sub_9
-0.0198758000000002,-0.0012763999999987,-0.0181891999999999,-0.0042487999999995,0.0069446000000009,-0.0010867999999999,0,sub_9
