userAcceleration.x,userAcceleration.y,userAcceleration.z,rotationRate.x,rotationRate.y,rotationRate.z,label,subject
0.0047445999999997,0.0132068000000012,0.0084386,0.0065322000000003,-0.0024411999999991,-0.0004535999999998,0,sub_4
0.0038393999999997,0.0141194000000012,0.0079816,0.0050366000000003,-0.0022253999999991,0.0001766000000001,0,sub_4
0.0043661999999997,0.0131624000000012,0.0066764,0.0033240000000003,-0.0022245999999991,0.0014466000000001,0,sub_4
0.0062605999999997,0.0111132000000012,0.0064722,0.0011910000000003,-0.0017913999999991,0.0022956000000001,0,sub_4
0.0086427999999997,0.0082998000000012,0.006208,-0.0005115999999995,-0.0002951999999991,0.0033600000000001,0,sub_4
0.0110683999999997,0.0061294000000012,0.006828,-0.0026397999999995,0.0012034000000008,0.0042078000000001,0,sub_4
0.0129701999999997,0.0050252000000012,0.0075258,-0.0039173999999995,0.0016354000000008,0.0046356,0,sub_4
0.0141205999999997,0.0053446000000012,0.0089442,-0.0045549999999995,0.0012164000000008,0.0042142,0,sub_4
0.0136195999999997,0.0065794000000012,0.0095586,-0.0041301999999995,0.0003644000000008,0.003791,0,sub_4
0.0121347999999997,0.0088480000000012,0.0103036,-0.0028517999999996,-0.0011271999999991,0.0027336,0,sub_4
0.0105799999999997,0.0108206000000012,0.010906,-0.0011429999999995,-0.0017679999999991,0.0016782,0,sub_4
0.0091299999999997,0.0118418000000012,0.010625,0.0001440000000004,-0.0013421999999991,0.0006184000000001,0,sub_4
0.0074615999999997,0.0117632000000012,0.0100444,0.0010030000000004,-6.11999999991097e-05,0.0001946000000001,0,sub_4
0.0069867999999997,0.0117054000000012,0.009124,0.0007940000000004,0.0010106000000008,-0.0002363999999998,0,sub_4
0.0076657999999997,0.0106226000000012,0.0086318,0.0001564000000004,0.0022944000000008,-2.9799999999893863e-05,0,sub_4
0.0090371999999997,0.0100670000000012,0.0081782,-0.0004839999999995,0.0027268000000008,-3.579999999989386e-05,0,sub_4
0.0098383999999997,0.0092108000000011,0.008352,-0.0004889999999995,0.0023040000000008,0.0001774000000001,0,sub_4
0.0106857999999997,0.0089084000000011,0.008565,0.0001464000000004,0.0010244000000008,-3.0199999999873865e-05,0,sub_4
0.0109377999999997,0.0088362000000011,0.0090306,0.0009970000000004,0.0003822000000008,-2.339999999987386e-05,0,sub_4
0.0113615999999997,0.0089654000000011,0.0091008,0.0016254000000004,-0.0008903999999991,-2.339999999987387e-05,0,sub_4
0.0105685999999997,0.0086844000000012,0.0092414,0.0018298000000004,-0.0017345999999991,-0.0002405999999998,0,sub_4
0.0100457999999997,0.0089906000000012,0.0092124,0.0018218000000004,-0.002577199999999,-0.0006729999999998,0,sub_4
0.0097605999999997,0.0094244000000012,0.0087402,0.0011726000000004,-0.003206199999999,-0.0006827999999998,0,sub_4
0.0095505999999997,0.0096414000000012,0.0089648,0.0011628000000004,-0.0038381999999991,-0.0004745999999998,0,sub_4
0.0092415999999997,0.0098118000000012,0.0089476,0.0009494000000004,-0.003837399999999,-0.0004761999999998,0,sub_4
0.0089185999999997,0.0096988000000012,0.0087028,0.0011610000000004,-0.003627599999999,0.0001660000000001,0,sub_4
0.0088727999999997,0.0093814000000012,0.0084044,0.0013772000000004,-0.002776999999999,0.0003802000000001,0,sub_4
0.0092215999999997,0.0090690000000012,0.0080354,0.0015894000000004,-0.001489999999999,0.0001604000000001,0,sub_4
0.0092117999999997,0.0089696000000012,0.0080492,0.0011644000000004,0.0002262000000009,-0.0002779999999998,0,sub_4
0.0087587999999997,0.0093718000000012,0.0082578,0.0009470000000004,0.0010876000000008,-0.0002865999999998,0,sub_4
0.0086367999999997,0.0099972000000012,0.0084636,0.0005122000000004,0.0013098000000008,-8.239999999985377e-05,0,sub_4
0.0090785999999997,0.0098024000000012,0.0087136,0.0002870000000004,0.0006790000000008,0.0001244000000001,0,sub_4
0.0087353999999997,0.0099398000000012,0.0088172,-0.0005693999999995,0.0006794000000008,0.0007594000000001,0,sub_4
0.0094941999999997,0.0096034000000012,0.0086872,-0.0012143999999995,4.0800000000890126e-05,0.0011830000000001,0,sub_4
0.0099111999999997,0.0087792000000012,0.0089594,-0.0018525999999995,-0.0001673999999991,0.0005378000000001,0,sub_4
0.0106835999999997,0.0080088000000012,0.0089986,-0.0020757999999995,-0.0005821999999991,-0.0001101999999998,0,sub_4
0.0108339999999997,0.0079546000000012,0.0088638,-0.0020845999999995,-0.000360199999999,-0.0003301999999998,0,sub_4
0.0108015999999997,0.0083084000000012,0.0094662,-0.0012409999999995,-0.000566599999999,-0.0007573999999998,0,sub_4
0.0105059999999997,0.0085464000000012,0.0098002,-0.0001859999999995,-0.001412199999999,-0.0013959999999998,0,sub_4
0.0100291999999997,0.0093194000000012,0.0096598,0.0008680000000004,-0.001834199999999,-0.0013939999999998,0,sub_4
0.0090119999999997,0.0099770000000012,0.0094126,0.0021522000000004,-0.001410799999999,-0.0018127999999998,0,sub_4
0.0074817999999997,0.0108666000000012,0.0092694,0.0027942000000004,-0.0011991999999991,-0.0020221999999998,0,sub_4
0.0067907999999997,0.0111662000000012,0.0086982,0.0025790000000004,-0.0012001999999991,-0.0015963999999998,0,sub_4
0.0064429999999997,0.0117162000000012,0.0079692,0.0019370000000004,-0.0007751999999991,-0.0007467999999998,0,sub_4
0.0068701999999997,0.0103634000000012,0.0077308,0.0010766000000004,-0.0003451999999991,0.0003060000000001,0,sub_4
0.0079741999999997,0.0086834000000012,0.007625,-0.0004259999999995,-0.0003391999999991,0.0013550000000001,0,sub_4
0.0096099999999997,0.0069360000000012,0.007524,-0.0021409999999995,-0.0001193999999991,0.0024020000000001,0,sub_4
0.0114095999999997,0.0062344000000012,0.0081648,-0.0032119999999995,0.0001016000000008,0.0025990000000001,0,sub_4
0.0117983999999997,0.0053258000000012,0.0093126,-0.0038571999999996,0.0001082000000008,0.0027994000000001,0,sub_4
0.0116999999999997,0.0062906000000012,0.0100416,-0.0034313999999996,-0.0003185999999991,0.0025892000000001,0,sub_4
0.0108447999999997,0.0082942000000012,0.0104336,-0.0023635999999996,-0.0005337999999991,0.0021696000000001,0,sub_4
0.0092715999999997,0.0105588000000012,0.0111604,-0.0006537999999996,-0.0001061999999991,0.0011068000000001,0,sub_4
0.0066221999999997,0.0117236000000012,0.0109192,0.0010542000000003,0.0003198000000008,0.0004712000000001,0,sub_4
0.0054249999999997,0.0128378000000012,0.0096008,0.0021182000000003,0.0005322000000008,0.0004722000000001,0,sub_4
0.0054439999999997,0.0131984000000012,0.008647,0.0019018000000003,0.0009616000000008,0.0006778000000001,0,sub_4
0.0067177999999997,0.0118500000000012,0.0078872,0.0008292000000004,0.0011792000000008,0.0013048000000001,0,sub_4
0.0092883999999997,0.0091398000000012,0.0075536,-0.0004547999999995,0.0009682000000008,0.0019370000000001,0,sub_4
0.0123745999999997,0.0067658000000012,0.007744,-0.0017369999999995,0.0005466000000008,0.0019286000000001,0,sub_4
0.0149349999999997,0.0051414000000012,0.0085224,-0.0019455999999995,0.0005516000000008,0.0008590000000001,0,sub_4
0.0163903999999997,0.0037036000000012,0.009573,-0.0017301999999995,0.0001280000000008,6.40000000012627e-06,0,sub_4
0.0159001999999997,0.0048964000000012,0.0107204,-0.0006645999999995,-0.0005021999999991,-0.0014845999999998,0,sub_4
0.0138021999999997,0.0073676000000012,0.011607,0.0010362000000004,-0.0019877999999991,-0.0027563999999998,0,sub_4
0.0117599999999997,0.0097698000000012,0.0116062,0.0033742000000004,-0.003690199999999,-0.0035961999999998,0,sub_4
0.0082561999999997,0.0116124000000012,0.0107488,0.0048570000000003,-0.005391399999999,-0.0040145999999998,0,sub_4
0.0054647999999997,0.0132208000000012,0.0092708,0.0059178000000003,-0.005813599999999,-0.0042239999999998,0,sub_4
0.0043181999999997,0.0129514000000012,0.0077446,0.0059206000000003,-0.0049621999999991,-0.0040113999999998,0,sub_4
0.0043817999999997,0.0115340000000012,0.0059084,0.0046452000000004,-0.0030435999999991,-0.0031681999999998,0,sub_4
0.0053141999999997,0.0095390000000012,0.0051916,0.0023018000000004,-0.0006913999999991,-0.0021215999999998,0,sub_4
0.0073449999999997,0.0077452000000011,0.0056364,-0.0004665999999995,0.0018764000000008,-0.0012919999999998,0,sub_4
0.0096077999999997,0.0068872000000011,0.00653,-0.0019575999999995,0.0033760000000008,-0.0008793999999998,0,sub_4
0.0113075999999997,0.0064670000000011,0.007818,-0.0030303999999995,0.0031688000000008,-0.0002479999999998,0,sub_4
0.0124609999999997,0.0071996000000011,0.008999,-0.0032497999999995,0.0023222000000008,-0.0002507999999998,0,sub_4
0.0117097999999997,0.0084624000000012,0.0099366,-0.0026115999999995,0.0012572000000008,-0.0008859999999998,0,sub_4
0.0112251999999997,0.0096954000000012,0.0102596,-0.0021887999999995,-2.0999999999109926e-05,-0.0013087999999998,0,sub_4
0.0102671999999997,0.0102054000000012,0.0096192,-0.0024041999999995,-0.0008705999999991,-0.0017363999999998,0,sub_4
0.0091515999999997,0.0107550000000012,0.0086458,-0.0026159999999995,-0.0004347999999991,-0.0025931999999998,0,sub_4
0.0085329999999997,0.0103370000000012,0.0077554,-0.0030429999999995,-1.9999999910993997e-07,-0.0030241999999998,0,sub_4
0.0092211999999997,0.0093796000000011,0.0068888,-0.0041111999999995,0.0006482000000008,-0.0030327999999998,0,sub_4
0.0099419999999997,0.0088128000000012,0.0064144,-0.0043247999999995,0.0015066000000008,-0.0030355999999998,0,sub_4
0.0104051999999997,0.0082310000000011,0.0069314,-0.0038973999999995,0.0021514000000008,-0.0034609999999998,0,sub_4
0.0113355999999997,0.0074496000000011,0.007529,-0.0034677999999995,0.0023646000000008,-0.0038855999999998,0,sub_4
0.0117795999999997,0.0075522000000011,0.008236,-0.0030361999999995,0.0025796000000008,-0.0047373999999998,0,sub_4
0.0110379999999997,0.0089200000000012,0.0086924,-0.0026035999999995,0.0030076000000008,-0.0055893999999998,0,sub_4
0.0102603999999997,0.0100404000000011,0.0087848,-0.0015347999999995,0.0030056000000008,-0.0060091999999998,0,sub_4
0.0093815999999997,0.0112408000000011,0.008628,-0.0013255999999995,0.0023682000000008,-0.0057973999999998,0,sub_4
0.0083465999999997,0.0123994000000011,0.008507,-0.0006925999999995,0.0013024000000009,-0.0053683999999998,0,sub_4
0.0076767999999997,0.0127782000000011,0.0081644,-0.0002757999999995,2.280000000090985e-05,-0.0045133999999998,0,sub_4
0.0085741999999997,0.0113460000000011,0.0077858,0.0001418000000004,-0.001043799999999,-0.0036585999999998,0,sub_4
0.0096805999999997,0.0093984000000011,0.007581,-0.0002901999999995,-0.001467399999999,-0.0030241999999998,0,sub_4
0.0112583999999997,0.0081442000000012,0.0075378,-0.0009311999999995,-0.001465999999999,-0.0028149999999998,0,sub_4
0.0122517999999997,0.0071512000000012,0.0082782,-0.0011455999999995,-0.0016781999999991,-0.0028161999999998,0,sub_4
0.0130557999999997,0.0066198000000012,0.008954,-0.0009291999999995,-0.0016741999999991,-0.0032461999999998,0,sub_4
0.0123251999999997,0.0074806000000012,0.0096864,-0.0007165999999995,-0.002097999999999,-0.0032483999999998,0,sub_4
0.0109629999999997,0.0091750000000012,0.0103546,-0.0007163999999995,-0.002307999999999,-0.0032523999999998,0,sub_4
0.0091217999999997,0.0099620000000012,0.0105772,-7.619999999959959e-05,-0.002095799999999,-0.0028249999999998,0,sub_4
0.0074589999999997,0.0108080000000012,0.0093422,-7.399999999959959e-05,-0.001243199999999,-0.0021893999999998,0,sub_4
0.0063743999999997,0.0115426000000012,0.0088124,-0.0007151999999995,-0.000392999999999,-0.0011265999999998,0,sub_4
0.0061259999999997,0.0114486000000012,0.0082042,-0.0009247999999995,0.0013088000000009,-0.0002755999999998,0,sub_4
0.0066321999999997,0.0109100000000012,0.0078714,-0.0007095999999995,0.0023708000000008,0.0003656,0,sub_4
0.0071723999999997,0.0103150000000012,0.007904,-0.0004985999999995,0.0030138000000008,0.0007962,0,sub_4
0.0088511999999997,0.0092070000000012,0.0088312,-0.0002905999999995,0.0034422000000008,0.0016546,0,sub_4
0.0106727999999997,0.0078578000000012,0.0092296,-0.0002957999999995,0.0038712000000008,0.0025112,0,sub_4
0.0115911999999997,0.0073282000000012,0.0099674,-0.0007315999999996,0.0030250000000008,0.0029392000000001,0,sub_4
0.0119275999999997,0.0070428000000012,0.0103606,-0.0011701999999996,0.0017518000000008,0.0035814000000001,0,sub_4
0.0124305999999997,0.0077052000000012,0.0105936,-0.0013921999999996,0.0002594000000008,0.0040092000000001,0,sub_4
0.0116401999999997,0.0082964000000012,0.0104032,-0.0018235999999995,-0.0010165999999991,0.0037942000000001,0,sub_4
0.0102939999999997,0.0099308000000012,0.010482,-0.0009729999999995,-0.0022953999999991,0.0031610000000001,0,sub_4
0.0096123999999997,0.0108396000000012,0.0097314,9.660000000040028e-05,-0.0029335999999991,0.0027470000000001,0,sub_4
0.0089359999999997,0.0109986000000012,0.009645,0.0011718000000004,-0.0027177999999991,0.0019046,0,sub_4
0.0086775999999997,0.0103574000000012,0.0096908,0.0016088000000004,-0.0016491999999991,0.0014838,0,sub_4
0.0091831999999997,0.0100852000000012,0.0093512,0.0022562000000004,-0.0010083999999991,0.0012786,0,sub_4
0.0090685999999997,0.0091370000000012,0.0091896,0.0020494000000004,-0.0003655999999991,0.0012812,0,sub_4
0.0093823999999997,0.0082962000000012,0.0097166,0.0014102000000004,-0.000150199999999,0.0012764,0,sub_4
0.0098873999999997,0.0085230000000012,0.0096738,0.0011950000000004,-0.000363399999999,0.0014888,0,sub_4
0.0100023999999997,0.0089226000000012,0.0091462,0.0011922000000004,-0.001214799999999,0.0012762,0,sub_4
0.0094289999999997,0.0093578000000012,0.0091948,0.0007732000000004,-0.001640599999999,0.001073,0,sub_4
0.0090545999999997,0.0101284000000012,0.0094382,0.0014180000000004,-0.002496799999999,0.0010914,0,sub_4
0.0087495999999997,0.0105742000000011,0.0093566,0.0024926000000004,-0.0029277999999991,0.0008986,0,sub_4
0.0089725999999997,0.0105458000000011,0.00919,0.0031414000000004,-0.0029319999999991,0.000916,0,sub_4
0.0088425999999997,0.0102006000000011,0.0092622,0.0037892000000004,-0.0031491999999991,0.0009336,0,sub_4
0.0092983999999997,0.0101610000000011,0.0098776,0.0048512000000004,-0.0037937999999991,0.0013692,0,sub_4
0.0097855999999997,0.0094492000000011,0.0097832,0.0048512000000004,-0.0037937999999991,0.0013692,0,sub_4
0.0101531999999997,0.0094052000000011,0.0097172,0.0046358000000004,-0.0044313999999991,0.001155,0,sub_4
0.0096959999999997,0.0090496000000012,0.0098868,0.0042168000000003,-0.0048533999999991,0.0007408,0,sub_4
0.0096607999999997,0.0094252000000012,0.0100336,0.0044390000000003,-0.0048523999999991,0.0005442,0,sub_4
0.0096495999999997,0.0094680000000012,0.0095798,0.0042354000000003,-0.0046367999999991,0.0003444,0,sub_4
0.0101805999999997,0.0096322000000012,0.0088034,0.0040290000000003,-0.004848399999999,0.0003588000000001,0,sub_4
0.0097403999999997,0.0093668000000012,0.008218,0.0036102000000003,-0.004209399999999,0.0010114000000001,0,sub_4
0.0094059999999997,0.0088666000000012,0.0078994,0.0023290000000004,-0.003569199999999,0.0018562000000001,0,sub_4
0.0092473999999997,0.0085686000000012,0.007281,-1.6199999999579744e-05,-0.002285999999999,0.0026928000000001,0,sub_4
0.0098529999999997,0.0089910000000012,0.007864,-0.0019345999999995,-0.001216599999999,0.0033190000000001,0,sub_4
0.0091593999999997,0.0093202000000012,0.0082924,-0.0029937999999995,0.0004916000000008,0.0033094000000001,0,sub_4
0.0092139999999997,0.0094164000000012,0.0088004,-0.0031945999999995,0.0017698000000008,0.0031032,0,sub_4
0.0094867999999997,0.0096774000000012,0.009358,-0.0023283999999995,0.0028322000000008,0.002691,0,sub_4
0.0101373999999997,0.0102170000000012,0.0102374,-0.0010375999999995,0.0032546000000008,0.002069,0,sub_4
0.0094183999999997,0.0099140000000012,0.0097518,-0.0001713999999995,0.0038924000000008,0.00123,0,sub_4
0.0095599999999997,0.0097856000000012,0.0095582,-0.0003807999999995,0.0034654000000008,0.0012394,0,sub_4
0.0092799999999997,0.0101282000000012,0.009238,-0.0008113999999995,0.0030390000000008,0.0016642,0,sub_4
0.0097757999999997,0.0110136000000012,0.0089344,-0.0016707999999995,0.0019758000000008,0.0018732,0,sub_4
0.0096019999999997,0.0110588000000012,0.0087656,-0.0020993999999995,0.0009100000000008,0.0020858,0,sub_4
0.0095087999999997,0.0105374000000012,0.009092,-0.0012467999999995,-0.0001591999999991,0.0020938,0,sub_4
0.0101849999999997,0.0104548000000012,0.0092402,3.540000000040048e-05,-0.000590799999999,0.002104,0,sub_4
0.0109097999999997,0.0102598000000012,0.0095482,0.0008928000000004,-0.001231399999999,0.0014706000000001,0,sub_4
0.0109383999999997,0.0097860000000012,0.009714,0.0017522000000004,-0.001233799999999,0.0010500000000001,0,sub_4
0.0109471999999997,0.0089718000000012,0.0100172,0.0021800000000004,-0.001446599999999,0.0006260000000001,0,sub_4
0.0115515999999997,0.0086124000000012,0.0099198,0.0013264000000004,-0.001655799999999,0.0004066000000001,0,sub_4
0.0110565999999997,0.0080132000000012,0.009512,0.0004728000000004,-0.001865199999999,0.0001872000000001,0,sub_4
0.0111217999999997,0.0080714000000012,0.0094442,-0.0003797999999995,-0.0016459999999991,-0.0002493999999998,0,sub_4
0.0109411999999997,0.0081640000000012,0.0093658,-0.0005931999999995,-0.0016421999999991,-0.0006811999999998,0,sub_4
0.0106381999999997,0.0088834000000012,0.0092658,-0.0008037999999995,-0.0009991999999991,-0.0011137999999998,0,sub_4
0.0096731999999997,0.0100004000000012,0.0094726,5.440000000040031e-05,6.620000000088968e-05,-0.0015393999999998,0,sub_4
0.0088983999999997,0.0111354000000012,0.0096122,0.0011262000000004,0.0011310000000008,-0.0019635999999998,0,sub_4
0.0080533999999997,0.0113054000000012,0.009627,0.0024084000000003,0.0015526000000008,-0.0019551999999998,0,sub_4
0.0079473999999997,0.0114304000000012,0.0092868,0.0030484000000003,0.0017626000000008,-0.0017373999999998,0,sub_4
0.0076701999999997,0.0110424000000012,0.0088734,0.0028322000000003,0.0015486000000008,-0.0013113999999998,0,sub_4
0.0080385999999997,0.0106372000000012,0.0086584,0.0019692000000004,0.0006942000000008,-3.4599999999893485e-05,0,sub_4
0.0088909999999997,0.0101924000000012,0.0091418,0.0013076000000004,-0.0007909999999991,0.0010266000000001,0,sub_4
0.0098231999999997,0.0096090000000012,0.009494,0.0004328000000004,-0.0020629999999991,0.0022996,0,sub_4
0.0105519999999997,0.0094472000000012,0.009879,0.0002020000000004,-0.0031215999999991,0.002936,0,sub_4
0.0115493999999997,0.0089768000000012,0.0098842,0.0006150000000004,-0.0039669999999991,0.0029356,0,sub_4
0.0118455999999997,0.0085978000000012,0.0095728,0.0008224000000004,-0.0041681999999991,0.0018648,0,sub_4
0.0117173999999997,0.0083480000000012,0.0091344,0.0006138000000004,-0.0037387999999991,0.001222,0,sub_4
0.0115081999999997,0.0086554000000012,0.0085862,0.0008328000000004,-0.0035223999999991,0.0001550000000001,0,sub_4
0.0104035999999997,0.0085260000000012,0.0079224,0.0001994000000004,-0.0028775999999991,-0.0007047999999998,0,sub_4
0.0094009999999997,0.0088670000000012,0.0079052,-0.0004441999999995,-0.0020131999999991,-0.0009315999999998,0,sub_4
0.0086307999999997,0.0092166000000012,0.0079382,-0.0004459999999995,-0.0007249999999991,-0.0011545999999998,0,sub_4
0.0083735999999997,0.0101232000000012,0.0082864,-0.0006609999999995,0.0003518000000008,-0.0015925999999998,0,sub_4
0.0084187999999997,0.0106456000000012,0.0084944,-0.0008769999999995,0.0016400000000008,-0.0016033999999998,0,sub_4
0.0092349999999997,0.0108734000000012,0.0089998,-0.0006691999999995,0.0027118000000008,-0.0011837999999998,0,sub_4
0.0095833999999997,0.0108358000000012,0.00905,-0.0004577999999995,0.0029216000000008,-0.0005415999999998,0,sub_4
0.0103187999999997,0.0105042000000012,0.0094146,-0.0008931999999995,0.0020666000000008,0.0005248000000001,0,sub_4
0.0120449999999997,0.0096678000000012,0.0095046,-0.0011141999999995,0.0007874000000008,0.0009522000000001,0,sub_4
0.0126427999999997,0.0089802000000012,0.0099272,-0.0009099999999995,-0.0002767999999991,0.0009462000000001,0,sub_4
0.0127337999999997,0.0082600000000012,0.0100254,-0.0002791999999995,-0.0017667999999991,0.0005164000000001,0,sub_4
0.0128137999999997,0.0083254000000012,0.0104244,0.0005650000000004,-0.003257599999999,8.800000000012669e-05,0,sub_4
0.0126815999999997,0.0091222000000012,0.010287,0.0014142000000004,-0.003895199999999,-0.0005551999999998,0,sub_4
0.0106563999999997,0.0098670000000012,0.010537,0.0024804000000004,-0.003469199999999,-0.0009843999999998,0,sub_4
0.0091547999999997,0.0105794000000012,0.0103774,0.0031234000000004,-0.002832199999999,-0.0009807999999998,0,sub_4
0.0078103999999997,0.0118396000000012,0.0104382,0.0037656000000004,-0.002196199999999,-0.0007633999999998,0,sub_4
0.0070697999999997,0.0129472000000012,0.0097784,0.0041944000000004,-0.000914999999999,-0.0007691999999998,0,sub_4
0.0063571999999997,0.0129106000000012,0.0095234,0.0048344000000004,0.0001514000000009,-0.0005593999999998,0,sub_4
0.0068751999999997,0.0116816000000011,0.0084256,0.0046162000000004,0.0007922000000008,0.0002858000000001,0,sub_4
0.0075647999999997,0.0102522000000011,0.0079948,0.0035454000000003,0.0014368000000008,0.0009114000000001,0,sub_4
0.0092329999999997,0.0087964000000012,0.0072538,0.0011964000000003,0.0025120000000008,0.0015274000000001,0,sub_4
0.0110687999999997,0.0073036000000011,0.0078424,-0.0013631999999996,0.0031584000000008,0.0019360000000001,0,sub_4
0.0125251999999997,0.0065284000000011,0.0077006,-0.0043521999999996,0.0027428000000008,0.0019156000000001,0,sub_4
0.0134515999999997,0.0067728000000012,0.0089048,-0.0069115999999996,0.0025404000000008,0.0014706000000001,0,sub_4
0.0143829999999997,0.0073892000000012,0.009237,-0.0079837999999996,0.0016976000000008,0.0006058000000001,0,sub_4
0.0143983999999997,0.0082644000000012,0.0101982,-0.0082007999999996,0.0008536000000008,-0.0006801999999998,0,sub_4
0.0136523999999997,0.0092586000000012,0.0104882,-0.0073487999999996,7.600000000869801e-06,-0.0023859999999998,0,sub_4
0.0124007999999997,0.0098108000000012,0.011187,-0.0056415999999996,-0.000415399999999,-0.0040863999999998,0,sub_4
0.0112577999999997,0.0103446000000012,0.0108602,-0.0030789999999996,-0.000415199999999,-0.0057813999999998,0,sub_4
0.0097227999999997,0.0113706000000012,0.0102936,-0.0011519999999996,-0.000203599999999,-0.0070499999999998,0,sub_4
0.0079953999999997,0.0121160000000012,0.0092588,0.0009856000000003,4.600000000929772e-06,-0.0076763999999998,0,sub_4
0.0068055999999997,0.0122616000000012,0.0082316,0.0024820000000003,0.0006384000000009,-0.0076667999999998,0,sub_4
0.0064325999999997,0.0121890000000012,0.007252,0.0033304000000003,0.0014902000000008,-0.0068113999999998,0,sub_4
0.0062659999999997,0.0121224000000012,0.0073766,0.0033224000000003,0.0017058000000008,-0.0059609999999998,0,sub_4
0.0070785999999997,0.0116768000000012,0.0075722,0.0033134000000004,0.0021326000000008,-0.0046835999999998,0,sub_4
0.0082597999999997,0.0109028000000012,0.0081112,0.0024490000000003,0.0019242000000008,-0.0036249999999998,0,sub_4
0.0091401999999997,0.0096522000000012,0.008909,0.0011548000000004,0.0012904000000009,-0.0023553999999998,0,sub_4
