userAcceleration.x,userAcceleration.y,userAcceleration.z,rotationRate.x,rotationRate.y,rotationRate.z,label,subject
0.0019551999999998,0.0114846000000012,-0.0030981999999999,-0.0023979999999995,0.0019108000000008,-0.0033423999999998,0,sub_21
0.0019705999999997,0.0110208000000011,-0.0034451999999999,-0.0023895999999995,0.0021180000000008,-0.0018477999999998,0,sub_21
0.0016491999999997,0.0123930000000012,-0.0035045999999998,-0.0032327999999995,0.0021174000000008,-0.0009997999999999,0,sub_21
0.0010699999999997,0.0127074000000012,-0.0029557999999998,-0.0027945999999995,0.0025378000000008,7.020000000009629e-05,0,sub_21
0.0008565999999997,0.0119706000000012,-0.0028665999999998,-0.0013065999999995,0.0021030000000008,0.0009358,0,sub_21
0.0013209999999997,0.0115470000000012,-0.0038917999999998,-0.0019495999999995,0.0014662000000008,0.0009322,0,sub_21
0.0021175999999998,0.0120470000000012,-0.0021479999999998,-0.0025907999999995,0.0004066000000008,7.440000000009627e-05,0,sub_21
0.0030413999999998,0.0107584000000012,-0.0012711999999998,-0.0021445999999995,-0.0025409999999991,9.44000000000962e-05,0,sub_21
0.0035441999999998,0.0103846000000012,-0.0026051999999998,-0.0023375999999995,-0.0052733999999991,0.0001098,0,sub_21
0.0032183999999998,0.0112712000000012,-0.0030259999999998,-0.0033773999999995,-0.0060869999999991,0.000544,0,sub_21
0.0017781999999998,0.0115452000000012,-0.0033821999999999,-0.0033541999999995,-0.0066955999999991,0.0020536,0,sub_21
0.0004059999999998,0.0114860000000012,-0.0035837999999999,-0.0024821999999995,-0.0075235999999991,0.0044242,0,sub_21
-0.0003934000000002,0.0116912000000012,-0.0037067999999999,-0.0020563999999995,-0.0064647999999991,0.0057078,0,sub_21
-0.0010482000000001,0.0119538000000012,-0.0025355999999999,-0.0022649999999995,-0.0051865999999991,0.0059184,0,sub_21
-0.0021570000000001,0.0113964000000012,-0.0023769999999999,-0.0026617999999995,-0.0049485999999991,0.0044178,0,sub_21
-0.0027382000000001,0.0113058000000012,-0.0021751999999998,-0.0028403999999995,-0.0040703999999991,0.0024906,0,sub_21
-0.0030122000000001,0.0110792000000012,-0.0027639999999998,-0.0023739999999995,-0.0021291999999991,0.0005664,0,sub_21
-0.0035910000000001,0.0104722000000012,-0.0026169999999998,-0.0023401999999995,-0.0008283999999991,-0.0007189999999999,0,sub_21
-0.0028796000000001,0.0101446000000012,-0.0028027999999998,-0.0018815999999995,0.0004694000000008,-0.0015741999999999,0,sub_21
-0.0014118000000001,0.0105400000000012,-0.0022533999999998,-0.0014499999999995,0.0017454000000008,-0.0013591999999999,0,sub_21
0.0005965999999998,0.0110364000000012,-0.0023175999999998,-0.0014441999999995,0.0034480000000008,-0.0009339999999999,0,sub_21
0.0014211999999998,0.0112546000000012,-0.0024271999999998,-0.0016555999999995,0.0045114000000008,-0.0002959999999999,0,sub_21
0.0018761999999998,0.0112260000000012,-0.0026557999999998,-0.0018689999999995,0.0049366000000008,0.0001292,0,sub_21
0.0020271999999998,0.0113282000000012,-0.0027253999999998,-0.0020717999999995,0.0047014000000008,0.000989,0,sub_21
0.0020845999999998,0.0109584000000012,-0.0030267999999998,-0.0022717999999995,0.0051054000000008,0.001848,0,sub_21
0.0016407999999998,0.0110422000000012,-0.0028301999999998,-0.0026879999999995,0.0038100000000008,0.0016394,0,sub_21
0.0008849999999998,0.0114898000000012,-0.0022635999999998,-0.0035271999999995,0.0031560000000008,0.0012136,0,sub_21
-0.0004632000000001,0.0124618000000012,-0.0021609999999998,-0.0028707999999995,0.0035596000000008,0.0014376,0,sub_21
-0.0018062000000001,0.0128294000000012,-0.0021515999999999,-0.0011617999999995,0.0037676000000008,0.0012356,0,sub_21
-0.0030812000000001,0.0129654000000012,-0.0028037999999999,0.0009778000000004,0.0037654000000008,-3.119999999990327e-05,0,sub_21
-0.0033180000000001,0.0129820000000012,-0.0022169999999999,0.0033506000000004,0.0052222000000008,-0.0012961999999999,0,sub_21
-0.0021522000000001,0.0130866000000012,-0.0022551999999999,0.0050766000000004,0.0054020000000008,-0.0023503999999999,0,sub_21
-3.660000000016185e-05,0.0121380000000012,-0.0018149999999999,0.0048774000000004,0.0036744000000008,-0.0042699999999999,0,sub_21
0.0028295999999997,0.0120830000000012,-0.0013459999999999,0.0027568000000004,0.0017404000000008,-0.0062027999999999,0,sub_21
0.0058217999999997,0.0123662000000012,-0.0004871999999999,0.0006286000000004,1.180000000089096e-05,-0.0062133999999999,0,sub_21
0.0077967999999997,0.0123950000000012,-0.0004705999999999,-0.0021643999999995,-0.0023297999999991,-0.0043069999999999,0,sub_21
0.0086183999999997,0.0110538000000012,-0.0021377999999998,-0.0051745999999995,-0.004461799999999,-0.0013343999999999,0,sub_21
0.0085163999999997,0.0110236000000012,-0.0040613999999998,-0.0071121999999995,-0.004045999999999,0.0029244,0,sub_21
0.0066273999999997,0.0101912000000012,-0.0046207999999998,-0.0058501999999995,-0.003005599999999,0.0080592,0,sub_21
0.0035115999999997,0.0101884000000012,-0.0045619999999998,-0.0047819999999995,-0.002618799999999,0.0112732,0,sub_21
6.99999999979814e-06,0.0100644000000012,-0.0043033999999998,-0.0032735999999995,-0.001584999999999,0.0121392,0,sub_21
-0.0037452000000002,0.0120480000000012,-0.0018893999999998,-0.0011135999999995,-0.000330999999999,0.0106596,0,sub_21
-0.0069480000000001,0.0128036000000012,-0.0001461999999998,0.0010484000000004,-0.000560599999999,0.007259,0,sub_21
-0.0091518000000001,0.0136410000000011,-0.0005101999999998,0.0015178000000004,7.740000000091103e-05,0.0014954,0,sub_21
-0.0089636000000001,0.0137058000000011,-0.0009415999999998,0.0017608000000004,0.0013762000000008,-0.0038455999999999,0,sub_21
-0.0065966000000001,0.0131880000000011,-0.0015473999999998,0.0024228000000004,0.0022424000000008,-0.0079013999999999,0,sub_21
-0.0032598000000001,0.0120804000000011,-0.0023555999999998,0.0032896000000004,0.0026758000000008,-0.0104597999999999,0,sub_21
0.0006073999999998,0.0113128000000011,-0.0027439999999998,0.0039516000000004,0.0037360000000008,-0.0111021999999999,0,sub_21
0.0040865999999997,0.0108556000000011,-0.0025097999999998,0.0035334000000004,0.0041514000000008,-0.0094011999999999,0,sub_21
0.0064425999999997,0.0106234000000011,-0.0026561999999999,0.0028922000000004,0.0041348000000008,-0.0059921999999999,0,sub_21
0.0060975999999997,0.0107414000000011,-0.0030763999999999,0.0020340000000004,0.0039034000000008,-0.0019431999999999,0,sub_21
0.0048645999999997,0.0105368000000012,-0.0036817999999999,0.0011766000000004,0.0034606000000008,0.0016788,0,sub_21
0.0033281999999997,0.0104078000000012,-0.0034773999999999,0.0005230000000004,0.0030266000000008,0.0042386,0,sub_21
0.0017661999999998,0.0100978000000012,-0.0029429999999999,0.0005124000000004,0.0021684000000008,0.0057352,0,sub_21
-0.0002780000000001,0.0103112000000012,-0.0020119999999999,0.0002934000000004,0.0011030000000008,0.0059488,0,sub_21
-0.0013136000000001,0.0108286000000012,-0.0017639999999999,-0.0005473999999995,-0.0001757999999991,0.0048728,0,sub_21
-0.0014552000000001,0.0110632000000012,-0.0013751999999999,-0.0011689999999995,-0.0003891999999991,0.0035832,0,sub_21
-0.0010260000000001,0.0103750000000012,-0.0012845999999999,-0.0022183999999995,-0.001026399999999,0.0020774,0,sub_21
-0.0002494000000001,0.0105126000000012,-0.0018275999999999,-0.0030533999999995,-0.001450999999999,0.0005730000000001,0,sub_21
0.0002973999999998,0.0101876000000012,-0.0029469999999999,-0.0028205999999995,-0.001454199999999,-0.0007107999999998,0,sub_21
0.0007877999999998,0.0098256000000012,-0.0028459999999999,-0.0021757999999995,-0.001027799999999,-0.0013477999999998,0,sub_21
0.0009831999999998,0.0105084000000012,-0.0027149999999999,-0.0021787999999995,-0.001454799999999,-0.0011335999999998,0,sub_21
0.0008271999999997,0.0119488000000012,-0.0024923999999999,-0.0019613999999995,-0.0014727999999991,-6.519999999986363e-05,0,sub_21
0.0005915999999997,0.0119492000000012,-0.0019919999999998,-0.0021679999999995,-0.0012745999999991,0.0005726000000001,0,sub_21
0.0013071999999997,0.0119884000000012,-0.0018265999999998,-0.0032319999999995,-0.0019255999999991,0.0012054,0,sub_21
0.0013259999999997,0.0118368000000012,-0.0022763999999998,-0.0040805999999995,-0.0023633999999991,0.0016258,0,sub_21
0.0011883999999997,0.0110658000000012,-0.0026707999999998,-0.0038621999999995,-0.0030169999999991,0.0018404,0,sub_21
0.0008365999999997,0.0107642000000012,-0.0035481999999998,-0.0034363999999995,-0.0034435999999991,0.0016302,0,sub_21
0.0010941999999997,0.0110836000000012,-0.0035837999999999,-0.0032249999999995,-0.003658399999999,0.0018456,0,sub_21
-0.0002364000000002,0.0115852000000012,-0.0030429999999999,-0.0027933999999995,-0.002382399999999,0.0020606,0,sub_21
-0.0007440000000002,0.0118530000000012,-0.0015601999999999,-0.0019397999999995,-0.002173199999999,0.00228,0,sub_21
-0.0011070000000002,0.0121308000000012,-0.0026505999999999,-0.0014989999999995,-0.001964799999999,0.0016372,0,sub_21
-0.0007360000000002,0.0129736000000012,-0.0031061999999999,-0.0014811999999995,-0.001326999999999,0.0005636,0,sub_21
-0.0017282000000001,0.0136792000000011,-0.0032533999999999,-0.0010327999999995,0.0003738000000009,-0.0002947999999999,0,sub_21
-0.0014888000000001,0.0133934000000011,-0.0030909999999999,0.0008986000000004,0.0001500000000009,-0.0007129999999998,0,sub_21
-0.0004906000000001,0.0128624000000011,-0.0033399999999999,0.0024042000000004,-7.139999999908903e-05,-0.0013479999999998,0,sub_21
0.0005641999999998,0.0123690000000012,-0.0012067999999999,0.0026232000000004,0.0012062000000009,-0.0013481999999998,0,sub_21
0.0008873999999998,0.0118838000000012,-4.1999999999111975e-06,0.0026194000000004,0.0012026000000008,-0.0004935999999998,0,sub_21
0.0025197999999998,0.0113522000000012,-4.599999999911185e-06,0.0026070000000004,-0.0005061999999991,0.0005768,0,sub_21
0.0036847999999997,0.0107900000000012,-0.0003725999999999,0.0008952000000004,-0.0017873999999991,0.0012078,0,sub_21
0.0037903999999997,0.0102006000000012,-0.0014769999999999,-0.0006021999999995,-0.0024319999999991,0.0022668,0,sub_21
0.0022909999999997,0.0099402000000012,-0.0028925999999999,0.0004608000000004,-0.0032977999999991,0.0031302,0,sub_21
0.0010187999999997,0.0092798000000012,-0.0036269999999999,0.0023860000000004,-0.0028855999999991,0.003357,0,sub_21
-0.0013682000000002,0.0085290000000012,-0.0029739999999999,0.0026062000000004,-0.0018289999999991,0.0037848,0,sub_21
-0.0026072000000001,0.0100394000000012,-0.0034407999999999,0.0021804000000004,-0.0007655999999991,0.004635,0,sub_21
-0.0038496000000001,0.0114828000000012,-0.0033765999999999,0.0021814000000004,-0.0003401999999991,0.004848,0,sub_21
-0.0031840000000001,0.0122890000000012,-0.0036203999999999,0.0017592000000004,-0.0007683999999991,0.0035618,0,sub_21
-0.0024166000000001,0.0130448000000012,-0.0037717999999999,0.0009140000000004,-0.0011917999999991,0.001418,0,sub_21
-0.0008336000000002,0.0140878000000011,-0.0039591999999999,0.0013538000000004,-0.0011909999999991,-0.0013583999999999,0,sub_21
-0.0002128000000002,0.0130886000000011,-0.0033853999999999,0.0028596000000004,-0.001194799999999,-0.0039135999999999,0,sub_21
0.0009047999999997,0.0118976000000011,-0.0042135999999999,0.0039328000000004,-0.0009899999999991,-0.0049765999999999,0,sub_21
0.0012047999999997,0.0124266000000011,-0.0041295999999999,0.0039366000000004,0.0007110000000008,-0.0041241999999999,0,sub_21
0.0024307999999997,0.0133720000000011,-0.0027459999999999,0.0054312000000004,0.0030408000000008,-0.0019801999999999,0,sub_21
0.0026651999999998,0.0129282000000012,-0.0025049999999999,0.0096872000000004,0.0034400000000008,0.00104,0,sub_21
0.0016505999999998,0.0103066000000012,-0.0049237999999998,0.0122430000000004,0.0047000000000008,0.0034062,0,sub_21
0.0012215999999998,0.0109002000000012,-0.0035625999999998,0.0126856000000004,0.0068268000000008,0.0031906,0,sub_21
0.0021987999999998,0.0105404000000012,-0.0004589999999998,0.0122708000000004,0.0059824000000008,0.0008362000000001,0,sub_21
0.0022737999999998,0.0113892000000012,0.0015452000000001,0.0090640000000004,0.0010998000000008,-0.0015325999999998,0,sub_21
0.0020011999999997,0.0097556000000012,0.0004856000000001,0.0030822000000004,-0.0031373999999991,-0.0030667999999998,0,sub_21
0.0021413999999997,0.0099860000000012,0.0017208,-0.0007675999999995,-0.0061105999999991,-0.0028785999999999,0,sub_21
-0.0003342000000002,0.0078176000000012,-1.179999999991084e-05,-0.0041921999999995,-0.0063201999999991,-0.0007657999999999,0,sub_21
-0.0023188000000002,0.0078922000000012,-0.0021683999999998,-0.0052617999999995,-0.0035603999999991,0.0026416,0,sub_21
-0.0040600000000002,0.0075352000000012,-0.0045641999999998,-0.0031175999999995,0.0011100000000008,0.0050008,0,sub_21
-0.0036618000000001,0.0103914000000012,-0.0040639999999998,-0.0007439999999995,0.0047274000000008,0.0047944,0,sub_21
-0.0024948000000001,0.0127052000000012,-0.0035895999999998,0.0001338000000004,0.0060140000000008,0.0026578000000001,0,sub_21
-0.0005516000000001,0.0152502000000011,-0.0020449999999998,0.0003640000000004,0.0047498000000008,-0.0003345999999998,0,sub_21
0.0003067999999998,0.0144538000000012,-0.0021179999999999,-0.0002651999999995,0.0019980000000008,-0.0035447999999998,0,sub_21
0.0012269999999998,0.0131758000000011,-0.0034217999999999,-0.0030299999999995,-0.0007479999999991,-0.0063425999999998,0,sub_21
0.0024019999999998,0.0117096000000011,-0.0046393999999999,-0.0053741999999995,-0.0011615999999991,-0.0074265999999998,0,sub_21
0.0027695999999998,0.0102912000000011,-0.0045181999999999,-0.0060113999999995,0.0003286000000008,-0.0065783999999998,0,sub_21
0.0042739999999997,0.0092596000000011,-0.0047711999999999,-0.0036731999999995,0.0001006000000008,-0.0040019999999998,0,sub_21
0.0043267999999997,0.0095428000000011,-0.0039611999999999,-0.0019769999999995,0.0005098000000008,-0.0003625999999998,0,sub_21
0.0032663999999997,0.0095052000000012,-0.0026585999999999,-0.0002739999999995,0.0026224000000008,0.0034882,0,sub_21
0.0001889999999997,0.0106052000000012,-0.0019229999999999,0.0009934000000004,0.0023948000000008,0.0069118,0,sub_21
-0.0019800000000001,0.0124190000000012,-0.0023449999999999,0.0014132000000004,0.0011144000000008,0.0079808,0,sub_21
-0.0041720000000001,0.0136752000000012,-0.0026141999999999,0.0014200000000004,0.0013326000000008,0.0066988,0,sub_21
-0.0053352000000001,0.0139040000000012,-0.0031977999999999,0.0014306000000004,0.0011298000000008,0.0041354,0,sub_21
-0.0047678000000001,0.0136614000000012,-0.0026613999999999,0.0014402000000004,-0.0003469999999991,0.0005054,0,sub_21
-0.0031888000000002,0.0130720000000012,-0.0013923999999999,0.0010270000000004,-0.0007579999999991,-0.0029153999999999,0,sub_21
-0.0008782000000002,0.0125038000000012,-0.0005319999999999,0.0006042000000004,-0.0011703999999991,-0.0046343999999999,0,sub_21
0.0009379999999997,0.0114248000000012,-0.0011325999999999,-0.0002511999999995,-0.0011619999999991,-0.0046477999999999,0,sub_21
0.0027467999999997,0.0107548000000012,-0.0018613999999999,-0.0002587999999995,-0.0011617999999991,-0.0033733999999999,0,sub_21
0.0031919999999997,0.0103072000000011,-0.0031671999999999,-5.87999999995599e-05,-0.0011673999999991,-0.0008155999999999,0,sub_21
0.0037813999999998,0.0109890000000011,-0.0042497999999999,-0.0002835999999995,-0.0011697999999991,0.001312,0,sub_21
0.0032329999999997,0.0110062000000011,-0.0038001999999999,-0.0002883999999995,-0.0015985999999991,0.0019534,0,sub_21
0.0020683999999997,0.0104506000000011,-0.0029481999999999,0.0001364000000004,-0.0024505999999991,0.0015302,0,sub_21
5.799999999798501e-06,0.0107724000000011,-0.0031033999999999,0.0001382000000004,-0.0026609999999991,0.0008896,0,sub_21
-0.0018692000000002,0.0113062000000011,-0.0027789999999998,-0.0004999999999995,-0.002656999999999,0.0004578,0,sub_21
-0.0032948000000002,0.0105842000000011,-0.0024907999999998,-0.0005131999999995,-0.002442999999999,2.68000000001161e-05,0,sub_21
-0.0030434000000001,0.0097988000000012,-0.0028931999999998,0.0003310000000004,-0.001379599999999,-0.0003991999999998,0,sub_21
-0.0021052000000001,0.0103352000000012,-0.0036015999999998,0.0005352000000004,-0.000526399999999,-0.0010429999999998,0,sub_21
-0.0010200000000001,0.0125652000000012,-0.0032541999999998,0.0005290000000004,0.0003302000000009,-0.0023291999999998,0,sub_21
-0.0002058000000001,0.0139130000000012,-0.0018363999999998,0.0015856000000004,0.0011798000000009,-0.0027533999999998,0,sub_21
0.0004195999999998,0.0140180000000011,-0.0023367999999998,0.0028612000000004,0.0003224000000008,-0.0025295999999999,0,sub_21
0.0001877999999997,0.0141068000000011,-0.0034755999999999,0.0030540000000004,-0.0011701999999991,-0.0023161999999998,0,sub_21
-0.0005874000000002,0.0133920000000011,-0.0028663999999999,0.0041068000000004,-0.0013865999999991,-0.0023121999999999,0,sub_21
-0.0011566000000002,0.0108340000000012,-0.0027193999999999,0.0051568000000004,-0.0020299999999991,-0.0020939999999998,0,sub_21
-0.0006202000000002,0.0081004000000012,-0.0040595999999999,0.0055678000000004,-0.0033069999999991,-0.0027339999999998,0,sub_21
-0.0007370000000001,0.0070086000000012,-0.0032275999999999,0.0062016000000004,-0.002666399999999,-0.0035885999999998,0,sub_21
-0.0011906000000001,0.0073964000000012,-0.0024793999999999,0.0072752000000004,-0.001390999999999,-0.0037963999999998,0,sub_21
-0.0009608000000001,0.0092112000000012,-0.0024767999999999,0.0074876000000004,-0.001604799999999,-0.0037945999999998,0,sub_21
0.0001677999999998,0.0102678000000012,-0.0022845999999999,0.0068436000000004,-0.002242599999999,-0.0035845999999998,0,sub_21
-0.0001198000000001,0.0116322000000012,-0.0023659999999999,0.0059872000000004,-0.002242199999999,-0.0029495999999998,0,sub_21
-0.0002300000000001,0.0121332000000012,-0.0035447999999999,0.0044852000000004,-0.0028807999999991,-0.0025301999999998,0,sub_21
0.0004803999999998,0.0123146000000012,-0.0042601999999999,0.0023410000000004,-0.0043675999999991,-0.0025413999999998,0,sub_21
0.0014735999999998,0.0119450000000012,-0.0040601999999999,0.0002028000000004,-0.0047881999999991,-0.0027677999999998,0,sub_21
0.0012049999999998,0.0110618000000012,-0.0031285999999999,-0.0010741999999995,-0.0037195999999991,-0.0032035999999998,0,sub_21
0.0009345999999998,0.0106692000000012,-0.0027355999999999,-0.0023561999999995,-0.0032919999999991,-0.0032113999999998,0,sub_21
0.0007267999999998,0.0111424000000012,-0.0023617999999999,-0.0034269999999995,-0.0024427999999991,-0.0015107999999998,0,sub_21
-0.0003826000000001,0.0123442000000012,-0.0015197999999999,-0.0040689999999995,-0.0003201999999991,0.0010456,0,sub_21
-0.0019074000000001,0.0126852000000012,-0.0013121999999999,-0.0040785999999995,0.0009444000000008,0.0044622,0,sub_21
-0.0021512000000001,0.0137156000000012,-0.0021145999999999,-0.0043089999999995,0.0007190000000008,0.0072358,0,sub_21
-0.0015082000000001,0.0132004000000012,-0.0028007999999998,-0.0045335999999995,-0.0001377999999991,0.0080876,0,sub_21
-0.0008036000000001,0.0126266000000012,-0.0035397999999998,-0.0036787999999995,-0.0003507999999991,0.0068096,0,sub_21
-0.0008138000000001,0.0112822000000012,-0.0033989999999998,-0.0017513999999995,-0.0001379999999991,0.004684,0,sub_21
-0.0009066000000001,0.0105566000000012,-0.0029001999999998,-0.0002525999999995,-0.0003495999999991,0.002556,0,sub_21
-0.0009236000000001,0.0094618000000012,-0.0028819999999998,0.0006018000000004,-0.0014127999999991,0.0012814,0,sub_21
-0.0006836000000001,0.0101644000000012,-0.0034933999999998,0.0012430000000004,-0.0012019999999991,0.0012856,0,sub_21
-0.0003122000000001,0.0111040000000012,-0.0026953999999998,0.0018850000000004,-0.0001379999999991,0.0015014,0,sub_21
0.0005903999999998,0.0121714000000012,-0.0024773999999999,0.0016696000000004,-0.0001353999999991,0.001499,0,sub_21
0.0011699999999998,0.0122642000000012,-0.0030977999999998,0.0005968000000004,-0.0009821999999991,0.0014918,0,sub_21
0.0013789999999998,0.0113744000000012,-0.0034421999999998,-0.0004709999999995,-0.0005513999999991,0.0016966,0,sub_21
0.0009081999999998,0.0109842000000012,-0.0022319999999998,-0.0008939999999995,0.0003058000000008,0.0012644,0,sub_21
-0.0002864000000001,0.0110352000000012,-0.0017987999999998,-0.0023895999999995,-0.0001149999999991,0.0012546,0,sub_21
-0.0013100000000001,0.0102448000000012,-0.0021659999999998,-0.0041031999999995,-0.000963799999999,0.0018846,0,sub_21
-0.0015838000000001,0.0099204000000012,-0.0023573999999999,-0.0051709999999995,-0.0009609999999991,0.0020906,0,sub_21
-0.0017152000000001,0.0100426000000012,-0.0026669999999998,-0.0055949999999995,-0.0009569999999991,0.0014468,0,sub_21
-0.0016024000000001,0.0099004000000012,-0.0034625999999998,-0.0049587999999995,-0.001378799999999,0.0006008,0,sub_21
-0.0013068000000001,0.0092950000000012,-0.0038661999999998,-0.0034651999999995,-0.001375799999999,-0.0006669999999999,0,sub_21
-0.0003240000000001,0.0095316000000012,-0.0040031999999998,-0.0026117999999995,-0.001582799999999,-0.0021525999999998,0,sub_21
0.0003559999999997,0.0107294000000012,-0.0040041999999998,-0.0015467999999995,-0.001367799999999,-0.0027825999999998,0,sub_21
0.0006747999999997,0.0126934000000012,-0.0034173999999999,-0.0004893999999995,-0.001583999999999,-0.0021303999999998,0,sub_21
0.0011363999999997,0.0136500000000012,-0.0034907999999999,-7.019999999955931e-05,-0.001804599999999,-0.0006315999999998,0,sub_21
0.0011217999999997,0.0146246000000012,-0.0037197999999998,-7.779999999955939e-05,-0.002235799999999,0.0006508000000001,0,sub_21
0.0008849999999997,0.0151552000000012,-0.0032165999999998,0.0005576000000004,-0.0020299999999991,0.0019368,0,sub_21
-0.0001172000000002,0.0143294000000012,-0.0028331999999998,0.0011958000000004,-0.0016093999999991,0.0027952,0,sub_21
-0.0015372000000002,0.0126944000000011,-0.0032467999999998,0.0016130000000004,-0.0009613999999991,0.0021656,0,sub_21
-0.0022178000000001,0.0113204000000012,-0.0017007999999998,0.0013890000000004,-0.0009485999999991,0.001105,0,sub_21
-0.0016556000000001,0.0086302000000011,-0.0008135999999998,0.0007374000000004,-0.000723199999999,0.0004684,0,sub_21
-0.0023614000000001,0.0067244000000011,-0.0028581999999998,9.260000000044068e-05,0.0003570000000009,-0.0008099999999998,0,sub_21
-0.0023652000000001,0.0075056000000011,-0.0035193999999999,-0.0001225999999995,0.0016506000000009,-0.0025129999999998,0,sub_21
-0.0021448000000001,0.0090982000000011,-0.0030067999999999,0.0013824000000004,0.0035654000000009,-0.0031459999999999,0,sub_21
-0.0015576000000001,0.0103396000000011,-0.0036325999999998,0.0039480000000004,0.0056968000000009,-0.0033397999999998,0,sub_21
-0.0010008000000001,0.0125536000000012,-0.0038207999999998,0.0047988000000004,0.0061298000000008,-0.0035435999999998,0,sub_21
0.0004151999999997,0.0148394000000012,-0.0017267999999999,0.0050018000000004,0.0048606000000008,-0.0037495999999998,0,sub_21
0.0015131999999997,0.0146138000000012,-0.0015407999999998,0.0049876000000004,0.0027398000000008,-0.0039559999999998,0,sub_21
0.0031225999999997,0.0139530000000012,-0.0022881999999998,0.0039056000000004,0.0001974000000008,-0.0043829999999998,0,sub_21
0.0025207999999998,0.0131526000000011,-0.0029691999999998,0.0019766000000004,-0.0019255999999991,-0.0046073999999999,0,sub_21
0.0021511999999998,0.0122058000000011,-0.0035269999999998,0.0017536000000004,-0.0032065999999991,-0.0037525999999999,0,sub_21
0.0015655999999998,0.0113174000000011,-0.0033063999999998,0.0017430000000004,-0.003640399999999,-0.0018293999999999,0,sub_21
0.0008141999999998,0.0103944000000011,-0.0026437999999999,0.0021592000000004,-0.003863599999999,0.0003102,0,sub_21
-0.0012726000000001,0.0097146000000011,-0.0021461999999999,0.0021488000000004,-0.003438999999999,0.0024426,0,sub_21
-0.0019482000000001,0.0101124000000012,-0.0026729999999999,0.0010742000000004,-0.003220599999999,0.0037132,0,sub_21
-0.0033606000000001,0.0114272000000012,-0.0026367999999999,1.0200000000420984e-05,-0.002356199999999,0.003274,0,sub_21
-0.0040614000000001,0.0120690000000012,-0.0032289999999999,0.0002304000000004,-0.0017049999999991,0.0017758,0,sub_21
-0.0043134000000001,0.0121752000000012,-0.0037839999999999,-0.0004019999999995,-0.0010497999999991,5.800000000007605e-05,0,sub_21
-0.0030246000000001,0.0128748000000012,-0.0042399999999999,-0.0012477999999995,-0.0006155999999991,-0.0012301999999999,0,sub_21
-0.0025868000000001,0.0125678000000012,-0.0030413999999998,-0.0010267999999995,0.0004516000000008,-0.0018709999999999,0,sub_21
-0.0013336000000001,0.0121838000000012,-0.0033389999999998,-0.0001741999999995,0.0008722000000008,-0.0012245999999999,0,sub_21
-0.0008202000000001,0.0116536000000012,-0.0034963999999998,-0.0003859999999995,0.0010888000000008,-0.0003763999999999,0,sub_21
