userAcceleration.x,userAcceleration.y,userAcceleration.z,rotationRate.x,rotationRate.y,rotationRate.z,label,subject
0.0067405999999997,-0.0022281999999987,-0.0018499999999998,-0.0011269999999995,-0.001319799999999,-0.0014541999999999,0,sub_14
0.0073667999999997,-0.0022255999999987,-0.0015123999999998,-0.0015489999999995,-0.001101799999999,-0.0023119999999999,0,sub_14
0.0067373999999997,-0.0024383999999987,-0.0015843999999999,-0.0019757999999995,-0.001312599999999,-0.0025283999999999,0,sub_14
0.0056483999999997,-0.0025149999999987,-0.0018321999999999,-0.0026187999999995,-0.001525199999999,-0.0021051999999999,0,sub_14
0.0039087999999998,-0.0017661999999988,-0.0016657999999999,-0.0019815999999995,-0.001105599999999,-0.0010329999999999,0,sub_14
0.0032009999999998,-0.0004311999999988,-0.0009975999999999,-0.0009195999999995,-0.000901799999999,-0.0010319999999999,0,sub_14
0.0033541999999998,0.0002084000000011,-0.0016697999999999,-7.099999999953393e-05,-0.001758399999999,-0.0020991999999999,0,sub_14
0.0051329999999998,0.0002030000000011,-0.0023393999999999,0.0001412000000004,-0.001972599999999,-0.0033853999999999,0,sub_14
0.0075465999999998,-0.0018265999999988,-0.0019351999999999,0.0007774000000004,-0.002827599999999,-0.0046677999999999,0,sub_14
0.0102883999999997,-0.0042381999999988,-0.0016501999999999,-0.0007259999999995,-0.004316799999999,-0.0053233999999999,0,sub_14
0.0096811999999997,-0.0069757999999987,-0.0017007999999999,-0.0018043999999995,-0.004747799999999,-0.0031939999999999,0,sub_14
0.0074219999999997,-0.0080075999999987,-0.0012619999999999,-0.0018195999999995,-0.003275999999999,0.0017178,0,sub_14
0.0050201999999997,-0.0069705999999987,0.0001752,0.0002998000000004,-0.001174199999999,0.007071,0,sub_14
0.0027547999999997,-0.0039571999999987,0.0012586,0.0039192000000004,0.0030530000000009,0.0113562,0,sub_14
0.0017707999999997,2.600000000120388e-05,0.0014308,0.0088390000000004,0.0089912000000009,0.012871,0,sub_14
0.0031949999999997,0.0039366000000012,0.0012476,0.0129188000000004,0.0153688000000009,0.0118158,0,sub_14
0.0060271999999997,0.0065302000000012,0.0013446,0.0146590000000004,0.0200638000000009,0.007328,0,sub_14
0.0083079999999997,0.0076966000000012,8.10000000001033e-05,0.0132006000000004,0.0222252000000009,-0.0001699999999999,0,sub_14
0.0093539999999997,0.0078472000000012,-0.0011569999999998,0.0087562000000004,0.0218490000000009,-0.0087461999999999,0,sub_14
0.0083555999999997,0.0066230000000012,-0.0019013999999998,0.0023800000000004,0.0193472000000009,-0.0169059999999999,0,sub_14
0.0069145999999997,0.0049266000000012,-0.0026459999999998,-0.0033777999999995,0.0147022000000009,-0.0235663999999999,0,sub_14
0.0052017999999997,0.0017466000000012,-0.0037831999999998,-0.0072313999999995,0.0096118000000009,-0.0270081999999999,0,sub_14
0.0040359999999997,-0.0019397999999987,-0.0039235999999999,-0.0089655999999995,0.0051376000000009,-0.0265901999999999,0,sub_14
0.0041249999999997,-0.0055497999999987,-0.0050747999999999,-0.0098559999999995,0.0008640000000009,-0.0238167999999999,0,sub_14
0.0050889999999997,-0.0099037999999987,-0.0062869999999999,-0.0103319999999995,-0.003634199999999,-0.0184763999999999,0,sub_14
0.0053191999999997,-0.0144539999999987,-0.0063675999999999,-0.0105913999999995,-0.0070693999999989,-0.0116371999999999,0,sub_14
0.0055253999999997,-0.0175847999999987,-0.0053547999999999,-0.0108545999999995,-0.0105081999999989,-0.0039433999999999,0,sub_14
0.0047071999999997,-0.0199425999999987,-0.0043087999999999,-0.0081239999999995,-0.011404999999999,0.0048362,0,sub_14
0.0045329999999997,-0.0209771999999987,-0.0023933999999999,-0.0006847999999995,-0.009122399999999,0.0136448,0,sub_14
0.0052685999999997,-0.0176753999999987,-0.0001789999999999,0.0097538000000004,-0.004927399999999,0.0207626,0,sub_14
0.0060725999999997,-0.0119389999999987,0.0011856,0.0189240000000004,-0.001141999999999,0.024881,0,sub_14
0.0068815999999997,-0.0055561999999987,0.0010676,0.0261890000000004,0.0035124000000009,0.0264212,0,sub_14
0.0074547999999997,0.0018240000000012,0.0005676000000001,0.0276970000000004,0.0056440000000009,0.024506,0,sub_14
0.0068155999999997,0.0089318000000012,-0.0007837999999998,0.0232256000000004,0.0050336000000009,0.0208434,0,sub_14
0.0050725999999997,0.0126910000000012,-0.0021003999999998,0.0134154000000004,0.0016770000000009,0.0162926,0,sub_14
0.0043423999999997,0.0138556000000012,-0.0027369999999998,0.0027544000000004,-0.001886399999999,0.0108816,0,sub_14
0.0036707999999997,0.0130996000000012,-0.0022111999999999,-0.0070481999999995,-0.005233399999999,0.0044124,0,sub_14
0.0035067999999997,0.0105844000000012,-0.0014369999999999,-0.0130005999999995,-0.006251199999999,-0.0018189999999999,0,sub_14
0.0042175999999997,0.0067798000000012,0.0002862,-0.0151025999999995,-0.005151799999999,-0.0080263999999999,0,sub_14
0.0055073999999997,0.0030358000000012,0.0012226,-0.0125009999999995,-0.001301799999999,-0.0135635999999999,0,sub_14
0.0064747999999997,-0.0002051999999987,0.0011132,-0.0086247999999995,0.0027508000000009,-0.0175965999999999,0,sub_14
0.0077213999999997,-0.0023447999999987,-0.0001707999999999,-0.0058279999999995,0.0053080000000009,-0.0201439999999999,0,sub_14
0.0082241999999997,-0.0061767999999987,-0.0014213999999998,-0.0058289999999995,0.0042462000000009,-0.0209973999999999,0,sub_14
0.0077803999999997,-0.0092693999999987,-0.0026909999999998,-0.0079905999999995,0.0004092000000009,-0.0186573999999999,0,sub_14
0.0065949999999997,-0.0124887999999987,-0.0029151999999998,-0.0091033999999995,-0.004932999999999,-0.0137443999999999,0,sub_14
0.0047319999999997,-0.0136911999999987,-0.0027989999999998,-0.0070203999999995,-0.008163799999999,-0.0064615999999999,0,sub_14
0.0026717999999997,-0.0141457999999987,-0.0016677999999998,-0.0017281999999995,-0.008427399999999,0.001908,0,sub_14
0.0027863999999997,-0.0106613999999987,-0.0010707999999998,0.0063608000000004,-0.005284999999999,0.0085838,0,sub_14
0.0034855999999997,-0.0058171999999987,-0.0010997999999998,0.0146872000000004,-0.000424199999999,0.0116268,0,sub_14
0.0043291999999997,3.560000000120342e-05,-0.0015759999999998,0.0196160000000004,0.0053116000000009,0.0118676,0,sub_14
0.0063431999999997,0.0052740000000012,-0.0016711999999998,0.0194352000000004,0.0089488000000009,0.0082298,0,sub_14
0.0086537999999997,0.0084382000000011,-0.0027799999999998,0.0145516000000004,0.0079262000000009,0.0017876,0,sub_14
0.0099269999999997,0.0093752000000011,-0.0035711999999998,0.0058024000000004,0.0039034000000009,-0.0044467999999999,0,sub_14
0.0097869999999997,0.0065084000000011,-0.0032105999999998,-0.0038155999999995,-0.001403399999999,-0.0085489999999999,0,sub_14
0.0094069999999997,0.0011612000000011,-0.0018955999999998,-0.0123783999999995,-0.0069361999999989,-0.0102933999999999,0,sub_14
0.0079901999999997,-0.0048537999999988,-0.0008643999999999,-0.0164669999999995,-0.0105809999999989,-0.0085907999999999,0,sub_14
0.0060905999999997,-0.0085355999999987,0.0001482,-0.0141447999999995,-0.009358799999999,-0.0040721999999999,0,sub_14
0.0044757999999997,-0.0108545999999987,0.0008004000000001,-0.0071033999999995,-0.004927199999999,0.000458,0,sub_14
0.0049597999999997,-0.0095383999999987,0.0008156000000001,0.0014468000000004,0.0012104000000009,0.0032874,0,sub_14
0.0061037999999997,-0.0050641999999987,-0.0002279999999998,0.0093684000000004,0.0069360000000009,0.0031218,0,sub_14
0.0074945999999997,-0.0010089999999988,-0.0015959999999998,0.0134502000000004,0.0105540000000009,0.000582,0,sub_14
0.0086737999999997,0.0020710000000011,-0.0019745999999998,0.0119758000000004,0.0109900000000009,-0.0034721999999999,0,sub_14
0.0086665999999997,0.0042172000000011,-0.0021593999999998,0.0062176000000004,0.0086678000000009,-0.0066983999999999,0,sub_14
0.0076801999999997,0.0045636000000011,-0.0028255999999998,-0.0016895999999995,0.0044298000000009,-0.0084415999999999,0,sub_14
0.0059085999999997,0.0016120000000011,-0.0036167999999998,-0.0087557999999995,-0.000458999999999,-0.0080415999999999,0,sub_14
0.0040569999999997,-0.0014989999999987,-0.0035187999999998,-0.0132643999999995,-0.004510399999999,-0.0061291999999999,0,sub_14
0.0021809999999997,-0.0045027999999987,-0.0032995999999999,-0.0134979999999995,-0.006225199999999,-0.0033511999999999,0,sub_14
0.0018495999999997,-0.0068895999999987,-0.0033201999999999,-0.0098803999999995,-0.005821999999999,-0.0007625999999999,0,sub_14
0.0023821999999997,-0.0080161999999987,-0.0030455999999999,-0.0039193999999995,-0.003934799999999,0.0005424,0,sub_14
0.0034583999999997,-0.0064913999999987,-0.0024999999999999,0.0018358000000004,-0.001403399999999,0.000777,0,sub_14
0.0049609999999997,-0.0046347999999987,-0.0021873999999999,0.0063118000000004,0.0004966000000009,0.0001486,0,sub_14
0.0066445999999997,-0.0026237999999987,-0.0026607999999999,0.0077958000000004,0.0007052000000009,-0.0011393999999999,0,sub_14
0.0070109999999997,-0.0005291999999987,-0.0022247999999999,0.0064992000000004,-0.000567799999999,-0.0024447999999999,0,sub_14
0.0072045999999997,0.0005480000000012,-0.0021547999999999,0.0041424000000004,-0.002690199999999,-0.0024585999999999,0,sub_14
0.0069191999999997,0.0003856000000012,-0.0016411999999999,0.0017828000000004,-0.004814999999999,-0.0018315999999999,0,sub_14
0.0063473999999997,4.520000000120322e-05,-0.0014923999999999,-0.0005747999999995,-0.006301599999999,-0.0009913999999999,0,sub_14
0.0061735999999997,-0.0005665999999987,-0.0010097999999999,-0.0022855999999995,-0.006939199999999,7.940000000004046e-05,0,sub_14
0.0060923999999997,-0.0014339999999987,-0.0012001999999999,-0.0029225999999995,-0.006513599999999,0.0007288,0,sub_14
0.0056515999999997,-0.0017399999999987,-0.0009861999999999,-0.0029137999999995,-0.005660799999999,0.0005278,0,sub_14
0.0059277999999997,-0.0020813999999987,-0.0013097999999999,-0.0024753999999995,-0.004382399999999,0.0001156,0,sub_14
0.0062033999999997,-0.0022807999999987,-0.0015501999999999,-0.0011815999999995,-0.002892999999999,-0.0005047999999999,0,sub_14
0.0059497999999997,-0.0020861999999987,-0.0016631999999998,0.0001084000000004,-0.001403399999999,-0.0011387999999999,0,sub_14
0.0059635999999997,-0.0018685999999987,-0.0017021999999998,0.0009656000000004,-0.000978399999999,-0.0015605999999999,0,sub_14
0.0061027999999997,-0.0018637999999987,-0.0021241999999998,0.0013932000000004,-0.000978999999999,-0.0017713999999999,0,sub_14
0.0059883999999997,-0.0020209999999987,-0.0022523999999998,0.0009558000000004,-0.001402399999999,-0.0019815999999999,0,sub_14
0.0059967999999997,-0.0018527999999987,-0.0022863999999998,9.06000000004461e-05,-0.001612999999999,-0.0017675999999999,0,sub_14
0.0058121999999997,-0.0017005999999987,-0.0024555999999999,-0.0001335999999995,-0.001824999999999,-0.0017627999999999,0,sub_14
0.0059923999999997,-0.0019301999999987,-0.0025989999999999,-0.0003547999999995,-0.001397799999999,-0.0017587999999999,0,sub_14
0.0061053999999997,-0.0022005999999987,-0.0025029999999999,-0.0003633999999995,-0.000971999999999,-0.0015395999999999,0,sub_14
0.0058229999999997,-0.0016857999999987,-0.0025035999999999,0.0007054000000004,-0.000125199999999,-0.0011057999999999,0,sub_14
0.0058289999999997,-0.0015855999999987,-0.0026313999999998,0.0011330000000004,0.0002986000000009,-0.0008897999999999,0,sub_14
0.0065035999999997,-0.0017267999999987,-0.0027885999999998,0.0009168000000004,8.460000000098524e-05,-0.0004637999999999,0,sub_14
0.0067999999999997,-0.0018639999999987,-0.0030355999999998,0.0007016000000004,-0.000128599999999,-0.0002513999999999,0,sub_14
0.0062715999999997,-0.0017213999999987,-0.0027789999999998,5.360000000044617e-05,-0.000556599999999,0.0001814,0,sub_14
0.0055537999999997,-0.0019385999999987,-0.0024429999999998,-0.0008075999999995,-0.000559399999999,0.0010394,0,sub_14
0.0040587999999997,-0.0018857999999987,-0.0019089999999999,-0.0001713999999995,-0.000139599999999,0.0014802,0,sub_14
0.0044511999999997,-0.0017371999999987,-0.0018841999999999,0.0006820000000004,0.0002828000000009,0.0010678,0,sub_14
0.0048105999999997,-0.0014487999999987,-0.0022245999999999,0.0015354000000004,0.0004930000000009,0.000442,0,sub_14
0.0050157999999997,-0.0013235999999987,-0.0022629999999998,0.0023966000000004,0.0011334000000009,-0.0006211999999999,0,sub_14
0.0059975999999997,-0.0016613999999987,-0.0023985999999998,0.0019756000000004,0.0013522000000009,-0.0016925999999999,0,sub_14
0.0071281999999997,-0.0022499999999987,-0.0024635999999998,0.0011296000000004,0.0015710000000009,-0.0021125999999999,0,sub_14
0.0065985999999997,-0.0023857999999987,-0.0024383999999998,0.0004960000000004,0.0024248000000009,-0.0016771999999999,0,sub_14
0.0064759999999997,-0.0023763999999987,-0.0017177999999998,-0.0003537999999995,0.0030646000000009,-0.0008157999999999,0,sub_14
0.0065469999999997,-0.0024081999999987,-0.0020729999999999,-0.0014199999999995,0.0030660000000009,4.500000000004041e-05,0,sub_14
0.0065797999999997,-0.0021259999999987,-0.0022967999999999,-0.0007791999999995,0.0026370000000009,0.0004908,0,sub_14
0.0069321999999997,-0.0019875999999987,-0.0025861999999998,-0.0007849999999995,0.0015708000000009,0.0007058,0,sub_14
0.0064355999999997,-0.0021271999999987,-0.0028773999999998,-0.0012213999999995,7.840000000096493e-05,0.0013456,0,sub_14
0.0056041999999997,-0.0021115999999987,-0.0030815999999998,-0.0012281999999995,-0.000988599999999,0.0017742,0,sub_14
0.0053903999999997,-0.0022585999999987,-0.0027487999999998,-0.0010203999999995,-0.001630999999999,0.0024174,0,sub_14
0.0046299999999997,-0.0027163999999987,-0.0027491999999998,-0.0014539999999995,-0.002475199999999,0.0030674,0,sub_14
0.0040475999999997,-0.0030327999999987,-0.0026695999999998,-0.0012463999999995,-0.003108399999999,0.0037216,0,sub_14
0.0035333999999997,-0.0026065999999987,-0.0016629999999998,-0.0003949999999995,-0.0033161999999989,0.0039524,0,sub_14
0.0036593999999997,-0.0027259999999987,-0.0010585999999998,0.0004544000000004,-0.003525599999999,0.0046106,0,sub_14
0.0041805999999997,-0.0024093999999987,-0.0014273999999998,0.0015220000000004,-0.003307199999999,0.0046288,0,sub_14
0.0046655999999997,-0.0017477999999987,-0.0013063999999999,0.0021650000000004,-0.002882399999999,0.004419,0,sub_14
0.0051821999999997,-0.0008685999999987,-0.0016263999999999,0.0021688000000004,-0.002454599999999,0.0039912,0,sub_14
0.0063541999999997,-0.0009647999999987,-0.0022155999999999,0.0013186000000004,-0.002438199999999,0.0035678,0,sub_14
0.0067569999999997,-0.0006587999999987,-0.0021641999999999,0.0006846000000004,-0.002207799999999,0.0027182,0,sub_14
0.0067875999999997,-0.0007379999999987,-0.0017415999999998,-0.0001627999999995,-0.001764599999999,0.0020804,0,sub_14
0.0070047999999997,-0.0008275999999987,-0.0016353999999998,-0.0005843999999995,-0.001535999999999,0.001446,0,sub_14
0.0069563999999997,-0.0010623999999987,-0.0010125999999998,-0.0014327999999995,-0.001093599999999,0.0010218,0,sub_14
0.0063747999999997,-0.0014783999999987,-0.0004859999999998,-0.0016423999999995,-0.000664999999999,0.0005924,0,sub_14
0.0058473999999997,-0.0018355999999987,-0.0011277999999998,-0.0018527999999995,-2.5199999999034975e-05,0.00059,0,sub_14
0.0057093999999997,-0.0019937999999987,-0.0012841999999998,-0.0016385999999995,0.0001872000000009,0.0005912,0,sub_14
0.0054879999999997,-0.0020275999999987,-0.0016195999999999,-0.0014255999999995,0.0004076000000009,0.0010266,0,sub_14
0.0053023999999997,-0.0024081999999987,-0.0018415999999999,-0.0005733999999995,0.0002004000000009,0.0012534,0,sub_14
0.0052137999999997,-0.0023039999999987,-0.0024245999999999,-0.0001459999999995,0.0006330000000009,0.00169,0,sub_14
0.0051925999999997,-0.0022535999999987,-0.0027409999999999,0.0004928000000004,0.0002144000000009,0.001702,0,sub_14
0.0046559999999997,-0.0020915999999987,-0.0027675999999999,0.0007002000000004,-0.000419199999999,0.0025658,0,sub_14
0.0044893999999997,-0.0017279999999987,-0.0025371999999999,0.0009106000000004,-0.001058999999999,0.0025682,0,sub_14
0.0043247999999997,-0.0009319999999987,-0.0025559999999999,0.0009096000000004,-0.0010597999999989,0.0027818,0,sub_14
0.0045493999999997,-0.0007205999999987,-0.0023057999999999,0.0011210000000004,-0.0014865999999989,0.0027838,0,sub_14
0.0050183999999997,-0.0005827999999987,-0.0018873999999999,0.0006928000000004,-0.0014815999999989,0.0027862,0,sub_14
0.0057289999999997,-0.0005155999999987,-0.0021515999999999,0.0004818000000004,-0.0014739999999989,0.0019358,0,sub_14
0.0062411999999997,-0.0013933999999987,-0.0014923999999999,-0.0001567999999995,-0.0012537999999989,0.0015092,0,sub_14
0.0058705999999997,-0.0018639999999987,-0.0011081999999999,-0.0005869999999995,-0.0016749999999989,0.0015124,0,sub_14
0.0049883999999997,-0.0021601999999987,-0.0007141999999999,-0.0008027999999995,-0.001247399999999,0.002157,0,sub_14
0.0041115999999997,-0.0021641999999987,-0.0005065999999999,4.960000000044616e-05,-0.000402399999999,0.0032302,0,sub_14
0.0038041999999997,-0.0025273999999987,-0.0003515999999999,4.960000000044616e-05,2.2000000000924942e-05,0.0036568,0,sub_14
0.0035235999999997,-0.0022845999999987,-0.0013311999999999,0.0004762000000004,2.0600000000924912e-05,0.0036598,0,sub_14
0.0042279999999997,-0.0026255999999987,-0.0024087999999999,0.0013356000000004,0.0006592000000009,0.003024,0,sub_14
0.0056919999999997,-0.0025691999999987,-0.0025877999999999,0.0019848000000004,0.0010896000000009,0.0017468,0,sub_14
0.0065023999999997,-0.0028717999999987,-0.0024629999999999,0.0017806000000004,0.0013106000000009,0.0002502,0,sub_14
0.0065195999999997,-0.0024815999999987,-0.0024575999999998,0.0022154000000004,0.0021652000000009,-0.0003879999999999,0,sub_14
0.0062701999999997,-0.0012735999999987,-0.0021121999999998,0.0020074000000004,0.0025952000000009,-0.0008165999999999,0,sub_14
0.0055695999999997,-0.0002673999999987,-0.0012327999999998,0.0005142000000004,0.0021766000000009,-0.0010393999999999,0,sub_14
0.0047855999999997,0.0001392000000012,-0.0017115999999998,-0.0005545999999995,0.0015420000000009,-0.0012597999999999,0,sub_14
0.0048167999999997,-1.999999998776852e-06,-0.0025285999999998,-0.0018397999999995,0.0002690000000009,-0.0014807999999999,0,sub_14
0.0047327999999997,-0.0002089999999987,-0.0026339999999999,-0.0031281999999995,-0.001211799999999,-0.0012819999999999,0,sub_14
0.0049203999999997,-0.0007441999999987,-0.0024617999999999,-0.0035583999999995,-0.001418199999999,-0.0008649999999999,0,sub_14
0.0050797999999997,-0.0013815999999987,-0.0025129999999999,-0.0029197999999995,-0.001414399999999,-0.0006545999999999,0,sub_14
0.0047583999999997,-0.0015117999999987,-0.0021497999999999,-0.0022821999999995,-0.001623599999999,-0.0004437999999999,0,sub_14
0.0045533999999997,-0.0010687999999987,-0.0017649999999999,-0.0016433999999995,-0.001619799999999,-0.0002331999999999,0,sub_14
0.0049295999999997,-0.0011737999999987,-0.0013389999999999,-0.0003631999999995,-0.001624399999999,-0.0002241999999999,0,sub_14
0.0049677999999997,-0.0016617999999987,-0.0013951999999998,0.0004902000000004,-0.001839599999999,-0.0004317999999999,0,sub_14
0.0057687999999997,-0.0019675999999987,-0.0015059999999998,0.0009178000000004,-0.001627999999999,-0.0004289999999999,0,sub_14
0.0063325999999997,-0.0016655999999987,-0.0018189999999998,0.0007026000000004,-0.001841199999999,-0.0002165999999999,0,sub_14
0.0065957999999997,-0.0010819999999987,-0.0015553999999998,0.0007024000000004,-0.002048199999999,-0.0002243999999999,0,sub_14
0.0063107999999997,-0.0005985999999987,-0.0015073999999998,-0.0001493999999995,-0.002038199999999,-0.0004519999999999,0,sub_14
0.0063445999999997,-0.0003987999999987,-0.0017687999999999,-0.0007877999999995,-0.002029199999999,-0.0006779999999999,0,sub_14
0.0059357999999997,5.200000001203222e-06,-0.0020017999999999,-0.0014279999999995,-0.002233999999999,-0.0006903999999999,0,sub_14
0.0057951999999997,-0.0002953999999987,-0.0016225999999998,-0.0018511999999995,-0.002011799999999,-0.0011289999999999,0,sub_14
0.0055925999999997,-0.0009009999999987,-0.0021065999999998,-0.0020635999999995,-0.001797999999999,-0.0011307999999999,0,sub_14
0.0053905999999997,-0.0009455999999987,-0.0026251999999998,-0.0020597999999995,-0.001370199999999,-0.0015585999999999,0,sub_14
0.0051633999999997,-0.0009263999999987,-0.0023181999999998,-0.0020581999999995,-0.001363399999999,-0.0017821999999999,0,sub_14
0.0051147999999997,-0.0012143999999987,-0.0028533999999998,-0.0020557999999995,-0.001355799999999,-0.0022191999999999,0,sub_14
0.0047437999999997,-0.0010817999999987,-0.0032609999999999,-0.0018427999999995,-0.001563599999999,-0.0022273999999999,0,sub_14
0.0044759999999997,-0.0009861999999987,-0.0030865999999999,-0.0016279999999995,-0.001557599999999,-0.0024493999999999,0,sub_14
0.0042239999999997,-0.0013133999999987,-0.0026715999999999,-0.0014149999999995,-0.001765599999999,-0.0024575999999999,0,sub_14
0.0045353999999997,-0.0014821999999987,-0.0030011999999999,-0.0014179999999995,-0.001980399999999,-0.0020299999999999,0,sub_14
0.0046045999999997,-0.0012445999999987,-0.0021351999999999,-0.0012075999999995,-0.002195999999999,-0.0016009999999999,0,sub_14
0.0051573999999997,-0.0010771999999987,-0.0020671999999998,-0.0009941999999995,-0.001984599999999,-0.0013859999999999,0,sub_14
0.0055119999999997,-0.0010871999999987,-0.0017105999999998,-0.0009941999999995,-0.001984599999999,-0.0013859999999999,0,sub_14
0.0062409999999997,-0.0005169999999987,-0.0022603999999998,-0.0007821999999994,-0.002194399999999,-0.0013965999999999,0,sub_14
0.0061759999999997,-0.0004143999999987,-0.0021589999999998,-0.0007785999999994,-0.001762599999999,-0.0018367999999999,0,sub_14
0.0065553999999997,-0.0007131999999987,-0.0021125999999998,-0.0003491999999994,-0.001333199999999,-0.0020603999999999,0,sub_14
0.0063903999999997,-0.0009719999999987,-0.0023067999999998,-0.0007753999999995,-0.001114799999999,-0.0020761999999999,0,sub_14
0.0055603999999997,-0.0006223999999987,-0.0034337999999998,-0.0007757999999995,-0.000474199999999,-0.0014485999999999,0,sub_14
0.0040309999999998,-0.0004037999999987,-0.0026921999999999,-0.0005623999999995,0.0003738000000009,-0.0005935999999999,0,sub_14
0.0040053999999998,-0.0003653999999987,-0.0022743999999999,-0.0003529999999995,-0.000266999999999,-0.0003777999999999,0,sub_14
0.0037097999999998,-0.0003367999999987,-0.0027235999999999,-0.0007765999999995,-0.000474199999999,-0.0010271999999999,0,sub_14
0.0043897999999998,-0.0002523999999987,-0.0023795999999999,0.0002944000000004,-0.000685799999999,-0.0018795999999999,0,sub_14
0.0054673999999997,-0.0009479999999987,-0.0013141999999999,0.0009444000000004,-0.000466399999999,-0.0035901999999999,0,sub_14
0.0069319999999997,-0.0016403999999987,-0.0015501999999999,0.0013810000000004,-3.399999999901494e-05,-0.0050889999999999,0,sub_14
0.0069525999999997,-0.0014317999999987,-0.0022691999999999,0.0016052000000004,0.0010366000000009,-0.0061625999999999,0,sub_14
0.0072431999999997,-0.0008197999999987,-0.0021413999999999,0.0013936000000004,0.0012512000000009,-0.0063779999999999,0,sub_14
0.0065999999999997,-0.0007843999999988,-0.0023663999999999,-0.0001027999999995,0.0008296000000009,-0.0061741999999999,0,sub_14
0.0059383999999997,-0.0004161999999988,-0.0027521999999999,-0.0020297999999995,-1.859999999903497e-05,-0.0055455999999999,0,sub_14
0.0056759999999997,-0.0009577999999988,-0.0030579999999999,-0.0035303999999995,-0.001290999999999,-0.0047013999999999,0,sub_14
0.0052773999999997,-0.0015627999999987,-0.0027157999999999,-0.0043907999999995,-0.001928999999999,-0.0032125999999999,0,sub_14
0.0046275999999997,-0.0023507999999987,-0.0034033999999999,-0.0043947999999995,-0.002142999999999,-0.0019319999999999,0,sub_14
0.0043799999999997,-0.0025295999999987,-0.0031535999999999,-0.0035407999999995,-0.001719199999999,-0.0010735999999999,0,sub_14
0.0041361999999997,-0.0025547999999987,-0.0029197999999999,-0.0018351999999995,-0.001512199999999,4.80000000000055e-06,0,sub_14
0.0037995999999997,-0.0018393999999987,-0.0031217999999999,-0.0007683999999995,-0.001091599999999,0.000439,0,sub_14
0.0044175999999997,-0.0012587999999987,-0.0029523999999999,0.0005148000000004,-0.000881399999999,2.040000000002057e-05,0,sub_14
0.0047453999999997,-0.0010107999999987,-0.0020159999999999,0.0013702000000004,-0.000882599999999,-0.0004007999999999,0,sub_14
0.0051225999999997,-0.0008895999999987,-0.0017069999999999,0.0013732000000004,-0.001514799999999,-0.0006103999999999,0,sub_14
0.0055633999999997,-0.0008317999999987,-0.0017957999999999,0.0009504000000004,-0.001932399999999,-0.0008231999999999,0,sub_14
0.0058423999999997,-0.0009103999999987,-0.0011673999999998,0.0009544000000004,-0.002139399999999,-0.0008195999999999,0,sub_14
0.0054985999999997,-0.0008983999999987,-0.0011059999999998,0.0003152000000004,-0.002558799999999,-0.0003929999999999,0,sub_14
