userAcceleration.x,userAcceleration.y,userAcceleration.z,rotationRate.x,rotationRate.y,rotationRate.z,label,subject
0.0001235999999998,0.0038528000000011,-0.0043031999999999,0.0036450000000003,-0.002065399999999,-0.0001621999999998,0,sub_20
0.0002429999999998,0.0034946000000011,-0.0042471999999999,0.0044984000000003,-0.002068399999999,-0.0001561999999998,0,sub_20
0.0012303999999998,0.0029576000000011,-0.0037003999999999,0.0040726000000003,-0.001853799999999,-0.0001595999999998,0,sub_20
0.0021745999999998,0.0031626000000011,-0.0034293999999999,0.0038584000000003,-0.001853999999999,5.260000000011505e-05,0,sub_20
0.0016249999999998,0.0043522000000011,-0.0035279999999999,0.0032174000000004,-0.001428399999999,0.0006886000000001,0,sub_20
0.0010129999999998,0.0047944000000011,-0.0033621999999999,0.0023684000000004,-0.000790199999999,0.0017592,0,sub_20
1.4599999999809905e-05,0.0044294000000012,-0.0033801999999999,0.0021576000000004,-0.0005803999999991,0.0028346,0,sub_20
-8.440000000019023e-05,0.0039808000000012,-0.0032459999999999,0.0017354000000004,5.620000000089503e-05,0.0039082,0,sub_20
-0.0001950000000001,0.0035450000000012,-0.0041283999999999,0.0013160000000004,5.880000000089503e-05,0.0037006,0,sub_20
0.0003481999999998,0.0029802000000012,-0.0041311999999999,0.0011130000000004,0.0002756000000008,0.003067,0,sub_20
0.0004857999999998,0.0033532000000012,-0.0039383999999999,0.0004826000000004,0.0013474000000008,0.001993,0,sub_20
0.0012959999999998,0.0038888000000012,-0.0036677999999999,-0.0003621999999995,0.0019946000000009,0.0007044,0,sub_20
0.0011915999999998,0.0043256000000012,-0.0035977999999999,6.560000000045909e-05,0.0011452000000009,-0.0003597999999999,0,sub_20
0.0006759999999998,0.0045222000000012,-0.0025269999999998,0.0004964000000004,0.0009338000000008,-0.0003425999999998,0,sub_20
0.0007949999999998,0.0046178000000012,-0.0030439999999998,0.0011358000000004,0.0002928000000008,0.0003174000000001,0,sub_20
0.0011455999999997,0.0044658000000012,-0.0036289999999998,0.0017694000000004,-0.0014141999999991,0.0011926000000001,0,sub_20
0.0012701999999997,0.0046852000000012,-0.0042789999999998,0.0024070000000004,-0.0024811999999991,0.0018532000000001,0,sub_20
0.0008059999999997,0.0052850000000012,-0.0045095999999998,0.0024130000000004,-0.0016283999999991,0.002507,0,sub_20
0.0007535999999997,0.0052494000000012,-0.0043589999999999,0.0019864000000004,-0.0009903999999991,0.0031442,0,sub_20
-0.0003290000000002,0.0047930000000012,-0.0040589999999999,0.0017710000000004,-0.0009911999999991,0.00357,0,sub_20
-0.0008322000000001,0.0043924000000012,-0.0034193999999999,0.0024102000000004,-0.0012065999999991,0.0035746,0,sub_20
-0.0012856000000001,0.0037796000000011,-0.0029007999999999,0.0024180000000004,-0.0005617999999991,0.0033732,0,sub_20
-0.0008300000000002,0.0036042000000011,-0.0030999999999999,0.0019942000000004,-0.0009807999999991,0.00317,0,sub_20
-0.0003582000000002,0.0033860000000011,-0.0036241999999999,0.0022144000000004,-0.0009741999999991,0.0025434,0,sub_20
0.0002103999999997,0.0033248000000011,-0.0031653999999999,0.0015870000000004,0.0001014000000008,0.001696,0,sub_20
0.0001745999999997,0.0033724000000011,-0.0035659999999998,0.0007480000000004,0.0018162000000008,0.00106,0,sub_20
0.0002559999999998,0.0037706000000012,-0.0039429999999998,0.0003222000000004,0.0020308000000008,0.0010566,0,sub_20
0.0003789999999998,0.0035194000000012,-0.0037281999999998,-0.0001025999999995,0.0024584000000008,0.001053,0,sub_20
9.21999999998297e-05,0.0035378000000012,-0.0035303999999998,-0.0009521999999995,0.0033136000000008,0.001046,0,sub_20
0.0005627999999998,0.0042170000000012,-0.0035205999999998,-0.0009461999999995,0.0033164000000008,0.0010606,0,sub_20
0.0016429999999998,0.0046216000000012,-0.0030973999999998,-0.0007287999999995,0.0028924000000008,0.0010772,0,sub_20
0.0018663999999997,0.0045704000000012,-0.0025471999999998,-0.0007247999999995,0.0026814000000008,0.0013058,0,sub_20
0.0014847999999997,0.0044042000000012,-0.0026605999999998,-0.0005043999999995,0.0028964000000008,0.0013218,0,sub_20
0.0011507999999997,0.0049222000000012,-0.0029967999999998,-7.459999999956094e-05,0.0022586000000008,0.0013402,0,sub_20
0.0007037999999997,0.0045600000000012,-0.0033845999999998,-7.659999999954093e-05,0.0020448000000008,0.001554,0,sub_20
0.0001379999999997,0.0043392000000012,-0.0038909999999999,-0.0002917999999995,0.0018316000000008,0.0017664,0,sub_20
-6.600000000190324e-06,0.0045614000000012,-0.0045385999999999,-7.93999999995409e-05,0.0016178000000008,0.0017682,0,sub_20
0.0001519999999997,0.0047722000000012,-0.0041051999999999,0.0001294000000004,0.0011944000000008,0.001992,0,sub_20
0.0002085999999997,0.0045348000000012,-0.0039053999999999,0.0003390000000004,0.0007720000000008,0.002002,0,sub_20
0.0007301999999997,0.0044966000000011,-0.0042935999999999,0.0007640000000004,0.0005626000000008,0.0017998,0,sub_20
0.0004377999999997,0.0048408000000011,-0.0042067999999999,0.0007632000000004,0.0005678000000008,0.0015942,0,sub_20
0.0005085999999997,0.0044112000000012,-0.0040543999999999,0.0005510000000004,0.0012120000000008,0.0016,0,sub_20
0.0007773999999998,0.0042294000000011,-0.0044023999999999,0.0005510000000004,0.0009998000000008,0.0013866,0,sub_20
0.0014507999999998,0.0038162000000011,-0.0048953999999999,0.0005510000000004,0.0007876000000009,0.0011732,0,sub_20
0.0011777999999998,0.0044198000000012,-0.0042659999999998,0.0001238000000004,0.0012206000000009,0.0007436,0,sub_20
0.0015439999999998,0.0043864000000012,-0.0035357999999998,0.0001214000000004,0.0012260000000009,0.0003176,0,sub_20
0.0015677999999998,0.0047962000000012,-0.0030057999999998,0.0003258000000004,-0.000472999999999,-0.0003185999999999,0,sub_20
0.0008825999999998,0.0049860000000012,-0.0033361999999998,0.0007444000000004,-0.001535199999999,-0.0005267999999999,0,sub_20
-0.0001676000000001,0.0048464000000012,-0.0029243999999998,0.0007384000000004,-0.0015331999999991,-9.819999999990456e-05,0,sub_20
-0.0001864000000001,0.0046998000000012,-0.0033415999999998,0.0011576000000004,-0.0021781999999991,0.0009738,0,sub_20
0.0001205999999998,0.0047216000000012,-0.0036189999999998,0.0015778000000004,-0.002609999999999,0.0020454,0,sub_20
3.659999999980977e-05,0.0047362000000012,-0.0041955999999998,0.0017930000000004,-0.001547999999999,0.0026866,0,sub_20
3.399999999980977e-05,0.0050056000000012,-0.0041591999999998,0.0017968000000004,-0.000271399999999,0.0031122,0,sub_20
0.0003159999999998,0.0054218000000012,-0.0037885999999998,0.0017918000000004,0.0005830000000009,0.0035348,0,sub_20
0.0001035999999998,0.0048638000000012,-0.0033359999999998,0.0022146000000004,0.0010124000000009,0.00332,0,sub_20
-0.0003794000000001,0.0046652000000012,-0.0034249999999999,0.0017848000000004,0.0014456000000008,0.0028856,0,sub_20
0.0004195999999998,0.0043954000000012,-0.0034221999999998,0.0011418000000004,0.0016674000000008,0.0022362,0,sub_20
0.0009599999999998,0.0043094000000012,-0.0031735999999998,0.0002844000000004,0.0016770000000008,0.0015858000000001,0,sub_20
0.0012971999999998,0.0049044000000012,-0.0033803999999998,-0.0001393999999995,0.0014688000000008,0.0007284000000001,0,sub_20
0.0013551999999998,0.0049332000000012,-0.0036909999999998,-0.0007775999999995,0.0014728000000008,0.0002966000000001,0,sub_20
0.0017765999999998,0.0046296000000012,-0.0036003999999998,-0.0007795999999995,0.0010466000000008,0.0002972000000001,0,sub_20
0.0014101999999998,0.0049382000000012,-0.0034697999999999,-0.0007863999999995,0.0008328000000008,0.0005056000000001,0,sub_20
0.0012571999999998,0.0052174000000012,-0.0033005999999998,-0.0003653999999995,0.0006184000000008,0.0005034,0,sub_20
0.0011267999999998,0.0050142000000012,-0.0028773999999998,-0.0001607999999995,0.0001900000000008,0.0009272,0,sub_20
0.0013087999999998,0.0053410000000012,-0.0027163999999998,-0.0001693999999995,-0.0004497999999991,0.0011362,0,sub_20
0.0009837999999998,0.0056650000000012,-0.0030581999999998,3.820000000043916e-05,-0.0008755999999991,0.000919,0,sub_20
0.0009855999999998,0.0056138000000012,-0.0028475999999998,0.0002488000000004,-0.0015153999999991,0.0009214,0,sub_20
0.0010947999999997,0.0054614000000012,-0.0029379999999998,0.0002468000000004,-0.0017293999999991,0.0011352,0,sub_20
0.0012813999999997,0.0050894000000012,-0.0035647999999998,3.640000000043921e-05,-0.0013017999999991,0.0009196,0,sub_20
0.0011615999999997,0.0051830000000012,-0.0036279999999999,-0.0001771999999995,-0.0008769999999991,0.0006968,0,sub_20
0.0009609999999997,0.0047684000000012,-0.0031675999999999,-0.0006039999999995,-0.0002391999999991,0.000686,0,sub_20
0.0008313999999997,0.0045062000000012,-0.0036717999999999,-0.0008155999999995,0.0006116000000008,0.0004628,0,sub_20
0.0010065999999997,0.0039750000000012,-0.0036493999999999,-0.0008165999999995,0.0006104000000008,2.840000000009558e-05,0,sub_20
0.0012957999999997,0.0039442000000012,-0.0037227999999999,-0.0010329999999995,0.0001840000000008,-0.0004067999999999,0,sub_20
0.0006433999999997,0.0033290000000012,-0.0032949999999998,-0.0012415999999995,0.0006134000000008,-0.0010497999999999,0,sub_20
0.0005079999999997,0.0031568000000012,-0.0035533999999998,-0.0016615999999995,0.0014696000000008,-0.0016947999999999,0,sub_20
0.0001135999999997,0.0028448000000012,-0.0032445999999998,-0.0023007999999995,0.0012606000000008,-0.0021263999999999,0,sub_20
-0.0005404000000001,0.0038298000000012,-0.0033207999999998,-0.0029445999999995,0.0008348000000008,-0.0023505999999999,0,sub_20
-0.0011560000000001,0.0047070000000012,-0.0030021999999998,-0.0029415999999995,0.0021102000000008,-0.0023589999999999,0,sub_20
-0.0010494000000001,0.0061740000000012,-0.0032923999999999,-0.0029441999999995,0.0029560000000008,-0.0015121999999999,0,sub_20
-0.0012464000000001,0.0063512000000012,-0.0034079999999999,-0.0021049999999995,0.0016666000000008,-0.0002295999999999,0,sub_20
-0.0010906000000001,0.0063198000000012,-0.0035897999999999,-0.0004141999999995,0.0003726000000008,0.0014862,0,sub_20
-0.0003988000000001,0.0055640000000012,-0.0040231999999999,0.0010766000000004,0.0003648000000008,0.0021374,0,sub_20
0.0005091999999998,0.0047718000000012,-0.0042509999999999,0.0019224000000004,-0.0009181999999991,0.0025722,0,sub_20
0.0013435999999997,0.0038916000000012,-0.0041467999999999,0.0025556000000004,-0.0019829999999991,0.002142,0,sub_20
0.0022847999999997,0.0042672000000012,-0.0038943999999999,0.0027728000000003,-0.0013393999999991,0.001066,0,sub_20
0.0024683999999997,0.0047358000000012,-0.0033525999999999,0.0023528000000003,-5.459999999914544e-05,-1.5399999999904422e-05,0,sub_20
0.0024365999999997,0.0044500000000012,-0.0028201999999999,0.0021364000000003,0.0003722000000008,0.0001876,0,sub_20
0.0018325999999997,0.0040400000000012,-0.0027857999999999,0.0017048000000004,0.0003736000000008,0.0003896,0,sub_20
0.0017537999999997,0.0035626000000012,-0.0029981999999999,0.0010618000000004,0.0001610000000008,0.0008128,0,sub_20
0.0014953999999997,0.0032984000000012,-0.0035193999999999,0.0002054000000004,-0.0002629999999991,0.001021,0,sub_20
0.0015299999999997,0.0034170000000012,-0.0039755999999999,-0.0004337999999995,-0.0004719999999991,0.0005896,0,sub_20
0.0008101999999998,0.0034678000000012,-0.0038307999999999,-0.0008615999999995,-0.0006819999999991,-6.299999999990441e-05,0,sub_20
0.0005531999999998,0.0038868000000012,-0.0041915999999999,-0.0004367999999995,-0.0008957999999991,-0.0004959999999999,0,sub_20
0.0006041999999998,0.0040332000000012,-0.0044581999999999,-1.0999999999560756e-05,-0.001108799999999,-0.0011427999999999,0,sub_20
0.0003855999999998,0.0042566000000012,-0.0042105999999998,0.0002024000000004,-0.000683599999999,-0.0013645999999999,0,sub_20
-0.0001830000000001,0.0042268000000012,-0.0043083999999998,0.0001974000000004,-0.000686399999999,-0.0009463999999999,0,sub_20
7.539999999978974e-05,0.0043510000000012,-0.0046183999999998,-0.0002293999999995,-0.0002603999999991,-0.0005225999999999,0,sub_20
0.0002295999999997,0.0041630000000012,-0.0045541999999998,-0.0008695999999995,-4.599999999912545e-05,-0.0003137999999999,0,sub_20
-0.0004182000000001,0.0043858000000012,-0.0042361999999998,-0.0004427999999995,0.0003770000000008,0.000116,0,sub_20
-0.0011248000000001,0.0042546000000012,-0.0040981999999998,-2.0999999999560734e-05,-5.299999999912549e-05,0.0007604,0,sub_20
-0.0013568000000001,0.0036488000000012,-0.0038075999999998,0.0006172000000004,0.0003692000000008,0.0011838,0,sub_20
-0.0014780000000001,0.0027200000000012,-0.0037383999999998,0.0016810000000004,0.0003644000000008,0.001397,0,sub_20
9.819999999980956e-05,0.0019170000000012,-0.0033549999999998,0.0031794000000004,0.0010018000000008,0.0005442,0,sub_20
0.0017833999999998,0.0017752000000012,-0.0031115999999998,0.0042450000000004,-0.0002743999999991,-0.0009499999999999,0,sub_20
0.0035197999999998,0.0018630000000012,-0.0025489999999998,0.0050956000000004,-0.0021881999999991,-0.0026585999999999,0,sub_20
0.0051617999999998,0.0027912000000012,-0.0026455999999998,0.0057290000000004,-0.0051671999999991,-0.0041457999999999,0,sub_20
0.0056361999999998,0.0047818000000012,-0.0026911999999998,0.0055070000000004,-0.0081447999999991,-0.0052117999999999,0,sub_20
0.0039419999999998,0.0064178000000012,-0.0021473999999998,0.0054900000000004,-0.0111335999999991,-0.0041433999999999,0,sub_20
0.0031199999999998,0.0079656000000012,-0.0023979999999998,0.0046188000000004,-0.0130591999999991,-0.0018007999999999,0,sub_20
0.0027941999999998,0.0093588000000012,-0.0040043999999998,0.0039626000000004,-0.0143471999999991,0.0007564,0,sub_20
0.0022301999999998,0.0101616000000012,-0.0040445999999998,0.0031018000000004,-0.0141415999999991,0.0028828,0,sub_20
0.0017741999999998,0.0097414000000012,-0.0031837999999999,0.0026726000000004,-0.0128721999999991,0.005011,0,sub_20
0.0004189999999998,0.0098478000000012,-0.0040539999999999,0.0013848000000004,-0.0126623999999991,0.0069244,0,sub_20
-0.0010744000000001,0.0080976000000011,-0.0051567999999999,0.0015942000000004,-0.0122421999999991,0.0082072,0,sub_20
-0.0026334000000001,0.0056770000000011,-0.0046701999999999,0.0022392000000004,-0.0096937999999991,0.009704,0,sub_20
-0.0045424000000001,0.0033374000000011,-0.0049855999999999,0.0020380000000004,-0.0058659999999991,0.0109754,0,sub_20
-0.0059736000000001,0.0015058000000011,-0.0067397999999999,0.0009902000000004,-0.0009681999999991,0.0118122,0,sub_20
-0.0058488000000001,-0.0013453999999987,-0.0069299999999999,-0.0009025999999995,0.0043646000000008,0.011147,0,sub_20
-0.0055036000000001,-0.0030213999999987,-0.0059287999999999,-0.0047041999999995,0.0114120000000008,0.0096118,0,sub_20
-0.0055754000000001,-0.0039143999999987,-0.0059037999999999,-0.0085077999999995,0.0167600000000008,0.0067968,0,sub_20
-0.0046088000000001,-0.0037083999999987,-0.0051609999999999,-0.0103983999999995,0.0195518000000008,0.0029344,0,sub_20
-0.0025626000000001,-0.0028287999999987,-0.0036641999999999,-0.0112279999999995,0.0204248000000008,-0.0015589999999999,0,sub_20
-0.0003830000000001,-0.0002725999999987,-0.0026209999999999,-0.0107763999999995,0.0217186000000008,-0.0058303999999999,0,sub_20
0.0017051999999998,0.0023456000000012,-0.0018525999999999,-0.0090577999999995,0.0208734000000008,-0.0094529999999999,0,sub_20
0.0041051999999998,0.0046604000000012,-0.0010377999999999,-0.0073507999999995,0.0189570000000008,-0.0115789999999999,0,sub_20
0.0054197999999998,0.0066008000000012,-0.0008917999999999,-0.0062905999999995,0.0172492000000008,-0.0120003999999999,0,sub_20
0.0054473999999998,0.0079826000000012,-0.0012891999999999,-0.0052409999999995,0.0151076000000008,-0.0104985999999999,0,sub_20
0.0056409999999998,0.0081390000000012,-0.0014283999999998,-0.0035607999999995,0.0123188000000008,-0.0074959999999999,0,sub_20
0.0056359999999998,0.0080472000000012,-0.0020645999999998,-0.0016739999999995,0.0082506000000008,-0.0040593999999999,0,sub_20
0.0060789999999998,0.0078674000000012,-0.0023099999999998,-0.0004223999999995,0.0041888000000009,-0.0016951999999999,0,sub_20
0.0065977999999998,0.0068786000000012,-0.0025811999999998,0.0001890000000004,-0.000507399999999,2.420000000009572e-05,0,sub_20
0.0068897999999997,0.0062568000000012,-0.0028563999999998,0.0008040000000004,-0.004988199999999,0.0008862,0,sub_20
0.0063449999999997,0.0062068000000012,-0.0033717999999998,0.0007836000000004,-0.009462599999999,0.0006756,0,sub_20
0.0049731999999997,0.0060236000000012,-0.0031853999999999,0.0003460000000004,-0.0120171999999991,0.000246,0,sub_20
0.0033859999999997,0.0059138000000012,-0.0030537999999999,0.0005514000000004,-0.013722599999999,3.340000000009568e-05,0,sub_20
0.0024261999999997,0.0065558000000012,-0.0028567999999999,0.0011854000000004,-0.014578999999999,0.00025,0,sub_20
0.0017129999999998,0.0057470000000012,-0.0025501999999999,0.0018178000000004,-0.016285599999999,0.0002566,0,sub_20
0.0014773999999998,0.0041334000000012,-0.0024533999999999,0.0028808000000004,-0.017353799999999,5.180000000007572e-05,0,sub_20
0.0017643999999998,0.0032482000000012,-0.0034311999999999,0.0037314000000004,-0.018632599999999,-0.0005815999999999,0,sub_20
0.0013275999999998,0.0029144000000012,-0.0040569999999999,0.0039336000000004,-0.0196839999999991,-0.0014315999999999,0,sub_20
0.0004221999999998,0.0020216000000012,-0.0044827999999998,0.0041378000000004,-0.0200969999999991,-0.0020687999999999,0,sub_20
-0.0007378000000001,0.0024814000000012,-0.0044643999999998,0.0039220000000004,-0.019017199999999,-0.0027107999999999,0,sub_20
-0.0017640000000001,0.0028516000000012,-0.0043395999999998,0.0028488000000003,-0.017937799999999,-0.0025041999999999,0,sub_20
-0.0033286000000001,0.0029038000000012,-0.0035035999999998,0.0019852000000003,-0.016650399999999,-0.0012279999999999,0,sub_20
-0.0039450000000001,0.0032162000000012,-0.0037575999999998,0.0015614000000004,-0.014524199999999,0.0002618,0,sub_20
-0.0042226000000001,0.0036462000000012,-0.0040689999999999,0.0007166000000004,-0.011330599999999,0.0015338,0,sub_20
-0.0037992000000001,0.0039064000000012,-0.0050247999999999,0.0005148000000004,-0.0077121999999991,0.002596,0,sub_20
-0.0037786000000001,0.0041724000000012,-0.0052815999999999,0.0007356000000004,-0.0034277999999991,0.0027914,0,sub_20
-0.0029634000000001,0.0043680000000012,-0.0057797999999999,0.0007506000000004,0.0015008000000008,0.0019162,0,sub_20
-0.0028100000000001,0.0040032000000012,-0.0052909999999999,0.0009742000000004,0.0055754000000008,0.0012572,0,sub_20
-0.0022282000000001,0.0036506000000012,-0.0049529999999998,0.0016168000000004,0.0077320000000008,0.00039,0,sub_20
-0.0019140000000001,0.0034290000000012,-0.0041411999999998,0.0014050000000004,0.0098908000000008,-0.0002693999999998,0,sub_20
-0.0010158000000001,0.0042734000000012,-0.0038713999999998,0.0007726000000004,0.0113852000000008,-0.0004893999999998,0,sub_20
0.0002677999999998,0.0046310000000012,-0.0034557999999998,0.0001334000000004,0.0120248000000008,-6.739999999988422e-05,0,sub_20
0.0017313999999997,0.0049314000000012,-0.0031415999999998,-0.0005075999999995,0.0124506000000008,0.0005686,0,sub_20
0.0024949999999997,0.0050120000000012,-0.0032095999999998,-0.0011475999999995,0.0130894000000008,0.0012042,0,sub_20
0.0032291999999997,0.0048436000000012,-0.0032031999999998,-0.0015711999999995,0.0126458000000008,0.0018354,0,sub_20
0.0036949999999997,0.0042372000000012,-0.0030423999999998,-0.0022101999999995,0.0115646000000008,0.0022524,0,sub_20
0.0034787999999997,0.0042998000000012,-0.0028811999999998,-0.0024203999999995,0.0104838000000008,0.002245,0,sub_20
0.0036017999999997,0.0044274000000012,-0.0030733999999998,-0.0026297999999995,0.0091916000000008,0.0018106,0,sub_20
0.0040337999999998,0.0047878000000012,-0.0029053999999998,-0.0026267999999995,0.0072612000000008,0.0009512,0,sub_20
0.0045553999999998,0.0053112000000011,-0.0028103999999998,-0.0019923999999995,0.0051318000000008,0.0001038,0,sub_20
0.0048559999999998,0.0057040000000011,-0.0031007999999998,-0.0011445999999995,0.0030018000000008,-0.0007421999999999,0,sub_20
0.0042109999999998,0.0061602000000011,-0.0030625999999998,-7.699999999956075e-05,0.0004244000000008,-0.0011559999999999,0,sub_20
0.0029237999999998,0.0062368000000011,-0.0028227999999998,0.0005668000000004,-0.0013001999999991,-0.0013601999999998,0,sub_20
0.0017769999999998,0.0064468000000012,-0.0028885999999998,0.0007810000000004,-0.0026013999999991,-0.0004997999999998,0,sub_20
0.0004773999999998,0.0056698000000012,-0.0028289999999998,0.0007816000000004,-0.0036895999999991,0.0005724,0,sub_20
-0.0001772000000001,0.0052030000000012,-0.0027307999999998,0.0007862000000004,-0.0039255999999991,0.0016436,0,sub_20
0.0002939999999998,0.0042432000000012,-0.0028177999999998,0.0005690000000004,-0.0041403999999991,0.0022834,0,sub_20
0.0005131999999998,0.0040942000000012,-0.0035651999999998,0.0005660000000004,-0.0045671999999991,0.0024976,0,sub_20
0.0006533999999998,0.0033568000000012,-0.0038929999999999,0.0003584000000004,-0.0039247999999991,0.0018544,0,sub_20
0.0004517999999998,0.0035100000000012,-0.0040121999999999,0.0001518000000004,-0.0034937999999991,0.0007842,0,sub_20
-0.0003398000000001,0.0030864000000012,-0.0039709999999999,0.0001550000000004,-0.0041075999999991,-6.719999999990427e-05,0,sub_20
-0.0015882000000001,0.0030938000000012,-0.0043325999999999,-5.319999999956078e-05,-0.0036579999999991,-0.0002805999999999,0,sub_20
-0.0019026000000001,0.0028936000000012,-0.0041373999999999,-0.0008983999999995,-0.0021427999999991,-7.239999999990436e-05,0,sub_20
-0.0016118000000001,0.0032174000000012,-0.0041269999999999,-0.0011055999999995,-0.0010555999999991,0.0001408,0,sub_20
-0.0003262000000001,0.0034778000000012,-0.0040613999999999,-0.0013109999999995,0.0004576000000008,0.0003534,0,sub_20
0.0007869999999998,0.0048040000000012,-0.0045317999999999,-0.0010879999999995,0.0025874000000008,0.0003522,0,sub_20
0.0013253999999998,0.0049370000000012,-0.0044619999999999,-0.0008667999999995,0.0040788000000008,0.0001382,0,sub_20
0.0017863999999998,0.0043370000000012,-0.0037709999999999,0.0001980000000004,0.0038968000000008,0.0001472,0,sub_20
0.0018073999999998,0.0038674000000012,-0.0035671999999999,0.0008342000000004,0.0030778000000008,-5.959999999990432e-05,0,sub_20
0.0022149999999998,0.0038862000000012,-0.0038005999999999,0.0010428000000004,0.0024718000000008,0.0001578,0,sub_20
0.0024837999999998,0.0033158000000012,-0.0034569999999999,0.0003988000000004,0.0020818000000008,0.000369,0,sub_20
0.0025195999999998,0.0035700000000012,-0.0029363999999999,-0.0004577999999995,0.0019056000000008,0.0005782,0,sub_20
0.0026001999999998,0.0038524000000012,-0.0032897999999999,-0.0010979999999995,0.0021200000000008,0.0007872,0,sub_20
0.0023999999999998,0.0041702000000012,-0.0034877999999999,-0.0017419999999995,0.0019066000000008,0.001424,0,sub_20
0.0016561999999998,0.0041894000000012,-0.0037479999999999,-0.0019573999999995,0.0014812000000008,0.001423,0,sub_20
0.0011297999999998,0.0042756000000012,-0.0035509999999999,-0.0017455999999995,0.0012702000000009,0.001211,0,sub_20
0.0011787999999998,0.0040982000000012,-0.0040111999999999,-0.0015345999999995,0.0006340000000009,0.000786,0,sub_20
0.0014181999999998,0.0049554000000012,-0.0043223999999999,-0.0006845999999995,-0.000429599999999,0.0001522,0,sub_20
0.0015113999999998,0.0048430000000012,-0.0041857999999999,0.0003826000000004,-0.000641799999999,-0.0004811999999999,0,sub_20
0.0012241999999998,0.0045280000000012,-0.0043563999999999,0.0008098000000004,-0.0004273999999991,-0.0006921999999999,0,sub_20
0.0011603999999998,0.0039204000000012,-0.0043949999999999,0.0005964000000004,-0.0004267999999991,-0.0006937999999999,0,sub_20
0.0017621999999997,0.0033324000000012,-0.0043497999999999,0.0006002000000004,0.0002132000000008,-0.0009081999999999,0,sub_20
0.0020789999999997,0.0020880000000011,-0.0043217999999999,-0.0008865999999995,0.0014976000000008,-0.0011339999999999,0,sub_20
0.0024317999999997,0.0020936000000011,-0.0043017999999999,-0.0025891999999995,0.0021336000000008,-0.0011481999999999,0,sub_20
0.0021977999999997,0.0023556000000011,-0.0036465999999999,-0.0036497999999995,0.0027690000000008,-0.0015853999999999,0,sub_20
0.0017163999999997,0.0023156000000011,-0.0031723999999999,-0.0036463999999995,0.0029738000000008,-0.0018007999999998,0,sub_20
0.0016511999999997,0.0034424000000011,-0.0035889999999999,-0.0036487999999995,0.0019002000000008,-0.0020147999999998,0,sub_20
