userAcceleration.x,userAcceleration.y,userAcceleration.z,rotationRate.x,rotationRate.y,rotationRate.z,label,subject
0.0188333999999997,0.0225080000000012,-0.0049657999999998,-0.0001117999999996,-0.0005993999999991,-0.0029713999999999,0,sub_21
0.0187543999999997,0.0219746000000012,-0.0048863999999998,0.0005312000000003,0.0010984000000008,-0.0019007999999999,0,sub_21
0.0182689999999997,0.0234066000000012,-0.0050115999999998,0.0005140000000004,-0.0004023999999991,0.0004512,0,sub_21
0.0186513999999997,0.0250560000000012,-0.0049627999999998,0.0015664000000003,-0.0021163999999991,0.0019562,0,sub_21
0.0204835999999997,0.0307962000000012,0.0011482,0.0107586000000003,-0.0006475999999991,-0.0003315999999999,0,sub_21
0.0274119999999997,0.0397690000000012,0.0028238,0.0339346000000003,-0.021384799999999,-0.0027067999999999,0,sub_21
0.0317825999999997,0.0440272000000012,0.017451,0.0723792000000003,-0.017453799999999,-0.0067161999999999,0,sub_21
0.0272285999999997,0.0499390000000012,0.0218154,0.1472486000000003,-0.079890199999999,-0.0155135999999999,0,sub_21
0.0236111999999997,0.0582004000000012,0.0252956,0.2390234000000003,-0.211263599999999,-0.0089357999999999,0,sub_21
0.0141293999999998,0.0526802000000012,0.009332,0.3202504000000004,-0.3933767999999991,0.0149386,0,sub_21
-0.0016144000000001,0.0185976000000012,-0.0232253999999999,0.3369242000000004,-0.4625413999999991,0.034158,0,sub_21
-0.0165480000000001,0.0070114000000012,-0.0610235999999999,0.2704502000000003,-0.4085565999999991,0.0180284,0,sub_21
-0.0198580000000001,-0.0020573999999987,-0.0741201999999998,0.1595092000000003,-0.2641385999999991,0.0160002,0,sub_21
-0.0232008000000001,-0.0122957999999987,-0.0672213999999998,0.0377394000000003,-0.0619385999999991,0.0123268,0,sub_21
-0.0218134000000001,-0.0114917999999987,-0.0497841999999999,-0.0696037999999996,0.1573034000000008,-0.0032317999999999,0,sub_21
-0.0195730000000001,0.0147136000000012,-0.0143259999999999,-0.1190025999999996,0.2623520000000009,-0.0167437999999999,0,sub_21
-0.0094386000000002,0.0277940000000012,0.01053,-0.0889827999999996,0.2146774000000009,-0.0019451999999999,0,sub_21
-0.0016108000000002,0.0369194000000012,0.023217,-0.0408759999999996,0.1422798000000008,-0.0006617999999999,0,sub_21
0.0051977999999997,0.0434150000000012,0.016665,0.0021482000000003,0.0680244000000008,-0.0098801999999999,0,sub_21
0.0152901999999997,0.0463172000000012,0.0076178,0.0303522000000003,0.0200250000000008,-0.0188083999999999,0,sub_21
0.0299695999999997,0.0455234000000012,-0.0016361999999999,0.0456718000000003,0.0046544000000008,-0.0244499999999998,0,sub_21
0.0413927999999997,0.0377830000000012,-0.0062063999999999,0.0441802000000003,0.0025288000000008,-0.0227399999999998,0,sub_21
0.0517885999999997,0.0306934000000012,-0.0084187999999999,0.0302984000000004,0.0019190000000008,-0.0164183999999998,0,sub_21
0.0601969999999997,0.0264930000000012,-0.0110001999999999,0.0149614000000003,0.0113220000000008,-0.0086239999999998,0,sub_21
0.0598027999999997,0.0252912000000012,-0.0095505999999998,0.0058266000000003,0.0247478000000008,6.30000000000866e-05,0,sub_21
0.0502239999999997,0.0276006000000012,-0.0048823999999998,0.0021934000000003,0.0275034000000008,0.0083748,0,sub_21
0.0342541999999997,0.0310958000000012,-0.0009549999999998,0.0051048000000003,0.0191498000000008,0.0169516,0,sub_21
0.0181455999999997,0.0323524000000012,-0.0029965999999998,0.0118542000000003,0.0086582000000008,0.0240624,0,sub_21
0.0018575999999997,0.0319888000000012,-0.0064811999999998,0.0162918000000003,0.0003282000000008,0.0253858,0,sub_21
-0.0089026000000002,0.0292182000000012,-0.0076675999999999,0.0156508000000003,-0.0045509999999991,0.0206874,0,sub_21
-0.0137332000000002,0.0252370000000012,-0.0079173999999999,0.0122752000000003,-0.0051415999999991,0.0114778,0,sub_21
-0.0120002000000002,0.0210478000000012,-0.0092331999999998,0.0048694000000003,-0.0025137999999991,9.960000000006768e-05,0,sub_21
-0.0069452000000002,0.0174438000000012,-0.0080361999999998,-0.0044365999999996,0.0033218000000008,-0.0125777999999999,0,sub_21
0.0012227999999997,0.0164058000000012,-0.0062865999999998,-0.0128773999999996,0.0140452000000008,-0.0229053999999999,0,sub_21
0.0105655999999997,0.0175194000000012,-0.0054101999999998,-0.0177187999999996,0.0243068000000008,-0.0274387999999999,0,sub_21
0.0206917999999997,0.0207650000000012,-0.0054663999999998,-0.0215343999999996,0.0336792000000008,-0.0236317999999999,0,sub_21
0.0274669999999997,0.0250444000000012,-0.0053541999999998,-0.0243157999999995,0.0413214000000008,-0.0142605999999999,0,sub_21
0.0309115999999997,0.0306354000000012,-0.0063469999999998,-0.0256181999999995,0.0495820000000008,-0.0010343999999999,0,sub_21
0.0306767999999997,0.0325348000000012,-0.0082171999999998,-0.0271529999999995,0.0561288000000008,0.0147562,0,sub_21
0.0275455999999997,0.0323048000000012,-0.0093775999999999,-0.0353015999999995,0.0607898000000008,0.0283664,0,sub_21
0.0246739999999997,0.0311236000000012,-0.0084619999999999,-0.0475061999999995,0.0565508000000008,0.033414,0,sub_21
0.0204475999999997,0.0304574000000012,-0.0066525999999999,-0.0571079999999995,0.0527646000000008,0.0295062,0,sub_21
0.0145173999999997,0.0278130000000012,-0.0047047999999999,-0.0647853999999995,0.0453678000000008,0.02113,0,sub_21
0.0115339999999997,0.0272004000000012,-0.0019087999999999,-0.0703303999999995,0.0343554000000008,0.009355,0,sub_21
0.0111523999999997,0.0273336000000012,0.0007116,-0.0688327999999996,0.0224704000000008,-0.0034377999999998,0,sub_21
0.0083985999999997,0.0268366000000012,0.0010908,-0.0592059999999996,0.0190638000000008,-0.0123391999999998,0,sub_21
0.0057393999999997,0.0244712000000012,-8.67999999999312e-05,-0.0506691999999995,0.0167016000000008,-0.0150539999999998,0,sub_21
0.0060785999999997,0.0226442000000012,-0.0017853999999999,-0.0432145999999995,0.0162392000000008,-0.0124375999999999,0,sub_21
0.0052181999999997,0.0209080000000012,-0.0030003999999999,-0.0353483999999996,0.0155494000000008,-0.0066133999999999,0,sub_21
0.0037415999999997,0.0213070000000012,-0.0036699999999998,-0.0281129999999996,0.0184778000000008,0.0006972,0,sub_21
0.0025953999999997,0.0219454000000012,-0.0036867999999998,-0.0240809999999996,0.0205660000000008,0.007773,0,sub_21
0.0052901999999997,0.0245526000000012,-0.0025595999999998,-0.0187695999999996,0.0203146000000008,0.0127242,0,sub_21
0.0095055999999997,0.0269166000000012,-0.0028645999999998,-0.0132449999999995,0.0170918000000008,0.0146898,0,sub_21
0.0137823999999997,0.0295382000000012,-0.0036003999999998,-0.0089775999999995,0.0162280000000008,0.0138662,0,sub_21
0.0175101999999997,0.0307994000000012,-0.0046145999999999,-0.0070601999999995,0.0128234000000008,0.0111066,0,sub_21
0.0220195999999997,0.0318962000000012,-0.0045185999999999,-0.0049311999999995,0.0092044000000008,0.0085624,0,sub_21
0.0247821999999997,0.0310830000000012,-0.0046425999999999,-0.0028003999999995,0.0072846000000008,0.007298,0,sub_21
0.0261213999999997,0.0295808000000012,-0.0042235999999999,-0.0010913999999995,0.0066436000000008,0.0062424,0,sub_21
0.0264207999999997,0.0277084000000012,-0.0040245999999999,0.0008270000000003,0.0047254000000008,0.0047626,0,sub_21
0.0245393999999997,0.0249444000000012,-0.0042253999999999,0.0031790000000003,0.0042972000000008,0.003284,0,sub_21
0.0212865999999997,0.0232372000000012,-0.0045909999999999,0.0046764000000004,0.0036588000000008,0.0017996,0,sub_21
0.0183719999999997,0.0224596000000012,-0.0046213999999999,0.0050974000000003,0.0013180000000008,0.0007372,0,sub_21
0.0142905999999997,0.0232518000000012,-0.0046517999999999,0.0042410000000003,-0.0003789999999991,-0.0003347999999999,0,sub_21
0.0109161999999997,0.0239000000000011,-0.0039713999999999,0.0029636000000003,-0.0005841999999991,-0.0011979999999999,0,sub_21
0.0095641999999997,0.0256478000000011,-0.0027263999999999,0.0027474000000004,-0.001647199999999,-0.0016253999999999,0,sub_21
0.0089013999999997,0.0265350000000011,-0.0035415999999999,0.0012500000000003,-0.002918599999999,-0.0020613999999999,0,sub_21
0.0077461999999997,0.0269968000000011,-0.0050737999999999,-0.0006645999999996,-0.002057999999999,-0.0025031999999999,0,sub_21
0.0089013999999997,0.0264922000000011,-0.0045885999999999,-0.0019353999999996,-0.0001351999999991,-0.0027281999999999,0,sub_21
0.0110283999999997,0.0262372000000011,-0.0045975999999999,-0.0023697999999995,-0.0009891999999991,-0.0018755999999999,0,sub_21
0.0135061999999997,0.0271840000000012,-0.0050463999999999,-0.0047197999999995,-0.0009833999999991,-0.0012509999999999,0,sub_21
0.0159279999999997,0.0277912000000012,-0.0032609999999999,-0.0053483999999995,0.0017876000000008,-0.0010453999999999,0,sub_21
0.0185937999999997,0.0280126000000012,-0.0014599999999999,-0.0034069999999995,0.0026316000000008,-0.0010349999999999,0,sub_21
0.0186277999999997,0.0276226000000012,-0.0036753999999999,-0.0012683999999995,-0.0005715999999991,-0.0014453999999999,0,sub_21
0.0158185999999997,0.0276388000000012,-0.0045635999999999,-0.0006089999999996,-0.0005737999999991,-0.0018701999999999,0,sub_21
0.0122629999999997,0.0261514000000012,-0.0034279999999999,0.0009058000000004,0.0013326000000008,-0.0007961999999999,0,sub_21
0.0089403999999997,0.0242112000000012,-0.0038793999999999,0.0024038000000004,0.0004472000000008,0.0024168,0,sub_21
0.0063757999999997,0.0220110000000012,-0.0057745999999999,0.0015328000000004,-0.0008571999999991,0.0062568,0,sub_21
0.0060835999999997,0.0210242000000012,-0.0049811999999999,4.180000000041945e-05,0.0010416000000008,0.0088066,0,sub_21
0.0085301999999997,0.0206818000000012,-0.0036471999999999,-0.0018635999999995,0.0031652000000008,0.0087894,0,sub_21
0.0119391999999997,0.0209996000000012,-0.0037291999999999,-0.0035537999999995,0.0031676000000008,0.0062128,0,sub_21
0.0160891999999997,0.0230606000000012,-0.0041743999999999,-0.0050319999999995,0.0023376000000008,0.0019306,0,sub_21
0.0197399999999997,0.0263958000000012,-0.0038811999999999,-0.0056471999999995,0.0027864000000008,-0.0032017999999999,0,sub_21
0.0210039999999997,0.0297690000000012,-0.0030689999999999,-0.0056241999999995,0.0047166000000008,-0.0064087999999999,0,sub_21
0.0214535999999997,0.0320620000000012,-0.0021955999999999,-0.0042893999999995,0.0052402000000008,-0.0066327999999999,0,sub_21
0.0203443999999997,0.0329564000000012,-0.0023415999999999,-0.0027563999999996,0.0046886000000008,-0.0045039999999999,0,sub_21
0.0186647999999997,0.0308766000000012,-0.0023289999999999,-0.0014339999999996,0.0054134000000008,-0.0017373999999999,0,sub_21
0.0160587999999997,0.0284064000000012,-0.0008999999999999,-0.0024423999999996,0.0095560000000008,0.000795,0,sub_21
0.0160971999999997,0.0246212000000012,0.0073722,-0.0267519999999996,0.0487324000000008,0.0003422,0,sub_21
0.0157115999999997,0.0230380000000012,0.014229,-0.0702669999999996,0.0993780000000009,0.000187,0,sub_21
0.0197017999999997,0.0261768000000012,0.0188626,-0.1473127999999996,0.1933800000000008,0.0025194,0,sub_21
0.0183905999999997,0.0264016000000012,0.0127704000000001,-0.2426703999999995,0.2985146000000008,0.0072734,0,sub_21
0.0162405999999997,0.0206202000000012,-0.0071543999999998,-0.3025853999999995,0.3575200000000008,0.0087022,0,sub_21
0.0140003999999997,0.0219656000000012,-0.0329997999999998,-0.2788929999999996,0.3099334000000008,0.007006,0,sub_21
0.0141369999999997,0.0254096000000012,-0.0410025999999998,-0.2131669999999995,0.2596526000000008,0.0032566,0,sub_21
0.0105813999999997,0.0232928000000012,-0.0321439999999998,-0.1262677999999996,0.1711676000000009,-0.0020049999999999,0,sub_21
0.0123987999999997,0.0257980000000012,-0.0165377999999999,-0.0396387999999996,0.0694632000000008,-0.0063991999999999,0,sub_21
0.0165317999999997,0.0359072000000012,0.0059356,0.0040430000000004,0.0081524000000008,-0.0051631999999999,0,sub_21
0.0197157999999997,0.0363458000000012,0.0211606,-0.0125533999999995,0.0247906000000008,0.0023886,0,sub_21
0.0209791999999997,0.0320640000000012,0.0185208000000001,-0.0483793999999995,0.0357434000000008,0.0098134,0,sub_21
0.0196437999999997,0.0293236000000012,0.0035976000000001,-0.0652439999999996,0.0349332000000008,0.0120446,0,sub_21
0.0202029999999997,0.0279272000000012,-0.0068237999999998,-0.0569129999999995,0.0340638000000008,0.009113,0,sub_21
0.0196143999999997,0.0250488000000012,-0.0091073999999998,-0.0412839999999995,0.0404222000000008,0.003873,0,sub_21
0.0181587999999997,0.0246510000000012,-0.0040303999999998,-0.0267527999999995,0.0406032000000008,-0.0007259999999999,0,sub_21
0.0158937999999997,0.0266828000000012,-0.0022701999999999,-0.0167625999999995,0.0294996000000008,-0.0032057999999998,0,sub_21
0.0154691999999997,0.0292522000000012,-0.0028709999999999,-0.0161377999999995,0.0277860000000008,-0.0014901999999999,0,sub_21
0.0124815999999997,0.0308154000000012,-0.0031265999999999,-0.0221101999999995,0.0314160000000008,0.001668,0,sub_21
0.0104665999999997,0.0311116000000012,-0.0046413999999999,-0.0232173999999995,0.0271400000000008,0.0063658,0,sub_21
0.0106917999999997,0.0319908000000012,-0.0065953999999999,-0.0222069999999995,0.0183858000000008,0.0102296,0,sub_21
0.0128983999999997,0.0303330000000012,-0.0052171999999998,-0.0209383999999995,0.0177346000000008,0.0121622,0,sub_21
0.0154867999999997,0.0283286000000012,-0.0036801999999998,-0.0164747999999995,0.0140962000000008,0.0124118,0,sub_21
0.0181329999999997,0.0267598000000012,-0.0025891999999998,-0.0113825999999995,0.0070500000000008,0.0118154,0,sub_21
0.0200145999999997,0.0267494000000012,-0.0018225999999998,-0.0090383999999995,0.0049172000000008,0.010339,0,sub_21
0.0201203999999997,0.0271996000000012,-0.0014377999999998,-0.0081695999999995,0.0066254000000008,0.0086338,0,sub_21
0.0188583999999997,0.0279060000000012,-0.0010479999999998,-0.0083703999999995,0.0079104000000008,0.0071352,0,sub_21
0.0176933999999997,0.0287166000000011,-0.0014947999999998,-0.0102639999999995,0.0117606000000008,0.0049806,0,sub_21
0.0174481999999997,0.0286488000000012,-0.0022521999999998,-0.0132225999999995,0.0156164000000008,0.0023914,0,sub_21
0.0165599999999997,0.0287812000000011,-0.0029513999999999,-0.0142701999999995,0.0169104000000008,-0.0006085999999999,0,sub_21
0.0162875999999997,0.0284732000000011,-0.0022441999999999,-0.0142567999999995,0.0169224000000008,-0.0035995999999999,0,sub_21
0.0159167999999997,0.0279452000000011,-0.0020763999999999,-0.0116847999999995,0.0173480000000008,-0.0057185999999999,0,sub_21
0.0161623999999997,0.0280202000000011,-0.0034211999999999,-0.0078545999999995,0.0147788000000008,-0.0059021999999999,0,sub_21
0.0158791999999997,0.0295122000000011,-0.0027253999999999,-0.0029631999999995,0.0128372000000008,-0.0041563999999999,0,sub_21
0.0160209999999997,0.0306384000000012,-0.0003835999999999,-0.0023229999999995,0.0151692000000008,-0.0018047999999999,0,sub_21
0.0147445999999997,0.0309724000000012,-0.0016757999999999,-0.0029439999999995,0.0170530000000008,0.000105,0,sub_21
0.0156235999999997,0.0309290000000012,-0.0042481999999999,-0.0031335999999995,0.0174542000000008,-0.0005441999999999,0,sub_21
0.0170491999999997,0.0298236000000012,-0.0039707999999999,-0.0016093999999995,0.0191286000000008,-0.0013967999999999,0,sub_21
0.0176527999999997,0.0282152000000012,-0.0035235999999999,0.0003242000000004,0.0171788000000008,-0.0020281999999999,0,sub_21
0.0174809999999997,0.0267130000000012,-0.0045241999999999,0.0026740000000004,0.0124594000000008,-0.0030803999999998,0,sub_21
0.0200109999999997,0.0279698000000012,-0.0061443999999999,0.0068944000000004,0.0017926000000008,-0.0032509999999999,0,sub_21
0.0205517999999997,0.0293882000000012,-0.0051775999999999,0.0151354000000004,-0.0123133999999991,0.0006702,0,sub_21
0.0203833999999997,0.0320686000000012,-0.0031163999999999,0.0216674000000004,-0.0262027999999991,0.0052202,0,sub_21
0.0215919999999997,0.0350942000000012,-0.0013745999999999,0.0247950000000004,-0.0371009999999991,0.0105972,0,sub_21
0.0232939999999997,0.0375574000000012,0.0003538,0.0234370000000004,-0.046077999999999,0.0189314,0,sub_21
0.0213569999999997,0.0352346000000012,0.0020474,0.0152866000000004,-0.046299199999999,0.0280616,0,sub_21
0.0179897999999997,0.0319926000000012,0.0007500000000001,0.0039894000000004,-0.040732199999999,0.0309666,0,sub_21
0.0159299999999997,0.0297592000000012,-0.0021777999999998,-0.0040707999999995,-0.033446399999999,0.0274826,0,sub_21
0.0133567999999997,0.0271314000000012,-0.0038689999999998,-0.0084785999999995,-0.023180399999999,0.0214566,0,sub_21
0.0104695999999997,0.0243478000000011,-0.0052953999999998,-0.0083835999999995,-0.0120615999999991,0.0114018,0,sub_21
0.0089991999999997,0.0247930000000011,-0.0058427999999998,-0.0059395999999995,-0.0026469999999991,-0.0007709999999999,0,sub_21
0.0101831999999997,0.0266518000000011,-0.0045859999999998,-0.0052179999999995,0.0063356000000008,-0.0099641999999999,0,sub_21
0.0111067999999997,0.0274636000000011,-0.0025525999999998,-0.0077189999999995,0.0153098000000008,-0.0142659999999999,0,sub_21
0.0124859999999997,0.0276944000000011,-0.0021573999999998,-0.0108773999999995,0.0217246000000008,-0.0172873999999999,0,sub_21
0.0150029999999997,0.0286742000000012,-0.0027515999999998,-0.0125785999999995,0.0225846000000008,-0.0177277999999999,0,sub_21
0.0189231999999997,0.0296064000000012,-0.0024217999999998,-0.0121595999999995,0.0223642000000008,-0.0162291999999999,0,sub_21
0.0223119999999997,0.0307992000000012,-0.0016231999999998,-0.0102679999999995,0.0199978000000008,-0.0121535999999999,0,sub_21
0.0239819999999997,0.0311486000000012,-0.0012859999999998,-0.0088347999999995,0.0127240000000008,-0.0059385999999999,0,sub_21
0.0244519999999997,0.0312796000000012,-0.0018871999999998,-0.0074045999999995,0.0050232000000008,0.0004906,0,sub_21
0.0240479999999997,0.0305700000000012,-0.0017881999999998,-0.0061675999999995,0.0013728000000008,0.006486,0,sub_21
0.0221945999999997,0.0300738000000012,-0.0017245999999998,-0.0029955999999995,-0.001422599999999,0.0101438,0,sub_21
0.0189219999999997,0.0297142000000012,-0.0016949999999998,-0.0019325999999995,-0.001641999999999,0.0107924,0,sub_21
0.0162247999999997,0.0295776000000012,-0.0023285999999998,-0.0008397999999995,0.0017726000000009,0.0084456,0,sub_21
0.0137115999999997,0.0303100000000012,-0.0027297999999998,-0.0010205999999995,0.0047732000000009,0.0041676,0,sub_21
0.0121701999999997,0.0307894000000012,-0.0036079999999998,-0.0003555999999995,0.0052176000000009,-0.0009557999999999,0,sub_21
0.0113591999999997,0.0305048000000012,-0.0049179999999999,0.0015848000000004,0.0054410000000008,-0.0052153999999999,0,sub_21
0.0119181999999997,0.0299474000000012,-0.0053405999999998,0.0030812000000003,0.0037408000000008,-0.0075527999999999,0,sub_21
0.0132937999999997,0.0292002000000011,-0.0036951999999998,0.0035012000000003,0.0020356000000008,-0.0077613999999999,0,sub_21
0.0154359999999997,0.0277350000000011,-0.0028731999999999,0.0022066000000003,0.0009662000000008,-0.0056325999999999,0,sub_21
0.0178623999999997,0.0269988000000011,-0.0031691999999999,0.0002758000000003,0.0016002000000008,-0.0026557999999999,0,sub_21
0.0205151999999997,0.0283022000000011,-0.0022671999999999,-0.0037887999999996,0.0037270000000008,0.0017996,0,sub_21
0.0219149999999997,0.0291136000000011,-0.0026431999999999,-0.0065663999999995,0.0081894000000008,0.0071154,0,sub_21
0.0220879999999997,0.0316668000000011,-0.0008141999999999,-0.0133683999999995,0.0175732000000008,0.0106878,0,sub_21
0.0221647999999997,0.0334596000000011,-0.0008831999999998,-0.0248567999999995,0.0284656000000008,0.014012,0,sub_21
0.0207987999999997,0.0342062000000011,-0.0012527999999998,-0.0337867999999995,0.0380740000000008,0.016501,0,sub_21
0.0180101999999997,0.0321264000000011,-0.0024909999999998,-0.0420517999999995,0.0498244000000008,0.0155736,0,sub_21
0.0162241999999997,0.0311036000000011,-0.0014669999999998,-0.0513615999999995,0.0618104000000008,0.0099386,0,sub_21
0.0160281999999997,0.0298254000000011,-0.0042877999999998,-0.0519633999999995,0.0650296000000009,0.0045892,0,sub_21
0.0154939999999997,0.0304536000000012,-0.0047403999999998,-0.0389621999999995,0.0562712000000008,-0.0008635999999999,0,sub_21
0.0138437999999997,0.0316976000000012,-0.0014919999999999,-0.0306137999999995,0.0549928000000008,-0.0080675999999999,0,sub_21
0.0138043999999997,0.0339546000000012,0.0014432,-0.0260935999999995,0.0584072000000008,-0.0133813999999999,0,sub_21
0.0152473999999997,0.0352994000000012,-0.0009227999999998,-0.0180305999999995,0.0477288000000008,-0.0139523999999999,0,sub_21
0.0156903999999997,0.0340612000000012,-0.0035157999999998,-0.0085103999999995,0.0331932000000008,-0.0102351999999999,0,sub_21
0.0157425999999997,0.0307778000000012,-0.0029875999999999,-0.0083199999999995,0.0310500000000008,-0.0072399999999999,0,sub_21
0.0181063999999997,0.0288476000000012,-0.0056477999999999,-0.0053921999999995,0.0218620000000008,-0.0031483999999999,0,sub_21
0.0212249999999997,0.0285214000000012,-0.0076391999999999,0.0026038000000004,0.0024238000000008,0.002487,0,sub_21
0.0214195999999997,0.0278756000000012,-0.0045447999999999,0.0066080000000004,-0.0057033999999991,0.0082934,0,sub_21
0.0198679999999997,0.0288336000000012,-0.0006883999999999,0.0032084000000004,-0.0033493999999991,0.010189,0,sub_21
0.0191195999999997,0.0315036000000012,-0.0019611999999999,0.0010890000000004,-0.0022731999999991,0.0108132,0,sub_21
0.0184533999999997,0.0344788000000012,-0.0024509999999998,0.0004660000000004,-0.0016239999999991,0.0103802,0,sub_21
0.0159371999999997,0.0351856000000011,-0.0013289999999998,-0.0007777999999995,0.0005298000000008,0.0071636,0,sub_21
0.0150293999999997,0.0366114000000011,-0.0005969999999998,-0.0003221999999995,0.0020394000000008,0.002251,0,sub_21
0.0161979999999997,0.0360718000000012,-0.0009189999999999,0.0009764000000004,0.0014146000000008,-0.0024393999999999,0,sub_21
0.0166147999999997,0.0345418000000012,-0.0007655999999999,0.0024816000000004,0.0009952000000008,-0.0054193999999999,0,sub_21
0.0170303999999997,0.0306904000000012,-0.0010257999999999,0.0035486000000004,-6.939999999911192e-05,-0.0064787999999999,0,sub_21
0.0171861999999997,0.0279686000000012,-0.0022233999999999,0.0041772000000004,-0.0017793999999991,-0.0056175999999999,0,sub_21
0.0176361999999997,0.0264060000000012,-0.0038915999999999,0.0035188000000004,-0.0037031999999991,-0.0034831999999999,0,sub_21
0.0160565999999997,0.0265146000000012,-0.0050015999999999,0.0037178000000004,-0.0039289999999991,-0.0004903999999999,0,sub_21
0.0150623999999997,0.0272760000000012,-0.0044067999999999,0.0049798000000004,-0.005222799999999,0.0022976,0,sub_21
0.0141239999999997,0.0287134000000012,-0.0038849999999999,0.0066804000000004,-0.0069479999999991,0.0042334,0,sub_21
0.0148787999999997,0.0302026000000012,-0.0018927999999999,0.0077524000000004,-0.0075997999999991,0.004668,0,sub_21
0.0154173999999997,0.0309034000000012,-0.0008515999999999,0.0071396000000004,-0.0058917999999991,0.002524,0,sub_21
0.0171875999999997,0.0318866000000012,-0.0008519999999999,0.0073820000000004,-0.0056703999999991,-0.0015349999999999,0,sub_21
0.0194133999999997,0.0323952000000012,-0.0006087999999999,0.0076292000000004,-0.0050203999999991,-0.0062353999999999,0,sub_21
0.0212089999999997,0.0328308000000012,0.000759,0.0065796000000003,-0.0039403999999991,-0.0090213999999999,0,sub_21
0.0215131999999997,0.0327990000000012,0.0009358,0.0033886000000003,-0.0022229999999991,-0.0094731999999999,0,sub_21
0.0206985999999997,0.0319918000000012,-0.0007801999999999,0.0015534000000003,-0.0010487999999991,-0.0080149999999999,0,sub_21
0.0203605999999997,0.0307914000000012,-0.0013019999999999,0.0003478000000003,-0.000735199999999,-0.0050555999999999,0,sub_21
0.0190307999999997,0.0299200000000012,-0.0015889999999999,-7.199999999609342e-06,-0.001275999999999,-0.0023027999999999,0,sub_21
0.0178677999999997,0.0297268000000012,-0.0019121999999999,-0.0001459999999995,-0.002026999999999,-0.0004029999999999,0,sub_21
0.0163741999999997,0.0288808000000012,-0.0025841999999999,-0.0013459999999995,-0.001920399999999,0.0010612,0,sub_21
0.0154301999999997,0.0275280000000012,-0.0011729999999999,-0.0013393999999995,-0.0006411999999991,0.000846,0,sub_21
0.0139909999999997,0.0281386000000011,-0.0015501999999999,-0.0013383999999995,-0.0010647999999991,0.0002056,0,sub_21
