userAcceleration.x,userAcceleration.y,userAcceleration.z,rotationRate.x,rotationRate.y,rotationRate.z,label,subject
-0.0049884000000002,0.0148042000000012,0.0069102,0.0415882000000004,-0.051260999999999,-0.0876175999999998,0,sub_2
0.0017453999999997,0.0105370000000012,-0.0018551999999999,0.0230508000000003,-0.005549999999999,-0.0476403999999998,0,sub_2
0.0103551999999997,0.0089436000000012,-0.0076227999999999,0.0124530000000004,0.0567252000000009,-0.0010061999999999,0,sub_2
0.0172665999999998,0.0156172000000012,-0.0027457999999999,-0.0007243999999995,0.1126264000000009,0.0434818,0,sub_2
0.0231491999999997,0.0240430000000012,-0.0012661999999999,-0.0071169999999995,0.1431828000000009,0.076112,0,sub_2
0.0267115999999998,0.0219438000000012,0.0008018,-0.0039731999999995,0.1524276000000009,0.1019994,0,sub_2
0.0248129999999998,0.0217636000000011,0.0060794,-0.0048929999999995,0.1553120000000008,0.1235936,0,sub_2
0.0199405999999997,0.0160206000000012,0.0041124,-0.0056021999999995,0.1490684000000008,0.1366554000000001,0,sub_2
0.0096293999999998,0.0120676000000012,0.0010138,-0.0030829999999995,0.1430504000000008,0.1437574000000001,0,sub_2
-0.0060076000000002,0.0086506000000012,3.480000000006395e-05,0.0015968000000004,0.1290158000000009,0.1329122000000001,0,sub_2
-0.0205220000000002,0.0095646000000012,0.000411,-0.0011357999999995,0.1103884000000008,0.1049296000000001,0,sub_2
-0.0306412000000002,0.0107204000000012,-0.0004863999999999,-0.0100331999999995,0.0845882000000008,0.0645218000000001,0,sub_2
-0.0347158000000001,0.0124576000000012,-0.0009777999999999,-0.0202327999999995,0.0479508000000008,0.0181366000000001,0,sub_2
-0.0304798000000002,0.0146554000000012,-0.0023443999999999,-0.0242573999999995,0.0085136000000008,-0.0245511999999998,0,sub_2
-0.0224466000000002,0.0181324000000011,-0.0032703999999999,-0.0231533999999995,-0.0126853999999991,-0.0505623999999998,0,sub_2
-0.0156636000000001,0.0222876000000011,-0.0030313999999999,-0.0165189999999995,-0.019701599999999,-0.0583931999999998,0,sub_2
-0.0121538000000001,0.0263984000000012,-0.0025081999999999,-0.0054323999999995,-0.021241799999999,-0.0542359999999998,0,sub_2
-0.0094394000000001,0.0293268000000012,-0.0024933999999998,0.0073534000000004,-0.017702199999999,-0.0432367999999998,0,sub_2
-0.0069288000000001,0.0287006000000012,-0.0015095999999998,0.0152386000000004,-0.008189199999999,-0.0314435999999998,0,sub_2
-0.0031424000000001,0.0244198000000012,-0.0005721999999998,0.0188630000000004,-0.000989599999999,-0.0235225999999998,0,sub_2
0.0041765999999997,0.0191956000000012,-0.0005639999999999,0.0190762000000003,0.0026032000000009,-0.0201121999999999,0,sub_2
0.0111329999999998,0.0155380000000012,-0.0005425999999999,0.0148152000000003,0.0066420000000009,-0.0178017999999999,0,sub_2
0.0153295999999997,0.0125474000000012,0.0001492,0.0079842000000004,0.0091960000000009,-0.0148663999999998,0,sub_2
0.0167215999999997,0.0108004000000012,-0.0005277999999999,0.0015722000000004,0.0108928000000009,-0.0110723999999999,0,sub_2
0.0148773999999997,0.0133028000000011,-3.799999999993591e-05,-0.0073933999999995,0.0153632000000009,-0.0060179999999999,0,sub_2
0.0092951999999997,0.0156528000000011,0.0010584,-0.0133841999999995,0.0172794000000009,-0.0005075999999999,0,sub_2
0.0047283999999997,0.0167440000000011,0.0019246,-0.0148979999999995,0.0159936000000009,0.0026882,0,sub_2
-0.0011196000000002,0.0206516000000011,0.0015982,-0.0161945999999995,0.0142860000000009,0.004604,0,sub_2
-0.0077024000000002,0.0254120000000011,0.0024454,-0.0164253999999995,0.0112886000000009,0.0094622000000001,0,sub_2
-0.0143658000000002,0.0271704000000011,0.001175,-0.0104885999999995,0.0057052000000009,0.0162896000000001,0,sub_2
-0.0154324000000001,0.0256574000000012,-0.0010319999999999,-0.0030447999999995,0.0005530000000009,0.0205632,0,sub_2
-0.0149726000000001,0.0241744000000012,-0.0018275999999999,0.0010100000000004,-0.003716399999999,0.0201118000000001,0,sub_2
-0.0112628000000001,0.0196898000000012,-0.0008525999999999,0.0042372000000004,-0.007323199999999,0.0145264000000001,0,sub_2
-0.0057152000000001,0.0172154000000012,-0.0003651999999999,0.0083220000000004,-0.011341999999999,0.0036642000000001,0,sub_2
0.0013297999999998,0.0162650000000012,0.0003652,0.0115648000000004,-0.013861999999999,-0.0082739999999998,0,sub_2
0.0043309999999997,0.0181704000000012,0.000799,0.0128874000000004,-0.012555799999999,-0.0163847999999998,0,sub_2
0.0039799999999997,0.0178526000000012,0.0005212,0.0129162000000003,-0.008710599999999,-0.0189531999999999,0,sub_2
0.0024667999999997,0.0183820000000012,0.0001032,0.0122884000000004,-0.004028999999999,-0.0170407999999998,0,sub_2
0.0006379999999997,0.0168352000000012,-0.0005791999999999,0.0086792000000004,0.0034270000000009,-0.0136571999999998,0,sub_2
0.0015087999999997,0.0144310000000012,0.0006876,0.0029190000000004,0.0062066000000009,-0.0111371999999999,0,sub_2
0.0033739999999997,0.0115072000000012,0.0025596,-0.0015839999999995,0.0021708000000009,-0.0103089999999998,0,sub_2
0.0067667999999997,0.0120458000000012,0.0041072,-0.0043905999999995,-0.002516999999999,-0.0077587999999999,0,sub_2
0.0038441999999997,0.0162452000000012,0.003401,-0.0040163999999995,-0.006809199999999,-0.0002729999999999,0,sub_2
-0.0007360000000002,0.0199212000000012,0.0028510000000001,0.0003964000000004,-0.011341599999999,0.0104458,0,sub_2
-0.0089570000000002,0.0233590000000012,0.0007534000000001,0.0058914000000004,-0.012893399999999,0.020741,0,sub_2
-0.0170226000000002,0.0258382000000012,-0.0017845999999998,0.0092900000000004,-0.009099399999999,0.0280238,0,sub_2
-0.0231806000000002,0.0279222000000012,-0.0041055999999998,0.0118612000000004,-0.004005999999999,0.0308126,0,sub_2
-0.0179256000000002,0.0258750000000012,-0.0028241999999999,0.0133940000000004,0.0004798000000009,0.0265446,0,sub_2
-0.0104632000000002,0.0241400000000012,-0.0015301999999999,0.0145154000000004,0.0034954000000009,0.0173618,0,sub_2
-0.0003852000000001,0.0211288000000012,-0.0007565999999999,0.0160760000000004,0.0077938000000009,0.006685,0,sub_2
0.0089023999999997,0.0192744000000012,-0.0003651999999999,0.0171966000000004,0.0101720000000009,-0.0029241999999998,0,sub_2
0.0163775999999997,0.0172764000000012,5.9400000000064e-05,0.0161708000000004,0.0116978000000008,-0.0106245999999999,0,sub_2
0.0165999999999997,0.0141986000000012,-0.0010889999999999,0.0142792000000004,0.0136400000000008,-0.0151267999999998,0,sub_2
0.0151917999999997,0.0112666000000012,-0.0020261999999999,0.0108768000000004,0.0151476000000008,-0.0162205999999999,0,sub_2
0.0109121999999997,0.0110490000000012,-0.0026665999999999,0.0042576000000004,0.0160154000000008,-0.0143451999999999,0,sub_2
0.0066195999999997,0.0113606000000012,-0.0019103999999999,-0.0045001999999995,0.0192206000000008,-0.0090693999999999,0,sub_2
0.0027303999999998,0.0126858000000012,-0.0003343999999999,-0.0119891999999995,0.0215620000000009,-0.0020743999999999,0,sub_2
0.0001437999999998,0.0154910000000012,0.0009966,-0.0179961999999995,0.0204928000000008,0.0040806,0,sub_2
-0.0008218000000001,0.0173216000000012,0.0021446,-0.0216567999999995,0.0164180000000008,0.0082214,0,sub_2
-0.0013116000000001,0.0163034000000012,0.0028036,-0.0227531999999995,0.0100036000000008,0.0091786,0,sub_2
-0.0016766000000001,0.0172784000000012,0.0026356,-0.0217129999999995,0.0016744000000008,0.0075894,0,sub_2
-0.0041992000000001,0.0177884000000012,0.0016452,-0.0183247999999995,-0.0072985999999991,0.0051628000000001,0,sub_2
-0.0075750000000001,0.0180334000000012,0.0010594,-0.0130123999999995,-0.015001799999999,0.0031754,0,sub_2
-0.0135216000000001,0.0200158000000012,0.0008708,-0.0079097999999995,-0.018855399999999,0.0034296,0,sub_2
-0.0168796000000001,0.0238642000000012,0.0006974,-0.0036375999999995,-0.015683199999999,0.0055918,0,sub_2
-0.0189794000000001,0.0258178000000012,0.000775,0.0006470000000004,-0.009741199999999,0.0077506,0,sub_2
-0.0194536000000001,0.0277372000000012,0.000727,0.0057884000000003,-0.003057399999999,0.0092684,0,sub_2
-0.0172692000000001,0.0284260000000012,-0.0006985999999999,0.0107232000000003,0.0046942000000009,0.010356,0,sub_2
-0.0115310000000001,0.0269332000000012,-0.0017311999999999,0.0154494000000003,0.0111776000000009,0.0090938000000001,0,sub_2
-0.0051492000000001,0.0236302000000012,-0.0011381999999999,0.0201632000000003,0.0123450000000009,0.0052744000000001,0,sub_2
0.0023835999999997,0.0192998000000012,-0.0005229999999999,0.0246570000000003,0.0096874000000009,-0.0008915999999998,0,sub_2
0.0114353999999997,0.0151962000000012,0.0003108,0.0261574000000004,0.0050198000000009,-0.0070709999999998,0,sub_2
0.0183087999999997,0.0130724000000012,0.0019862,0.0252934000000004,-0.002201399999999,-0.0119815999999998,0,sub_2
0.0220087999999997,0.0128318000000012,0.0027054,0.0237712000000004,-0.009224399999999,-0.0126241999999999,0,sub_2
0.0209047999999997,0.0143828000000012,0.0014666,0.0205160000000004,-0.014413799999999,-0.0077219999999998,0,sub_2
0.0150715999999998,0.0158080000000012,5.280000000006399e-05,0.0140562000000004,-0.016412399999999,0.0012130000000001,0,sub_2
0.0067861999999998,0.0173176000000012,-0.0007957999999999,0.0084462000000004,-0.017568599999999,0.011862,0,sub_2
-0.0014726000000001,0.0187126000000012,-0.0005097999999998,0.0043470000000004,-0.016804799999999,0.0205962,0,sub_2
-0.0080734000000001,0.0195376000000012,-0.0008135999999998,0.0004822000000004,-0.015598799999999,0.0250586,0,sub_2
-0.0115532000000001,0.0203328000000012,-0.0005855999999998,-0.0018591999999995,-0.014100199999999,0.025254,0,sub_2
-0.0126538000000002,0.0225792000000012,-0.0007699999999998,-0.0001395999999995,-0.013246199999999,0.023342,0,sub_2
-0.0115908000000001,0.0228900000000012,-0.0001125999999999,0.0039432000000004,-0.011324999999999,0.0188816,0,sub_2
-0.0096948000000001,0.0226618000000012,-0.0003683999999999,0.0084576000000004,-0.009825599999999,0.0129292000000001,0,sub_2
-0.0077184000000001,0.0211956000000012,-0.0007021999999999,0.0108178000000004,-0.005809599999999,0.0067258000000001,0,sub_2
-0.0055836000000001,0.0200996000000012,-0.0002729999999998,0.0119044000000004,0.0003388000000009,0.0011518000000001,0,sub_2
-0.0029748000000001,0.0190350000000012,0.0006250000000001,0.0127698000000003,0.0058444000000009,-0.0033547999999998,0,sub_2
-0.0006390000000001,0.0181598000000012,0.0002794000000001,0.0134058000000003,0.0096386000000009,-0.0059379999999998,0,sub_2
0.0015993999999998,0.0162416000000012,0.0006814000000001,0.0121070000000003,0.0134268000000009,-0.0053299999999998,0,sub_2
0.0036957999999998,0.0160716000000012,0.0018302,0.0103932000000003,0.0142756000000009,-0.0029929999999998,0,sub_2
0.0045875999999997,0.0153246000000012,0.0023946,0.0090860000000004,0.0112854000000009,-7.399999999898807e-06,0,sub_2
0.0051361999999997,0.0150342000000012,0.0024024,0.0066998000000004,0.0069592000000009,0.0031784,0,sub_2
0.0050109999999997,0.0158742000000012,0.0019642,0.0023978000000004,0.0028562000000009,0.005496,0,sub_2
0.0050015999999997,0.0173384000000012,0.0012948,-0.0008285999999995,-0.000818399999999,0.006325,0,sub_2
0.0040393999999997,0.0180170000000012,0.0009620000000001,-0.0025583999999995,-0.004707999999999,0.0063102,0,sub_2
0.0027373999999998,0.0193802000000012,0.0007624000000001,-0.0038545999999995,-0.007532199999999,0.0058698,0,sub_2
0.0008419999999998,0.0198256000000012,-7.059999999989583e-05,-0.0051375999999995,-0.008803599999999,0.0052216,0,sub_2
-0.0007042000000001,0.0201120000000012,4.000000000841221e-07,-0.0055565999999995,-0.008158599999999,0.0041496,0,sub_2
-0.0021310000000001,0.0208974000000012,-0.0005001999999999,-0.0053267999999995,-0.0055983999999991,0.0030798,0,sub_2
-0.0029158000000001,0.0214540000000012,-0.0006717999999999,-0.0050851999999995,-0.0013629999999991,0.0019878000000001,0,sub_2
-0.0041552000000002,0.0213494000000012,-0.0008019999999999,-0.0039929999999995,0.0028668000000008,0.0015428000000001,0,sub_2
-0.0042980000000001,0.0209272000000012,-0.0006181999999998,-0.0022607999999995,0.0073066000000008,0.0013156000000001,0,sub_2
-0.0027746000000001,0.0206938000000012,-0.0004553999999999,-0.0018143999999995,0.0111090000000008,0.0017210000000001,0,sub_2
-0.0006782000000002,0.0198938000000012,-0.0001455999999999,-0.0022271999999995,0.0132118000000009,0.0016954000000001,0,sub_2
0.0012435999999998,0.0191170000000012,-1.2599999999915893e-05,-0.0022203999999995,0.0132176000000009,0.0002000000000001,0,sub_2
0.0028129999999997,0.0183780000000012,0.0001302,-0.0026423999999995,0.0125868000000009,-0.0015113999999998,0,sub_2
0.0028819999999997,0.0182282000000012,0.0006036,-0.0034995999999995,0.0111010000000009,-0.0021563999999998,0,sub_2
0.0012525999999997,0.0187608000000012,0.0001964000000001,-0.0030871999999995,0.0087526000000009,-0.0012957999999998,0,sub_2
-0.0007756000000002,0.0212078000000012,0.0003324,-0.0022869999999995,0.0070252000000009,0.0008364000000001,0,sub_2
-0.0027866000000002,0.0242438000000012,-0.0004775999999999,0.0002174000000004,0.0071992000000008,0.0055418000000001,0,sub_2
-0.0037434000000001,0.0265484000000012,-0.0006363999999999,0.0029324000000004,0.0071576000000008,0.0106762000000001,0,sub_2
-0.0021688000000001,0.0267122000000012,-0.0006623999999999,0.0052272000000004,0.0058504000000008,0.0130318000000001,0,sub_2
0.0007797999999998,0.0248392000000012,-0.0004259999999999,0.0075374000000004,0.0041322000000008,0.0115426000000001,0,sub_2
0.0032173999999998,0.0226090000000012,-0.0003029999999999,0.0096768000000004,0.0026444000000008,0.0087820000000001,0,sub_2
0.0054173999999998,0.0197246000000012,0.0008414,0.0109598000000004,0.0003084000000009,0.0058030000000001,0,sub_2
0.0072673999999998,0.0174276000000012,0.0008344,0.0109588000000004,-0.002875399999999,0.0028162000000001,0,sub_2
0.0073903999999998,0.0176152000000012,0.001197,0.0096370000000004,-0.004556599999999,0.0021308000000001,0,sub_2
0.0053041999999998,0.0186826000000012,0.0010846,0.0068158000000004,-0.005176599999999,0.0037836,0,sub_2
0.0033355999999998,0.0178332000000012,0.0009302,0.0052672000000004,-0.007293399999999,0.0056608,0,sub_2
0.0020159999999998,0.0168578000000012,0.0009008,0.0028766000000004,-0.008548199999999,0.0058218,0,sub_2
0.0007339999999998,0.0161436000000012,0.0015074,-0.0005675999999995,-0.007877399999999,0.0049048,0,sub_2
0.0003379999999998,0.0163398000000012,0.001263,-0.0031127999999995,-0.0061571999999991,0.0031758,0,sub_2
2.279999999980015e-05,0.0173630000000012,0.0016424,-0.0026755999999995,-0.0057249999999991,0.0012554000000001,0,sub_2
-0.0012192000000001,0.0190084000000011,0.0014644,-0.0016039999999995,-0.005512199999999,0.0004082000000001,0,sub_2
-0.0031562000000002,0.0213470000000011,0.0006004,-0.0016461999999995,-0.004875399999999,0.0008078,0,sub_2
-0.0045398000000002,0.0235236000000012,-0.0004559999999999,-0.0006243999999995,-0.004032799999999,0.002069,0,sub_2
-0.0049564000000001,0.0238122000000012,-0.0008331999999999,0.0006126000000004,-0.003401399999999,0.002691,0,sub_2
-0.0027770000000002,0.0231664000000012,-0.0004557999999999,-0.0004859999999995,7.2000000009304205e-06,0.0035068,0,sub_2
-0.0001650000000001,0.0227444000000012,0.0010164,-0.0019987999999995,0.0051260000000009,0.0032492,0,sub_2
0.0033389999999997,0.0209530000000012,0.0021748,-0.0017691999999995,0.0072618000000009,0.0017524,0,sub_2
0.0064919999999997,0.0196108000000011,0.0031826,-0.0015451999999995,0.0068462000000009,-0.0010227999999999,0,sub_2
0.0084435999999998,0.0183634000000012,0.0036478,-5.639999999957103e-05,0.0036538000000009,-0.0031447999999999,0,sub_2
0.0093987999999998,0.0176222000000012,0.003239,0.0024570000000004,-0.003798799999999,-0.0050673999999999,0,sub_2
0.0109799999999997,0.0163998000000012,0.0016852,0.0026088000000004,-0.014014599999999,-0.0065755999999998,0,sub_2
0.0119309999999997,0.0170830000000012,0.001468,0.0008356000000004,-0.024652399999999,-0.0074557999999998,0,sub_2
0.0121223999999997,0.0179644000000012,0.002291,0.0007586000000004,-0.036366599999999,-0.0070409999999998,0,sub_2
0.0090571999999997,0.0192988000000012,0.0036708,0.0038642000000004,-0.051291199999999,-0.0057451999999998,0,sub_2
0.0018861999999997,0.0164976000000012,0.0013072,0.0158016000000004,-0.059618999999999,-0.0114193999999998,0,sub_2
-0.0031238000000002,0.0193512000000012,0.0066424,0.0337744000000004,-0.106300199999999,-0.0214889999999998,0,sub_2
-0.0097892000000001,0.0228708000000012,0.0077172,0.0456962000000004,-0.161948599999999,-0.0258415999999999,0,sub_2
-0.0166082000000002,0.0249742000000012,0.0017046,0.0459996000000004,-0.183711999999999,-0.0224139999999999,0,sub_2
-0.0176206000000001,0.0246642000000012,-0.0076629999999999,0.0379846000000004,-0.1547491999999991,-0.0165457999999999,0,sub_2
-0.0092556000000001,0.0276748000000012,-0.0059659999999999,0.0210616000000004,-0.109155799999999,-0.0060609999999999,0,sub_2
-0.0028560000000001,0.0258574000000012,-0.0083927999999999,-0.0016889999999995,-0.027549199999999,0.0077552,0,sub_2
0.0037621999999998,0.0229150000000012,-0.0059233999999999,-0.0156253999999995,0.0593982000000009,0.0145966,0,sub_2
0.0109183999999998,0.0211162000000012,0.0012344,-0.0164841999999995,0.1043612000000009,0.013251,0,sub_2
0.0155951999999998,0.0209458000000012,0.0072104,-0.0113871999999995,0.0958340000000009,0.0100928000000001,0,sub_2
0.0136199999999997,0.0204800000000012,0.0053486,-0.0032205999999995,0.0644762000000009,0.0088806000000001,0,sub_2
0.0115259999999998,0.0198228000000012,0.003297,0.0092316000000004,0.0375758000000008,0.0081200000000001,0,sub_2
0.0095473999999998,0.0180732000000012,0.000647,0.0172394000000004,0.0192114000000008,0.0077448000000001,0,sub_2
0.0082015999999997,0.0156820000000012,-0.0021001999999999,0.0169774000000004,0.0117444000000008,0.0066570000000001,0,sub_2
0.0082679999999998,0.0148296000000012,-0.0016675999999999,0.0122770000000004,0.0121820000000008,0.0040324000000001,0,sub_2
0.0085861999999998,0.0154112000000012,0.0001068,0.0065372000000004,0.0145550000000008,0.0016392000000001,0,sub_2
0.0078339999999998,0.0144166000000012,0.0010664,-6.779999999956977e-05,0.0141622000000008,-0.0009699999999998,0,sub_2
0.0084613999999998,0.0147574000000012,0.0012522,-0.0050079999999995,0.0048136000000008,-0.0031289999999998,0,sub_2
0.0090721999999998,0.0161540000000012,0.0028964,-0.0063449999999995,-0.0071007999999991,-0.0059239999999998,0,sub_2
0.0079513999999998,0.0177620000000012,0.003382,-0.0038317999999995,-0.0164737999999991,-0.0082679999999998,0,sub_2
0.0062159999999997,0.0196326000000012,0.0025106,-0.0010947999999995,-0.022018399999999,-0.0091197999999998,0,sub_2
0.0037969999999997,0.0222228000000012,0.0012628,-5.299999999956971e-05,-0.022878399999999,-0.0078529999999998,0,sub_2
0.0001599999999997,0.0240668000000012,-1.8199999999917155e-05,0.0018604000000004,-0.018844599999999,-0.0057317999999998,0,sub_2
-0.0031280000000002,0.0253858000000012,-0.0008803999999999,0.0052744000000004,-0.016097999999999,-0.0029339999999998,0,sub_2
-0.0056636000000002,0.0246242000000012,-0.0002221999999999,0.0071900000000004,-0.015684599999999,-0.0014255999999998,0,sub_2
-0.0064320000000002,0.0233662000000012,0.0005074,0.0076150000000004,-0.016536599999999,-0.0018487999999998,0,sub_2
-0.0054724000000002,0.0228728000000012,-0.0002025999999999,0.0084618000000004,-0.018879799999999,-0.0026945999999998,0,sub_2
-0.0026740000000002,0.0224484000000012,-3.6199999999917376e-05,0.0093046000000004,-0.019092599999999,-0.0027029999999998,0,sub_2
0.0018235999999997,0.0217714000000012,0.0010262,0.0093064000000004,-0.014622999999999,-0.0008005999999998,0,sub_2
0.0042941999999997,0.0209268000000012,0.0021248,0.0101492000000004,-0.012925999999999,0.0011114,0,sub_2
0.0059331999999997,0.0185264000000012,0.0019306,0.0084304000000004,-0.011220999999999,0.003219,0,sub_2
0.0094059999999997,0.0176172000000012,0.0019146,0.0045800000000004,-0.010143399999999,0.0042444,0,sub_2
0.0106537999999997,0.0158782000000012,0.001277,0.0024560000000004,-0.008854399999999,0.0033732,0,sub_2
0.0098049999999997,0.0142418000000012,0.000134,0.0018418000000004,-0.0050095999999991,0.0014412,0,sub_2
0.0107265999999997,0.0155882000000012,-0.0003713999999999,-0.0013233999999995,0.0020356000000008,0.0005554000000001,0,sub_2
0.0124241999999997,0.0185090000000012,0.0008714,-0.0051783999999995,0.0092578000000008,0.0003226,0,sub_2
0.0071333999999997,0.0197788000000012,0.0016738,-0.0079837999999995,0.0134902000000008,0.0009554,0,sub_2
0.0082027999999997,0.0190960000000012,0.0013636,-0.0073943999999995,0.0149352000000008,0.003111,0,sub_2
0.0087821999999998,0.0199874000000012,0.0024894,-0.0085445999999995,0.0055348000000008,0.0016364,0,sub_2
0.0036027999999998,0.0191388000000012,0.0021916,-0.0069093999999995,-0.0015307999999991,-3.5399999999918136e-05,0,sub_2
-0.0009928000000001,0.0195322000000012,0.0020888,-0.0031069999999995,-0.010490599999999,-0.0004247999999998,0,sub_2
-0.0003148000000001,0.0197720000000012,0.0021624,-0.0001629999999995,-0.018602999999999,0.0011016000000001,0,sub_2
-0.0046964000000001,0.0212810000000012,0.0024722,-0.0008929999999995,-0.026818799999999,0.0028190000000001,0,sub_2
-0.0081418000000001,0.0209342000000012,0.0007096,0.0011632000000004,-0.029091599999999,0.0077528000000001,0,sub_2
-0.0040614000000001,0.0225130000000012,0.001745,0.0036348000000004,-0.035195799999999,0.0114126000000001,0,sub_2
-0.0010670000000002,0.0220392000000012,0.0026292,0.0059122000000004,-0.038947999999999,0.0131454000000001,0,sub_2
0.0012135999999997,0.0220976000000012,0.0023478,0.0094986000000004,-0.038434999999999,0.0127454000000001,0,sub_2
0.0044945999999997,0.0221370000000012,0.0022818,0.0120762000000004,-0.035882199999999,0.0114782000000001,0,sub_2
0.0079403999999997,0.0218596000000012,0.0027742,0.0125318000000004,-0.031614199999999,0.0093396000000001,0,sub_2
0.0091377999999997,0.0190520000000012,0.0025804,0.0123500000000004,-0.026067999999999,0.0078358000000001,0,sub_2
0.0095077999999997,0.0169036000000012,0.0019466,0.0114790000000004,-0.024298799999999,0.0056952000000001,0,sub_2
0.0100099999999998,0.0147090000000012,0.0018496,0.0086732000000004,-0.025506399999999,0.0037586000000001,0,sub_2
0.0098049999999997,0.0147310000000012,0.0022218,0.0056522000000004,-0.026078399999999,0.0028880000000001,0,sub_2
0.0086787999999998,0.0156850000000012,0.0022268,0.0045486000000004,-0.025598399999999,0.0037384000000001,0,sub_2
0.0066289999999997,0.0175970000000012,0.0017348,0.0028078000000004,-0.024052799999999,0.0050104000000001,0,sub_2
0.0049777999999997,0.0198362000000012,0.0019752,0.0011142000000004,-0.019578599999999,0.0064884,0,sub_2
0.0029375999999997,0.0212764000000012,0.0013174,0.0002818000000004,-0.013402999999999,0.0079702,0,sub_2
0.0016277999999997,0.0219284000000012,0.000576,-0.0001189999999995,-0.007224599999999,0.0083868000000001,0,sub_2
0.0005999999999997,0.0222156000000011,0.000979,8.340000000044944e-05,-0.003315999999999,0.0073244000000001,0,sub_2
0.0005595999999997,0.0214898000000011,0.001614,0.0007088000000004,-0.000685399999999,0.0058392000000001,0,sub_2
0.0010841999999997,0.0201108000000011,0.0018208,0.0013322000000004,0.0008824000000009,0.0037144000000001,0,sub_2
0.0029195999999997,0.0193534000000012,0.0024668,0.0013098000000004,0.0003254000000009,0.0007332000000001,0,sub_2
0.0043831999999997,0.0186862000000012,0.0033884,0.0023446000000004,-0.002365999999999,-0.0022377999999998,0,sub_2
0.0062361999999997,0.0177790000000012,0.0031216,0.0029838000000004,-0.004066599999999,-0.0037267999999998,0,sub_2
