userAcceleration.x,userAcceleration.y,userAcceleration.z,rotationRate.x,rotationRate.y,rotationRate.z,label,subject
0.0110719999999998,-0.0003497999999987,0.0020366,0.0002776000000004,-0.0008791999999991,0.00094,0,sub_22
0.0105603999999998,-0.0004991999999987,0.0022064,7.220000000044522e-05,0.0001842000000008,0.0004946,0,sub_22
0.0107101999999997,-0.0001187999999987,0.0027134,-0.0007779999999995,0.0008212000000008,0.000686,0,sub_22
0.0103959999999998,-0.0002799999999987,0.0026104,-0.0011985999999995,0.0016712000000008,0.0004528,0,sub_22
0.0096701999999998,7.860000000121836e-05,0.0021568,-0.0014105999999995,0.0016676000000008,0.0004358,0,sub_22
0.0090959999999997,0.0004754000000012,0.0016004,-0.0016225999999995,0.0018762000000008,0.0006322,0,sub_22
0.0093605999999997,0.0006560000000012,0.000667,-0.0016225999999995,0.0020884000000008,0.0008454,0,sub_22
0.0092959999999997,0.0007274000000012,-4.799999999994032e-05,-0.0014081999999995,0.0020884000000008,0.0006332,0,sub_22
0.0087091999999997,0.0012006000000012,0.0003216,-0.0016263999999995,0.0016606000000008,0.0012732,0,sub_22
0.0085217999999997,0.0012036000000012,0.0004606,-0.0011981999999995,0.0016492000000008,0.00169,0,sub_22
0.0084723999999997,0.0010862000000012,0.0003554,-0.0003479999999995,0.0005710000000008,0.0021112,0,sub_22
0.0085371999999998,0.0012374000000011,0.0012362,7.840000000044534e-05,-0.0005031999999991,0.0018886,0,sub_22
0.0086763999999998,0.0010738000000011,0.0016306,-0.0001335999999995,-0.0013611999999991,0.0014476,0,sub_22
0.0087989999999998,0.0008212000000011,0.0014214,0.0005118000000004,-0.0015821999999991,0.000798,0,sub_22
0.0085623999999998,0.0006146000000011,0.0014976,0.0007262000000004,-0.0017943999999991,0.0003726,0,sub_22
0.0082743999999998,0.0004312000000011,0.0019328,0.0005158000000004,-0.0017911999999991,-0.0002697999999999,0,sub_22
0.0083393999999998,-6.779999999880165e-05,0.002424,0.0009444000000004,-0.0015787999999991,-0.0004807999999998,0,sub_22
0.0082035999999998,-0.0003127999999988,0.0024746,0.0018052000000004,-0.0007417999999991,0.0001506000000001,0,sub_22
0.0083211999999998,-0.0006115999999987,0.0022934,0.0020248000000004,-0.0001157999999991,0.0007778,0,sub_22
0.0087291999999998,-0.0010413999999987,0.0017268,0.0018206000000004,0.0011510000000008,0.0014012,0,sub_22
0.0091209999999998,-0.0013009999999987,0.0015828,0.0014040000000004,0.0028438000000008,0.0022362,0,sub_22
0.0096895999999997,-0.0013353999999987,0.001264,0.0007730000000004,0.0043242000000008,0.00307,0,sub_22
0.0110873999999997,-0.0012685999999987,0.0015006,0.0005672000000004,0.0056048000000007,0.0026396,0,sub_22
0.0130523999999997,-0.0008801999999987,0.0018032,0.0005778000000004,0.0068874000000007,0.0015698,0,sub_22
0.0146369999999997,-0.0003989999999987,0.0031502,0.0012226000000004,0.0060406000000007,-0.0003473999999999,0,sub_22
0.0163493999999997,0.0001998000000012,0.00354,0.0020780000000004,0.0041294000000007,-0.0026889999999999,0,sub_22
0.0170555999999998,0.0006944000000011,0.0038558,0.0027252000000004,0.0009306000000007,-0.0054731999999999,0,sub_22
0.0172667999999997,0.0007462000000011,0.0043472,0.0027246000000004,-0.0029093999999991,-0.0071927999999999,0,sub_22
0.0156861999999998,0.0008016000000011,0.0037994,0.0022906000000004,-0.0071781999999991,-0.0078465999999999,0,sub_22
0.0145573999999998,0.0009852000000011,0.0027194,0.0014250000000004,-0.0112375999999991,-0.0072219999999999,0,sub_22
0.0128641999999998,0.0010034000000011,0.0019278,-8.079999999955476e-05,-0.0146581999999991,-0.0059617999999998,0,sub_22
0.0118025999999998,0.0009550000000012,0.0009782,-0.0018059999999995,-0.0165781999999991,-0.0038347999999998,0,sub_22
0.0104523999999998,0.0013854000000012,-0.0002107999999999,-0.0033119999999995,-0.0178571999999991,-0.0023481999999998,0,sub_22
0.0098071999999997,0.0015324000000012,0.0002142,-0.0046027999999995,-0.0191353999999991,-0.0012873999999998,0,sub_22
0.0085261999999998,0.0013866000000012,0.0006456,-0.0048147999999995,-0.0202069999999991,-0.0010869999999998,0,sub_22
0.0079113999999998,0.0012616000000012,0.0003904,-0.0037475999999995,-0.0214959999999991,-0.0008773999999998,0,sub_22
0.0076555999999997,0.0011252000000012,0.0003412,-0.0026735999999995,-0.0225669999999991,-0.0019499999999998,0,sub_22
0.0070177999999998,0.0006490000000012,0.0008192,-0.0013823999999995,-0.0227863999999991,-0.0030221999999999,0,sub_22
0.0064561999999998,0.0003392000000012,0.0005492,0.0003412000000004,-0.0221533999999991,-0.0045197999999999,0,sub_22
0.0064459999999998,0.0003560000000012,3.960000000007984e-05,0.0009928000000004,-0.0202355999999991,-0.0051585999999999,0,sub_22
0.0063547999999998,0.0004250000000012,0.0002414,0.0005852000000004,-0.0168217999999991,-0.0060203999999999,0,sub_22
0.0057185999999998,0.0003274000000012,0.0010754,-3.759999999951467e-05,-0.0138461999999991,-0.0053977999999999,0,sub_22
0.0061805999999997,0.0003488000000012,0.0013978,-0.0006631999999995,-0.0108731999999991,-0.0041341999999999,0,sub_22
0.0069039999999997,0.0001838000000012,0.0013852,-0.0015079999999995,-0.0087533999999991,-0.0024435999999999,0,sub_22
0.0078487999999997,-1.8199999998781603e-05,0.001397,-0.0023497999999995,-0.0062065999999991,-0.0009673999999999,0,sub_22
0.0080487999999997,-0.0003299999999987,0.0013256,-0.0027705999999995,-0.0049397999999991,0.0005134,0,sub_22
0.0087637999999998,-0.0009385999999987,0.0017474,-0.0021255999999995,-0.0034523999999991,0.0009434,0,sub_22
0.0092897999999998,-0.0012603999999987,0.0023618,-0.0012683999999995,-0.0030275999999991,0.0005216,0,sub_22
0.0099117999999998,-0.0012783999999987,0.0027114,-0.0008319999999995,-0.0023839999999991,-0.0009717999999999,0,sub_22
0.0099425999999998,-0.0015533999999987,0.0030024,0.0002490000000004,-0.0021691999999991,-0.0033229999999999,0,sub_22
0.0104267999999998,-0.0018299999999987,0.003325,0.0013340000000004,-0.0011019999999991,-0.0056751999999999,0,sub_22
0.0109207999999998,-0.0014947999999987,0.0030302,0.0017730000000004,-0.0008865999999991,-0.0076035999999999,0,sub_22
0.0104493999999998,-0.0013077999999987,0.0022008,0.0015664000000004,-0.0010985999999991,-0.0086813999999999,0,sub_22
0.0097159999999998,-0.0010757999999987,0.0017898,0.0015702000000004,-0.0008893999999991,-0.0086899999999999,0,sub_22
0.0098155999999998,-0.0006679999999987,0.0012308,0.0011398000000004,-0.0006791999999991,-0.0076249999999999,0,sub_22
0.0091389999999998,-3.759999999878162e-05,0.0009184,0.0002796000000004,-0.0008943999999991,-0.0063487999999999,0,sub_22
0.0082091999999998,0.0002764000000011,0.0002232,-0.0003651999999995,-0.0004719999999991,-0.0048583999999999,0,sub_22
0.0083627999999998,0.0005670000000011,-0.0002457999999999,-0.0003651999999995,0.0003768000000008,-0.0040047999999999,0,sub_22
0.0086517999999998,0.0007018000000011,-0.0005675999999999,-0.0003691999999995,0.0010026000000008,-0.0029415999999999,0,sub_22
0.0082959999999998,0.0006978000000011,-0.0002779999999999,-0.0001645999999995,0.0003500000000008,-0.0020889999999999,0,sub_22
0.0085131999999998,0.0005036000000011,0.0002442,0.0006792000000004,-0.0007301999999991,-0.0014449999999999,0,sub_22
0.0091821999999998,0.0006206000000012,0.000926,0.0017364000000004,-0.0020231999999991,-0.0010127999999999,0,sub_22
0.0093833999999998,0.0005366000000012,0.0011454,0.0030022000000004,-0.0039577999999991,-0.0001511999999999,0,sub_22
0.0101055999999998,0.0001306000000012,0.0011516000000001,0.0040614000000004,-0.0054537999999991,7.180000000008222e-05,0,sub_22
0.0109691999999998,-0.0001581999999987,0.0008706000000001,0.0044862000000004,-0.0058813999999991,7.540000000008221e-05,0,sub_22
0.0114767999999998,-0.0006419999999987,0.0003214,0.0046990000000004,-0.0058585999999991,0.0002954,0,sub_22
0.0116617999999998,-0.0008343999999987,0.0006166000000001,0.0040602000000004,-0.0054067999999991,0.0005088,0,sub_22
0.0115687999999998,-0.0008397999999988,0.0014922000000001,0.0027880000000004,-0.0036733999999991,0.0005026,0,sub_22
0.0113851999999998,-0.0008081999999988,0.0020166,0.0017274000000004,-0.0021547999999991,0.0007118,0,sub_22
0.0107153999999998,-0.0008395999999988,0.002398,0.0008792000000004,-0.0010619999999991,0.0007094,0,sub_22
0.0103453999999998,-0.0005797999999988,0.002286,-0.0001827999999995,7.000000000828175e-06,0.0007006,0,sub_22
0.0100397999999998,-0.0003933999999988,0.00181,-0.0010313999999995,0.0008632000000008,0.00048,0,sub_22
0.0101687999999998,-0.0004953999999987,0.0012162,-0.0016675999999995,0.0015054000000008,0.0002612,0,sub_22
0.0091457999999998,-0.0002669999999987,0.0008598,-0.0018799999999995,0.0015070000000008,4.6000000000082216e-05,0,sub_22
0.0087151999999998,-9.859999999878154e-05,0.000905,-0.0014471999999995,0.0019846000000008,-0.0001543999999999,0,sub_22
0.0090053999999998,2.5800000001218467e-05,0.0014844,-0.0001617999999995,0.0018218000000008,-0.0007751999999999,0,sub_22
0.0090897999999998,-0.0001333999999987,0.0013364,0.0006930000000004,0.0010204000000008,-0.0011845999999999,0,sub_22
0.0090219999999998,-8.559999999878153e-05,0.001121,0.0013362000000004,0.0008582000000008,-0.0013827999999999,0,sub_22
0.0097095999999998,-0.0002417999999987,0.0015214,0.0017680000000004,0.0011228000000008,-0.0015827999999999,0,sub_22
0.0107747999999998,-0.0001289999999988,0.0017018,0.0015518000000004,0.0004844000000008,-0.0015835999999999,0,sub_22
0.0112519999999998,4.120000000119847e-05,0.001817,0.0006982000000004,0.0006996000000008,-0.0013761999999999,0,sub_22
0.0111571999999998,6.160000000119847e-05,0.0023744,0.0006990000000004,0.0013370000000008,-0.0009497999999999,0,sub_22
0.0113073999999998,5.640000000119847e-05,0.0027186,0.0011268000000004,0.0009524000000008,-0.0007201999999999,0,sub_22
0.0118237999999998,5.760000000119848e-05,0.0020906000000001,0.0011258000000004,-6.879999999917186e-05,-0.0007065999999999,0,sub_22
0.0117093999999998,4.720000000121847e-05,0.0017922000000001,0.0009162000000004,0.0001882000000008,-0.0004823999999999,0,sub_22
0.0113299999999998,-5.779999999878153e-05,0.0015630000000001,0.0007038000000004,-0.0001939999999991,-0.0002575999999999,0,sub_22
0.0112921999999998,-5.979999999878153e-05,0.0013852,0.0004914000000004,-0.0007883999999991,-0.0002459999999999,0,sub_22
0.0109769999999998,-6.959999999878153e-05,0.0016346000000001,6.260000000044524e-05,-0.0014251999999991,-0.0004619999999999,0,sub_22
0.0107203999999998,7.960000000121848e-05,0.002035,6.080000000044522e-05,-0.0018513999999991,-0.0004613999999999,0,sub_22
0.0100927999999998,8.940000000121847e-05,0.0023138,0.0002722000000004,-0.0024905999999991,-0.0006727999999999,0,sub_22
0.0100463999999998,0.0001172000000012,0.0023518,0.0004856000000004,-0.0028855999999991,-0.0008645999999999,0,sub_22
0.0098551999999998,0.0001106000000012,0.002018,0.0007000000000004,-0.0030675999999991,-0.0010567999999998,0,sub_22
0.0098173999999998,0.0001972000000012,0.0012576,0.0007010000000004,-0.0030365999999991,-0.0010369999999998,0,sub_22
0.0098479999999998,3.900000000121847e-05,0.00118,0.0004914000000004,-0.0023657999999991,-0.0010197999999998,0,sub_22
0.0099171999999997,-2.859999999878153e-05,0.0010486,0.0004944000000004,-0.0019087999999991,-0.0010005999999998,0,sub_22
0.0097749999999998,-2.719999999878154e-05,0.0008576,0.0004974000000004,-0.0012695999999991,-0.0010013999999998,0,sub_22
0.0098765999999998,0.0001386000000012,0.0011858,0.0005002000000004,-0.0006303999999991,-0.0010021999999999,0,sub_22
0.0101183999999998,-1.5199999998781542e-05,0.001572,0.0009264000000004,3.600000000082797e-05,-0.0014133999999999,0,sub_22
0.0098605999999998,8.000000000121846e-05,0.0017668,0.0011372000000004,0.0007014000000008,-0.0013987999999999,0,sub_22
0.0099945999999998,0.0001312000000012,0.0014526,0.0011308000000004,0.0005154000000008,-0.0013845999999999,0,sub_22
0.0098003999999998,0.0001520000000012,0.0010048,0.0011224000000004,0.0003276000000008,-0.0009431999999999,0,sub_22
0.0101371999999998,-3.2399999998781534e-05,0.001024,0.0011160000000004,0.0001416000000008,-0.0009289999999999,0,sub_22
0.0100713999999998,0.0001460000000012,0.001153,0.0006864000000004,0.0001404000000008,-0.0002911999999999,0,sub_22
0.0100239999999998,0.0001994000000012,0.001218,0.0006844000000004,-7.3399999999172e-05,-7.719999999991778e-05,0,sub_22
0.0098549999999997,0.0002668000000012,0.0014678,0.0011092000000004,-0.0002887999999991,0.0001396,0,sub_22
0.0098957999999997,0.0003052000000011,0.001967,0.0013206000000004,-0.0009277999999991,-7.179999999991776e-05,0,sub_22
0.0102419999999998,0.0004172000000011,0.0019152,0.0011012000000004,-0.0013349999999991,-6.339999999989776e-05,0,sub_22
0.0101519999999997,0.0004074000000011,0.0015172,0.0013122000000004,-0.0013157999999991,-0.0004795999999998,0,sub_22
0.0102823999999997,0.0004054000000011,0.0012112,0.0008834000000004,-0.0010823999999991,-0.0006869999999998,0,sub_22
0.0101231999999998,0.0003512000000011,0.0012736,0.0004544000000004,8.080341951099969e-16,-4.099999999987776e-05,0,sub_22
0.0098371999999998,0.0001904000000012,0.0013218,0.0004494000000004,0.0006538000000008,0.0008222000000001,0,sub_22
0.0094539999999997,0.0002064000000011,0.0009094,0.0004476000000004,0.0006520000000008,0.0012496,0,sub_22
0.0092351999999998,0.0001758000000011,0.001188,2.0000000000445222e-05,0.0010770000000008,0.001887,0,sub_22
0.0091335999999998,-1.3599999998801538e-05,0.0011668,-0.0001953999999995,0.0019388000000008,0.0021068,0,sub_22
0.0092433999999998,0.0001364000000011,0.0016682,-0.0004079999999995,0.0021666000000008,0.0010458,0,sub_22
0.0092449999999997,0.0002400000000011,0.002015,-0.0004051999999995,0.0023954000000008,-0.0004409999999999,0,sub_22
0.0088413999999998,0.0002936000000011,0.0022328,2.520000000044518e-05,0.0034724000000008,-0.0012849999999999,0,sub_22
0.0091905999999997,0.0002820000000011,0.0021954,0.0006614000000004,0.0032686000000007,-0.0016987999999999,0,sub_22
0.0094431999999997,0.0005068000000011,0.0022682,0.0012986000000004,0.0024150000000007,-0.0019067999999999,0,sub_22
0.0096525999999997,0.0002414000000011,0.0019358,0.0015064000000004,0.0017724000000007,-0.0012635999999999,0,sub_22
0.0102263999999997,0.0002084000000011,0.0019216,0.0006528000000004,0.0021998000000008,-0.0008427999999999,0,sub_22
0.0103343999999997,-1.2399999998821557e-05,0.0020314,5.2000000004250684e-06,0.0019956000000008,-0.0001999999999999,0,sub_22
0.0104419999999997,-0.0001175999999988,0.0023882,-3.9999999959490843e-07,0.0013664000000008,-0.0004065999999999,0,sub_22
0.0105991999999997,-0.0004035999999987,0.0021316,-4.1999999995948925e-06,0.0009514000000008,-0.0008271999999999,0,sub_22
0.0109167999999998,-0.0002393999999987,0.0019278,0.0002064000000004,0.0007486000000008,-0.0012463999999998,0,sub_22
0.0103311999999998,-0.0002009999999987,0.0016946,0.0008400000000004,0.0001164000000008,-0.0012349999999998,0,sub_22
0.0100013999999998,-0.0001501999999987,0.0016168,0.0008380000000004,-9.759999999917204e-05,-0.0010209999999998,0,sub_22
0.0094849999999998,-2.8599999998781557e-05,0.0011558,0.0004102000000004,0.0003276000000008,-0.0003835999999998,0,sub_22
0.0091741999999998,0.0002096000000011,0.0016032,0.0001940000000004,0.0001136000000008,4.260000000012223e-05,0,sub_22
0.0090745999999998,0.0002400000000012,0.0017226,0.0004054000000004,-0.0001009999999991,0.0002580000000001,0,sub_22
0.0097407999999998,0.0004130000000012,0.0019502,0.0012542000000004,-0.0005209999999991,5.660000000008224e-05,0,sub_22
0.0101703999999998,0.0005374000000012,0.0020714,0.0021040000000004,-0.0011521999999991,-0.0005719999999999,0,sub_22
0.0100707999999998,0.0006394000000012,0.0023688,0.0027394000000004,-0.0015713999999991,-0.0007749999999999,0,sub_22
0.0101393999999998,0.0005790000000012,0.0020986,0.0033728000000004,-0.0017801999999991,-0.0003373999999999,0,sub_22
0.0099717999999998,0.0006050000000011,0.0020946,0.0033652000000004,-0.0021997999999991,9.600000000006226e-05,0,sub_22
0.0095457999999997,0.0006480000000011,0.001833,0.0022934000000004,-0.0019881999999991,0.00137,0,sub_22
0.0094303999999997,0.0005714000000011,0.0010538,0.0016474000000004,-0.0017789999999991,0.0028608,0,sub_22
0.0099437999999997,0.0004244000000011,0.0010452,0.0009972000000004,-0.0017779999999991,0.0041424,0,sub_22
0.0100887999999997,0.0004628000000011,0.0013926,0.0001394000000004,-0.0015589999999991,0.004354,0,sub_22
0.0095953999999998,0.0005158000000011,0.0014242,-7.459999999955488e-05,-0.0011263999999991,0.0039288,0,sub_22
0.0098713999999998,0.0002496000000011,0.001276,0.0003506000000004,-0.0015457999999991,0.0028684000000001,0,sub_22
0.0097449999999998,0.0003994000000011,0.0016742,0.0007798000000004,-0.0015373999999991,0.0013800000000001,0,sub_22
0.0098825999999998,0.0005284000000011,0.0012022,0.0010036000000004,-0.0008921999999991,-0.0003283999999998,0,sub_22
0.0092129999999998,0.0004546000000011,0.001348,0.0012256000000004,-3.639999999917208e-05,-0.0013961999999998,0,sub_22
0.0092955999999997,0.0003750000000012,0.001179,0.0014448000000004,0.0008166000000008,-0.0018229999999998,0,sub_22
0.0090151999999998,0.0004880000000011,0.0016986,0.0014414000000004,0.0016674000000008,-0.0013949999999998,0,sub_22
0.0091045999999998,0.0003600000000011,0.0023012,0.0012198000000004,0.0020902000000008,-0.0003269999999999,0,sub_22
0.0086537999999997,0.0003668000000011,0.0024794,0.0009964000000004,0.0016624000000008,0.0003148,0,sub_22
0.0092869999999998,0.0007142000000011,0.001939,0.0012016000000004,0.0016592000000008,0.000959,0,sub_22
0.0098707999999998,0.0007532000000011,0.0021384,0.0007666000000004,0.0014462000000008,0.0013854,0,sub_22
0.0100863999999997,0.0009010000000011,0.0018866,0.0007666000000004,0.0014462000000008,0.0013854,0,sub_22
0.0100725999999998,0.0009032000000011,0.001601,0.0007694000000004,0.0014488000000008,0.0007446,0,sub_22
0.0099281999999998,0.0008720000000011,0.0014562,0.0007694000000004,0.0016610000000008,0.000958,0,sub_22
0.0093913999999998,0.0006396000000012,0.001718,0.0005530000000004,0.0016592000000008,0.0015974,0,sub_22
0.0090643999999998,0.0008454000000012,0.0015978,0.0003322000000004,0.0016544000000008,0.0020262,0,sub_22
0.0091069999999998,0.0005958000000012,0.0017238,0.0001164000000004,0.0022906000000008,0.002027,0,sub_22
0.0090637999999998,0.0006516000000012,0.0021094,-0.0001013999999995,0.0027128000000008,0.0022416,0,sub_22
0.0093477999999998,0.0005158000000012,0.0027914,0.0001094000000004,0.0029232000000008,0.0018186,0,sub_22
0.0094955999999998,0.0003128000000012,0.0032496,0.0005326000000004,0.0027076000000008,0.001184,0,sub_22
0.0097547999999998,0.0002222000000012,0.0030922,0.0011766000000004,0.0027088000000008,0.000334,0,sub_22
0.0094653999999998,0.0005518000000012,0.0030036,0.0016052000000004,0.0027090000000008,-9.039999999991768e-05,0,sub_22
0.0100813999999998,0.0006262000000012,0.0022582,0.0018214000000004,0.0027108000000008,-0.0007297999999999,0,sub_22
0.0098485999999998,0.0009338000000012,0.002332,0.0020300000000004,0.0027090000000008,-0.0009381999999999,0,sub_22
0.0100693999999998,0.0013582000000012,0.0018316,0.0018110000000004,0.0027078000000008,-0.0009357999999999,0,sub_22
0.0099467999999998,0.0011330000000012,0.0022338,0.0015910000000004,0.0029182000000008,-0.0005063999999999,0,sub_22
0.0102907999999998,0.0011720000000012,0.0021584,0.0009424000000004,0.0022794000000008,-0.0005061999999999,0,sub_22
0.0094209999999998,0.0011840000000012,0.0022876,0.0007196000000004,0.0018506000000008,-7.599999999993769e-05,0,sub_22
0.0095175999999998,0.0012118000000012,0.0015358,0.0002918000000004,0.0018512000000008,0.0001348,0,sub_22
0.0098907999999998,0.0013472000000012,0.0016608,7.840000000044514e-05,0.0018520000000008,0.0001334,0,sub_22
0.0097041999999998,0.0017572000000012,0.0015744,7.460000000044514e-05,0.0012118000000008,0.0003478,0,sub_22
0.0097109999999998,0.0017870000000012,0.0014622,0.0002770000000004,0.0009976000000008,0.0009898,0,sub_22
0.0100939999999998,0.0017634000000012,0.001448,0.0004804000000004,0.0005720000000008,0.0012046,0,sub_22
0.0106451999999998,0.0018264000000012,0.0016246,0.0008954000000004,-0.0002803999999991,0.0014214,0,sub_22
0.0105973999999998,0.0015824000000012,0.0014402,0.0010998000000004,-0.0009173999999991,0.0012092,0,sub_22
0.0111201999999998,0.0013196000000011,0.0011776,0.0013060000000004,-0.0011281999999991,0.0009966,0,sub_22
0.0114445999999998,0.0013326000000011,0.0011408,0.0015174000000004,-0.0019795999999991,0.0005718,0,sub_22
0.0112265999999998,0.0013776000000011,0.0015222,0.0013040000000004,-0.0021909999999991,0.000357,0,sub_22
0.0105477999999998,0.0012534000000011,0.0014152,0.0010906000000004,-0.0024023999999991,0.0001422,0,sub_22
0.0104599999999998,0.0012674000000011,0.0013428,0.0008730000000004,-0.0019743999999991,-7.459999999991765e-05,0,sub_22
0.0103825999999998,0.0013934000000011,0.0014972,-0.0004123999999995,-0.0017557999999991,-0.0002985999999999,0,sub_22
0.0098367999999998,0.0012586000000011,0.0019836,-0.0006309999999995,-0.0015407999999991,-0.0005149999999999,0,sub_22
0.0101161999999998,0.0010816000000011,0.0025196,-0.0008515999999995,-0.0015399999999991,-0.0005175999999999,0,sub_22
0.0104733999999998,0.0009428000000011,0.0022994,-0.0012835999999995,-0.0013243999999991,-0.0007355999999999,0,sub_22
0.0099131999999998,0.0010322000000011,0.0024506,-0.0015017999999995,-0.0021767999999991,-0.0005223999999999,0,sub_22
0.0095933999999998,0.0011386000000011,0.0021312,-0.0008635999999995,-0.0028171999999991,-0.0007307999999999,0,sub_22
0.0096107999999998,0.0010616000000011,0.0014522,-0.0010821999999995,-0.0028183999999991,-0.0009493999999999,0,sub_22
0.0095559999999998,0.0013386000000011,0.0007082,-0.0010873999999995,-0.0032445999999991,-0.0015931999999999,0,sub_22
0.0088109999999998,0.0015364000000012,0.0009144,-0.0010945999999995,-0.0038847999999991,-0.0020231999999998,0,sub_22
0.0088131999999998,0.0015010000000011,0.0009692,-0.0008883999999995,-0.0043133999999991,-0.0022381999999998,0,sub_22
0.0084689999999998,0.0012856000000011,0.0013048,-0.0009011999999995,-0.0055953999999991,-0.0020263999999998,0,sub_22
0.0088739999999998,0.0011308000000011,0.0013126,-0.0004791999999995,-0.0066621999999991,-0.0020221999999998,0,sub_22
0.0091149999999998,0.0007662000000011,0.0015554,-0.0004801999999995,-0.0066629999999991,-0.0018085999999998,0,sub_22
0.0096037999999998,0.0002792000000011,0.0021878,-0.0002629999999995,-0.0055993999999991,-0.0015947999999999,0,sub_22
0.0096355999999998,-0.0003093999999987,0.0023754,-0.0004781999999995,-0.0047541999999991,-0.0016007999999999,0,sub_22
0.0096781999999998,-0.0007043999999987,0.002458,-0.0004753999999995,-0.0030565999999991,-0.0018199999999999,0,sub_22
0.0092359999999998,-0.0008443999999987,0.002679,-0.0008993999999995,-0.0009331999999991,-0.0016153999999999,0,sub_22
0.0093115999999997,-0.0008089999999987,0.0019012,-0.0011079999999995,0.0011910000000008,-0.0018365999999998,0,sub_22
0.0093731999999998,-0.0005051999999987,0.0014806,-0.0019595999999995,0.0028906000000008,-0.0018481999999998,0,sub_22
0.0087107999999998,-0.0001475999999987,0.001546,-0.0025891999999995,0.0052364000000008,-0.0018555999999998,0,sub_22
0.0085331999999997,8.140000000121845e-05,0.0015892,-0.0032197999999995,0.0075812000000008,-0.0016493999999998,0,sub_22
