userAcceleration.x,userAcceleration.y,userAcceleration.z,rotationRate.x,rotationRate.y,rotationRate.z,label,subject
0.0069989999999997,-0.0221887999999987,-0.0335787999999998,0.0361270000000004,-0.025394199999999,-0.0013715999999999,0,sub_8
0.0054741999999997,-0.0214181999999987,-0.0321421999999998,0.0342116000000004,-0.020070799999999,0.000734,0,sub_8
0.0039777999999997,-0.0204039999999987,-0.0315903999999998,0.0318658000000004,-0.017083799999999,0.0013442,0,sub_8
0.0029535999999997,-0.0173399999999987,-0.0313427999999998,0.0299466000000004,-0.015583599999999,0.0004636000000001,0,sub_8
0.0017997999999997,-0.0151459999999987,-0.0308341999999998,0.0280256000000004,-0.013660599999999,0.000437,0,sub_8
0.0013797999999997,-0.0142353999999987,-0.0296439999999998,0.0246072000000004,-0.013221199999999,-0.0002387999999998,0,sub_8
0.0017851999999997,-0.0145519999999987,-0.0301711999999998,0.0216210000000004,-0.014058799999999,-0.0013267999999998,0,sub_8
0.0020679999999997,-0.0157695999999987,-0.0300653999999998,0.0197044000000004,-0.013411999999999,-0.0015547999999998,0,sub_8
0.0026215999999997,-0.0186569999999987,-0.0295573999999998,0.0180032000000004,-0.011703399999999,-0.0011415999999998,0,sub_8
0.0026955999999997,-0.0206901999999987,-0.0292059999999998,0.0159644000000004,-0.010716999999999,-0.0005775999999998,0,sub_8
0.0032585999999997,-0.0219433999999987,-0.0295793999999998,0.0143532000000004,-0.009731199999999,-0.0002243999999998,0,sub_8
0.0032331999999997,-0.0224011999999987,-0.0296413999999998,0.0136004000000004,-0.007895199999999,-7.979999999986559e-05,0,sub_8
0.0036709999999997,-0.0212987999999987,-0.0299751999999998,0.0124218000000004,-0.005844799999999,6.16000000001144e-05,0,sub_8
0.0030219999999997,-0.0193781999999987,-0.0301139999999998,0.0106020000000004,-0.003792999999999,0.0004122000000001,0,sub_8
0.0023399999999997,-0.0184255999999987,-0.0295017999999998,0.0093312000000004,-0.001870199999999,0.0001872000000001,0,sub_8
0.0019369999999997,-0.0175893999999987,-0.0291557999999998,0.0080558000000004,-0.000588399999999,0.0003904,0,sub_8
0.0020531999999997,-0.0168579999999987,-0.0290109999999998,0.0063498000000004,-0.000581599999999,0.0001648,0,sub_8
0.0016477999999997,-0.0167319999999987,-0.0282779999999998,0.0052080000000004,-0.001781599999999,-0.0005663999999999,0,sub_8
0.0022515999999997,-0.0172015999999987,-0.0288607999999998,0.0049208000000004,-0.002771599999999,-0.0012917999999999,0,sub_8
0.0033261999999997,-0.0177717999999987,-0.0298597999999998,0.0044192000000004,-0.0039737999999989,-0.0020183999999999,0,sub_8
0.0030049999999997,-0.0184385999999987,-0.0301105999999998,0.0043472000000004,-0.0043261999999989,-0.0025295999999999,0,sub_8
0.0027793999999997,-0.0189313999999987,-0.0299345999999998,0.0044942000000004,-0.0031889999999989,-0.0028273999999999,0,sub_8
0.0023459999999997,-0.0194213999999987,-0.0307887999999998,0.0047104000000004,-0.002126199999999,-0.0023997999999999,0,sub_8
0.0020203999999997,-0.0188669999999987,-0.0303841999999998,0.0042856000000004,-0.001274199999999,-0.0019765999999999,0,sub_8
0.0011517999999997,-0.0178093999999987,-0.0297091999999998,0.0040714000000004,-0.000425599999999,-0.0009109999999999,0,sub_8
0.0007791999999997,-0.0171425999999987,-0.0294157999999998,0.0040656000000004,-0.000642799999999,0.0001574,0,sub_8
0.0008703999999997,-0.0162431999999987,-0.0293475999999998,0.0045330000000004,-0.001778999999999,0.0007352,0,sub_8
0.0016391999999997,-0.0159495999999987,-0.0285861999999998,0.0041498000000004,-0.002273199999999,0.0013062,0,sub_8
0.0022407999999997,-0.0162247999999987,-0.0288009999999998,0.0039780000000004,-0.003618599999999,0.0014524,0,sub_8
0.0029525999999997,-0.0169299999999987,-0.0290151999999998,0.0033852000000004,-0.004532999999999,0.0007408,0,sub_8
0.0041721999999997,-0.0181547999999987,-0.0298531999999998,0.0021620000000004,-0.003314799999999,2.200000000009449e-05,0,sub_8
0.0045075999999997,-0.0192367999999987,-0.0314511999999998,-0.0010221999999995,0.0005304000000009,0.0002084,0,sub_8
0.0041875999999997,-0.0195997999999987,-0.0318129999999998,-0.0050541999999995,0.0054448000000009,0.000174,0,sub_8
0.0038235999999997,-0.0195675999999987,-0.0306563999999998,-0.0070007999999995,0.0097206000000009,0.0003238,0,sub_8
0.0033771999999997,-0.0189875999999987,-0.0299381999999998,-0.0070327999999995,0.0127112000000009,0.0004884,0,sub_8
0.0029261999999997,-0.0177637999999987,-0.0295627999999998,-0.0070665999999995,0.0140026000000009,-0.0006265999999999,0,sub_8
0.0024097999999997,-0.0165205999999987,-0.0276643999999998,-0.0068899999999995,0.0140174000000009,-0.0023793999999999,0,sub_8
0.0031303999999997,-0.0154283999999987,-0.0274493999999998,-0.0058635999999995,0.0131770000000009,-0.0041251999999999,0,sub_8
0.0036427999999997,-0.0152931999999987,-0.0275827999999998,-0.0054299999999995,0.0129692000000009,-0.0058309999999998,0,sub_8
0.0037469999999997,-0.0158759999999987,-0.0271587999999998,-0.0058451999999995,0.0142542000000009,-0.0071173999999998,0,sub_8
0.0027609999999997,-0.0164775999999987,-0.0269669999999998,-0.0066929999999995,0.0159598000000009,-0.0066981999999998,0,sub_8
0.0024421999999997,-0.0172259999999987,-0.0274213999999998,-0.0060567999999995,0.0157420000000009,-0.0060523999999998,0,sub_8
0.0014381999999997,-0.0177543999999987,-0.0279669999999998,-0.0048679999999995,0.0142790000000009,-0.0050003999999998,0,sub_8
0.0003743999999997,-0.0175261999999987,-0.0288383999999998,-0.0041049999999995,0.0132428000000009,-0.0037381999999998,0,sub_8
0.0001105999999997,-0.0167759999999987,-0.0301451999999998,-0.0050527999999995,0.0126336000000009,-0.0012065999999998,0,sub_8
0.0005285999999997,-0.0163907999999987,-0.0301397999999998,-0.0070607999999995,0.0135196000000009,0.0013156,0,sub_8
0.0011171999999997,-0.0154911999999987,-0.0297993999999998,-0.0116213999999995,0.0176042000000009,0.0053114,0,sub_8
0.0015097999999997,-0.0149335999999987,-0.0293591999999998,-0.0154601999999995,0.0222878000000009,0.0095516,0,sub_8
0.0019361999999997,-0.0149397999999987,-0.0289257999999998,-0.0193017999999995,0.0271810000000009,0.014646,0,sub_8
0.0016383999999997,-0.0153563999999987,-0.0293317999999998,-0.0240657999999995,0.0338140000000009,0.020145,0,sub_8
0.0007427999999997,-0.0159393999999987,-0.0308527999999998,-0.0301023999999995,0.0417316000000009,0.0252062,0,sub_8
-0.0009160000000002,-0.0166271999999987,-0.0322271999999998,-0.0376373999999995,0.0483770000000009,0.0300448,0,sub_8
-0.0011032000000002,-0.0165097999999987,-0.0300999999999998,-0.0417707999999995,0.0499066000000009,0.0325636,0,sub_8
-0.0017908000000002,-0.0166049999999987,-0.0287341999999998,-0.0403719999999995,0.0458858000000009,0.0329918,0,sub_8
-0.0016832000000002,-0.0168613999999987,-0.0278343999999998,-0.0367705999999995,0.0386354000000009,0.0315308,0,sub_8
0.0002029999999997,-0.0157385999999987,-0.0267947999999998,-0.0306161999999995,0.0288226000000009,0.0292364,0,sub_8
0.0034391999999997,-0.0157611999999987,-0.0255629999999998,-0.0199763999999995,0.0162400000000009,0.0231312,0,sub_8
0.0054467999999997,-0.0165039999999987,-0.0264619999999998,-0.0112905999999995,0.0085988000000009,0.0159314,0,sub_8
0.0078837999999997,-0.0167569999999987,-0.0264609999999998,-0.0074921999999995,0.0058734000000009,0.0091184,0,sub_8
0.0102641999999997,-0.0163421999999987,-0.0253709999999998,-0.0024153999999995,0.0031416000000009,0.0027418,0,sub_8
0.0108179999999997,-0.0157947999999987,-0.0237041999999998,0.0041472000000004,-0.002148599999999,-0.0044757999999998,0,sub_8
0.0104767999999997,-0.0159215999999987,-0.0204835999999998,0.0113394000000004,-0.008723799999999,-0.0106191999999998,0,sub_8
0.0096259999999997,-0.0154309999999987,-0.0191935999999998,0.0192122000000004,-0.017258999999999,-0.0141851999999998,0,sub_8
0.0084717999999997,-0.0138265999999987,-0.0192247999999998,0.0258008000000004,-0.026005399999999,-0.0171189999999998,0,sub_8
0.0075361999999997,-0.0124403999999987,-0.0193999999999998,0.0315360000000004,-0.034748799999999,-0.0200587999999998,0,sub_8
0.0059709999999997,-0.0127839999999987,-0.0198597999999998,0.0365966000000004,-0.041350399999999,-0.0217289999999998,0,sub_8
0.0031137999999997,-0.0126841999999987,-0.0240217999999998,0.0399522000000004,-0.045397999999999,-0.0212777999999998,0,sub_8
0.0006331999999997,-0.0130891999999987,-0.0272321999999998,0.0386270000000004,-0.045809999999999,-0.0202229999999998,0,sub_8
-0.0013502000000002,-0.0150005999999987,-0.0310163999999998,0.0347530000000004,-0.042595399999999,-0.0181223999999998,0,sub_8
-0.0029452000000002,-0.0164513999999987,-0.0331263999999998,0.0264114000000004,-0.034896999999999,-0.0145633999999999,0,sub_8
-0.0033478000000002,-0.0177211999999987,-0.0348031999999998,0.0166222000000004,-0.022744399999999,-0.0082379999999999,0,sub_8
-0.0017458000000002,-0.0173067999999987,-0.0336887999999998,0.0049232000000004,-0.006331599999999,-8.599999999905211e-06,0,sub_8
-0.0006386000000002,-0.0174603999999987,-0.0337739999999998,-0.0065547999999995,0.0117850000000009,0.0082202,0,sub_8
0.0006515999999997,-0.0170187999999987,-0.0323295999999998,-0.0197349999999995,0.0307606000000009,0.0162222,0,sub_8
0.0017169999999997,-0.0165903999999987,-0.0318731999999998,-0.0314257999999995,0.0495042000000009,0.022319,0,sub_8
0.0023651999999997,-0.0150191999999987,-0.0286233999999998,-0.0414193999999995,0.0625038000000009,0.024803,0,sub_8
0.0016049999999997,-0.0142253999999987,-0.0270145999999998,-0.0446175999999995,0.0652650000000009,0.0243566,0,sub_8
0.0024019999999997,-0.0136141999999987,-0.0244519999999998,-0.0435809999999995,0.0616160000000009,0.0248026,0,sub_8
0.0031731999999997,-0.0132503999999987,-0.0211899999999998,-0.0355261999999995,0.0515560000000009,0.024024,0,sub_8
0.0032245999999997,-0.0129547999999987,-0.0181907999999998,-0.0221461999999995,0.0353262000000009,0.0217882,0,sub_8
0.0026129999999997,-0.0135985999999987,-0.0184867999999998,-0.0081295999999995,0.0184544000000009,0.0197714,0,sub_8
0.0030477999999997,-0.0148503999999987,-0.0203833999999998,-0.0015209999999995,0.0079304000000009,0.017462,0,sub_8
0.0031067999999997,-0.0155917999999987,-0.0233815999999998,0.0012670000000004,0.0004086000000009,0.0136266,0,sub_8
0.0032495999999997,-0.0169715999999987,-0.0275067999999998,0.0010842000000004,-0.003905199999999,0.009339,0,sub_8
0.0028909999999997,-0.0184153999999987,-0.0306653999999998,-0.0014379999999995,-0.005020999999999,0.0065264,0,sub_8
0.0033449999999997,-0.0195007999999987,-0.0333473999999998,-0.0041651999999995,-0.002945399999999,0.0049902,0,sub_8
0.0032723999999997,-0.0200625999999987,-0.0339423999999998,-0.0045793999999995,-0.001235199999999,0.003917,0,sub_8
0.0025749999999997,-0.0197771999999987,-0.0325671999999998,-0.0043439999999995,0.0013302000000009,0.0015652,0,sub_8
0.0013729999999997,-0.0179801999999987,-0.0302549999999998,-0.0051773999999995,0.0043218000000009,6.0000000000094354e-05,0,sub_8
0.0009399999999997,-0.0163049999999987,-0.0292901999999998,-0.0072161999999995,0.0072094000000009,-0.0013015999999998,0,sub_8
0.0015191999999997,-0.0137507999999987,-0.0282017999999998,-0.0109685999999995,0.0079748000000009,-0.0033133999999998,0,sub_8
0.0029815999999997,-0.0109915999999987,-0.0267981999999998,-0.0142963999999995,0.0085248000000009,-0.0051083999999998,0,sub_8
0.0044067999999997,-0.0090527999999987,-0.0263349999999998,-0.0161447999999995,0.0077836000000009,-0.0049685999999998,0,sub_8
0.0060227999999997,-0.0096503999999987,-0.0256623999999998,-0.0160785999999995,0.0055454000000009,-0.0050269999999998,0,sub_8
0.0082673999999997,-0.0101483999999987,-0.0242567999999998,-0.0139621999999995,0.0023396000000009,-0.0043671999999998,0,sub_8
0.0097107999999997,-0.0115353999999987,-0.0228803999999998,-0.0103463999999995,0.0004070000000009,-0.0036985999999998,0,sub_8
0.0102779999999997,-0.0125769999999987,-0.0216779999999998,-0.0054483999999995,-0.001316199999999,-0.0032347999999998,0,sub_8
0.0089819999999997,-0.0136967999999987,-0.0206279999999998,0.0013714000000004,-0.005412599999999,-0.0036259999999998,0,sub_8
0.0075977999999997,-0.0133077999999987,-0.0199777999999998,0.0073310000000004,-0.010785199999999,-0.0038079999999998,0,sub_8
0.0053823999999997,-0.0128375999999987,-0.0210901999999998,0.0115894000000004,-0.015722399999999,-0.0048567999999999,0,sub_8
0.0025153999999998,-0.0126685999999987,-0.0231863999999998,0.0152058000000004,-0.021083399999999,-0.0059095999999999,0,sub_8
-0.0004022000000001,-0.0131377999999987,-0.0263323999999998,0.0175458000000004,-0.025163199999999,-0.0065457999999998,0,sub_8
-0.0015890000000001,-0.0142677999999987,-0.0284621999999998,0.0169056000000004,-0.025372999999999,-0.0067635999999998,0,sub_8
-0.0024678000000001,-0.0156537999999987,-0.0310415999999998,0.0154216000000004,-0.023237199999999,-0.0067765999999998,0,sub_8
-0.0027266000000001,-0.0173321999999987,-0.0320097999999998,0.0124536000000004,-0.018965599999999,-0.0068029999999998,0,sub_8
-0.0020758000000001,-0.0186061999999987,-0.0317987999999998,0.0099122000000004,-0.013644399999999,-0.0064097999999998,0,sub_8
-0.0005764000000002,-0.0194621999999987,-0.0302165999999998,0.0058734000000004,-0.008109399999999,-0.0049591999999998,0,sub_8
0.0009341999999997,-0.0188693999999987,-0.0292961999999998,0.0009850000000004,-0.001506999999999,-0.0033021999999998,0,sub_8
0.0023521999999997,-0.0176539999999987,-0.0278133999999998,-0.0032595999999995,0.0053088000000009,-0.0022817999999998,0,sub_8
0.0033683999999997,-0.0157847999999987,-0.0258447999999998,-0.0036825999999995,0.0078502000000009,-0.0012291999999999,0,sub_8
0.0044731999999997,-0.0140423999999987,-0.0237635999999998,-0.0049677999999995,0.0082748000000009,0.0002568,0,sub_8
0.0041645999999997,-0.0129483999999987,-0.0228657999999998,-0.0032723999999995,0.0059244000000009,0.0004854,0,sub_8
0.0042847999999997,-0.0121249999999987,-0.0224655999999998,0.0005472000000004,0.0007994000000009,9.140000000011434e-05,0,sub_8
0.0043235999999997,-0.0120541999999987,-0.0226419999999998,0.0058508000000004,-0.006461399999999,-0.0002895999999998,0,sub_8
0.0043411999999997,-0.0130079999999987,-0.0232623999999998,0.0103538000000004,-0.011877399999999,-0.0009407999999998,0,sub_8
0.0040409999999997,-0.0131985999999987,-0.0240249999999998,0.0169956000000004,-0.015811399999999,-0.0011517999999998,0,sub_8
0.0039229999999997,-0.0129733999999987,-0.0241111999999998,0.0242802000000004,-0.018471599999999,-0.0007189999999998,0,sub_8
0.0030821999999997,-0.0122107999999987,-0.0232739999999998,0.0313486000000004,-0.020284999999999,0.0012068,0,sub_8
0.0019391999999997,-0.0104699999999987,-0.0226753999999998,0.0373512000000004,-0.021244799999999,0.0037648,0,sub_8
0.0005039999999997,-0.0083939999999987,-0.0228733999999998,0.0405422000000004,-0.019566999999999,0.0076304,0,sub_8
-0.0008156000000002,-0.0078957999999987,-0.0226477999999998,0.0403212000000004,-0.016814399999999,0.0121118,0,sub_8
-0.0006306000000002,-0.0081109999999987,-0.0230313999999998,0.0377540000000004,-0.014689399999999,0.015723,0,sub_8
0.0004313999999997,-0.0094159999999987,-0.0239163999999998,0.0341560000000004,-0.014104599999999,0.0184356,0,sub_8
0.0021187999999997,-0.0117455999999987,-0.0258293999999998,0.0320514000000004,-0.012463999999999,0.0222256,0,sub_8
0.0040051999999997,-0.0148353999999987,-0.0261785999999998,0.0288822000000004,-0.009120399999999,0.0272878,0,sub_8
0.0046811999999997,-0.0177449999999987,-0.0291619999999998,0.0238154000000004,-0.003203199999999,0.0297698,0,sub_8
0.0067263999999997,-0.0195507999999987,-0.0316955999999998,0.0138680000000004,0.0072112000000009,0.0307164,0,sub_8
0.0101851999999997,-0.0183589999999987,-0.0301457999999998,0.0196184000000004,0.0010280000000009,0.0269188,0,sub_8
0.0104617999999997,-0.0155613999999987,-0.0283745999999998,0.0268224000000004,-0.010713599999999,0.0265568,0,sub_8
0.0089255999999997,-0.0131167999999987,-0.0214897999999998,0.0323808000000004,-0.017371399999999,0.0261618,0,sub_8
0.0070071999999997,-0.0102597999999987,-0.0159759999999998,0.0381564000000004,-0.025724199999999,0.0232066,0,sub_8
0.0040781999999997,-0.0083775999999987,-0.0125267999999998,0.0479642000000004,-0.040688999999999,0.018579,0,sub_8
0.0013933999999997,-0.0099091999999987,-0.0150813999999998,0.0471426000000004,-0.042212799999999,0.0185602,0,sub_8
0.0015879999999997,-0.0122189999999987,-0.0159849999999998,0.0442284000000004,-0.037750999999999,0.0153144,0,sub_8
0.0010765999999997,-0.0146725999999987,-0.0244537999999998,0.0423272000000004,-0.037939399999999,0.0108148,0,sub_8
0.0026215999999997,-0.0166183999999987,-0.0302523999999998,0.0416796000000004,-0.041975799999999,0.0084654,0,sub_8
0.0039113999999997,-0.0176495999999987,-0.0329507999999998,0.0448504000000004,-0.046469599999999,0.0106298,0,sub_8
0.0037533999999997,-0.0175887999999987,-0.0337465999999998,0.0416498000000004,-0.042214399999999,0.0148748,0,sub_8
0.0034903999999997,-0.0175357999999987,-0.0307887999999998,0.0380310000000004,-0.038148999999999,0.0171986000000001,0,sub_8
0.0068775999999997,-0.0156369999999987,-0.0262851999999998,0.0384480000000004,-0.040479999999999,0.0172088,0,sub_8
0.0102107999999997,-0.0133081999999987,-0.0216367999999998,0.0401586000000004,-0.039195999999999,0.0178642,0,sub_8
0.0122637999999997,-0.0111743999999987,-0.0183483999999998,0.0406198000000004,-0.033424199999999,0.016155,0,sub_8
0.0121797999999997,-0.0098463999999987,-0.0152297999999998,0.0385272000000004,-0.028274199999999,0.0122924,0,sub_8
0.0112917999999997,-0.0089947999999987,-0.0170007999999998,0.0349344000000004,-0.023562399999999,0.0092704,0,sub_8
0.0092813999999997,-0.0090439999999987,-0.0194755999999998,0.0321856000000004,-0.018649999999999,0.008604,0,sub_8
0.0065449999999997,-0.0105135999999987,-0.0217135999999998,0.0304680000000004,-0.019264599999999,0.0081732,0,sub_8
0.0039891999999997,-0.0121773999999987,-0.0234747999999998,0.0283044000000004,-0.023926399999999,0.007958,0,sub_8
0.0039371999999997,-0.0125543999999987,-0.0264535999999998,0.0308304000000004,-0.031791799999999,0.0056432,0,sub_8
0.0039899999999997,-0.0157227999999987,-0.0267839999999998,0.0335744000000004,-0.039865999999999,0.0020482,0,sub_8
0.0053807999999997,-0.0169973999999987,-0.0279413999999998,0.0361222000000004,-0.046014199999999,-0.0034733999999999,0,sub_8
0.0053431999999997,-0.0186603999999987,-0.0285243999999998,0.0338038000000004,-0.044707199999999,-0.0086187999999999,0,sub_8
0.0053703999999997,-0.0187023999999987,-0.0282521999999998,0.0285156000000004,-0.039130399999999,-0.0133629999999999,0,sub_8
0.0043839999999997,-0.0200723999999987,-0.0258493999999998,0.0238540000000004,-0.035689799999999,-0.0172455999999999,0,sub_8
0.0045855999999997,-0.0182973999999987,-0.0261809999999998,0.0172654000000004,-0.031187399999999,-0.0185791999999999,0,sub_8
0.0040109999999997,-0.0166231999999987,-0.0233725999999998,0.0097482000000004,-0.025571999999999,-0.0190793999999999,0,sub_8
0.0043083999999997,-0.0140675999999987,-0.0209491999999998,0.0060602000000004,-0.022102199999999,-0.0191225999999999,0,sub_8
0.0039377999999997,-0.0134167999999987,-0.0206137999999998,0.0038620000000004,-0.019277599999999,-0.0189409999999998,0,sub_8
0.0036855999999997,-0.0124211999999987,-0.0207263999999998,0.0005978000000004,-0.015811999999999,-0.0183403999999998,0,sub_8
0.0024143999999997,-0.0119479999999987,-0.0196951999999998,0.0016020000000004,-0.013845799999999,-0.0194171999999998,0,sub_8
0.0009879999999997,-0.0118631999999987,-0.0233931999999998,0.0039464000000004,-0.0159785999999989,-0.0208935999999998,0,sub_8
0.0004201999999997,-0.0124477999999987,-0.0255483999999998,0.0045732000000004,-0.0191757999999989,-0.0210987999999998,0,sub_8
0.0004125999999997,-0.0126449999999987,-0.0265317999999998,0.0043434000000004,-0.0206749999999989,-0.0189619999999999,0,sub_8
0.0011435999999997,-0.0130285999999987,-0.0280253999999998,7.800000000047768e-05,-0.015777599999999,-0.0145113999999999,0,sub_8
0.0036385999999997,-0.0129203999999987,-0.0289099999999998,-0.0082281999999995,-0.008944399999999,-0.0111599999999999,0,sub_8
0.0065881999999997,-0.0148627999999987,-0.0267653999999998,-0.0190737999999995,0.0019482000000009,-0.0084721999999999,0,sub_8
0.0087879999999997,-0.0161097999999987,-0.0262047999999998,-0.0303297999999995,0.0158276000000009,-0.0064321999999999,0,sub_8
0.0096541999999997,-0.0162585999999987,-0.0250809999999998,-0.0424353999999995,0.0299256000000009,-0.0050393999999999,0,sub_8
0.0095315999999997,-0.0163425999999987,-0.0243301999999998,-0.0505099999999995,0.0391082000000009,-0.0033985999999999,0,sub_8
0.0086827999999997,-0.0160593999999987,-0.0224631999999998,-0.0560421999999995,0.0448706000000009,-0.0010943999999999,0,sub_8
0.0054263999999997,-0.0138235999999987,-0.0209969999999998,-0.0585959999999995,0.0482808000000009,0.0008062,0,sub_8
0.0018339999999997,-0.0111795999999987,-0.0194249999999998,-0.0549743999999995,0.0452922000000009,-0.0008737999999999,0,sub_8
-0.0001226000000002,-0.0093125999999987,-0.0190957999999998,-0.0460365999999995,0.0361150000000009,-0.0046451999999999,0,sub_8
-0.0003880000000002,-0.0077589999999987,-0.0182229999999998,-0.0353957999999995,0.0239576000000009,-0.0105371999999999,0,sub_8
-0.0007706000000002,-0.0065771999999987,-0.0190775999999998,-0.0245329999999995,0.0145656000000009,-0.0155767999999999,0,sub_8
0.0005087999999997,-0.0069197999999987,-0.0203097999999998,-0.0183547999999995,0.0102914000000009,-0.0176645999999998,0,sub_8
0.0033421999999997,-0.0068565999999987,-0.0194401999999998,-0.0166525999999995,0.0104934000000009,-0.0163711999999998,0,sub_8
0.0053157999999997,-0.0077807999999987,-0.0169065999999998,-0.0130415999999995,0.0098296000000009,-0.0133541999999998,0,sub_8
0.0062203999999997,-0.0102369999999987,-0.0153767999999998,-0.0038963999999995,0.0048906000000009,-0.0115747999999998,0,sub_8
0.0060003999999997,-0.0140819999999987,-0.0179277999999998,0.0067358000000004,-0.004303599999999,-0.0125569999999998,0,sub_8
0.0056403999999997,-0.0167571999999987,-0.0199935999999998,0.0137560000000004,-0.013047199999999,-0.0165559999999998,0,sub_8
0.0054883999999997,-0.0174517999999987,-0.0225699999999998,0.0158868000000004,-0.017088999999999,-0.0199541999999999,0,sub_8
0.0063373999999997,-0.0176815999999987,-0.0252853999999998,0.0116376000000004,-0.015360399999999,-0.0223359999999999,0,sub_8
0.0074313999999997,-0.0153021999999987,-0.0266333999999998,0.0010016000000005,-0.007442799999999,-0.0217795999999999,0,sub_8
0.0084223999999997,-0.0105611999999987,-0.0231711999999998,-0.0093201999999994,0.0037358000000009,-0.0189265999999999,0,sub_8
0.0093669999999997,-0.0061189999999987,-0.0190731999999998,-0.0126199999999994,0.0093556000000009,-0.0172993999999998,0,sub_8
0.0092537999999997,-0.0057501999999987,-0.0186769999999998,-0.0031431999999995,0.0023878000000009,-0.0224033999999998,0,sub_8
0.0074237999999997,-0.0079443999999987,-0.0193195999999998,0.0063478000000004,-0.005628199999999,-0.0317787999999998,0,sub_8
0.0045731999999997,-0.0102795999999987,-0.0205599999999998,0.0143654000000004,-0.012135799999999,-0.0441573999999998,0,sub_8
0.0045741999999997,-0.0117757999999987,-0.0210447999999998,0.0225022000000004,-0.019777799999999,-0.0581911999999998,0,sub_8
0.0052825999999997,-0.0144773999999987,-0.0193173999999998,0.0325490000000004,-0.027435799999999,-0.0698615999999998,0,sub_8
0.0053283999999997,-0.0169291999999987,-0.0166279999999998,0.0407098000000004,-0.031951999999999,-0.0751401999999999,0,sub_8
0.0058279999999997,-0.0171893999999987,-0.0140659999999998,0.0469292000000004,-0.033297199999999,-0.0725315999999999,0,sub_8
0.0065041999999997,-0.0150379999999987,-0.0138361999999998,0.0456682000000004,-0.029534399999999,-0.0620769999999999,0,sub_8
0.0043333999999997,-0.0136375999999987,-0.0156803999999998,0.0382106000000004,-0.022999199999999,-0.0469689999999999,0,sub_8
0.0012637999999997,-0.0119155999999987,-0.0197903999999998,0.0258368000000004,-0.015605799999999,-0.0291189999999999,0,sub_8
-0.0018956000000002,-0.0092655999999987,-0.0231933999999998,0.0080942000000004,-0.006023799999999,-0.0123771999999999,0,sub_8
-0.0035592000000002,-0.0064043999999987,-0.0257395999999998,-0.0058037999999995,-0.001968999999999,-0.0020109999999999,0,sub_8
-0.0040176000000002,-0.0065349999999987,-0.0259059999999998,-0.0122453999999995,-0.007499599999999,0.0013694,0,sub_8
-0.0009862000000002,-0.0077797999999987,-0.0244335999999998,-0.0125617999999995,-0.017617399999999,0.000332,0,sub_8
0.0032667999999997,-0.0088703999999987,-0.0222909999999998,-0.0081619999999995,-0.026034399999999,-0.0038791999999999,0,sub_8
