userAcceleration.x,userAcceleration.y,userAcceleration.z,rotationRate.x,rotationRate.y,rotationRate.z,label,subject
-0.0063096000000001,0.0053204000000012,-0.0103239999999999,-0.0246189999999995,-0.014070599999999,0.0041672,0,sub_5
-0.0085712000000002,0.0033568000000012,-0.0076453999999999,-0.0348559999999995,-0.014030399999999,0.0030274,0,sub_5
-0.0095956000000002,-0.0021961999999987,-0.0069319999999999,-0.0461435999999995,-0.011637999999999,0.0005954,0,sub_5
-0.0097394000000002,-0.0090117999999987,-0.0071129999999998,-0.0480687999999995,-0.011847799999999,0.0014368,0,sub_5
-0.0109066000000002,-0.0138637999999987,-0.0039655999999998,-0.0371857999999995,-0.009126399999999,0.004073,0,sub_5
-0.0099378000000002,-0.0154087999999987,0.0006920000000001,-0.0228581999999995,-0.001296799999999,0.0050176,0,sub_5
-0.0054576000000002,-0.0172615999999987,0.0013812000000001,-0.0117435999999995,0.0071694000000009,0.0093574,0,sub_5
-0.0008676000000002,-0.0154255999999987,0.0005534000000001,-0.0008883999999995,0.0124126000000009,0.0207496,0,sub_5
0.0009821999999997,-0.0083647999999987,0.0008474,0.0027236000000004,0.0221476000000009,0.0340084000000001,0,sub_5
0.0028759999999997,0.0003190000000012,-0.0013531999999999,-0.0028299999999995,0.0306500000000009,0.0437864000000001,0,sub_5
0.0048769999999997,0.0055106000000012,-0.0051171999999999,-0.0107399999999995,0.0327860000000009,0.0492832,0,sub_5
0.0056117999999997,0.0102238000000012,-0.0087695999999999,-0.0167595999999995,0.0268252000000009,0.053308,0,sub_5
0.0020015999999997,0.0136692000000012,-0.0091369999999999,-0.0186867999999995,0.0223698000000009,0.0503092,0,sub_5
-0.0006980000000001,0.0128794000000012,-0.0083931999999999,-0.0156649999999995,0.0175094000000009,0.0377316,0,sub_5
-0.0015366000000001,0.0089684000000012,-0.0078103999999999,-0.0088149999999995,0.0071074000000009,0.0224104000000001,0,sub_5
-0.0042040000000001,0.0083592000000011,-0.0069449999999999,-0.0017535999999995,-0.002872799999999,0.0079446000000001,0,sub_5
-0.0088166000000001,0.0070692000000012,-0.0061659999999999,0.0038660000000004,-0.004313599999999,-0.0095331999999998,0,sub_5
-0.0120618000000001,0.0031678000000012,-0.0051655999999999,0.0052268000000004,-0.002548999999999,-0.0257629999999998,0,sub_5
-0.0116444000000001,-0.0014359999999987,-0.0057229999999999,0.0018424000000004,-0.003783799999999,-0.0336899999999998,0,sub_5
-0.0115188000000001,-0.0050585999999987,-0.0058545999999999,-0.0019981999999995,-0.003770399999999,-0.0337167999999998,0,sub_5
-0.0108026000000001,-0.0078469999999987,-0.0049697999999998,-0.0043501999999995,-0.001007799999999,-0.0298911999999998,0,sub_5
-0.0081408000000001,-0.0076159999999987,-0.0049019999999998,-0.0073575999999995,0.0006822000000009,-0.0237185999999998,0,sub_5
-0.0045848000000001,-0.0060257999999987,-0.0058757999999998,-0.0088875999999995,-0.000618199999999,-0.0168909999999998,0,sub_5
-0.0023126000000002,-0.0043211999999987,-0.0073575999999998,-0.0065557999999995,-0.000215599999999,-0.0130295999999998,0,sub_5
-0.0014850000000002,-0.0023795999999987,-0.0075047999999998,-0.0029323999999995,-0.000231799999999,-0.0121497999999999,0,sub_5
0.0004057999999997,-0.0022493999999987,-0.0077797999999999,0.0019608000000004,-0.003444799999999,-0.0121113999999999,0,sub_5
0.0016045999999997,-0.0044045999999987,-0.0067775999999999,0.0070530000000004,-0.007095599999999,-0.0092937999999999,0,sub_5
0.0029415999999997,-0.0057069999999987,-0.0047361999999999,0.0119318000000004,-0.008835799999999,-0.0045571999999999,0,sub_5
0.0040851999999997,-0.0060641999999987,-0.0029235999999999,0.0133880000000004,-0.010571999999999,0.0020782000000001,0,sub_5
0.0061565999999997,-0.0060911999999987,-0.0018085999999999,0.0131392000000004,-0.011027199999999,0.0095546,0,sub_5
0.0053809999999997,-0.0033547999999987,-0.0013785999999999,0.0110286000000004,-0.007650599999999,0.0168036,0,sub_5
0.0043675999999997,-0.0007547999999987,-0.0022283999999999,0.0078800000000004,-0.001273799999999,0.0206232,0,sub_5
0.0027937999999997,0.0026178000000012,-0.0047941999999999,0.0053734000000004,0.0014950000000009,0.0203928,0,sub_5
-0.0011022000000002,0.0053810000000012,-0.0054085999999999,0.0050092000000003,0.0034152000000009,0.017401,0,sub_5
-0.0057014000000001,0.0072980000000012,-0.0057989999999998,0.0044958000000003,0.0072760000000009,0.0105608000000001,0,sub_5
-0.0089362000000001,0.0068192000000012,-0.0055937999999998,0.0024514000000004,0.0096698000000009,0.0015712000000001,0,sub_5
-0.0110136000000001,0.0055718000000012,-0.0076219999999998,0.0008058000000004,0.0069446000000009,-0.0063409999999998,0,sub_5
-0.0126946000000001,0.0040674000000012,-0.0082273999999998,-0.0004177999999995,0.0046380000000009,-0.0127553999999998,0,sub_5
-0.0120400000000001,0.0027042000000012,-0.0083011999999998,-0.0027149999999995,0.0014804000000009,-0.0185351999999998,0,sub_5
-0.0097154000000001,0.0005832000000012,-0.0088759999999998,-0.0054915999999995,-0.002756399999999,-0.0221811999999998,0,sub_5
-0.0072924000000001,-0.0013567999999987,-0.0087595999999998,-0.0057115999999995,-0.006368999999999,-0.0243145999999998,0,sub_5
-0.0051006000000001,-0.0015871999999987,-0.0059235999999998,-0.0052885999999995,-0.008071599999999,-0.0251639999999998,0,sub_5
-0.0028776000000001,-0.0024387999999987,-0.0035231999999998,-0.0063525999999995,-0.007004399999999,-0.0247453999999998,0,sub_5
-0.0012360000000001,-0.0030801999999987,-0.0032791999999998,-0.0063203999999995,-0.003368199999999,-0.0233089999999999,0,sub_5
0.0007965999999997,-0.0040515999999987,-0.0034119999999998,-0.0035229999999995,-0.000598199999999,-0.0207839999999999,0,sub_5
0.0013539999999997,-0.0043853999999987,-0.0037665999999998,0.0003250000000004,0.0004560000000009,-0.0163265999999999,0,sub_5
0.0008233999999997,-0.0062927999999987,-0.0040081999999998,0.0043768000000004,0.0004400000000009,-0.0107981999999999,0,sub_5
0.0004401999999997,-0.0075081999999987,-0.0034785999999998,0.0084228000000004,-5.399999999081834e-06,-0.0044147999999999,0,sub_5
-0.0003152000000002,-0.0077049999999987,-0.0026499999999999,0.0120166000000004,-0.000896599999999,0.0022344000000001,0,sub_5
-0.0029128000000001,-0.0060421999999987,-0.0021077999999999,0.0143378000000004,-0.000927799999999,0.0080192,0,sub_5
-0.0041160000000001,-0.0036373999999987,-0.0021459999999999,0.0140696000000004,0.0005548000000009,0.0120382,0,sub_5
-0.0047718000000001,0.0004304000000012,-0.0030905999999999,0.0127470000000004,0.0026886000000009,0.0139126,0,sub_5
-0.0048718000000001,0.0040404000000012,-0.0058843999999999,0.0114312000000004,0.0041918000000009,0.0136514,0,sub_5
-0.0051116000000001,0.0070000000000012,-0.0076915999999999,0.0105382000000004,0.0035680000000009,0.012114,0,sub_5
-0.0053256000000001,0.0091772000000012,-0.0079191999999998,0.0083612000000004,0.0006112000000009,0.0090752,0,sub_5
-0.0055240000000001,0.0087120000000012,-0.0081045999999998,0.0058084000000004,-0.002131799999999,0.0045744,0,sub_5
-0.0058642000000002,0.0069078000000012,-0.0077083999999998,0.0032614000000004,-0.004444999999999,-0.0007815999999999,0,sub_5
-0.0063464000000002,0.0048164000000012,-0.0059173999999998,0.0009248000000004,-0.007398199999999,-0.0061351999999999,0,sub_5
-0.0066426000000001,0.0021258000000012,-0.0048301999999998,-0.0008611999999995,-0.008420599999999,-0.0121245999999998,0,sub_5
-0.0056484000000001,-0.0007311999999987,-0.0042423999999999,-0.0013583999999995,-0.007317799999999,-0.0178941999999998,0,sub_5
-0.0041322000000001,-0.0019447999999987,-0.0041191999999999,-0.0010097999999995,-0.006436999999999,-0.0221621999999998,0,sub_5
-0.0018116000000001,-0.0023273999999987,-0.0033597999999999,-0.0006757999999995,-0.006629999999999,-0.0242921999999998,0,sub_5
-0.0005416000000001,-0.0021457999999987,-0.0035005999999999,-0.0007769999999995,-0.006404799999999,-0.0240757999999998,0,sub_5
0.0013707999999997,-0.0020259999999987,-0.0039061999999999,-0.0018429999999995,-0.004490399999999,-0.0223765999999998,0,sub_5
0.0021755999999997,-0.0012869999999987,-0.0051983999999999,-0.0027051999999995,-0.003009799999999,-0.0189661999999998,0,sub_5
0.0027017999999997,-0.0024865999999987,-0.0041437999999999,-0.0014423999999995,-0.0030295999999991,-0.0151115999999998,0,sub_5
0.0016467999999997,-0.0035549999999987,-0.0032219999999999,0.0003110000000004,-0.0011275999999991,-0.0104181999999998,0,sub_5
0.0010733999999997,-0.0052153999999987,-0.0035415999999999,0.0022862000000004,0.0031154000000008,-0.0052987999999999,0,sub_5
-0.0004064000000002,-0.0067753999999987,-0.0041191999999999,0.0053092000000004,0.0043670000000008,0.0011136,0,sub_5
-0.0022644000000002,-0.0076355999999987,-0.0035653999999999,0.0096094000000004,0.0047628000000008,0.0073222,0,sub_5
-0.0047614000000002,-0.0067513999999987,-0.0045271999999999,0.0122200000000004,0.0075140000000008,0.0120206,0,sub_5
-0.0064376000000002,-0.0065867999999987,-0.0057401999999999,0.0145564000000004,0.0085574000000008,0.015454,0,sub_5
-0.0080552000000002,-0.0042649999999987,-0.0058535999999999,0.0160338000000004,0.0068402000000008,0.0173892,0,sub_5
-0.0092620000000002,-0.0010419999999987,-0.0054633999999999,0.0153926000000004,0.0068416000000008,0.0175984,0,sub_5
-0.0100090000000001,0.0021208000000012,-0.0061047999999999,0.0128876000000004,0.0079332000000008,0.0156864,0,sub_5
-0.0096594000000001,0.0046432000000012,-0.0064163999999998,0.0101672000000004,0.0077508000000009,0.0129198,0,sub_5
-0.0088100000000001,0.0073308000000012,-0.0068809999999998,0.0072450000000004,0.0084280000000009,0.0084416,0,sub_5
-0.0075330000000001,0.0073908000000012,-0.0066255999999998,0.0045390000000004,0.0095314000000009,0.0037508,0,sub_5
-0.0046324000000001,0.0062604000000012,-0.0059895999999998,0.0020492000000004,0.0106368000000009,-0.0015793999999999,0,sub_5
-0.0015476000000002,0.0044600000000012,-0.0046661999999998,0.0001508000000004,0.0108754000000009,-0.0062929999999999,0,sub_5
0.0007011999999997,0.0021766000000012,-0.0031269999999998,-0.0023903999999995,0.0111136000000009,-0.0103701999999998,0,sub_5
0.0029835999999997,-0.0020491999999987,-0.0028169999999998,-0.0042963999999995,0.0113454000000009,-0.0133747999999999,0,sub_5
0.0040457999999997,-0.0045619999999987,-0.0025307999999998,-0.0044947999999995,0.0113586000000009,-0.0148495999999998,0,sub_5
0.0026421999999997,-0.0051199999999987,-0.0020907999999999,-0.0040683999999995,0.0102948000000009,-0.0139685999999998,0,sub_5
0.0016367999999997,-0.0066055999999987,-0.0029305999999999,-0.0042905999999995,0.0092256000000009,-0.0111693999999999,0,sub_5
0.0013065999999997,-0.0077997999999987,-0.0049319999999998,-0.0028155999999995,0.0079298000000009,-0.0064351999999999,0,sub_5
-0.0001178000000002,-0.0062561999999987,-0.0055163999999998,-0.0007127999999995,0.0049230000000009,-0.0006261999999999,0,sub_5
-0.0016510000000002,-0.0056685999999987,-0.0053925999999998,0.0013844000000004,0.0019124000000009,0.0045198000000001,0,sub_5
-0.0023472000000002,-0.0061321999999987,-0.0056437999999998,0.0037000000000004,-0.000882599999999,0.0088124,0,sub_5
-0.0023742000000002,-0.0055783999999987,-0.0053517999999998,0.0060268000000004,-0.002818399999999,0.0113948,0,sub_5
-0.0033320000000001,-0.0031707999999987,-0.0044105999999999,0.0075022000000004,-0.004961799999999,0.0133306,0,sub_5
-0.0041260000000001,-0.0007391999999987,-0.0040865999999999,0.0083450000000004,-0.005594799999999,0.013785,0,sub_5
-0.0037250000000001,0.0012416000000012,-0.0039117999999999,0.0074886000000004,-0.006214999999999,0.0125182,0,sub_5
-0.0024856000000001,0.0026254000000012,-0.0046921999999998,0.0068560000000004,-0.006189799999999,0.009543,0,sub_5
-0.0024910000000001,0.0036402000000012,-0.0050173999999998,0.0057988000000004,-0.006373799999999,0.0059242,0,sub_5
-0.0019338000000002,0.0033500000000012,-0.0050351999999998,0.0043176000000004,-0.007614799999999,0.0005946,0,sub_5
-0.0020522000000002,0.0030524000000012,-0.0033959999999999,0.0036956000000004,-0.009081599999999,-0.0049627999999999,0,sub_5
-0.0026094000000002,0.0025742000000012,-0.0037873999999999,0.0028738000000004,-0.007140599999999,-0.0100983999999999,0,sub_5
-0.0025328000000002,0.0011502000000012,-0.0039289999999999,0.0014014000000004,-0.004764999999999,-0.0136997999999999,0,sub_5
-0.0027926000000002,-0.0004549999999987,-0.0034485999999999,0.0007680000000004,-0.003890399999999,-0.0155841999999998,0,sub_5
-0.0040180000000002,-0.0019861999999987,-0.0033137999999999,0.0005546000000004,-0.002386599999999,-0.0153299999999999,0,sub_5
-0.0034426000000002,-0.0045857999999987,-0.0045661999999998,-0.0002939999999995,0.0006090000000009,-0.0146547999999999,0,sub_5
-0.0023212000000002,-0.0068557999999987,-0.0046917999999998,0.0003278000000004,0.0001836000000009,-0.0122559999999998,0,sub_5
-0.0030922000000002,-0.0069291999999987,-0.0036929999999998,0.0011602000000004,-0.001535599999999,-0.0092569999999998,0,sub_5
-0.0031738000000001,-0.0066495999999987,-0.0036543999999998,0.0015754000000004,-0.001547399999999,-0.0066903999999998,0,sub_5
-0.0018044000000002,-0.0065289999999987,-0.0036253999999999,0.0028498000000004,-0.000920399999999,-0.0047593999999998,0,sub_5
-0.0012158000000002,-0.0059003999999987,-0.0035383999999998,0.0042978000000003,-0.001795799999999,-0.0017507999999998,0,sub_5
-0.0006886000000002,-0.0048781999999987,-0.0034353999999998,0.0061756000000003,-0.002457799999999,0.0008332000000001,0,sub_5
-0.0003600000000002,-0.0044543999999987,-0.0034367999999998,0.0084856000000003,-0.003116199999999,0.0021384000000001,0,sub_5
1.5399999999745956e-05,-0.0045589999999987,-0.0029039999999998,0.0114340000000004,-0.003990799999999,0.0036620000000001,0,sub_5
-0.0003274000000002,-0.0037777999999987,-0.0029759999999998,0.0128908000000004,-0.004009599999999,0.0056012,0,sub_5
-0.0012074000000002,-0.0040255999999987,-0.0024571999999998,0.0141672000000004,-0.003168599999999,0.0073182,0,sub_5
-0.0027050000000002,-0.0043867999999987,-0.0020805999999998,0.0133126000000004,-0.001680999999999,0.0090194,0,sub_5
-0.0031036000000002,-0.0035689999999987,-0.0026149999999998,0.0109722000000004,0.0010916000000009,0.0102814,0,sub_5
-0.0033872000000002,-0.0018593999999987,-0.0035271999999998,0.0077650000000004,0.0038474000000009,0.0102716,0,sub_5
-0.0039418000000002,-0.0013661999999987,-0.0038645999999998,0.0049836000000004,0.0046910000000009,0.008558,0,sub_5
-0.0035364000000002,0.0009678000000012,-0.0039381999999998,0.0015640000000004,0.0044774000000009,0.0053458,0,sub_5
-0.0028520000000001,0.0024632000000011,-0.0045403999999998,-0.0016401999999995,0.0034160000000009,0.0008544,0,sub_5
-0.0024404000000001,0.0024600000000012,-0.0048709999999998,-0.0031459999999995,0.0010680000000009,-0.0029825999999999,0,sub_5
-0.0024676000000001,0.0010682000000012,-0.0043603999999998,-0.0035699999999995,-0.001049999999999,-0.0057601999999998,0,sub_5
-0.0023000000000001,-0.0009791999999987,-0.0040873999999998,-0.0033527999999995,-0.002320599999999,-0.0078933999999998,0,sub_5
-0.0026294000000001,-0.0042551999999987,-0.0039639999999998,-0.0018639999999995,-0.003815399999999,-0.0083083999999998,0,sub_5
-0.0019464000000002,-0.0071295999999987,-0.0034671999999998,0.0006720000000004,-0.003847199999999,-0.0070091999999999,0,sub_5
-0.0017638000000001,-0.0091105999999987,-0.0034647999999998,0.0034232000000004,-0.002817199999999,-0.0050687999999999,0,sub_5
-0.0017688000000001,-0.0102865999999987,-0.0032467999999998,0.0065956000000004,-0.002430199999999,-0.0024837999999999,0,sub_5
-0.0011648000000001,-0.0097685999999987,-0.0029565999999998,0.0086932000000004,-0.002470799999999,0.0013762,0,sub_5
-0.0007298000000001,-0.0084653999999987,-0.0033867999999998,0.0090850000000004,-0.001867999999999,0.0056506,0,sub_5
-0.0015140000000001,-0.0066715999999987,-0.0031595999999998,0.0099270000000004,-0.001881199999999,0.0082204,0,sub_5
-0.0018466000000002,-0.0037639999999987,-0.0022821999999998,0.0105584000000004,-0.001890999999999,0.0101476,0,sub_5
-0.0010302000000002,-0.0007363999999987,-0.0038633999999998,0.0086390000000004,-0.000610199999999,0.0112008,0,sub_5
-0.0017506000000001,0.0016506000000012,-0.0043485999999998,0.0077716000000004,0.0002470000000009,0.0105588000000001,0,sub_5
-0.0026520000000001,0.0037040000000012,-0.0037807999999998,0.0079758000000003,-0.000380599999999,0.0073626000000001,0,sub_5
-0.0025688000000001,0.0052818000000011,-0.0042059999999999,0.0058444000000004,7.120000000093839e-05,0.0026532,0,sub_5
-0.0026664000000001,0.0038598000000011,-0.0048229999999998,0.0015842000000004,0.0003224000000009,-0.0033527999999998,0,sub_5
-0.0031680000000001,0.0023412000000011,-0.0035995999999998,-0.0016169999999995,-0.001134599999999,-0.0093491999999998,0,sub_5
-0.0032458000000002,-0.0003985999999988,-0.0033695999999998,-0.0047963999999995,-0.001528999999999,-0.0144983999999998,0,sub_5
-0.0019914000000002,-0.0041517999999987,-0.0041375999999998,-0.0081873999999995,-0.000223399999999,-0.0183691999999998,0,sub_5
-0.0015470000000002,-0.0081171999999987,-0.0034903999999998,-0.0084007999999995,-0.000859199999999,-0.0190109999999998,0,sub_5
-0.0006252000000002,-0.0108209999999987,-0.0024253999999999,-0.0065197999999995,-0.002151599999999,-0.0162007999999998,0,sub_5
-0.0004886000000002,-0.0136687999999987,-0.0024947999999999,-0.0039965999999995,-0.001746999999999,-0.0121063999999999,0,sub_5
4.859999999978614e-05,-0.0148389999999987,-0.0015561999999999,0.0004354000000004,-0.001783799999999,-0.0058615999999999,0,sub_5
-0.0005044000000002,-0.0147003999999987,-0.0002895999999999,0.0057200000000004,-0.000763399999999,0.0016696,0,sub_5
-0.0011002000000002,-0.0126451999999987,-0.0006429999999999,0.0097330000000004,0.0021788000000009,0.0091896,0,sub_5
-0.0017352000000002,-0.0099101999999987,-0.0020741999999999,0.0127040000000004,0.0047002000000009,0.015403,0,sub_5
-0.0020632000000002,-0.0058601999999987,-0.0019275999999999,0.0154616000000004,0.0061614000000009,0.020548,0,sub_5
-0.0022718000000002,-0.0016769999999987,-0.0030801999999999,0.0152472000000004,0.0082834000000009,0.022894,0,sub_5
-0.0016338000000002,0.0014962000000012,-0.0047633999999998,0.0137266000000004,0.0095710000000009,0.02288,0,sub_5
-0.0011344000000002,0.0030930000000012,-0.0053297999999998,0.0117850000000004,0.0089556000000009,0.019661,0,sub_5
-0.0007596000000002,0.0036464000000012,-0.0042631999999998,0.0100644000000004,0.0074974000000009,0.0138808,0,sub_5
-0.0019282000000002,0.0026502000000012,-0.0036829999999998,0.0075028000000004,0.0069022000000008,0.0061708,0,sub_5
-0.0033266000000002,1.400000000121096e-05,-0.0027811999999998,0.0051584000000004,0.0069460000000008,-0.0017521999999999,0,sub_5
-0.0047256000000002,-0.0021287999999987,-0.0014583999999999,0.0037108000000004,0.0097508000000008,-0.0092433999999998,0,sub_5
-0.0054616000000002,-0.0039655999999987,-0.0008797999999999,0.0020536000000004,0.0151060000000009,-0.0150303999999998,0,sub_5
-0.0053500000000002,-0.0057555999999987,-0.0020387999999999,0.0006012000000004,0.0210896000000008,-0.0182529999999999,0,sub_5
-0.0035606000000002,-0.0071353999999987,-0.0032783999999999,0.0004050000000004,0.0249252000000009,-0.0182593999999998,0,sub_5
-0.0014914000000002,-0.0083429999999987,-0.0037553999999999,0.0008070000000004,0.0266246000000008,-0.0161175999999999,0,sub_5
-7.300000000021371e-05,-0.0085411999999987,-0.0044863999999999,0.0003296000000004,0.0240600000000008,-0.0124809999999998,0,sub_5
0.0010001999999997,-0.0084329999999987,-0.0043637999999999,-0.0003715999999995,0.0193648000000008,-0.0086295999999998,0,sub_5
0.0010127999999997,-0.0085599999999987,-0.0031313999999999,-0.0004307999999995,0.0150934000000009,-0.0047741999999998,0,sub_5
0.0003429999999997,-0.0093665999999987,-0.0024655999999999,-0.0004823999999995,0.0125264000000009,-0.0009209999999999,0,sub_5
-0.0007524000000002,-0.0102279999999987,-0.0022431999999999,0.0003444000000004,0.0103776000000009,0.0029330000000001,0,sub_5
-0.0018884000000002,-0.0105567999999987,-0.0022669999999999,0.0024504000000004,0.0077990000000009,0.006583,0,sub_5
-0.0026300000000002,-0.0106867999999987,-0.0024679999999999,0.0051614000000004,0.0043728000000009,0.010229,0,sub_5
-0.0033162000000002,-0.0093641999999987,-0.0025891999999999,0.0068132000000004,0.0013814000000009,0.0125852,0,sub_5
-0.0033292000000001,-0.0071891999999987,-0.0027329999999998,0.0082604000000004,-0.001813599999999,0.0128038,0,sub_5
-0.0026436000000001,-0.0039585999999987,-0.0034151999999998,0.0086472000000004,-0.004998999999999,0.0115196,0,sub_5
-0.0016722000000001,-0.0018681999999987,-0.0030207999999998,0.0075500000000004,-0.007321799999999,0.0089418000000001,0,sub_5
-0.0014206000000001,-0.0016817999999987,-0.0030241999999998,0.0058526000000004,-0.007943999999999,0.0061534,0,sub_5
-0.0015976000000001,-0.0021435999999987,-0.0037193999999998,0.0041562000000004,-0.008352999999999,0.0033646,0,sub_5
-0.0013922000000001,-0.0026687999999987,-0.0032653999999999,0.0026740000000004,-0.009186399999999,-6.299999999988086e-05,0,sub_5
-0.0013600000000002,-0.0031381999999987,-0.0024327999999999,0.0007534000000004,-0.009372399999999,-0.0036943999999998,0,sub_5
-0.0014328000000002,-0.0042513999999987,-0.0022613999999999,-0.0007395999999995,-0.008922399999999,-0.0068961999999998,0,sub_5
-0.0013162000000001,-0.0042557999999987,-0.0024429999999998,-0.0018067999999995,-0.008262399999999,-0.0096679999999998,0,sub_5
-0.0010700000000001,-0.0058717999999987,-0.0017997999999998,-0.0022375999999995,-0.007608199999999,-0.0115807999999998,0,sub_5
-0.0011390000000001,-0.0075765999999987,-0.0018463999999998,-0.0024599999999995,-0.006322399999999,-0.0117837999999998,0,sub_5
-0.0011976000000001,-0.0090247999999987,-0.0018323999999998,-0.0020293999999995,-0.004622799999999,-0.0109283999999998,0,sub_5
-0.0011382000000001,-0.0100171999999987,-0.0021583999999998,-0.0018149999999995,-0.002925199999999,-0.0094335999999999,0,sub_5
-0.0011148000000002,-0.0107749999999987,-0.0018605999999999,-0.0013939999999995,-0.002295199999999,-0.0075087999999999,0,sub_5
-0.0007778000000002,-0.0102061999999987,-0.0019893999999999,-0.0003727999999995,-0.002317399999999,-0.0045263999999999,0,sub_5
-0.0011340000000002,-0.0100739999999987,-0.0018787999999999,0.0010734000000004,-0.002554999999999,-0.0013271999999999,0,sub_5
-0.0015134000000001,-0.0104143999999987,-0.0016919999999999,0.0027328000000004,-0.003217799999999,0.0014468,0,sub_5
-0.0021488000000001,-0.0106785999999987,-0.0014775999999999,0.0048190000000004,-0.004094199999999,0.0040104000000001,0,sub_5
-0.0026150000000001,-0.0101679999999987,-0.0014829999999999,0.0069080000000003,-0.004331599999999,0.0065732,0,sub_5
-0.0031004000000001,-0.0082527999999987,-0.0018813999999999,0.0075462000000003,-0.003698999999999,0.007645,0,sub_5
-0.0030892000000001,-0.0058579999999987,-0.0020363999999999,0.0069080000000003,-0.003270599999999,0.00764,0,sub_5
-0.0023862000000002,-0.0039261999999987,-0.0033319999999999,0.0054202000000004,-0.002623599999999,0.0069878,0,sub_5
-0.0019918000000002,-0.0026289999999987,-0.0040765999999999,0.0043282000000004,-0.002652999999999,0.0061286,0,sub_5
-0.0022380000000002,-0.0019827999999987,-0.0037997999999999,0.0032352000000004,-0.003532199999999,0.0046296,0,sub_5
-0.0020566000000002,-0.0029747999999987,-0.0020079999999999,0.0025708000000004,-0.004623399999999,0.0024928000000001,0,sub_5
-0.0023694000000002,-0.0035663999999987,-0.0009295999999999,0.0017018000000004,-0.004008599999999,0.0001388000000001,0,sub_5
-0.0028344000000002,-0.0042607999999987,-0.0001089999999999,0.0012634000000004,-0.002967399999999,-0.0026399999999998,0,sub_5
-0.0027808000000002,-0.0049375999999987,0.0007662,0.0008540000000004,-0.002101799999999,-0.0056349999999998,0,sub_5
-0.0018778000000002,-0.0050883999999987,0.0003946,2.080000000040257e-05,-0.000595399999999,-0.0086337999999998,0,sub_5
-0.0015918000000002,-0.0057017999999987,-0.0016747999999998,-0.0006077999999995,0.0006904000000009,-0.0099215999999998,0,sub_5
-0.0009674000000002,-0.0071115999999987,-0.0030599999999998,-0.0012753999999995,5.400000000918299e-06,-0.0099261999999998,0,sub_5
-0.0002520000000002,-0.0079509999999987,-0.0030971999999998,-0.0015297999999995,-0.001966199999999,-0.0082171999999998,0,sub_5
0.0001751999999997,-0.0087173999999987,-0.0033387999999998,-0.0024233999999995,-0.002661599999999,-0.0054461999999999,0,sub_5
-3.4000000002137137e-06,-0.0100659999999987,-0.0031315999999998,-0.0028949999999995,-0.003150599999999,-0.0013905999999999,0,sub_5
-0.0002808000000002,-0.0101493999999987,-0.0018773999999999,-0.0027233999999995,-0.003639199999999,0.0020286,0,sub_5
-0.0002962000000001,-0.0095253999999987,-0.0015353999999999,-0.0012431999999995,-0.003868399999999,0.0048166,0,sub_5
