userAcceleration.x,userAcceleration.y,userAcceleration.z,rotationRate.x,rotationRate.y,rotationRate.z,label,subject
-0.0129536000000002,0.0276084000000011,0.0055204,0.0083524000000004,-0.004759799999999,-0.0017705999999998,0,sub_18
-0.0123184000000002,0.0279410000000011,0.0047716,0.0068510000000004,-0.007944399999999,-0.0032723999999998,0,sub_18
-0.0140262000000002,0.0281392000000011,0.004695,0.0053592000000004,-0.009210599999999,-0.0049901999999998,0,sub_18
-0.0182762000000002,0.0290506000000011,0.0040628,0.0032274000000004,-0.009625799999999,-0.0058589999999998,0,sub_18
-0.0217712000000002,0.0298284000000011,0.0047802,0.0019532000000004,-0.007727799999999,-0.0043949999999998,0,sub_18
-0.0251198000000001,0.0301134000000012,0.0054596,0.0025964000000004,-0.004778199999999,-0.0012099999999998,0,sub_18
-0.0274526000000001,0.0301672000000012,0.005616,0.0047314000000004,-0.002896399999999,0.0013458000000001,0,sub_18
-0.0271498000000001,0.0294538000000012,0.0056134,0.0075084000000004,-0.001015199999999,0.0034788000000001,0,sub_18
-0.0235580000000001,0.0276572000000012,0.0062594,0.0102864000000004,0.0008668000000009,0.0053982000000001,0,sub_18
-0.0204026000000001,0.0264678000000012,0.0060734,0.0100778000000004,0.0023572000000009,0.0058220000000001,0,sub_18
-0.0173130000000001,0.0268476000000012,0.006179,0.0079500000000004,0.0027942000000009,0.0049520000000001,0,sub_18
-0.0151904000000001,0.0272176000000011,0.0065118,0.0073110000000004,0.0012950000000009,0.0038664000000001,0,sub_18
-0.0140262000000001,0.0280126000000012,0.0069618,0.0070844000000004,-0.002977199999999,0.0032144000000001,0,sub_18
-0.0141492000000001,0.0288072000000012,0.0076302,0.0083388000000004,-0.010024199999999,0.0025764000000001,0,sub_18
-0.0149248000000001,0.0301374000000012,0.0088578,0.0134100000000004,-0.022623199999999,0.0017586000000001,0,sub_18
-0.0161430000000002,0.0308076000000012,0.009434,0.0223028000000004,-0.038859999999999,0.0016130000000001,0,sub_18
-0.0168672000000002,0.0307822000000012,0.0098838,0.0322604000000004,-0.054873199999999,0.0014894000000001,0,sub_18
-0.0176114000000002,0.0297952000000012,0.008354,0.0401044000000004,-0.067890199999999,-0.0001481999999998,0,sub_18
-0.0184390000000002,0.0305470000000012,0.0066376,0.0454176000000004,-0.074505799999999,-0.0020253999999998,0,sub_18
-0.0186574000000002,0.0285300000000012,0.004449,0.0477772000000004,-0.073017399999999,-0.0032927999999998,0,sub_18
-0.0183932000000002,0.0279722000000012,0.0025696,0.0431088000000004,-0.063181999999999,-0.0037803999999998,0,sub_18
-0.0188260000000002,0.0275622000000012,0.001211,0.0354552000000004,-0.052273599999999,-0.0036491999999998,0,sub_18
-0.0203708000000002,0.0275446000000012,0.0031492,0.0280044000000004,-0.042860599999999,-0.0026601999999998,0,sub_18
-0.0204604000000002,0.0269664000000012,0.0052096,0.0228692000000004,-0.041123199999999,-0.0022859999999998,0,sub_18
-0.0199530000000002,0.0285584000000012,0.0062064,0.0194180000000004,-0.045565999999999,-0.0029603999999998,0,sub_18
-0.0189482000000002,0.0285836000000012,0.006395,0.0191874000000004,-0.050673399999999,-0.0042371999999998,0,sub_18
-0.0173980000000002,0.0295934000000012,0.0060362,0.0189846000000004,-0.049602199999999,-0.0055217999999998,0,sub_18
-0.0152768000000002,0.0294422000000012,0.0049852,0.0185790000000004,-0.045549999999999,-0.0061707999999998,0,sub_18
-0.0139360000000002,0.0290532000000012,0.0046558,0.0166880000000004,-0.036780799999999,-0.0068449999999998,0,sub_18
-0.0139172000000001,0.0280232000000012,0.0048788,0.0137416000000004,-0.025663599999999,-0.0077431999999998,0,sub_18
-0.0142990000000001,0.0277668000000012,0.0052616,0.0116314000000004,-0.018808799999999,-0.0090573999999998,0,sub_18
-0.0152742000000001,0.0266786000000012,0.0061816,0.0097230000000004,-0.014723399999999,-0.0105803999999998,0,sub_18
-0.0166352000000001,0.0272560000000012,0.006014,0.0086634000000004,-0.011918599999999,-0.0123091999999998,0,sub_18
-0.0182474000000001,0.0276152000000012,0.0046412,0.0071802000000004,-0.010418599999999,-0.0131761999999998,0,sub_18
-0.0187048000000002,0.0282462000000012,0.0037906,0.0039978000000004,-0.006995999999999,-0.0138435999999998,0,sub_18
-0.0188868000000002,0.0283906000000012,0.0031944,-0.0004475999999995,0.0004782000000009,-0.0143115999999998,0,sub_18
-0.0187508000000002,0.0305606000000012,0.0036552,-0.0057425999999995,0.0100808000000008,-0.0135061999999998,0,sub_18
-0.0172178000000002,0.0317044000000012,0.0053232,-0.0089009999999995,0.0205272000000008,-0.0124733999999998,0,sub_18
-0.0159172000000001,0.0323900000000012,0.0070268,-0.0099303999999995,0.0290522000000008,-0.0122777999999998,0,sub_18
-0.0149270000000001,0.0321260000000011,0.0071366,-0.0099055999999995,0.0356526000000009,-0.0112179999999998,0,sub_18
-0.0155530000000001,0.0313434000000012,0.0057702,-0.0098853999999995,0.0424610000000008,-0.0088763999999998,0,sub_18
-0.0159998000000001,0.0283114000000012,0.0041374,-0.0124275999999995,0.0497010000000009,-0.0056987999999998,0,sub_18
-0.0174926000000001,0.0267376000000012,0.0024964,-0.0202983999999995,0.0580258000000008,-0.0027733999999998,0,sub_18
-0.0190038000000002,0.0255162000000012,0.002252,-0.0305153999999995,0.0650862000000009,-0.0013581999999998,0,sub_18
-0.0200982000000002,0.0250386000000011,0.0035332,-0.0366867999999995,0.0678808000000008,-0.0022593999999999,0,sub_18
-0.0196336000000002,0.0262118000000011,0.0063796,-0.0373277999999995,0.0646992000000008,-0.0052507999999999,0,sub_18
-0.0194732000000002,0.0282574000000011,0.0084762,-0.0322231999999995,0.0563908000000008,-0.0099045999999999,0,sub_18
-0.0179646000000001,0.0302466000000011,0.0088316,-0.0237257999999995,0.0444446000000008,-0.0134619999999998,0,sub_18
-0.0154432000000001,0.0312368000000012,0.0079742,-0.0158597999999994,0.0369644000000009,-0.0144657999999998,0,sub_18
-0.0132902000000001,0.0316246000000012,0.0063806,-0.0128753999999994,0.0375880000000009,-0.0131637999999998,0,sub_18
-0.0119484000000001,0.0310134000000012,0.0064828,-0.0141421999999994,0.0429094000000009,-0.0108293999999998,0,sub_18
-0.0117262000000001,0.0297872000000012,0.0055026,-0.0145675999999995,0.0450876000000009,-0.0104061999999998,0,sub_18
-0.0132626000000001,0.0277022000000012,0.0058438,-0.0143567999999995,0.0453502000000008,-0.0110443999999998,0,sub_18
-0.0162738000000001,0.0262314000000012,0.005701,-0.0158547999999995,0.0468904000000009,-0.0099869999999998,0,sub_18
-0.0187894000000002,0.0259232000000012,0.0044494,-0.0190675999999995,0.0471566000000008,-0.0085127999999998,0,sub_18
-0.0202648000000002,0.0252264000000012,0.0017848,-0.0248627999999995,0.0418948000000009,-0.0076903999999998,0,sub_18
-0.0209508000000001,0.0257364000000012,0.001273,-0.0353363999999995,0.0414908000000008,-0.0041311999999998,0,sub_18
-0.0208552000000001,0.0294822000000012,0.0028428,-0.0455685999999995,0.0491744000000009,0.0013424000000001,0,sub_18
-0.0211340000000001,0.0323700000000012,0.0057066,-0.0449409999999995,0.0506466000000009,0.0056178000000001,0,sub_18
-0.0213944000000001,0.0334252000000012,0.0096088,-0.0355089999999995,0.0416200000000009,0.0095502000000001,0,sub_18
-0.0206960000000001,0.0329316000000012,0.013783,-0.0188301999999995,0.0293782000000009,0.0120418000000001,0,sub_18
-0.0174490000000002,0.0324514000000012,0.0132286,0.0012666000000004,0.0133082000000009,0.0098620000000001,0,sub_18
-0.0141496000000001,0.0296360000000012,0.0097118,0.0175370000000004,-0.000401399999999,0.0067978000000001,0,sub_18
-0.0104118000000001,0.0280614000000011,0.0071018,0.0227572000000004,-0.003209999999999,0.0044972000000001,0,sub_18
-0.0082726000000001,0.0276764000000011,0.0063552,0.0221448000000004,-0.001697599999999,-0.0002091999999998,0,sub_18
-0.0083046000000001,0.0280114000000011,0.0033958,0.0179042000000004,3.880000000091588e-05,-0.0045139999999998,0,sub_18
-0.0109288000000001,0.0279706000000011,0.003832,0.0113068000000004,0.0036848000000009,-0.0047783999999998,0,sub_18
-0.0144246000000001,0.0270018000000011,0.0056646,0.0053228000000004,0.0019996000000009,-0.0043907999999998,0,sub_18
-0.0169618000000002,0.0263390000000012,0.0074974,0.0024272000000004,-0.007435399999999,-0.0058625999999998,0,sub_18
-0.0181668000000002,0.0262434000000012,0.0067296,0.0010350000000004,-0.015169599999999,-0.0077531999999998,0,sub_18
-0.0187994000000002,0.0277452000000012,0.0065124,-0.0018229999999995,-0.015658999999999,-0.0085951999999998,0,sub_18
-0.0196848000000002,0.0280768000000012,0.0070128,-0.0044379999999995,-0.009332399999999,-0.0092305999999998,0,sub_18
-0.0193864000000002,0.0288072000000012,0.0076552,-0.0027827999999995,-0.002805799999999,-0.0102635999999998,0,sub_18
-0.0195742000000002,0.0291890000000012,0.0068204,-0.0002021999999995,0.0005984000000009,-0.0113181999999998,0,sub_18
-0.0193342000000002,0.0299416000000012,0.0064456,0.0012970000000004,0.0039934000000009,-0.0091755999999998,0,sub_18
-0.0187578000000002,0.0309418000000012,0.0069918,0.0044850000000004,0.0048200000000009,-0.0055223999999998,0,sub_18
-0.0176410000000002,0.0325246000000012,0.0077398,0.0095414000000004,-0.002888799999999,-0.0024485999999998,0,sub_18
-0.0170720000000002,0.0316784000000012,0.0088466,0.0152322000000004,-0.013363599999999,-0.0008625999999999,0,sub_18
-0.0151034000000002,0.0289706000000012,0.007851,0.0188084000000004,-0.020206399999999,6.320000000009166e-05,0,sub_18
-0.0141272000000002,0.0263290000000012,0.0061176,0.0179258000000004,-0.023406599999999,-0.0003287999999999,0,sub_18
-0.0138386000000002,0.0245572000000012,0.0043132,0.0143030000000004,-0.019988999999999,-0.0016027999999998,0,sub_18
-0.0145972000000002,0.0238902000000012,0.003417,0.0085900000000004,-0.010801599999999,-0.0031499999999998,0,sub_18
-0.0152220000000002,0.0268236000000012,0.0024894,0.0015812000000004,-0.005442999999999,-0.0051285999999998,0,sub_18
-0.0174066000000002,0.0288624000000011,0.0037282,-8.45999999995295e-05,-0.005113399999999,-0.0065891999999998,0,sub_18
-0.0187756000000002,0.0303942000000011,0.0051484,0.0014340000000004,-0.007780199999999,-0.0073827999999998,0,sub_18
-0.0193910000000002,0.0316170000000011,0.0069416,0.0012358000000004,-0.011510599999999,-0.0071187999999998,0,sub_18
-0.0189752000000002,0.0311682000000011,0.0075704,0.0014672000000004,-0.013117999999999,-0.0053589999999998,0,sub_18
-0.0177140000000002,0.0284170000000011,0.005925,0.0019304000000004,-0.009404799999999,-0.0023223999999998,0,sub_18
-0.0158000000000002,0.0288094000000011,0.0045656,-0.0010221999999995,0.0016708000000009,0.0010612000000001,0,sub_18
-0.0153138000000002,0.0284208000000011,0.004424,-0.0037441999999995,0.0157318000000009,0.0035880000000001,0,sub_18
-0.0157664000000002,0.0270554000000011,0.0047474,-0.0051897999999995,0.0270262000000009,0.0042044000000001,0,sub_18
-0.0163122000000002,0.0266130000000011,0.0048098,-0.0062373999999994,0.0310788000000009,0.0039782000000001,0,sub_18
-0.0171940000000002,0.0276596000000011,0.006301,-0.0070049999999994,0.0319918000000009,0.0031462000000001,0,sub_18
-0.0182828000000002,0.0261824000000011,0.0073344,-0.0082233999999994,0.0277922000000008,0.0025314000000001,0,sub_18
-0.0184944000000002,0.0246316000000012,0.0079,-0.0096809999999995,0.0195386000000008,0.0036292000000001,0,sub_18
-0.0185674000000002,0.0227658000000012,0.0071692,-0.0139295999999995,0.0102184000000008,0.0074862000000001,0,sub_18
-0.0170104000000002,0.0242388000000012,0.0057058,-0.0245467999999995,0.0098620000000008,0.0129964000000001,0,sub_18
-0.0157246000000001,0.0254326000000012,0.0049062,-0.0381795999999995,0.0220256000000008,0.0199360000000001,0,sub_18
-0.0145278000000001,0.0286300000000012,0.0054308,-0.0494327999999995,0.0410004000000008,0.0264560000000001,0,sub_18
-0.0120200000000001,0.0330136000000012,0.0094266,-0.0529987999999995,0.0563462000000008,0.0281206,0,sub_18
-0.0087092000000001,0.0368076000000012,0.012785,-0.0433375999999995,0.0648536000000008,0.023477,0,sub_18
-0.0066248000000001,0.0380154000000012,0.0158602,-0.0232479999999995,0.0635394000000008,0.0150734000000001,0,sub_18
-0.0076038000000001,0.0365876000000012,0.015867,0.0006354000000004,0.0504990000000008,0.0054292000000001,0,sub_18
-0.0093090000000001,0.0339916000000012,0.0150286,0.0221314000000004,0.0297918000000008,-0.0029399999999998,0,sub_18
-0.0132274000000001,0.0296088000000012,0.0116616,0.0335700000000004,0.0071840000000008,-0.0068903999999998,0,sub_18
-0.0185788000000001,0.0260378000000012,0.0064862,0.0338980000000004,-0.0151863999999991,-0.0072865999999998,0,sub_18
-0.0244438000000001,0.0223596000000012,0.0015368,0.0289080000000004,-0.0326429999999991,-0.0064445999999998,0,sub_18
-0.0265366000000001,0.0203208000000012,-0.0007541999999998,0.0203156000000004,-0.044335399999999,-0.0054213999999998,0,sub_18
-0.0272480000000002,0.0199486000000012,-0.0017687999999998,0.0089714000000004,-0.053239999999999,-0.0065573999999998,0,sub_18
-0.0262654000000002,0.0221776000000012,-0.0025319999999998,-0.0014809999999995,-0.055322799999999,-0.0094049999999998,0,sub_18
-0.0241194000000002,0.0239504000000012,-0.0002207999999998,-0.0097631999999995,-0.048256199999999,-0.0111811999999998,0,sub_18
-0.0211392000000002,0.0260742000000012,0.0025172,-0.0167737999999995,-0.041201799999999,-0.0110255999999998,0,sub_18
-0.0182182000000002,0.0294156000000012,0.0049652,-0.0225367999999995,-0.041395599999999,-0.0108519999999998,0,sub_18
-0.0152696000000002,0.0325558000000012,0.0056826,-0.0227461999999995,-0.039905999999999,-0.0102143999999998,0,sub_18
-0.0122704000000001,0.0353600000000012,0.0076382,-0.0192947999999995,-0.030123599999999,-0.0087073999999998,0,sub_18
-0.0091986000000001,0.0385178000000012,0.0101516,-0.0149263999999995,-0.0146353999999991,-0.0067635999999998,0,sub_18
-0.0054038000000001,0.0412080000000012,0.0128268,-0.0075773999999995,-0.0010733999999991,-0.0052237999999999,0,sub_18
-0.0020208000000001,0.0429074000000012,0.0155368,0.0065774000000004,0.0075646000000008,-0.0036301999999999,0,sub_18
-0.0002660000000001,0.0418316000000012,0.0174192,0.0230562000000004,0.0112934000000008,-0.0018005999999999,0,sub_18
-0.0015938000000001,0.0367786000000012,0.0141508,0.0375812000000004,0.0071476000000008,-0.0004017999999999,0,sub_18
-0.0034210000000002,0.0316718000000012,0.0092682,0.0458586000000004,-0.003318399999999,-0.0009715999999998,0,sub_18
-0.0093450000000002,0.0259610000000012,0.004429,0.0456222000000004,-0.0094917999999991,-0.0020335999999998,0,sub_18
-0.0174596000000002,0.0190400000000012,-7.899999999991247e-05,0.0366524000000004,-0.0120449999999991,-0.0029273999999998,0,sub_18
-0.0254832000000002,0.0153778000000012,-0.0031253999999999,0.0191468000000004,-0.0158425999999991,-0.0049471999999998,0,sub_18
-0.0311054000000002,0.0168938000000012,-0.0025243999999999,-0.0013325999999995,-0.0172833999999991,-0.0076317999999998,0,sub_18
-0.0354246000000002,0.0199090000000012,0.0002926,-0.0185971999999995,-0.0132055999999991,-0.0079509999999998,0,sub_18
-0.0347168000000002,0.0244590000000012,0.0038392,-0.0298853999999995,-0.007237199999999,-0.0067353999999998,0,sub_18
-0.0298724000000002,0.0311666000000012,0.007031,-0.0373141999999995,0.0027972000000009,-0.0055181999999998,0,sub_18
-0.0218620000000002,0.0360706000000012,0.0097266,-0.0359811999999995,0.0170570000000009,-0.0029633999999998,0,sub_18
-0.0131536000000002,0.0380024000000012,0.0111376,-0.0274069999999995,0.0302184000000009,0.0015662000000001,0,sub_18
-0.0049050000000002,0.0380368000000011,0.0111756,-0.0154493999999995,0.0365504000000009,0.0061282000000001,0,sub_18
-0.0001310000000002,0.0355346000000012,0.0105274,-0.0047491999999995,0.0342838000000008,0.0089672000000001,0,sub_18
0.0007691999999997,0.0316792000000012,0.010167,0.0042268000000004,0.0269150000000008,0.0105188000000001,0,sub_18
-0.0018174000000002,0.0286980000000012,0.009545,0.0097706000000004,0.0144492000000008,0.0109846,0,sub_18
-0.0086478000000002,0.0258428000000012,0.0079852,0.0108278000000004,-0.0009767999999991,0.0097138,0,sub_18
-0.0162100000000002,0.0236276000000012,0.0065252,0.0084864000000004,-0.014255399999999,0.0071346,0,sub_18
-0.0223592000000002,0.0225806000000012,0.0047248,0.0042046000000004,-0.020194799999999,0.0043348,0,sub_18
-0.0257510000000002,0.0239872000000012,0.0032022,-0.0008989999999995,-0.018251799999999,0.0023738,0,sub_18
-0.0266624000000002,0.0257450000000012,0.0030874,-0.0065965999999995,-0.008072599999999,0.0023096000000001,0,sub_18
-0.0241548000000002,0.0277182000000012,0.004179,-0.0103641999999995,0.0057158000000009,0.0037496000000001,0,sub_18
-0.0195818000000002,0.0307104000000012,0.0059974,-0.0115893999999995,0.0160840000000009,0.0058528,0,sub_18
-0.0145306000000002,0.0328924000000011,0.0085758,-0.0079311999999995,0.0215330000000009,0.0084238,0,sub_18
-0.0109738000000002,0.0331674000000011,0.010174,-0.0017259999999995,0.0244148000000009,0.011443,0,sub_18
-0.0086244000000002,0.0324082000000011,0.0103374,0.0029462000000004,0.0218324000000009,0.013829,0,sub_18
-0.0068588000000002,0.0331820000000011,0.0104812,0.0060998000000004,0.0126548000000009,0.0151446,0,sub_18
-0.0075134000000002,0.0320746000000011,0.0109882,0.0107440000000004,0.0013474000000009,0.0149780000000001,0,sub_18
-0.0096964000000002,0.0311856000000011,0.011426,0.0134862000000004,-0.007178399999999,0.0135126000000001,0,sub_18
-0.0110992000000002,0.0299320000000012,0.0090962,0.0132852000000004,-0.013960799999999,0.0111800000000001,0,sub_18
-0.0126994000000001,0.0301296000000012,0.0063482,0.0126718000000004,-0.018606999999999,0.0077736000000001,0,sub_18
-0.0138620000000001,0.0291502000000012,0.0042398,0.0139970000000004,-0.018999599999999,0.0045890000000001,0,sub_18
-0.0159746000000001,0.0271860000000012,0.0039346,0.0142630000000004,-0.017259799999999,0.0018214000000001,0,sub_18
-0.0167842000000001,0.0271202000000012,0.0022094,0.0104576000000004,-0.018916399999999,-0.0005429999999998,0,sub_18
-0.0181174000000001,0.0285794000000012,0.0027336,0.0061882000000004,-0.020176399999999,-0.0014257999999998,0,sub_18
-0.0190502000000002,0.0289766000000012,0.005132,0.0038526000000004,-0.015489399999999,0.0006882000000001,0,sub_18
-0.0195842000000002,0.0285688000000012,0.0081548,0.0006578000000004,-0.010592599999999,0.0042916000000001,0,sub_18
-0.0171698000000002,0.0292540000000012,0.0076976,-0.0051163999999995,-0.005649399999999,0.0068238000000001,0,sub_18
-0.0141652000000002,0.0296906000000012,0.0070312,-0.0085165999999995,0.0039778000000009,0.0080846000000001,0,sub_18
-0.0111460000000002,0.0291094000000012,0.0077502,-0.0104031999999995,0.0159518000000009,0.0072166000000001,0,sub_18
-0.0095016000000002,0.0279022000000012,0.0078648,-0.0131383999999995,0.0260232000000009,0.0033542000000001,0,sub_18
-0.0088644000000001,0.0285908000000012,0.006346,-0.0177881999999994,0.0356822000000009,-0.0022303999999998,0,sub_18
-0.0099638000000001,0.0297710000000012,0.0056398,-0.0190263999999994,0.0414536000000008,-0.0058783999999998,0,sub_18
-0.0117110000000001,0.0294812000000012,0.0074526,-0.0166821999999995,0.0391088000000009,-0.0075681999999998,0,sub_18
-0.0143308000000001,0.0287782000000011,0.0088916,-0.0128931999999995,0.0269540000000009,-0.0081669999999998,0,sub_18
-0.0161780000000001,0.0291740000000011,0.0090562,-0.0091387999999995,0.0090390000000008,-0.0068359999999998,0,sub_18
-0.0179960000000002,0.0287158000000012,0.0099036,-0.0038751999999995,-0.007825399999999,-0.0039909999999998,0,sub_18
-0.0186862000000002,0.0277988000000012,0.0091596,-0.0004905999999995,-0.015733999999999,-0.0013841999999998,0,sub_18
-0.0197678000000002,0.0274344000000011,0.0064356,-0.0006855999999995,-0.013613999999999,0.0005438000000001,0,sub_18
-0.0189206000000002,0.0277122000000012,0.004624,-0.0031805999999995,-0.000833999999999,0.0026558,0,sub_18
-0.0182756000000002,0.0277776000000012,0.0036102,-0.0073529999999995,0.0174958000000009,0.0036806,0,sub_18
-0.0158622000000002,0.0277800000000011,0.004399,-0.0117619999999995,0.0332782000000009,0.003416,0,sub_18
-0.0135746000000002,0.0287572000000011,0.0065032,-0.0142757999999995,0.0396812000000009,0.0018876000000001,0,sub_18
-0.0114818000000002,0.0300216000000011,0.0087338,-0.0138433999999995,0.0371248000000009,0.0006050000000001,0,sub_18
-0.0104062000000002,0.0310374000000011,0.0097204,-0.0108851999999995,0.0279506000000009,0.0004166000000001,0,sub_18
-0.0088590000000001,0.0316440000000011,0.0108598,-0.0053875999999995,0.0138680000000009,3.8800000000110685e-05,0,sub_18
-0.0088002000000001,0.0315714000000011,0.0109148,0.0003214000000004,-0.000641399999999,-0.0003369999999998,0,sub_18
-0.0094832000000001,0.0310044000000012,0.0099184,0.0043286000000004,-0.010670799999999,0.0001312000000001,0,sub_18
-0.0113592000000001,0.0301130000000012,0.0080484,0.0064392000000004,-0.015367199999999,0.0005794000000001,0,sub_18
-0.0139422000000001,0.0295770000000012,0.007052,0.0070754000000004,-0.016858399999999,-5.519999999986925e-05,0,sub_18
-0.0166010000000001,0.0290138000000012,0.0069286,0.0075050000000004,-0.016432999999999,-0.0002663999999998,0,sub_18
-0.0182766000000001,0.0289126000000011,0.0060818,0.0077266000000004,-0.014314599999999,-0.0007233999999998,0,sub_18
-0.0192862000000001,0.0288732000000011,0.0057938,0.0079490000000004,-0.011770999999999,-0.0009671999999998,0,sub_18
-0.0181046000000002,0.0288178000000011,0.0067362,0.0081628000000004,-0.010720399999999,-0.0007819999999998,0,sub_18
-0.0165572000000001,0.0284476000000012,0.0072756,0.0077290000000004,-0.010735399999999,4.12000000001308e-05,0,sub_18
-0.0144934000000001,0.0290092000000012,0.0068402,0.0058044000000004,-0.010105999999999,0.0008530000000001,0,sub_18
-0.0129210000000001,0.0291838000000012,0.0067566,0.0038898000000004,-0.008184399999999,0.0014782000000001,0,sub_18
-0.0123308000000001,0.0295286000000012,0.0071108,0.0028286000000004,-0.006265599999999,0.0021092,0,sub_18
-0.0121904000000001,0.0296114000000012,0.0074908,0.0024068000000004,-0.004774399999999,0.0025316,0,sub_18
-0.0122048000000001,0.0288706000000012,0.0074736,0.0024012000000004,-0.003692799999999,0.002076,0,sub_18
-0.0118110000000001,0.0293718000000012,0.0066884,0.0017564000000004,-0.003456999999999,0.0005490000000001,0,sub_18
-0.0119492000000001,0.0300076000000012,0.0057166,0.0017556000000004,-0.001522399999999,-0.0001211999999998,0,sub_18
-0.0124482000000001,0.0300694000000012,0.006205,0.0021720000000004,-0.000446799999999,0.0004944,0,sub_18
-0.0131640000000001,0.0297506000000012,0.0062154,0.0025748000000004,-0.002353799999999,0.0011138,0,sub_18
-0.0136838000000001,0.0306090000000011,0.0067404,0.0021356000000004,-0.004697599999999,0.0015412,0,sub_18
-0.0149382000000001,0.0299006000000011,0.0081254,0.0040434000000004,-0.006412999999999,0.002625,0,sub_18
-0.0158690000000001,0.0289526000000011,0.008717,0.0057496000000004,-0.009011599999999,0.0039078,0,sub_18
-0.0155930000000001,0.0285860000000012,0.0080332,0.0053404000000004,-0.009039999999999,0.0036770000000001,0,sub_18
-0.0159922000000002,0.0284144000000011,0.0080022,0.0047408000000004,-0.004378799999999,0.0030116000000001,0,sub_18
-0.0153872000000002,0.0280142000000011,0.0074444,0.0039228000000004,-0.000569999999999,0.0025592000000001,0,sub_18
-0.0141288000000002,0.0276260000000011,0.0067452,0.0024640000000004,0.0034524000000009,0.0025294000000001,0,sub_18
-0.0130756000000002,0.0281896000000011,0.0072954,0.0009848000000004,0.0062290000000009,0.0020882000000001,0,sub_18
