userAcceleration.x,userAcceleration.y,userAcceleration.z,rotationRate.x,rotationRate.y,rotationRate.z,label,subject
-0.0018108000000001,0.0212746000000012,0.0113018,0.0014012000000004,-0.0018469999999991,-0.0030801999999998,0,sub_4
-0.0025490000000001,0.0208152000000012,0.0109398,0.0003402000000004,-0.0018421999999991,-0.0041609999999998,0,sub_4
-0.0025896000000002,0.0208976000000012,0.011153,-0.0009341999999995,-0.0018365999999991,-0.0052433999999998,0,sub_4
-0.0022426000000002,0.0212242000000012,0.0107596,-0.0019989999999995,-0.0014107999999991,-0.0050429999999998,0,sub_4
-0.0020000000000002,0.0218228000000012,0.0111462,-0.0024245999999995,-0.0016247999999991,-0.0052645999999998,0,sub_4
-0.0025586000000002,0.0215040000000012,0.0111252,-0.0024245999999995,-0.0016287999999991,-0.0050561999999998,0,sub_4
-0.0023394000000002,0.0213144000000012,0.0115788,-0.0026399999999995,-0.0018417999999991,-0.0048437999999998,0,sub_4
-0.0020206000000002,0.0209916000000012,0.0111522,-0.0026399999999995,-0.0016295999999991,-0.0046303999999998,0,sub_4
-0.0017768000000002,0.0210448000000012,0.011538,-0.0022083999999995,-0.001414599999999,-0.0054821999999998,0,sub_4
-0.0017268000000002,0.0202586000000012,0.0111706,-0.0013539999999995,-0.001416599999999,-0.0056897999999998,0,sub_4
-0.0012800000000001,0.0204022000000012,0.0107522,-0.0013489999999995,-0.002049799999999,-0.0065463999999998,0,sub_4
-0.0012858000000001,0.0207508000000012,0.010282,-0.0007039999999995,-0.002473199999999,-0.0071851999999998,0,sub_4
-0.0012902000000001,0.0210126000000012,0.0110342,-0.0002721999999995,-0.002895799999999,-0.0078253999999998,0,sub_4
-0.0015702000000001,0.0205958000000012,0.0106588,-0.0004835999999995,-0.0035307999999991,-0.0080425999999998,0,sub_4
-0.0020032000000001,0.0208658000000012,0.0108202,-0.0011225999999995,-0.0043773999999991,-0.0082625999999998,0,sub_4
-0.0024738000000002,0.0213246000000012,0.0114104,-0.0009121999999995,-0.0045929999999991,-0.0078335999999998,0,sub_4
-0.0026374000000002,0.0217894000000012,0.0118116,-0.0011283999999995,-0.0050191999999991,-0.0076207999999998,0,sub_4
-0.0029738000000002,0.0219430000000011,0.0113714,-0.0009137999999995,-0.005662199999999,-0.0074047999999998,0,sub_4
-0.0029104000000002,0.0224278000000011,0.0115338,-0.0006971999999995,-0.005879199999999,-0.0071893999999998,0,sub_4
-0.0030856000000002,0.0225694000000011,0.01192,-0.0002635999999995,-0.005244799999999,-0.0069735999999998,0,sub_4
-0.0023124000000002,0.0220960000000012,0.0117714,-4.419999999954437e-05,-0.004398199999999,-0.0063321999999998,0,sub_4
-0.0015338000000002,0.0214738000000012,0.0113992,0.0001752000000004,-0.003339399999999,-0.0054775999999998,0,sub_4
-0.0016438000000002,0.0210728000000012,0.011469,-3.719999999956437e-05,-0.002276799999999,-0.0046259999999998,0,sub_4
-0.0020878000000002,0.0207794000000012,0.0118096,0.0003886000000003,-0.001854799999999,-0.0039825999999998,0,sub_4
-0.0017388000000002,0.0206596000000012,0.0113302,0.0005992000000003,-0.001857999999999,-0.0033401999999998,0,sub_4
-0.0021942000000002,0.0207916000000012,0.0114882,0.0003840000000003,-0.002070999999999,-0.0031277999999998,0,sub_4
-0.0029142000000002,0.0211592000000012,0.011136,0.0003868000000004,-0.002497199999999,-0.0031273999999998,0,sub_4
-0.0028502000000001,0.0214232000000012,0.010802,0.0008172000000003,-0.0027119999999991,-0.0031243999999998,0,sub_4
-0.0030504000000001,0.0214184000000012,0.010127,0.0003970000000004,-0.0020723999999991,-0.0029147999999998,0,sub_4
-0.0033938000000001,0.0214042000000012,0.0097732,-0.0006633999999995,-0.0014305999999991,-0.0027095999999998,0,sub_4
-0.0033252000000001,0.0217672000000012,0.010089,-0.0010815999999995,-0.0003649999999991,-0.0025005999999998,0,sub_4
-0.0029210000000001,0.0212222000000012,0.0104292,-0.0015063999999996,0.0009114000000008,-0.0016505999999998,0,sub_4
-0.0027458000000001,0.0213056000000012,0.010841,-0.0017207999999995,0.0017602000000008,-0.0005849999999998,0,sub_4
-0.0019932000000001,0.0214332000000012,0.011517,-0.0021485999999995,0.0021846000000008,0.0002710000000001,0,sub_4
-0.0017266000000001,0.0215238000000012,0.0124728,-0.0015111999999995,0.0023912000000008,0.0013482,0,sub_4
-0.0017658000000001,0.0212290000000012,0.0119898,-0.0010893999999995,0.0021726000000008,0.0024246,0,sub_4
-0.0019958000000002,0.0212006000000012,0.0123076,-0.0004549999999995,0.0015278000000008,0.0032892,0,sub_4
-0.0021600000000002,0.0211926000000012,0.0118522,-0.0006683999999995,0.0013156000000008,0.003293,0,sub_4
-0.0028168000000002,0.0210506000000012,0.0116032,-0.0004549999999995,0.0013148000000008,0.0032944,0,sub_4
-0.0032286000000002,0.0212774000000012,0.0113532,-0.0004531999999995,0.0013166000000008,0.0028672000000001,0,sub_4
-0.0032258000000002,0.0218672000000012,0.0115204,0.0001842000000004,0.0008874000000008,0.0030858000000001,0,sub_4
-0.0028752000000002,0.0226878000000012,0.0113298,0.0003946000000004,0.0004598000000008,0.0033014000000001,0,sub_4
-0.0025596000000002,0.0222038000000012,0.0115038,0.0010318000000003,-0.0001787999999991,0.0041768000000001,0,sub_4
-0.0022598000000002,0.0219226000000012,0.0116232,0.0018842000000003,-0.0008163999999991,0.0046264000000001,0,sub_4
-0.0018044000000002,0.0212534000000012,0.0115546,0.0020966000000003,-0.001451599999999,0.0050716000000001,0,sub_4
-0.0012846000000002,0.0208998000000012,0.0113134,0.0014602000000003,-0.001655199999999,0.0048694000000001,0,sub_4
-0.0010108000000002,0.0206746000000012,0.0114974,0.0014678000000004,-0.001220999999999,0.0044572000000001,0,sub_4
-0.0008346000000002,0.0207378000000012,0.0116996,0.0012602000000003,-0.0005783999999991,0.0038140000000001,0,sub_4
-0.0007180000000002,0.0209114000000012,0.0111074,0.0012630000000003,-0.0003635999999991,0.0033866000000001,0,sub_4
-0.0009520000000002,0.0211654000000012,0.011238,0.0014834000000003,7.800000000089232e-05,0.0029866000000001,0,sub_4
-0.0016258000000002,0.0215424000000012,0.0112892,0.0019172000000003,0.0005188000000008,0.0025880000000001,0,sub_4
-0.0021126000000002,0.0210620000000011,0.011267,0.0019214000000003,0.0001098000000008,0.001974,0,sub_4
-0.0029710000000002,0.0215714000000011,0.0110958,0.0019246000000004,-0.0002999999999991,0.0015734,0,sub_4
-0.0032524000000002,0.0215586000000011,0.0116122,0.0017156000000004,0.0001406000000008,0.0018112,0,sub_4
-0.0029042000000002,0.0215738000000011,0.0111438,0.0017166000000004,0.0003536000000008,0.0018108,0,sub_4
-0.0021442000000002,0.0209848000000012,0.010994,0.0015052000000004,0.0003562000000008,0.001382,0,sub_4
-0.0018000000000002,0.0209778000000011,0.0106372,0.0015052000000004,0.0003562000000008,0.001382,0,sub_4
-0.0016354000000002,0.0207818000000012,0.0101798,0.0021474000000004,0.0003556000000008,0.0009592000000001,0,sub_4
-0.0014748000000002,0.0211744000000012,0.010192,0.0023614000000004,-0.0002653999999991,0.0005618000000001,0,sub_4
-0.0013906000000002,0.0217736000000012,0.0101824,0.0027878000000004,-0.000675799999999,0.0005930000000001,0,sub_4
-0.0023320000000002,0.0218768000000012,0.0101302,0.0032132000000004,-0.001087199999999,0.0008378,0,sub_4
-0.0030040000000002,0.0218416000000012,0.0104234,0.0032118000000003,-0.001284799999999,0.0012928000000001,0,sub_4
-0.0029328000000002,0.0217334000000012,0.0104582,0.0021434000000003,-0.001266399999999,0.0019538,0,sub_4
-0.0032586000000002,0.0214004000000012,0.0101464,0.0010756000000003,-0.001687799999999,0.0017332,0,sub_4
-0.0038218000000002,0.0205660000000012,0.0101448,-0.0006303999999995,-0.0018931999999991,0.0012942000000001,0,sub_4
-0.0032092000000002,0.0203156000000012,0.0100732,-0.0023319999999995,-0.0018735999999991,0.0008752000000001,0,sub_4
-0.0026116000000002,0.0201828000000011,0.0094658,-0.0048811999999995,-0.0014213999999991,-0.0004047999999998,0,sub_4
-0.0018870000000002,0.0198472000000011,0.009565,-0.0072151999999995,-0.0007561999999991,-0.0018971999999998,0,sub_4
-0.0004864000000002,0.0203014000000011,0.0091492,-0.0095435999999995,0.0011874000000008,-0.0033911999999998,0,sub_4
0.0008867999999997,0.0211080000000012,0.00897,-0.0110145999999995,0.0035560000000008,-0.0053071999999998,0,sub_4
0.0003633999999997,0.0206870000000012,0.0096178,-0.0114183999999995,0.0059122000000008,-0.0080903999999998,0,sub_4
-0.0008178000000002,0.0204746000000012,0.0102686,-0.0103295999999995,0.0082622000000008,-0.0106495999999998,0,sub_4
-0.0015726000000002,0.0210214000000012,0.0106844,-0.0077537999999995,0.0097524000000008,-0.0125563999999998,0,sub_4
-0.0024626000000002,0.0218100000000012,0.0113406,-0.0041205999999995,0.0101692000000008,-0.0133861999999998,0,sub_4
-0.0040496000000002,0.0226002000000012,0.0123086,-7.619999999958424e-05,0.0092976000000008,-0.0120749999999998,0,sub_4
-0.0044564000000002,0.0242450000000012,0.01218,0.0035286000000004,0.0073568000000008,-0.0084155999999999,0,sub_4
-0.0047212000000002,0.0254858000000012,0.0120868,0.0062724000000004,0.0052000000000008,-0.0032663999999999,0,sub_4
-0.0059774000000002,0.0251738000000012,0.0118964,0.0070938000000004,0.0026236000000008,0.00187,0,sub_4
-0.0068962000000002,0.0239592000000012,0.0115948,0.0057872000000004,-0.0001523999999991,0.0054962,0,sub_4
-0.0060492000000002,0.0222724000000012,0.0109094,0.0034292000000004,-0.0022743999999991,0.006337,0,sub_4
-0.0046840000000002,0.0199460000000011,0.0110798,0.0002286000000004,-0.0031119999999991,0.0054612000000001,0,sub_4
-0.0029092000000002,0.0181314000000011,0.0108798,-0.0031853999999995,-0.0043733999999991,0.0041572,0,sub_4
-0.0002716000000002,0.0180498000000011,0.0114298,-0.0053171999999995,-0.0056373999999991,0.0024348,0,sub_4
0.0014809999999997,0.0181688000000011,0.0120034,-0.0053225999999995,-0.0066941999999991,0.0020044,0,sub_4
0.0020201999999997,0.0188378000000012,0.0119504,-0.0038411999999995,-0.0077621999999991,0.00308,0,sub_4
0.0008353999999997,0.0203844000000012,0.0117604,-0.0010793999999995,-0.0088347999999991,0.0041644,0,sub_4
-0.0003980000000002,0.0215482000000012,0.0115792,0.0029750000000004,-0.0084151999999991,0.0039742,0,sub_4
-0.0030986000000002,0.0224472000000012,0.0111072,0.0068248000000003,-0.0065017999999991,0.0033534,0,sub_4
-0.0057116000000002,0.0228992000000012,0.0102032,0.0096140000000003,-0.0043757999999991,0.0020884000000001,0,sub_4
-0.0078238000000002,0.0230402000000012,0.009865,0.0102714000000003,-0.0020283999999991,0.0005944000000001,0,sub_4
-0.0078654000000002,0.0229746000000012,0.0089054,0.0092198000000003,0.0009598000000008,0.0001560000000001,0,sub_4
-0.0069532000000002,0.0228786000000012,0.0090748,0.0066598000000003,0.0031014000000008,0.0007702000000001,0,sub_4
-0.0049466000000002,0.0216352000000012,0.0087642,0.0038796000000004,0.0043890000000008,0.0020248000000001,0,sub_4
-0.0027346000000002,0.0208890000000012,0.0091292,0.0010918000000004,0.0046088000000008,0.0039216,0,sub_4
-0.0008272000000002,0.0200954000000012,0.0092768,-0.0010537999999995,0.0046158000000008,0.0051824,0,sub_4
0.0005963999999997,0.0195992000000012,0.0103068,-0.0021315999999995,0.0037712000000008,0.0053834,0,sub_4
0.0011297999999997,0.0196624000000012,0.0110568,-0.0023477999999995,0.0027084000000008,0.0049558,0,sub_4
0.0012127999999997,0.0203246000000012,0.0114572,-0.0023505999999995,0.0014326000000008,0.0043164,0,sub_4
0.0009331999999997,0.0206692000000012,0.0122666,-0.0019209999999995,0.0007970000000008,0.0030384000000001,0,sub_4
4.719999999978561e-05,0.0209104000000012,0.0125208,-0.0010671999999995,-0.0002611999999991,0.0017590000000001,0,sub_4
-0.0009580000000001,0.0211104000000012,0.0120478,-0.0006427999999995,-0.001957199999999,0.0004774000000001,0,sub_4
-0.0015932000000001,0.0211408000000012,0.0108664,-0.0002165999999995,-0.003651399999999,-0.0012313999999998,0,sub_4
-0.0027172000000001,0.0212116000000012,0.0106866,0.0002116000000004,-0.004707399999999,-0.0027273999999998,0,sub_4
-0.0035974000000001,0.0210310000000012,0.0097026,0.0002160000000004,-0.004910399999999,-0.0040137999999998,0,sub_4
-0.0034300000000001,0.0215400000000012,0.0093284,0.0002208000000003,-0.004057399999999,-0.0042285999999998,0,sub_4
-0.0033590000000001,0.0221718000000012,0.0090524,1.3000000000395638e-05,-0.0023537999999991,-0.0038047999999998,0,sub_4
-0.0038436000000001,0.0220506000000012,0.0094596,0.0002404000000003,-0.0004509999999991,-0.0029375999999998,0,sub_4
-0.0034074000000001,0.0216490000000012,0.009597,0.0006774000000003,0.0008112000000008,-0.0018543999999998,0,sub_4
-0.0036736000000001,0.0217006000000012,0.0100316,0.0011124000000003,0.0014348000000008,-0.0009841999999998,0,sub_4
-0.0037342000000001,0.0212364000000012,0.01075,0.0013322000000004,0.0014210000000008,-0.0003281999999998,0,sub_4
-0.0037796000000001,0.0207542000000011,0.0109856,0.0017664000000003,0.0011950000000008,-9.77999999998761e-05,0,sub_4
-0.0035116000000001,0.0211064000000011,0.0111996,0.0013358000000003,0.0003442000000008,-9.979999999989608e-05,0,sub_4
-0.0031870000000002,0.0216624000000011,0.0114342,0.0004812000000003,-7.81999999991075e-05,-0.0003189999999998,0,sub_4
-0.0027900000000002,0.0215014000000012,0.0113176,5.440000000039554e-05,-0.0002887999999991,-0.0005353999999998,0,sub_4
-0.0030608000000002,0.0217426000000012,0.0111338,-0.0001549999999996,-0.0009277999999991,-0.0009597999999998,0,sub_4
-0.0032060000000002,0.0217744000000012,0.011196,0.0002710000000004,-0.0022097999999991,-0.0009515999999998,0,sub_4
-0.0029818000000002,0.0219662000000012,0.0108578,0.0006970000000003,-0.0030673999999991,-0.0005165999999998,0,sub_4
-0.0029848000000002,0.0216684000000011,0.0104456,0.0013384000000003,-0.0032873999999991,0.0001328000000001,0,sub_4
-0.0028046000000002,0.0217604000000011,0.0102292,0.0013366000000003,-0.0035077999999991,0.0014186000000001,0,sub_4
-0.0024264000000002,0.0214562000000011,0.0095322,0.0011224000000003,-0.0028711999999991,0.0022710000000001,0,sub_4
-0.0021222000000002,0.0215906000000011,0.0098762,0.0009100000000003,-0.0015963999999991,0.0033362000000001,0,sub_4
-0.0025652000000002,0.0213792000000011,0.0103826,0.0013416000000004,-0.0001081999999991,0.0037646000000001,0,sub_4
-0.0033734000000002,0.0210822000000012,0.0103158,0.0017642000000004,0.0005342000000008,0.0037640000000001,0,sub_4
-0.0036568000000001,0.0213756000000012,0.0108134,0.0024052000000004,0.0016046000000008,0.0031236,0,sub_4
-0.0036438000000001,0.0216164000000012,0.011772,0.0028308000000004,0.0024618000000008,0.0026954,0,sub_4
-0.0039934000000001,0.0217276000000012,0.0117376,0.0026162000000004,0.0028968000000008,0.001836,0,sub_4
-0.0041154000000001,0.0213062000000012,0.0116536,0.0021806000000004,0.0026892000000008,0.0020442,0,sub_4
-0.0038416000000001,0.0216634000000012,0.0121974,0.0019634000000004,0.0022622000000009,0.0024706,0,sub_4
-0.0035462000000002,0.0217302000000012,0.0117964,0.0015298000000004,0.0011966000000009,0.0028962,0,sub_4
-0.0035962000000002,0.0217898000000012,0.011193,0.0013086000000004,-0.000294999999999,0.0031102,0,sub_4
-0.0036530000000002,0.0216102000000012,0.0110902,0.0012978000000003,-0.001785799999999,0.0028884,0,sub_4
-0.0034600000000002,0.0217286000000012,0.0101188,0.0015072000000003,-0.002210399999999,0.0022394,0,sub_4
-0.0031756000000002,0.0219534000000012,0.0097756,0.0010794000000003,-0.0022057999999991,0.0013718,0,sub_4
-0.0027578000000002,0.0217866000000012,0.0098988,0.0015052000000003,-0.0017795999999991,0.000937,0,sub_4
-0.0025830000000002,0.0217558000000012,0.0100072,0.0015042000000003,-0.0009275999999991,0.0009258000000001,0,sub_4
-0.0022010000000002,0.0215486000000012,0.009814,0.0017196000000004,-0.0002899999999991,0.0011400000000001,0,sub_4
-0.0021704000000002,0.0218028000000012,0.010241,0.0015072000000004,-0.0007127999999991,0.0004982000000001,0,sub_4
-0.0019666000000002,0.0217046000000012,0.010113,0.0015082000000004,-0.001136399999999,-0.0001421999999998,0,sub_4
-0.0024670000000002,0.0214542000000012,0.0100568,0.0006538000000004,-0.001339599999999,-0.0012183999999998,0,sub_4
-0.0026020000000002,0.0211336000000012,0.0096182,0.0002292000000004,-0.001117399999999,-0.0025055999999998,0,sub_4
-0.0024670000000002,0.0216410000000012,0.0094946,-0.0004087999999995,-0.000257799999999,-0.0031541999999998,0,sub_4
-0.0024998000000002,0.0216568000000012,0.0099208,-0.0008343999999995,0.0010246000000009,-0.0031609999999998,0,sub_4
-0.0025636000000002,0.0216794000000012,0.0101306,-0.0012647999999995,0.0016662000000008,-0.0027397999999998,0,sub_4
-0.0028148000000002,0.0223148000000012,0.0102026,-0.0012655999999995,0.0016652000000008,-0.0025261999999998,0,sub_4
-0.0028484000000002,0.0225728000000012,0.0104916,-0.0010569999999995,0.0010236000000008,-0.0020967999999998,0,sub_4
-0.0030882000000002,0.0226444000000012,0.011086,-0.0010589999999995,0.0003854000000008,-0.0023097999999998,0,sub_4
-0.0025960000000002,0.0224348000000012,0.0106482,-0.0010657999999995,-0.0002491999999991,-0.0025231999999998,0,sub_4
-0.0027832000000002,0.0219002000000012,0.010134,-0.0008545999999995,0.0001806000000008,-0.0027363999999998,0,sub_4
-0.0025636000000002,0.0216088000000012,0.0098754,-0.0010709999999995,0.0006112000000008,-0.0027389999999998,0,sub_4
-0.0023250000000002,0.0216148000000012,0.0103708,-0.0012911999999995,0.0006140000000008,-0.0023135999999998,0,sub_4
-0.0019442000000002,0.0214860000000012,0.0098456,-0.0015131999999995,0.0001904000000008,-0.0018877999999998,0,sub_4
-0.0019192000000002,0.0215724000000012,0.0105042,-0.0017285999999995,-2.279999999910756e-05,-0.0016753999999998,0,sub_4
-0.0025560000000002,0.0219822000000012,0.0107916,-0.0021591999999995,-0.0008733999999991,-0.0016773999999998,0,sub_4
-0.0025936000000001,0.0218564000000012,0.0107844,-0.0021601999999995,-0.0008743999999991,-0.0014637999999998,0,sub_4
-0.0027394000000001,0.0224428000000012,0.0107608,-0.0021595999999995,0.0001978000000008,-0.0018961999999998,0,sub_4
-0.0038090000000001,0.0220500000000012,0.0104474,-0.0017313999999995,0.0014816000000008,-0.0023255999999998,0,sub_4
-0.0045606000000001,0.0223314000000012,0.0099894,-0.0015211999999995,0.0025496000000008,-0.0019017999999998,0,sub_4
-0.0037328000000001,0.0229054000000012,0.0099698,-0.0015261999999995,0.0031922000000008,-0.0014789999999998,0,sub_4
-0.0033174000000002,0.0229824000000012,0.0105214,-0.0013207999999995,0.0031950000000008,-0.0010537999999998,0,sub_4
-0.0034430000000002,0.0222078000000012,0.0102182,-0.0015351999999995,0.0031948000000008,-0.0008415999999998,0,sub_4
-0.0034994000000002,0.0223782000000012,0.0108342,-0.0021789999999995,0.0027692000000008,-0.0004183999999998,0,sub_4
-0.0025756000000002,0.0222624000000012,0.0109656,-0.0026065999999995,0.0023454000000008,-0.0006345999999998,0,sub_4
-0.0023110000000002,0.0217208000000012,0.0111002,-0.0021827999999995,0.0027756000000008,-0.0010657999999998,0,sub_4
-0.0022440000000002,0.0216320000000012,0.0109752,-0.0015473999999995,0.0027790000000008,-0.0014949999999998,0,sub_4
-0.0025736000000002,0.0219138000000012,0.0110444,-0.0009167999999995,0.0021416000000008,-0.0014959999999998,0,sub_4
-0.0020420000000002,0.0221186000000012,0.0109734,-0.0002843999999995,0.0021426000000008,-0.0012841999999998,0,sub_4
-0.0030540000000002,0.0221112000000012,0.0108178,0.0003452000000004,0.0017166000000008,-0.0008581999999998,0,sub_4
-0.0038118000000002,0.0222034000000012,0.010406,0.0003376000000004,0.0006488000000008,-0.0002157999999998,0,sub_4
-0.0046278000000002,0.0223884000000012,0.0102938,-9.679999999958458e-05,0.0002192000000008,0.0010636000000001,0,sub_4
-0.0044168000000002,0.0227418000000012,0.010053,-0.0005283999999995,0.0002164000000008,0.0021288000000001,0,sub_4
-0.0039480000000001,0.0228744000000012,0.010306,-0.0003281999999995,-0.0002093999999991,0.0029818000000001,0,sub_4
-0.0036362000000001,0.0230550000000012,0.0105812,8.820000000041541e-05,-0.0002089999999991,0.0036222000000001,0,sub_4
-0.0032688000000001,0.0225708000000012,0.010841,0.0005066000000004,0.0002176000000008,0.0042620000000001,0,sub_4
-0.0024160000000001,0.0222596000000012,0.0107422,0.0005020000000004,0.0004368000000008,0.0038308000000001,0,sub_4
-0.0021416000000001,0.0219602000000012,0.0110646,0.0007090000000004,0.0002292000000008,0.0034016000000001,0,sub_4
-0.0021832000000001,0.0215890000000012,0.0108984,0.0009242000000003,0.0004422000000008,0.0031892000000001,0,sub_4
-0.0020344000000001,0.0214716000000012,0.0104312,0.0009242000000003,0.0002300000000008,0.0029758,0,sub_4
-0.0020174000000002,0.0220384000000012,0.0103366,0.0011386000000003,0.0004422000000008,0.002977,0,sub_4
-0.0025246000000002,0.0221708000000012,0.0103828,0.0015588000000003,0.0002276000000008,0.0031966,0,sub_4
-0.0030238000000002,0.0219946000000012,0.010157,0.0019770000000003,-0.000413199999999,0.0034168,0,sub_4
-0.0037426000000002,0.0219578000000012,0.0099414,0.0019716000000004,-0.000837599999999,0.0032064,0,sub_4
-0.0036656000000002,0.0216568000000012,0.0101902,0.0015402000000004,-0.001259799999999,0.0027792,0,sub_4
-0.0041100000000002,0.0213752000000012,0.010088,0.0008964000000004,-0.001467999999999,0.0023504,0,sub_4
-0.0039186000000002,0.0211116000000012,0.0100472,0.0004726000000004,-0.0010395999999991,0.0021332,0,sub_4
-0.0032874000000002,0.0213858000000012,0.01031,4.980000000041536e-05,2.6400000000892378e-05,0.0023424,0,sub_4
-0.0025726000000002,0.0216538000000012,0.0106092,0.0002640000000004,0.0004510000000008,0.002557,0,sub_4
-0.0029878000000002,0.0216274000000012,0.01084,0.0009052000000004,0.0008740000000009,0.0027746000000001,0,sub_4
-0.0027718000000002,0.0219878000000011,0.0115966,0.0015448000000004,0.0004454000000009,0.0025722000000001,0,sub_4
-0.0030308000000002,0.0223612000000011,0.0115318,0.0021834000000004,1.600000000091242e-05,0.0025836,0,sub_4
-0.0037078000000002,0.0221164000000012,0.0111574,0.0026086000000004,-0.000837199999999,0.0021668,0,sub_4
-0.0039130000000002,0.0219154000000012,0.0107274,0.0019680000000004,-0.001473599999999,0.0017422,0,sub_4
-0.0038170000000002,0.0223306000000012,0.0107302,0.0015426000000004,-0.001259999999999,0.0017454,0,sub_4
-0.0036540000000002,0.0222546000000012,0.0100688,0.0011158000000004,-0.001258599999999,0.0017424,0,sub_4
-0.0033252000000002,0.0221948000000012,0.010038,4.880000000041526e-05,-0.001679199999999,0.0013082000000001,0,sub_4
-0.0029852000000002,0.0223408000000012,0.0093672,-0.0003685999999995,-0.001039999999999,0.0006700000000001,0,sub_4
-0.0030290000000002,0.0222186000000012,0.0093236,-0.0003601999999996,-0.0001909999999991,0.0004618000000001,0,sub_4
-0.0031996000000002,0.0220714000000012,0.0090886,-0.0001413999999996,-0.0001941999999991,4.260000000010408e-05,0,sub_4
-0.0029700000000002,0.0221588000000012,0.0088414,-0.0001359999999996,0.0002278000000008,4.860000000010409e-05,0,sub_4
-0.0031332000000002,0.0224276000000012,0.0084838,0.0005116000000003,0.0010736000000008,5.86000000001041e-05,0,sub_4
-0.0036248000000002,0.0223234000000012,0.0092082,0.0005106000000003,0.0012848000000008,0.0004856000000001,0,sub_4
