userAcceleration.x,userAcceleration.y,userAcceleration.z,rotationRate.x,rotationRate.y,rotationRate.z,label,subject
-0.0039120000000002,0.0044118000000011,-0.0147819999999999,-0.0001217999999995,-0.0115905999999989,0.0016734,0,sub_10
-0.0039934000000002,0.0058352000000011,-0.0141763999999999,-0.0020345999999995,-0.0107281999999989,0.0008044,0,sub_10
-0.0063490000000002,0.0077930000000011,-0.0144383999999999,-0.0024507999999995,-0.0088075999999989,0.0003718,0,sub_10
-0.0078180000000002,0.0097700000000011,-0.0153631999999999,-0.0020231999999995,-0.008383799999999,0.0005878,0,sub_10
-0.0100466000000002,0.0107342000000011,-0.0158549999999999,-0.0011617999999995,-0.008409399999999,0.0001726,0,sub_10
-0.0109530000000002,0.0112088000000011,-0.0163437999999998,0.0009864000000004,-0.007160399999999,-0.0004487999999999,0,sub_10
-0.0119824000000002,0.0112864000000011,-0.0172691999999998,0.0035634000000004,-0.005698999999999,-0.0012811999999999,0,sub_10
-0.0108456000000002,0.0096988000000011,-0.0171165999999998,0.0048590000000004,-0.004021599999999,-0.0016955999999999,0,sub_10
-0.0095050000000002,0.0073240000000011,-0.0160803999999998,0.0053042000000004,-0.001489999999999,-0.0019033999999999,0,sub_10
-0.0077962000000002,0.0054920000000011,-0.0148477999999998,0.0044602000000004,0.0008558000000009,-0.0016985999999999,0,sub_10
-0.0072210000000002,0.0038330000000011,-0.0138483999999998,0.0038152000000004,0.0002172000000009,-0.0012749999999999,0,sub_10
-0.0066492000000002,0.0027628000000011,-0.0137949999999998,0.0023130000000004,-0.001482799999999,-0.0010695999999999,0,sub_10
-0.0064170000000002,0.0030034000000011,-0.0135451999999998,0.0003936000000004,-0.003000399999999,-0.0012875999999999,0,sub_10
-0.0061426000000002,0.0045118000000011,-0.0138545999999998,-0.0008799999999995,-0.003029599999999,-0.0012891999999999,0,sub_10
-0.0065508000000002,0.0057264000000011,-0.0139431999999998,-0.0015125999999995,-0.003060399999999,-0.0015001999999999,0,sub_10
-0.0067118000000002,0.0072512000000011,-0.0143405999999998,-0.0023593999999995,-0.002666799999999,-0.0010721999999999,0,sub_10
-0.0068170000000002,0.0083624000000012,-0.0137557999999998,-0.0023575999999995,-0.002916999999999,-0.0002101999999999,0,sub_10
-0.0077928000000002,0.0089374000000011,-0.0139185999999998,-0.0015155999999995,-0.004627799999999,0.0006524,0,sub_10
-0.0086412000000002,0.0083916000000011,-0.0145355999999998,-0.0002449999999995,-0.006338399999999,0.0010906,0,sub_10
-0.0089532000000002,0.0079512000000011,-0.0149431999999999,0.0003924000000004,-0.006555399999999,0.0015226,0,sub_10
-0.0096870000000002,0.0069762000000011,-0.0153027999999999,0.0004028000000004,-0.005307799999999,0.0017392,0,sub_10
-0.0102334000000002,0.0059894000000011,-0.0158443999999999,0.0006284000000004,-0.003422799999999,0.0021702,0,sub_10
-0.0104046000000002,0.0052148000000011,-0.0160593999999999,0.0008550000000004,-0.001536799999999,0.0023876,0,sub_10
-0.0098792000000002,0.0057036000000011,-0.0157381999999999,0.0008692000000004,0.0001386000000009,0.0021766,0,sub_10
-0.0085242000000002,0.0058582000000011,-0.0154361999999998,0.0008842000000004,0.0018148000000009,0.001752,0,sub_10
-0.0081434000000002,0.0063210000000011,-0.0148029999999998,0.0011014000000004,0.0020298000000009,0.0011124,0,sub_10
-0.0071670000000002,0.0063320000000011,-0.0144627999999998,0.0011032000000003,0.0024560000000009,0.0011118,0,sub_10
-0.0053140000000002,0.0067690000000011,-0.0143997999999998,3.720000000040323e-05,0.0030972000000009,0.0015308,0,sub_10
-0.0044972000000002,0.0067312000000011,-0.0135825999999999,-0.0014527999999995,0.0037370000000009,0.0012988,0,sub_10
-0.0050516000000002,0.0072672000000011,-0.0135123999999999,-0.0018737999999995,0.0050114000000009,0.001287,0,sub_10
-0.0055032000000002,0.0077748000000011,-0.0138497999999999,-0.0012365999999995,0.0043644000000009,0.0012852,0,sub_10
-0.0070906000000002,0.0072928000000011,-0.0143233999999999,-0.0010375999999995,0.0005258000000009,0.0006434,0,sub_10
-0.0075028000000002,0.0057810000000012,-0.0146521999999999,-0.0001897999999995,-0.001821999999999,-0.0004229999999999,0,sub_10
-0.0076804000000002,0.0042586000000012,-0.0160907999999998,3.140000000042328e-05,-0.000754999999999,-0.0010637999999999,0,sub_10
-0.0074642000000002,0.0031836000000012,-0.0164659999999998,-0.0008143999999995,-0.000108599999999,-0.0021387999999999,0,sub_10
-0.0079434000000002,0.0025650000000012,-0.0166671999999998,-0.0031461999999995,0.0022474000000009,-0.0032263999999999,0,sub_10
-0.0074872000000002,0.0036568000000012,-0.0159821999999998,-0.0044055999999995,0.0063178000000009,-0.0038873999999999,0,sub_10
-0.0085490000000002,0.0058750000000011,-0.0153137999999998,-0.0050355999999995,0.0084666000000009,-0.0041143999999999,0,sub_10
-0.0089500000000002,0.0080852000000011,-0.0149543999999998,-0.0046177999999995,0.0071996000000009,-0.0034749999999999,0,sub_10
-0.0094828000000002,0.0092490000000011,-0.0146053999999999,-0.0039903999999995,0.0059284000000009,-0.0019795999999999,0,sub_10
-0.0091306000000002,0.0101596000000011,-0.0143689999999999,-0.0022923999999995,0.0055058000000009,-0.0004777999999999,0,sub_10
-0.0090846000000002,0.0096738000000011,-0.0151109999999999,-0.0008007999999995,0.0061354000000009,0.0006,0,sub_10
-0.0085614000000002,0.0087744000000011,-0.0155749999999999,0.0002700000000004,0.0071962000000009,0.0008198,0,sub_10
-0.0080408000000002,0.0077404000000011,-0.0150839999999999,0.0009206000000004,0.0091132000000009,0.0003946,0,sub_10
-0.0074608000000002,0.0067884000000011,-0.0144989999999999,0.0017766000000004,0.0097694000000009,-0.0004571999999999,0,sub_10
-0.0064780000000002,0.0055370000000011,-0.0140971999999999,0.0019858000000004,0.0093610000000009,-0.0008849999999999,0,sub_10
-0.0054436000000002,0.0053080000000011,-0.0133757999999998,0.0009130000000004,0.0085310000000009,-0.0013211999999999,0,sub_10
-0.0050616000000002,0.0049880000000011,-0.0131543999999998,-0.0001619999999995,0.0079114000000009,-0.0011165999999999,0,sub_10
-0.0055284000000002,0.0052234000000011,-0.0134627999999998,-0.0010281999999995,0.0062258000000009,-0.0009093999999999,0,sub_10
-0.0059234000000002,0.0057654000000011,-0.0137285999999998,-0.0021007999999995,0.0049514000000009,-0.0009153999999999,0,sub_10
-0.0065460000000002,0.0069060000000011,-0.0139989999999998,-0.0027409999999995,0.0047414000000009,-0.0011331999999999,0,sub_10
-0.0073618000000002,0.0077698000000011,-0.0141535999999998,-0.0025315999999995,0.0041006000000009,-0.0009171999999999,0,sub_10
-0.0088260000000002,0.0079594000000011,-0.0146435999999998,-0.0019013999999995,0.0024134000000009,-0.0007011999999999,0,sub_10
-0.0086940000000002,0.0079874000000011,-0.0155261999999998,-0.0006283999999995,0.0015752000000009,-0.0002679999999999,0,sub_10
-0.0079962000000002,0.0074478000000012,-0.0158155999999998,-0.0002011999999995,0.0024444000000009,0.000157,0,sub_10
-0.0066196000000002,0.0061686000000011,-0.0152729999999998,1.7600000000443128e-05,0.0033186000000009,-0.0004877999999999,0,sub_10
-0.0065752000000002,0.0056018000000011,-0.0151275999999998,0.0004574000000004,0.0058966000000009,-0.0011331999999999,0,sub_10
-0.0060136000000002,0.0058908000000011,-0.0147963999999998,0.0004680000000004,0.0080280000000009,-0.0013495999999999,0,sub_10
-0.0070730000000002,0.0055932000000011,-0.0138021999999998,-0.0008101999999995,0.0084586000000009,-0.0013591999999999,0,sub_10
-0.0077400000000002,0.0057508000000011,-0.0137781999999999,-0.0010263999999995,0.0071836000000009,-0.0019999999999999,0,sub_10
-0.0088490000000002,0.0068120000000011,-0.0145711999999999,-0.0014559999999995,0.0065460000000009,-0.0020021999999999,0,sub_10
-0.0092862000000002,0.0074878000000011,-0.0144137999999998,-0.0016711999999995,0.0059188000000009,-0.0024361999999999,0,sub_10
-0.0096756000000002,0.0074120000000011,-0.0146179999999998,-0.0018835999999995,0.0061428000000009,-0.0026575999999999,0,sub_10
-0.0090182000000002,0.0067870000000011,-0.0148069999999998,-0.0010367999999995,0.0057198000000009,-0.0018025999999999,0,sub_10
-0.0085472000000002,0.0060842000000011,-0.0152359999999998,-0.0008319999999995,0.0052974000000009,-0.0005247999999999,0,sub_10
-0.0084314000000002,0.0050404000000011,-0.0152811999999998,-0.0008423999999995,0.0044496000000009,0.0007522,0,sub_10
-0.0077892000000002,0.0044056000000011,-0.0151179999999999,-0.0014929999999995,0.0027448000000009,0.0013908,0,sub_10
-0.0071972000000002,0.0057194000000011,-0.0142147999999999,-0.0021387999999995,0.0016810000000009,0.0016014,0,sub_10
-0.0074556000000002,0.0086510000000012,-0.0136651999999999,-0.0025545999999995,0.0023258000000009,0.0005282,0,sub_10
-0.0079190000000001,0.0115030000000011,-0.0127081999999999,-0.0025473999999995,0.0031780000000009,0.0005258,0,sub_10
-0.0080942000000002,0.0131274000000012,-0.0114225999999999,-0.0016991999999995,0.0018942000000009,0.0011728,0,sub_10
-0.0071034000000002,0.0130232000000012,-0.0115699999999998,0.0006310000000004,-0.001314999999999,0.0024736,0,sub_10
-0.0059882000000002,0.0108390000000011,-0.0121541999999998,0.0025402000000004,-0.004729799999999,0.0022762,0,sub_10
-0.0047536000000002,0.0066156000000011,-0.0121285999999998,0.0038100000000004,-0.007714399999999,0.0016478,0,sub_10
-0.0042782000000002,0.0025830000000011,-0.0126401999999998,0.0048710000000004,-0.010269799999999,0.0003766,0,sub_10
-0.0040646000000002,0.0004170000000011,-0.0134419999999998,0.0048758000000003,-0.011326599999999,-0.0017583999999999,0,sub_10
-0.0047900000000002,4.0000000011983575e-06,-0.0138187999999998,0.0033922000000003,-0.011970799999999,-0.0036903999999999,0,sub_10
-0.0056700000000002,0.0007570000000011,-0.0133777999999998,0.0021132000000004,-0.012411199999999,-0.0034847999999999,0,sub_10
-0.0063282000000002,0.0030776000000011,-0.0139803999999999,0.0006236000000004,-0.011787199999999,-0.0028547999999999,0,sub_10
-0.0064558000000001,0.0056450000000011,-0.0143979999999999,-1.8999999999596946e-05,-0.013294199999999,-0.0028569999999999,0,sub_10
-0.0083856000000001,0.0074602000000011,-0.0157129999999999,-0.0002407999999995,-0.015444399999999,-0.0022145999999999,0,sub_10
-0.0097728000000002,0.0092168000000012,-0.0169359999999999,-0.0010933999999995,-0.014167199999999,-0.0011539999999999,0,sub_10
-0.0108466000000002,0.0106564000000011,-0.0182835999999999,-0.0012999999999995,-0.011613999999999,-9.059999999992894e-05,0,sub_10
-0.0126276000000002,0.0114250000000011,-0.0183265999999999,-0.0006521999999995,-0.007789799999999,0.0020456,0,sub_10
-0.0149218000000002,0.0118038000000011,-0.0187735999999999,0.0002188000000004,-0.002502199999999,0.0048246,0,sub_10
-0.0142706000000002,0.0113422000000011,-0.0182769999999999,0.0013022000000004,0.0027838000000009,0.0078188,0,sub_10
-0.0139742000000002,0.0097506000000011,-0.0180983999999999,0.0032400000000004,0.0074310000000009,0.0099652,0,sub_10
-0.0125238000000002,0.0067146000000011,-0.0169769999999999,0.0036890000000004,0.0118756000000009,0.0108196,0,sub_10
-0.0107012000000002,0.0041650000000011,-0.0167369999999999,0.0028608000000004,0.0150540000000009,0.0097438,0,sub_10
-0.0076596000000002,0.0019482000000011,-0.0158243999999999,0.0007462000000004,0.0178372000000009,0.00823,0,sub_10
-0.0048132000000002,0.0022682000000011,-0.0133561999999999,-0.0024341999999995,0.0202004000000009,0.0060682,0,sub_10
-0.0028550000000002,0.0038288000000011,-0.0107571999999999,-0.0058385999999995,0.0202210000000009,0.0039078,0,sub_10
-0.0022996000000002,0.0070200000000011,-0.0096513999999999,-0.0073417999999995,0.0161858000000009,0.0019796,0,sub_10
-0.0019004000000002,0.0091170000000011,-0.0086093999999999,-0.0067227999999995,0.0089158000000009,0.000715,0,sub_10
-0.0016552000000002,0.0105554000000011,-0.0083095999999999,-0.0048223999999995,0.0020666000000009,-0.0003275999999999,0,sub_10
-0.0024300000000002,0.0093924000000011,-0.0096601999999999,-0.0014217999999995,-0.003720799999999,-0.0017883999999999,0,sub_10
-0.0027196000000002,0.0078034000000011,-0.0107651999999999,0.0024056000000004,-0.009721999999999,-0.0034593999999999,0,sub_10
-0.0032390000000002,0.0058510000000011,-0.0114865999999999,0.0049652000000004,-0.013373399999999,-0.0055695999999999,0,sub_10
-0.0035592000000002,0.0045408000000011,-0.0121927999999999,0.0056034000000004,-0.015499399999999,-0.0072715999999999,0,sub_10
-0.0046708000000002,0.0037942000000011,-0.0122769999999999,0.0053804000000004,-0.018265799999999,-0.0079105999999999,0,sub_10
-0.0059068000000002,0.0040978000000011,-0.0129863999999999,0.0045154000000004,-0.020607199999999,-0.0076999999999999,0,sub_10
-0.0077138000000002,0.0047266000000011,-0.0142953999999999,0.0030206000000004,-0.0212723999999989,-0.0066397999999999,0,sub_10
-0.0093154000000002,0.0051074000000011,-0.0159811999999999,0.0019506000000003,-0.0217285999999989,-0.0049357999999999,0,sub_10
-0.0113196000000002,0.0057968000000011,-0.0173265999999999,0.0010998000000003,-0.0202705999999989,-0.0025917999999999,0,sub_10
-0.0135584000000002,0.0068898000000011,-0.0189325999999999,4.700000000038293e-05,-0.016679599999999,-0.0006791999999999,0,sub_10
-0.0148626000000001,0.0085494000000011,-0.0197077999999999,-0.0009999999999995,-0.011385999999999,0.0016586,0,sub_10
-0.0148610000000001,0.0097162000000011,-0.0195157999999999,-0.0018381999999995,-0.006276599999999,0.0033554,0,sub_10
-0.0150466000000001,0.0108430000000011,-0.0187227999999999,-0.0018131999999995,0.0005360000000009,0.0046286,0,sub_10
-0.0127758000000001,0.0119428000000012,-0.0181421999999999,-0.0009357999999995,0.0067082000000009,0.0054814,0,sub_10
-0.0096210000000001,0.0119496000000011,-0.0162313999999999,0.0001540000000004,0.0118160000000009,0.0054842,0,sub_10
-0.0063402000000002,0.0106170000000011,-0.0139633999999999,0.0010274000000004,0.0152244000000009,0.0044194,0,sub_10
-0.0045102000000002,0.0093666000000011,-0.0121503999999999,0.0021048000000004,0.0169258000000009,0.0037856,0,sub_10
-0.0031838000000002,0.0075076000000011,-0.0108097999999999,0.0027332000000004,0.0143652000000009,0.003795,0,sub_10
-0.0026972000000002,0.0059252000000011,-0.0100515999999999,0.0020708000000004,0.0090410000000009,0.0033716,0,sub_10
-0.0026382000000002,0.0048838000000011,-0.0099991999999999,0.0009838000000004,0.0037218000000009,0.0025162,0,sub_10
-0.0029010000000002,0.0046494000000011,-0.0107059999999998,0.0005342000000004,-0.001814399999999,0.0020928,0,sub_10
-0.0031340000000002,0.0040058000000011,-0.0113749999999998,0.0002938000000004,-0.007762199999999,0.0014544,0,sub_10
-0.0030976000000002,0.0043436000000011,-0.0123451999999998,-0.0010045999999995,-0.011364399999999,0.001233,0,sub_10
-0.0036018000000002,0.0048738000000011,-0.0127561999999998,-0.0014427999999995,-0.013265999999999,0.001229,0,sub_10
-0.0046486000000002,0.0050146000000011,-0.0133627999999998,-0.0014581999999995,-0.015596999999999,0.0016558,0,sub_10
-0.0061762000000002,0.0055752000000011,-0.0141251999999999,-0.0014717999999995,-0.017926199999999,0.0016554,0,sub_10
-0.0073608000000002,0.0063328000000011,-0.0151273999999999,-0.0012631999999995,-0.019204399999999,0.0014448,0,sub_10
-0.0084000000000002,0.0079352000000011,-0.0158161999999999,-0.0008315999999995,-0.018564999999999,0.0010198,0,sub_10
-0.0106710000000002,0.0087510000000011,-0.0164899999999999,3.540000000042294e-05,-0.016221799999999,0.000382,0,sub_10
-0.0121302000000002,0.0097510000000011,-0.0177053999999999,0.0009062000000004,-0.012830799999999,-5.679999999992899e-05,0,sub_10
-0.0129046000000002,0.0102712000000011,-0.0177673999999999,0.0017838000000004,-0.007948399999999,-0.0004973999999999,0,sub_10
-0.0122504000000002,0.0109868000000011,-0.0172973999999999,0.0024520000000004,-0.002000799999999,-0.0007271999999999,0,sub_10
-0.0110640000000002,0.0106380000000011,-0.0163439999999999,0.0035428000000004,0.0024564000000009,-0.0015931999999999,0,sub_10
-0.0088820000000002,0.0103038000000011,-0.0153815999999999,0.0039868000000004,0.0054244000000009,-0.0024617999999999,0,sub_10
-0.0071184000000002,0.0101462000000011,-0.0135819999999999,0.0040004000000004,0.0075584000000009,-0.0033189999999999,0,sub_10
-0.0056470000000002,0.0102026000000011,-0.0126023999999999,0.0031546000000004,0.0092658000000009,-0.0033271999999999,0,sub_10
-0.0055136000000002,0.0105518000000011,-0.0115595999999999,0.0020790000000004,0.0077764000000009,-0.0029053999999999,0,sub_10
-0.0064718000000002,0.0085224000000011,-0.0120507999999999,0.0011998000000004,0.0035124000000009,-0.0014105999999999,0,sub_10
-0.0077946000000002,0.0066054000000011,-0.0125277999999999,0.0005368000000004,0.0007356000000009,0.0009384,0,sub_10
-0.0063352000000002,0.0031616000000011,-0.0131419999999999,-0.0001211999999995,-0.000956999999999,0.0022194,0,sub_10
-0.0062878000000002,0.0009652000000011,-0.0142295999999999,-0.0009847999999995,-0.002005599999999,0.00243,0,sub_10
-0.0054758000000002,-0.0010307999999988,-0.0157153999999999,-0.0031085999999995,0.0003636000000009,0.0015592,0,sub_10
-0.0043440000000002,-0.0009199999999988,-0.0158759999999999,-0.0058543999999995,0.0052976000000009,-0.0008147999999999,0,sub_10
-0.0031216000000002,0.0019388000000011,-0.0157113999999999,-0.0081703999999995,0.0098082000000009,-0.0042533999999999,0,sub_10
-0.0050068000000002,0.0074470000000011,-0.0159083999999999,-0.0094305999999995,0.0128014000000009,-0.0057613999999999,0,sub_10
-0.0063564000000002,0.0117194000000011,-0.0146985999999999,-0.0096419999999995,0.0128040000000009,-0.0061901999999999,0,sub_10
-0.0101046000000002,0.0151758000000012,-0.0150509999999999,-0.0070981999999995,0.0102576000000009,-0.0057449999999999,0,sub_10
-0.0126348000000002,0.0190248000000012,-0.0159031999999999,-0.0039141999999995,0.0087700000000009,-0.0042283999999999,0,sub_10
-0.0151554000000002,0.0187424000000012,-0.0169253999999998,-0.0005149999999995,0.0085566000000009,-0.0018573999999999,0,sub_10
-0.0155586000000002,0.0166174000000011,-0.0171257999999998,0.0022546000000004,0.0102646000000009,7.940000000003101e-05,0,sub_10
-0.0151010000000002,0.0130428000000011,-0.0175133999999998,0.0045994000000004,0.0128246000000009,0.0024396,0,sub_10
-0.0108216000000002,0.0084218000000011,-0.0164801999999998,0.0052444000000004,0.0157976000000009,0.004363,0,sub_10
-0.0070126000000002,0.0034480000000011,-0.0150721999999998,0.0050358000000004,0.0177124000000009,0.0052138,0,sub_10
-0.0033798000000002,-0.0008577999999988,-0.0139015999999998,0.0026896000000004,0.0177216000000009,0.0049838,0,sub_10
-0.0017888000000002,-0.0026523999999988,-0.0128723999999998,-0.0007295999999995,0.0166814000000009,0.0040994,0,sub_10
-0.0001630000000002,-0.0020017999999988,-0.0126941999999998,-0.0047823999999995,0.0160738000000009,0.0021418,0,sub_10
-0.0008570000000002,5.240000000119854e-05,-0.0118517999999999,-0.0090495999999995,0.0154660000000009,0.0003964,0,sub_10
-0.0026132000000002,0.0040122000000011,-0.0115893999999998,-0.0118269999999995,0.0142130000000009,-0.0011241999999999,0,sub_10
-0.0045770000000002,0.0087838000000011,-0.0112581999999998,-0.0122639999999995,0.0116726000000009,-0.0024129999999999,0,sub_10
-0.0072182000000002,0.0122294000000011,-0.0126209999999998,-0.0097151999999995,0.0082582000000009,-0.0032453999999999,0,sub_10
-0.0103656000000002,0.0130488000000011,-0.0137911999999998,-0.0058917999999995,0.0046220000000009,-0.0030003999999999,0,sub_10
-0.0123506000000002,0.0136984000000011,-0.0157303999999998,-0.0018501999999995,0.0028990000000009,-0.0019015999999999,0,sub_10
-0.0134116000000002,0.0116580000000011,-0.0166797999999999,0.0011240000000004,0.0033386000000009,0.0008908,0,sub_10
-0.0127722000000002,0.0086530000000011,-0.0168279999999999,0.0021798000000004,0.0046352000000009,0.004096,0,sub_10
-0.0105926000000002,0.0055676000000011,-0.0160951999999999,0.0011028000000004,0.0059402000000009,0.0070728,0,sub_10
-0.0081132000000002,0.0055280000000011,-0.0145407999999999,-0.0001779999999995,0.0081034000000009,0.0087652,0,sub_10
-0.0063420000000002,0.0062876000000011,-0.0123749999999999,-0.0018931999999995,0.0087758000000009,0.01067,0,sub_10
-0.0049308000000002,0.0085104000000011,-0.0108597999999999,-0.0040441999999995,0.0062214000000009,0.0119402,0,sub_10
-0.0042770000000002,0.0096894000000011,-0.0109043999999999,-0.0047063999999995,0.0021724000000009,0.0127952,0,sub_10
-0.0034726000000002,0.0097226000000011,-0.0108091999999999,-0.0043011999999995,-0.001432799999999,0.0125882,0,sub_10
-0.0036452000000002,0.0082492000000011,-0.0116683999999999,-0.0041025999999995,-0.003545999999999,0.0123778,0,sub_10
-0.0051930000000002,0.0060824000000011,-0.0131247999999999,-0.0041115999999995,-0.005228799999999,0.0113108,0,sub_10
-0.0060628000000002,0.0034514000000011,-0.0149335999999999,-0.0049653999999995,-0.005203199999999,0.0100222,0,sub_10
-0.0072224000000002,0.0034170000000011,-0.0153603999999999,-0.0073013999999995,-0.003040399999999,0.0082932,0,sub_10
-0.0081620000000002,0.0041366000000011,-0.0156151999999998,-0.0115447999999995,0.0023008000000009,0.0082566,0,sub_10
-0.0083934000000002,0.0047202000000011,-0.0152873999999998,-0.0157921999999995,0.0063654000000009,0.0077944,0,sub_10
-0.0079206000000002,0.0048602000000011,-0.0150367999999998,-0.0179105999999995,0.0089330000000009,0.0069218,0,sub_10
-0.0081698000000002,0.0060388000000011,-0.0149459999999998,-0.0180985999999995,0.0121302000000009,0.0058524,0,sub_10
-0.0084960000000002,0.0075166000000011,-0.0150209999999998,-0.0172157999999995,0.0161760000000009,0.0047894,0,sub_10
-0.0091928000000002,0.0086170000000011,-0.0155663999999998,-0.0148431999999995,0.0183034000000009,0.0026712,0,sub_10
-0.0094722000000002,0.0093354000000011,-0.0166657999999998,-0.0118313999999995,0.0204278000000009,0.000771,0,sub_10
-0.0100874000000002,0.0105402000000011,-0.0178021999999999,-0.0090215999999995,0.0253216000000009,-0.0009205999999999,0,sub_10
-0.0125018000000002,0.0097136000000011,-0.0184229999999999,-0.0070725999999995,0.0306456000000009,-0.0019821999999999,0,sub_10
-0.0156162000000001,0.0076340000000011,-0.0201093999999999,-0.0066171999999995,0.0380968000000009,-0.0009203999999999,0,sub_10
-0.0185874000000001,0.0057084000000011,-0.0213941999999999,-0.0087135999999995,0.0489598000000009,0.0016146,0,sub_10
-0.0186148000000001,0.0067518000000011,-0.0210551999999999,-0.0129351999999995,0.0631958000000009,0.0064802,0,sub_10
-0.0188396000000002,0.0078152000000011,-0.0201651999999999,-0.0192933999999995,0.0774368000000009,0.0119718,0,sub_10
-0.0169936000000002,0.0102236000000011,-0.0189177999999999,-0.0258735999999995,0.0908220000000009,0.0185312,0,sub_10
-0.0143248000000002,0.0129102000000011,-0.0163581999999999,-0.0290579999999995,0.0999350000000009,0.0249062,0,sub_10
-0.0120490000000002,0.0153754000000011,-0.0139383999999998,-0.0275751999999995,0.1028540000000009,0.0311082,0,sub_10
-0.0119134000000002,0.0150490000000011,-0.0133571999999998,-0.0248243999999995,0.1019752000000009,0.0354013999999999,0,sub_10
-0.0094366000000002,0.0113280000000011,-0.0113467999999998,-0.0201569999999995,0.0996008000000009,0.0390689999999999,0,sub_10
-0.0070200000000002,0.0076294000000012,-0.0098265999999998,-0.0133635999999995,0.0938168000000009,0.0410468,0,sub_10
-0.0016670000000002,0.0036714000000012,-0.0085665999999998,-0.0069959999999995,0.0820370000000009,0.0400382,0,sub_10
0.0042143999999997,-0.0004561999999987,-0.0068109999999999,-0.0027639999999995,0.0666556000000009,0.0358146,0,sub_10
0.0096229999999997,-0.0037777999999987,-0.0045403999999999,0.0008296000000004,0.0487316000000009,0.028599,0,sub_10
0.0114035999999997,-0.0027519999999987,-0.0038155999999999,0.0010218000000004,0.0310428000000009,0.0187954,0,sub_10
0.0119893999999997,-0.0013415999999987,-0.0029213999999999,-0.0011309999999995,0.0135762000000009,0.0087616,0,sub_10
0.0090615999999997,0.0011252000000012,-0.0034237999999999,-0.0054243999999995,0.0010484000000009,0.0019112,0,sub_10
0.0038761999999997,0.0051596000000011,-0.0052005999999999,-0.0112219999999995,-0.009786199999999,-0.0008927999999999,0,sub_10
-0.0015042000000002,0.0087670000000011,-0.0072775999999999,-0.0161849999999995,-0.020640799999999,0.0005818,0,sub_10
-0.0053018000000002,0.0119408000000011,-0.0098271999999999,-0.0179551999999995,-0.030239999999999,0.0050684,0,sub_10
-0.0100386000000002,0.0142664000000011,-0.0133061999999999,-0.0184221999999995,-0.034730599999999,0.0095574,0,sub_10
-0.0145312000000002,0.0154688000000011,-0.0156479999999999,-0.0175887999999995,-0.036236999999999,0.0125562,0,sub_10
-0.0160020000000002,0.0146814000000011,-0.0173995999999999,-0.0143747999999995,-0.032204399999999,0.0136418,0,sub_10
