userAcceleration.x,userAcceleration.y,userAcceleration.z,rotationRate.x,rotationRate.y,rotationRate.z,label,subject
0.0019395999999997,0.0157778000000012,0.0034982000000001,0.0118428000000004,-0.0020089999999989,0.003348,0,sub_8
0.0025213999999997,0.0152608000000011,0.0041642000000001,0.0082816000000004,-0.0024861999999989,0.0024902,0,sub_8
0.0036905999999997,0.0158596000000011,0.0054726000000001,0.0055702000000004,-0.0038185999999989,0.0016394,0,sub_8
0.0052321999999997,0.0162124000000011,0.0072308000000001,0.0038660000000004,-0.0040221999999989,0.0007732,0,sub_8
0.0055991999999997,0.0161980000000011,0.0083002000000001,0.0028048000000004,-0.0040133999999989,-0.0005159999999998,0,sub_8
0.0060271999999997,0.0165982000000011,0.008225,0.0017456000000004,-0.003153999999999,-0.0013789999999998,0,sub_8
0.0061867999999997,0.0173206000000011,0.0079978,0.0001010000000004,-0.001707599999999,-0.0020255999999998,0,sub_8
0.0055501999999997,0.0165954000000011,0.0071474,-0.0032439999999995,0.0010238000000009,-0.0028993999999999,0,sub_8
0.0050569999999997,0.0152156000000011,0.005954,-0.0097817999999995,0.0056830000000009,-0.0035841999999999,0,sub_8
0.0041469999999997,0.0153974000000011,0.0048998,-0.0180227999999995,0.0116248000000009,-0.0038553999999999,0,sub_8
0.0033057999999997,0.0165616000000011,0.0044018000000001,-0.0243529999999995,0.0156414000000009,-0.0038971999999999,0,sub_8
0.0029009999999997,0.0169972000000012,0.0048494000000001,-0.0258389999999995,0.0165022000000009,-0.0047631999999998,0,sub_8
0.0034823999999997,0.0165350000000012,0.0051876000000001,-0.0247635999999995,0.0162940000000009,-0.0068917999999998,0,sub_8
0.0035771999999997,0.0173556000000012,0.0056606,-0.0238955999999995,0.0175770000000009,-0.0088101999999998,0,sub_8
0.0038485999999997,0.0173626000000012,0.0057768,-0.0236725999999995,0.0197068000000009,-0.0088113999999998,0,sub_8
0.0048319999999997,0.0164530000000012,0.0055132,-0.0243069999999995,0.0216130000000009,-0.0092401999999998,0,sub_8
0.0043717999999997,0.0163172000000012,0.0049592,-0.0260061999999995,0.0245856000000009,-0.0090369999999999,0,sub_8
0.0035029999999997,0.0176006000000012,0.00555,-0.0285685999999995,0.0275526000000009,-0.0067033999999999,0,sub_8
0.0026141999999997,0.0179482000000012,0.0061542,-0.0285869999999995,0.0273132000000009,-0.0039205999999999,0,sub_8
0.0030401999999997,0.0182382000000012,0.0076288,-0.0256237999999995,0.0238752000000009,-0.0030355999999999,0,sub_8
0.0037821999999997,0.0189040000000012,0.0090772,-0.0215907999999995,0.0200228000000009,-0.0021479999999999,0,sub_8
0.0040991999999997,0.0191468000000011,0.0107344000000001,-0.0186179999999995,0.0174532000000009,-0.0014829999999999,0,sub_8
0.0044033999999997,0.0193108000000011,0.0102670000000001,-0.0165617999999995,0.0153122000000009,0.0006638,0,sub_8
0.0050823999999997,0.0197954000000011,0.0103114000000001,-0.0121545999999995,0.0114688000000009,0.0002654,0,sub_8
0.0049207999999997,0.0199712000000011,0.0099012000000001,-0.0068939999999995,0.0078348000000009,8.640000000009433e-05,0,sub_8
0.0034183999999997,0.0191314000000011,0.0083396000000001,-0.0033297999999995,0.0067624000000009,0.000106,0,sub_8
0.0033731999999997,0.0179712000000011,0.0069744000000001,-0.0023269999999995,0.0065468000000009,0.0011748,0,sub_8
0.0040161999999997,0.0173968000000011,0.0071520000000001,0.0002336000000004,0.0052648000000009,-8.759999999990573e-05,0,sub_8
0.0042589999999997,0.0172686000000011,0.0070328000000001,0.0015110000000004,0.0054700000000009,0.0007756,0,sub_8
0.0039813999999997,0.0184528000000011,0.0073496000000001,0.0027846000000004,0.0054596000000009,0.00228,0,sub_8
0.0038177999999997,0.0210194000000011,0.0091430000000001,0.0083036000000004,0.0011706000000009,0.0044604,0,sub_8
0.0031749999999997,0.0221384000000011,0.0090834000000001,0.0198850000000004,-0.008443199999999,0.0064574,0,sub_8
0.0033551999999997,0.0209524000000011,0.0089354000000001,0.0278486000000004,-0.016338399999999,0.0079996,0,sub_8
0.0039959999999997,0.0197700000000011,0.0093918000000001,0.0334766000000004,-0.023153999999999,0.0080288,0,sub_8
0.0047107999999997,0.0183190000000011,0.0099644000000001,0.0382616000000004,-0.028684199999999,0.0069822,0,sub_8
0.0058169999999997,0.0158960000000012,0.0094666000000001,0.0379478000000004,-0.029083999999999,0.006107,0,sub_8
0.0072441999999997,0.0146576000000012,0.0096398000000001,0.0326412000000004,-0.024796599999999,0.0041416,0,sub_8
0.0062395999999997,0.0161810000000012,0.0093538000000001,0.0286160000000004,-0.020724999999999,0.0017582,0,sub_8
0.0044401999999997,0.0175084000000012,0.0074330000000001,0.0251422000000004,-0.017709199999999,0.0008628,0,sub_8
0.0032781999999997,0.0169544000000012,0.0050994,0.0186784000000004,-0.013624399999999,0.0016542,0,sub_8
0.0030271999999997,0.0164400000000012,0.003744,0.0109372000000004,-0.009744799999999,0.0015824,0,sub_8
0.0022429999999997,0.0167922000000012,0.003511,0.0040456000000004,-0.006295999999999,0.0019444,0,sub_8
0.0020339999999997,0.0166012000000012,0.004193,-0.0011485999999995,-0.003498399999999,0.0038146,0,sub_8
0.0037441999999997,0.0151586000000012,0.0047788,-0.0051891999999995,0.0005594000000009,0.0048494,0,sub_8
0.0054477999999997,0.0153460000000012,0.0055164,-0.0070865999999995,0.0037696000000009,0.0029092,0,sub_8
0.0058983999999997,0.0156750000000012,0.0053688,-0.0070597999999995,0.0071886000000009,0.0003412,0,sub_8
0.0049583999999997,0.0170582000000012,0.005997,-0.0089581999999995,0.0118676000000009,-0.0009561999999999,0,sub_8
0.0054847999999997,0.0179002000000012,0.0057378,-0.0104375999999995,0.0144164000000009,-0.0026751999999999,0,sub_8
0.0046533999999997,0.0190994000000012,0.006532,-0.0115035999999995,0.0150420000000009,-0.0033207999999998,0,sub_8
0.0031697999999997,0.0196752000000012,0.0070848,-0.0119409999999995,0.0152306000000009,-0.0018247999999998,0,sub_8
0.0019619999999997,0.0200576000000012,0.0083416,-0.0119669999999995,0.0126456000000009,0.0003186000000001,0,sub_8
0.0030775999999997,0.0190618000000012,0.0083354,-0.0096447999999995,0.0077346000000009,0.000982,0,sub_8
0.0025545999999997,0.0182120000000012,0.0086848,-0.0068853999999995,0.0051658000000009,0.0016456,0,sub_8
0.0034325999999997,0.0178796000000012,0.0090234,-0.0045469999999995,0.0032402000000009,0.0016644,0,sub_8
0.0042829999999997,0.0171920000000012,0.008946,-0.0025891999999995,0.0010506000000009,0.0008372,0,sub_8
0.0041171999999997,0.0164728000000012,0.0079692,-0.0008409999999995,-7.379999999903412e-05,0.0002208,0,sub_8
0.0035031999999997,0.0157166000000011,0.006894,5.460000000045104e-05,-0.000345599999999,0.0002384,0,sub_8
0.0033461999999997,0.0159594000000011,0.0056366,-0.0005433999999995,-0.000824399999999,3.200000000009452e-05,0,sub_8
0.0024601999999997,0.0164666000000011,0.004482,-0.0013537999999995,-0.000452799999999,0.0004642,0,sub_8
0.0016657999999997,0.0170476000000011,0.0045868,-0.0024167999999995,0.0006152000000009,0.000669,0,sub_8
0.0017677999999997,0.0175174000000011,0.0053764000000001,-0.0028425999999995,0.0010418000000009,0.0008792,0,sub_8
0.0018779999999997,0.0180814000000011,0.0061408,-0.0034797999999995,0.0018954000000009,0.0010874,0,sub_8
0.0023221999999997,0.0182742000000011,0.0062568,-0.0030251999999995,0.0024882000000009,0.0008794,0,sub_8
0.0028269999999997,0.0176454000000011,0.0068746,-0.0027819999999995,0.0028714000000009,2.9200000000094517e-05,0,sub_8
0.0030447999999997,0.0169408000000011,0.0069016,-0.0027541999999995,0.0028294000000009,-0.0008217999999999,0,sub_8
0.0037603999999997,0.0171290000000012,0.00729,-0.0040083999999995,0.0025778000000009,-0.0014679999999999,0,sub_8
0.0048625999999997,0.0174548000000012,0.007899,-0.0041985999999995,0.0014710000000009,-0.0023193999999999,0,sub_8
0.0048279999999997,0.0166786000000012,0.0090836,-0.0042033999999994,0.0006180000000009,-0.0021045999999998,0,sub_8
0.0046153999999997,0.0162720000000012,0.0090410000000001,-0.0037823999999995,-0.000449599999999,-0.0018865999999998,0,sub_8
0.0050581999999997,0.0166902000000012,0.0081788000000001,-0.0035757999999995,-0.001305199999999,-0.0012431999999998,0,sub_8
0.0039835999999997,0.0170350000000012,0.0076676000000001,-0.0025477999999995,-0.001297199999999,-0.0014559999999998,0,sub_8
0.0022993999999997,0.0170576000000012,0.0065312000000001,-0.0008805999999995,-0.001079999999999,-0.0012373999999998,0,sub_8
0.0015627999999997,0.0172788000000012,0.0053990000000001,0.0001446000000004,-0.001286799999999,-0.0010227999999998,0,sub_8
0.0011045999999997,0.0183836000000011,0.0043884000000001,0.0005306000000004,-0.000641799999999,-0.0001727999999998,0,sub_8
-0.0001286000000001,0.0182072000000011,0.0062644000000001,0.0011262000000004,-7.999999990340387e-07,0.0015334,0,sub_8
0.0003139999999998,0.0176832000000011,0.0073044000000001,0.0021816000000004,-1.479999999903412e-05,0.0041044,0,sub_8
0.0019895999999998,0.0174338000000011,0.0077814000000001,0.0025940000000004,-0.001514399999999,0.0058184,0,sub_8
0.0036753999999998,0.0179230000000011,0.0088276000000001,0.0027930000000004,-0.003649799999999,0.0068908,0,sub_8
0.0044503999999998,0.0173304000000012,0.0107908,0.0032054000000004,-0.005149399999999,0.0086048,0,sub_8
0.0053911999999997,0.0167500000000012,0.0092558,0.0033846000000004,-0.0066375999999989,0.0092418,0,sub_8
0.0072007999999997,0.0167738000000012,0.0075922,0.0018702000000004,-0.0070467999999989,0.007943,0,sub_8
0.0076509999999997,0.0166162000000012,0.0072404,0.0012170000000004,-0.0055423999999989,0.0068612,0,sub_8
0.0068541999999997,0.0167510000000012,0.0078824,0.0012030000000004,-0.0036167999999989,0.0064244,0,sub_8
0.0065333999999997,0.0174330000000012,0.0079478,0.0016166000000004,-0.0036015999999989,0.0038566,0,sub_8
0.0062187999999997,0.0196080000000012,0.0094870000000001,0.0029074000000004,-0.003596599999999,0.0015156,0,sub_8
0.0032421999999997,0.0205204000000012,0.0103128000000001,0.0078130000000004,-0.005312999999999,0.0002702,0,sub_8
0.0004957999999997,0.0214494000000012,0.0109322000000001,0.0114340000000004,-0.007251999999999,-0.0007741999999999,0,sub_8
-0.0006048000000002,0.0215512000000012,0.0096364000000001,0.0127128000000004,-0.008117599999999,-0.0018363999999998,0,sub_8
-0.0022848000000002,0.0205572000000012,0.0078878,0.0131382000000004,-0.008343599999999,-0.0022645999999998,0,sub_8
-0.0035178000000002,0.0187514000000012,0.0066296,0.0133482000000004,-0.009419399999999,-0.0031203999999998,0,sub_8
-0.0043354000000002,0.0175612000000012,0.0059168,0.0118446000000004,-0.009858599999999,-0.0018525999999998,0,sub_8
-0.0023286000000002,0.0169204000000012,0.0036874,0.0101308000000004,-0.009858599999999,-0.0003689999999998,0,sub_8
2.019999999978289e-05,0.0161164000000012,0.0027242,0.0099154000000004,-0.010071599999999,-0.0001565999999998,0,sub_8
0.0027325999999997,0.0155358000000012,0.0045916,0.0101258000000004,-0.009862599999999,0.0006992000000001,0,sub_8
0.0049803999999997,0.0163384000000012,0.006352,0.0103370000000004,-0.008816199999999,0.0028306,0,sub_8
0.0082025999999997,0.0169016000000012,0.0080718,0.0107626000000003,-0.009467199999999,0.003043,0,sub_8
0.0082295999999997,0.0167068000000012,0.010386,0.0118312000000003,-0.009905799999999,0.0028322,0,sub_8
0.0068253999999997,0.0169606000000012,0.0107606000000001,0.0128998000000004,-0.009495599999999,0.0034748,0,sub_8
0.0051699999999997,0.0183942000000012,0.0087132000000001,0.0120452000000004,-0.009505599999999,0.0043184,0,sub_8
0.0040861999999997,0.0180572000000012,0.0061154000000001,0.0122500000000004,-0.011848199999999,0.0038956,0,sub_8
0.0023739999999997,0.0167612000000012,0.0049906000000001,0.0124604000000004,-0.012275999999999,0.0041112,0,sub_8
0.0008685999999997,0.0159596000000012,0.0044592000000001,0.0118184000000004,-0.011638799999999,0.0051742,0,sub_8
0.0009087999999997,0.0157598000000012,0.0049568000000001,0.0113946000000004,-0.012285199999999,0.0058122,0,sub_8
0.0013811999999997,0.0152290000000012,0.0055426000000001,0.0118310000000004,-0.012291999999999,0.0056006,0,sub_8
0.0015989999999997,0.0149778000000012,0.0061524000000001,0.0124874000000004,-0.011020199999999,0.0051752,0,sub_8
0.0025139999999997,0.0158134000000012,0.0054892000000001,0.0116560000000004,-0.009737999999999,0.0034576,0,sub_8
0.0040067999999997,0.0167460000000012,0.0051078000000001,0.0095444000000004,-0.008663799999999,0.0015176,0,sub_8
0.0041757999999997,0.0166944000000012,0.0051754000000001,0.0057172000000004,-0.005879799999999,0.0012736,0,sub_8
0.0045103999999997,0.0165392000000012,0.0061596000000001,0.0033758000000004,-0.004168799999999,0.0016824,0,sub_8
0.0054819999999997,0.0161100000000012,0.0060842000000001,0.0008192000000004,-0.003519999999999,0.0014502,0,sub_8
0.0057723999999997,0.0166556000000012,0.0071020000000001,-0.0015205999999995,-0.002232999999999,0.001849,0,sub_8
0.0048957999999997,0.0169276000000012,0.0087562000000001,-0.0019485999999995,-0.002445799999999,0.0026904,0,sub_8
0.0044799999999997,0.0170270000000012,0.0093182000000001,-0.0019489999999995,-0.002871399999999,0.0031076,0,sub_8
0.0040917999999997,0.0172836000000012,0.0083340000000001,0.0001854000000004,-0.005001199999999,0.001619,0,sub_8
0.0030239999999997,0.0180536000000012,0.0085742000000001,0.0016806000000004,-0.005854599999999,0.0011926,0,sub_8
0.0021033999999997,0.0177666000000012,0.0076146000000001,0.0046650000000004,-0.006928599999999,0.0007874,0,sub_8
0.0019813999999997,0.0176806000000012,0.0062330000000001,0.0055252000000004,-0.006076799999999,0.0001512,0,sub_8
0.0019699999999997,0.0179356000000011,0.0057256000000001,0.0070198000000004,-0.006717799999999,-0.0006921999999999,0,sub_8
0.0018825999999997,0.0176258000000011,0.0060166000000001,0.0061590000000004,-0.005849399999999,-0.0002859999999999,0,sub_8
0.0020485999999997,0.0171516000000011,0.0060856000000001,0.0050878000000004,-0.004553399999999,-9.55999999999056e-05,0,sub_8
0.0022043999999997,0.0170384000000011,0.0066480000000001,0.0027314000000004,-0.003469399999999,0.0009408,0,sub_8
0.0030095999999997,0.0172750000000011,0.0062584000000001,0.0014362000000004,-0.004515999999999,0.0011328,0,sub_8
0.0036353999999997,0.0172856000000012,0.0070642000000001,0.0020652000000004,-0.005565999999999,0.0004836,0,sub_8
0.0038763999999997,0.0174584000000012,0.0070744000000001,0.0029178000000004,-0.005569799999999,0.0007032,0,sub_8
0.0041061999999997,0.0172752000000012,0.0070036000000001,0.0033474000000004,-0.004931999999999,0.0007054,0,sub_8
0.0048619999999997,0.0174328000000012,0.0072794000000001,0.0037818000000004,-0.004502199999999,-0.0005739999999998,0,sub_8
0.0045505999999997,0.0172782000000012,0.0081244000000001,0.0054936000000004,-0.004503999999999,-0.0016303999999998,0,sub_8
0.0044575999999997,0.0179086000000012,0.0069878000000001,0.0069592000000004,-0.004900999999999,-0.0024837999999998,0,sub_8
0.0048173999999997,0.0174734000000012,0.0062786000000001,0.0065044000000004,-0.005503399999999,-0.0035639999999998,0,sub_8
0.0050693999999997,0.0170438000000012,0.0056072,0.0051962000000004,-0.005678399999999,-0.0042233999999998,0,sub_8
0.0049819999999997,0.0168798000000012,0.0050694,0.0034604000000004,-0.005428399999999,-0.0042453999999998,0,sub_8
0.0048593999999997,0.0174794000000012,0.0043706,0.0002318000000004,-0.004323599999999,-0.0036377999999998,0,sub_8
0.0047887999999997,0.0170746000000012,0.0044344,-0.0031763999999995,-0.002184399999999,-0.0028095999999998,0,sub_8
0.0040715999999997,0.0165142000000012,0.004933,-0.0042365999999995,-0.000264999999999,-0.0023921999999998,0,sub_8
0.0035881999999997,0.0174760000000012,0.0056044,-0.0038495999999995,0.0008438000000009,-0.0026201999999998,0,sub_8
0.0029743999999997,0.0183086000000012,0.00531,-0.0030357999999995,0.0015268000000009,-0.0032719999999998,0,sub_8
0.0024229999999997,0.0180344000000012,0.0055026,-0.0024315999999995,0.0030628000000009,-0.0039263999999998,0,sub_8
0.0015833999999997,0.0172078000000012,0.005561,-0.0028969999999995,0.0043878000000009,-0.0041607999999998,0,sub_8
0.0013491999999997,0.0181760000000012,0.0053760000000001,-0.0046425999999995,0.0059294000000009,-0.0041905999999998,0,sub_8
0.0017213999999997,0.0180354000000011,0.0045552000000001,-0.0074059999999995,0.0080706000000009,-0.0044263999999998,0,sub_8
0.0029161999999997,0.0172736000000011,0.0049588000000001,-0.0101693999999995,0.0110606000000009,-0.0038085999999998,0,sub_8
0.0040077999999997,0.0161888000000011,0.0060542000000001,-0.0125097999999995,0.0140456000000009,-0.0023331999999998,0,sub_8
0.0055275999999997,0.0163864000000011,0.0063576,-0.0146751999999995,0.0166480000000009,-0.0019383999999998,0,sub_8
0.0073003999999997,0.0164452000000011,0.0064484,-0.0151345999999995,0.0177584000000009,-0.0028115999999998,0,sub_8
0.0074095999999997,0.0171978000000012,0.0070472,-0.0143221999999995,0.0182198000000009,-0.0023931999999999,0,sub_8
0.0061593999999997,0.0175926000000012,0.007177,-0.0141527999999995,0.0182566000000009,-0.0017649999999999,0,sub_8
0.0053663999999997,0.0181018000000012,0.0064874,-0.0131299999999995,0.0170172000000009,-0.0024111999999999,0,sub_8
0.0039295999999997,0.0183262000000012,0.0062854,-0.0112163999999995,0.0148826000000009,-0.0030359999999999,0,sub_8
0.0018111999999997,0.0185648000000012,0.0063328000000001,-0.0099427999999995,0.0142354000000009,-0.0021717999999998,0,sub_8
0.0012191999999997,0.0178222000000012,0.0065688000000001,-0.0099495999999995,0.0138050000000009,-0.0011029999999998,0,sub_8
0.0015963999999997,0.0173628000000012,0.0062108000000001,-0.0084959999999995,0.0121362000000009,-0.0015315999999998,0,sub_8
0.0014355999999997,0.0179784000000012,0.005948,-0.0070393999999995,0.0108944000000009,-0.0021743999999998,0,sub_8
0.0023141999999997,0.0182082000000012,0.0062906,-0.0075003999999995,0.0115716000000009,-0.0015511999999998,0,sub_8
0.0032543999999997,0.0175846000000012,0.0066322,-0.0094559999999995,0.0120412000000009,-0.0009379999999999,0,sub_8
0.0040351999999997,0.0174208000000012,0.0068018,-0.0107685999999995,0.0122988000000009,-0.0011747999999999,0,sub_8
0.0039573999999997,0.0175422000000012,0.007143,-0.0114087999999995,0.0123010000000009,-0.0011793999999999,0,sub_8
0.0040569999999997,0.0166120000000012,0.0069362,-0.0122623999999995,0.0129406000000009,-0.0005451999999999,0,sub_8
0.0032707999999997,0.0159552000000012,0.006436,-0.0120451999999995,0.0129432000000009,-0.0013981999999999,0,sub_8
0.0028231999999997,0.0165262000000012,0.006152,-0.0107911999999995,0.0125548000000009,-0.0026797999999999,0,sub_8
0.0024045999999997,0.0166062000000012,0.0063156,-0.0099667999999995,0.0119532000000009,-0.0035365999999999,0,sub_8
0.0024443999999997,0.0167066000000012,0.0060674000000001,-0.0099959999999995,0.0126278000000009,-0.0031191999999999,0,sub_8
0.0024725999999997,0.0169454000000011,0.0061412,-0.0100221999999995,0.0128806000000009,-0.0037695999999998,0,sub_8
0.0024983999999997,0.0177508000000011,0.0063728,-0.0096303999999995,0.0118510000000009,-0.0037743999999998,0,sub_8
0.0025181999999997,0.0177562000000011,0.0070392,-0.0089951999999995,0.0109958000000009,-0.0035551999999998,0,sub_8
0.0025855999999997,0.0176660000000011,0.0066074,-0.0077225999999995,0.0097114000000009,-0.0031173999999998,0,sub_8
0.0029251999999997,0.0177264000000011,0.0063082,-0.0066613999999995,0.0077928000000009,-0.0037483999999998,0,sub_8
0.0032267999999997,0.0180764000000012,0.0065436000000001,-0.0056281999999995,0.0054740000000009,-0.0033089999999998,0,sub_8
0.0029967999999997,0.0179620000000011,0.0069222000000001,-0.0039555999999995,0.0033644000000009,-0.0024381999999999,0,sub_8
0.0025793999999997,0.0177918000000011,0.0067348000000001,-0.0024983999999995,0.0010414000000009,-0.0013547999999999,0,sub_8
0.0025417999999997,0.0183630000000011,0.0066936000000001,-0.0010421999999995,-0.002131199999999,-0.0009113999999999,0,sub_8
0.0023447999999997,0.0180712000000011,0.0065444,0.0008436000000004,-0.004666199999999,-0.0004657999999999,0,sub_8
0.0022965999999997,0.0174036000000011,0.005528,0.0027602000000004,-0.005737399999999,-0.0006645999999999,0,sub_8
0.0027421999999997,0.0173192000000011,0.0053334,0.0031898000000004,-0.005099799999999,-0.0006623999999999,0,sub_8
0.0032587999999997,0.0175600000000011,0.005554,0.0034022000000004,-0.004889199999999,-0.0002339999999999,0,sub_8
0.0031781999999997,0.0168026000000011,0.0047664,0.0048940000000004,-0.005744999999999,-0.0006497999999999,0,sub_8
0.0030203999999997,0.0162892000000011,0.0049532000000001,0.0059646000000004,-0.007025799999999,-0.0014867999999999,0,sub_8
0.0026947999999997,0.0158228000000012,0.0055840000000001,0.0051186000000004,-0.006174399999999,-0.0010579999999999,0,sub_8
0.0025119999999997,0.0150776000000012,0.0053426,0.0029924000000004,-0.004681999999999,2.000000000094808e-06,0,sub_8
0.0023999999999997,0.0147624000000012,0.0039534,0.0008740000000004,-0.003182799999999,-0.0006471999999999,0,sub_8
0.0022071999999997,0.0151616000000012,0.0039984,-0.0012377999999995,0.0002322000000009,-0.0008713999999999,0,sub_8
0.0017341999999997,0.0160426000000012,0.0036238,-0.0039981999999995,0.0049224000000009,0.0008124,0,sub_8
0.0011979999999997,0.0169646000000012,0.0042688,-0.0063365999999995,0.0074846000000009,0.0014336,0,sub_8
0.0014575999999997,0.0176404000000012,0.0046308000000001,-0.0073665999999995,0.0087334000000009,0.0010086,0,sub_8
0.0023805999999997,0.0178510000000012,0.0054604000000001,-0.0081831999999995,0.0101938000000009,0.0007986000000001,0,sub_8
0.0027327999999997,0.0178782000000012,0.0063996000000001,-0.0096437999999995,0.0114408000000009,0.0012250000000001,0,sub_8
0.0031643999999997,0.0174404000000012,0.0068630000000001,-0.0106793999999995,0.0111990000000009,0.0005882000000001,0,sub_8
0.0038513999999997,0.0172044000000012,0.0058174000000001,-0.0108701999999995,0.0098856000000009,0.0008132000000001,0,sub_8
0.0044003999999997,0.0170020000000012,0.0049502000000001,-0.0117273999999995,0.0096730000000009,0.0014484000000001,0,sub_8
0.0038787999999997,0.0166282000000012,0.0050510000000001,-0.0127971999999995,0.0107350000000009,0.0031486000000001,0,sub_8
0.0036535999999997,0.0169234000000012,0.0051312,-0.0157861999999995,0.0128658000000009,0.0056888,0,sub_8
0.0038603999999997,0.0166300000000012,0.004366,-0.0185171999999995,0.0153668000000009,0.0086694,0,sub_8
0.0034139999999997,0.0159800000000012,0.0029324,-0.0261451999999995,0.0210774000000009,0.0124662,0,sub_8
0.0031063999999997,0.0167046000000012,0.0043366,-0.0361145999999995,0.0268012000000009,0.0149648,0,sub_8
0.0021627999999997,0.0176432000000012,0.004427,-0.0413981999999995,0.0284692000000009,0.0153648,0,sub_8
0.0018137999999997,0.0168100000000012,0.0048420000000001,-0.0413573999999995,0.0269270000000009,0.014738,0,sub_8
0.0015977999999997,0.0166236000000012,0.0062056000000001,-0.0383729999999995,0.0241554000000009,0.012626,0,sub_8
0.0021591999999997,0.0176920000000012,0.0079996000000001,-0.0304859999999995,0.0186038000000009,0.0088426,0,sub_8
0.0019315999999997,0.0182812000000012,0.0080374000000001,-0.0206899999999995,0.0119742000000009,0.0065694,0,sub_8
0.0027529999999997,0.0179978000000012,0.0086132000000001,-0.0142537999999995,0.0082806000000009,0.0055642,0,sub_8
0.0037377999999997,0.0179900000000012,0.0080902000000001,-0.0101595999999995,0.0043872000000009,0.0032608,0,sub_8
