userAcceleration.x,userAcceleration.y,userAcceleration.z,rotationRate.x,rotationRate.y,rotationRate.z,label,subject
0.0094013999999998,0.0002456000000012,0.0114464,-0.0202043999999996,-0.025620399999999,0.0214888000000001,0,sub_13
0.0112053999999997,-0.0014961999999986,0.0144964,-0.0163215999999996,-0.018381399999999,0.0193702000000001,0,sub_13
0.0125485999999997,-0.0020683999999986,0.0157388,-0.0102905999999996,-0.008802999999999,0.0164090000000001,0,sub_13
0.0134831999999998,-0.0015979999999987,0.016253,-0.0051091999999996,0.0014184000000009,0.0132274000000001,0,sub_13
0.0128567999999998,-0.0001831999999987,0.01559,-0.0014233999999996,0.0112188000000008,0.0100358000000001,0,sub_13
0.0127417999999998,0.0014500000000012,0.0117446,0.0003248000000003,0.0167666000000008,0.0064088000000001,0,sub_13
0.0111813999999998,0.0012796000000012,0.0078932,0.0003430000000003,0.0182682000000008,0.0038432000000001,0,sub_13
0.0093299999999998,0.0017662000000012,0.0051422,-0.0013725999999996,0.0163568000000008,0.0038336000000001,0,sub_13
0.0070395999999998,0.0009942000000012,0.0024394,-0.0030949999999996,0.0138026000000008,0.0046794000000001,0,sub_13
0.0050929999999998,0.0002534000000012,-0.0001595999999999,-0.0043857999999996,0.0123124000000008,0.0055268000000001,0,sub_13
0.0028615999999998,7.660000000128432e-05,-0.0007707999999999,-0.0046057999999996,0.0131560000000008,0.0078744000000001,0,sub_13
0.0018501999999998,0.0008796000000012,-0.0019119999999999,-0.0052487999999996,0.0135800000000008,0.0089376000000001,0,sub_13
0.0006077999999998,-0.0016361999999987,-0.0017859999999999,-0.0058937999999996,0.0131534000000008,0.0095746000000001,0,sub_13
-0.0002060000000001,-0.0027067999999987,-0.0014125999999999,-0.0059147999999996,0.0108006000000008,0.0119276000000001,0,sub_13
-0.0006712000000001,-0.0030655999999987,0.0001802,-0.0042325999999996,0.0078016000000008,0.0145070000000001,0,sub_13
0.0008551999999998,-0.0027147999999987,0.0031582,-0.0027447999999996,0.0080034000000008,0.0160126000000001,0,sub_13
0.0025387999999998,-0.0012435999999987,0.0058208,3.480000000035538e-05,0.0122428000000008,0.0190176000000001,0,sub_13
0.0060403999999998,0.0036686000000012,0.0062018,0.0023944000000003,0.0171264000000008,0.0211644000000001,0,sub_13
0.0087569999999998,0.0073848000000012,0.0059778,0.0017820000000003,0.0205484000000008,0.0183782000000001,0,sub_13
0.0090467999999998,0.0095426000000012,0.004998,-0.0018165999999996,0.0199500000000008,0.0113036000000001,0,sub_13
0.0071211999999998,0.0095766000000012,0.00209,-0.0052161999999996,0.0146698000000008,0.0027408000000001,0,sub_13
0.0057549999999998,0.0089494000000012,-0.0009419999999999,-0.0084109999999996,0.0061982000000008,-0.0070981999999998,0,sub_13
0.0028071999999998,0.0055388000000013,-0.0024813999999999,-0.0096825999999996,-0.0031265999999991,-0.0184183999999998,0,sub_13
-0.0005558000000001,0.0015076000000013,-0.0038033999999999,-0.0101101999999996,-0.0105527999999991,-0.0256755999999998,0,sub_13
-0.0010296000000001,-0.0017739999999986,-0.0043123999999999,-0.0088511999999996,-0.0152443999999991,-0.0256607999999998,0,sub_13
0.0008585999999998,-0.0054037999999986,-0.0029939999999999,-0.0067499999999996,-0.0176149999999991,-0.0207291999999998,0,sub_13
0.0016755999999998,-0.0079509999999986,0.0003978,-0.0061481999999996,-0.0193489999999991,-0.0138861999999998,0,sub_13
0.0032311999999998,-0.0078737999999987,0.0044254,-0.0057539999999996,-0.0183183999999991,-0.0055525999999998,0,sub_13
0.0063631999999998,-0.0057097999999987,0.00855,-0.0025715999999996,-0.0145261999999991,0.0023696000000001,0,sub_13
0.0098033999999998,-0.0039245999999987,0.0120914,0.0014940000000003,-0.0079519999999991,0.0064488000000001,0,sub_13
0.0104487999999998,0.0003572000000012,0.0136,0.0034440000000003,-0.0015663999999991,0.0062406000000001,0,sub_13
0.0106603999999998,0.0031004000000012,0.0145136,0.0054084000000003,0.0063176000000008,0.0043214000000001,0,sub_13
0.0115379999999998,0.0039964000000012,0.012935,0.0075814000000003,0.0141966000000008,0.0034720000000001,0,sub_13
0.0123557999999998,0.0042048000000012,0.0114064,0.0086732000000003,0.0184590000000008,0.0021922000000001,0,sub_13
0.0119339999999997,0.0035474000000013,0.0092914,0.0089058000000003,0.0208096000000008,0.0002680000000001,0,sub_13
0.0109741999999997,0.0015220000000013,0.0079356,0.0091298000000003,0.0218792000000008,-0.0010137999999998,0,sub_13
0.0102815999999997,0.0005878000000013,0.005365,0.0097700000000003,0.0212402000000008,-0.0016493999999998,0,sub_13
0.0080415999999997,0.0005340000000013,0.0044984,0.0093394000000003,0.0186918000000008,-0.0033583999999998,0,sub_13
0.0059775999999998,-0.0003637999999986,0.0025472,0.0082724000000003,0.0172102000000008,-0.0048593999999998,0,sub_13
0.0040209999999998,-0.0003375999999987,0.0009996,0.0069788000000003,0.0144442000000008,-0.0046511999999998,0,sub_13
0.0028385999999998,0.0003326000000012,-5.819999999994784e-05,0.0058918000000003,0.0114592000000008,-0.0031593999999998,0,sub_13
0.0021103999999998,0.0013932000000012,-0.0008227999999999,0.0048048000000003,0.0084742000000008,-0.0016677999999998,0,sub_13
0.0029055999999998,0.0017338000000012,-0.0019915999999999,0.0035034000000003,0.0054892000000008,3.620000000018661e-05,0,sub_13
0.0031731999999998,0.0021386000000012,-0.0017049999999999,0.0013468000000003,0.0020808000000008,0.0017346000000001,0,sub_13
0.0034685999999998,0.0035658000000012,-0.0005747999999999,-0.0014453999999996,-0.000472199999999,0.0032138000000001,0,sub_13
0.0042467999999997,0.0046030000000012,-0.0002023999999999,-0.0027323999999996,-0.001958999999999,0.0032068000000001,0,sub_13
0.0051987999999997,0.0044936000000012,0.0006716,-0.0031619999999996,-0.003869799999999,0.0019244000000001,0,sub_13
0.0051991999999997,0.0037768000000012,0.0021442,-0.0029195999999996,-0.004946199999999,0.0008660000000001,0,sub_13
0.0060289999999998,0.0038928000000012,0.004213,-0.0011789999999996,-0.004113599999999,0.0006704000000001,0,sub_13
0.0072973999999998,0.0030998000000012,0.005303,-0.0002869999999996,-0.002424999999999,0.0002542000000001,0,sub_13
0.0079857999999998,0.0021892000000012,0.0073228,-0.0008861999999996,-0.000951799999999,0.0008892000000001,0,sub_13
0.0076791999999998,0.0009776000000012,0.0082568,-0.0019151999999996,0.0009448000000009,0.0025890000000001,0,sub_13
0.0081179999999998,0.0010148000000012,0.0086948,-0.0023289999999996,0.0024328000000008,0.0030048000000001,0,sub_13
0.0080253999999998,9.7800000001284e-05,0.0082996,-0.0029551999999996,0.0026492000000008,0.0019252000000001,0,sub_13
0.0077669999999998,-0.0005499999999987,0.008151,-0.0016609999999996,0.0024344000000008,0.0004322000000001,0,sub_13
0.0072911999999998,-0.0013241999999987,0.0072276,0.0006966000000003,0.0028600000000008,-0.0014747999999998,0,sub_13
0.0074551999999998,-0.0011177999999987,0.0068032,0.0030562000000003,0.0039238000000008,-0.0031687999999998,0,sub_13
0.0070183999999998,-0.0003519999999987,0.0052654,0.0043430000000003,0.0045618000000008,-0.0040151999999997,0,sub_13
0.0065619999999998,0.0006712000000012,0.0037132,0.0054534000000003,0.0045644000000008,-0.0038253999999997,0,sub_13
0.0057151999999998,0.0016316000000012,0.001917,0.0054912000000003,0.0037170000000008,-0.0032147999999998,0,sub_13
0.0052963999999998,0.0023348000000012,0.0010234,0.0044566000000003,0.0022316000000008,-0.0019697999999998,0,sub_13
0.0049813999999998,0.0029476000000012,0.0006606,0.0032094000000003,0.0005356000000008,-0.0011533999999998,0,sub_13
0.0050251999999998,0.0026894000000012,0.001264,0.0017508000000003,-0.0009457999999991,-0.0005523999999998,0,sub_13
0.0044217999999998,0.0022682000000012,0.0022678,0.0008936000000003,-0.0017949999999991,-0.0005573999999998,0,sub_13
0.0040257999999998,0.0018862000000012,0.0036334,0.0006774000000003,-0.0017967999999991,8.200000000018657e-05,0,sub_13
0.0046151999999998,0.0014660000000012,0.0048072,0.0006782000000003,-0.001371599999999,0.0002950000000001,0,sub_13
0.0052689999999998,0.0004642000000012,0.004723,0.0004848000000003,-0.000959199999999,0.0002686000000001,0,sub_13
0.0057653999999998,-0.0003783999999987,0.0044908,0.0005018000000003,-0.000549999999999,0.0008846000000001,0,sub_13
0.0068805999999998,-0.0008593999999987,0.0049846,-0.0003337999999996,7.520000000091096e-05,0.0014944000000001,0,sub_13
0.0080305999999998,-0.0006829999999986,0.005217,-0.0009549999999996,0.0004882000000008,0.0016788000000001,0,sub_13
0.0082425999999998,-0.0001303999999987,0.0050124,-0.0009331999999996,0.0011138000000008,0.0014400000000001,0,sub_13
0.0083177999999998,0.0007478000000012,0.0051684,-0.0002891999999996,0.0017516000000008,0.0012300000000001,0,sub_13
0.0082203999999998,0.0017020000000012,0.0057866,0.0009978000000003,0.0021774000000008,0.0001702000000001,0,sub_13
0.0079829999999998,0.0025812000000012,0.0054902,0.0024962000000003,0.0021764000000008,-0.0008875999999998,0,sub_13
0.0074129999999998,0.0024480000000012,0.00525,0.0033536000000003,0.0019316000000008,-0.0017495999999998,0,sub_13
0.0072953999999998,0.0019882000000012,0.0050548,0.0037786000000003,0.0012588000000008,-0.0017593999999998,0,sub_13
0.0062535999999998,0.0009890000000012,0.0054956,0.0031366000000003,0.0010142000000008,-0.0013499999999998,0,sub_13
0.0059881999999998,-4.199999998715995e-06,0.005228,0.0029224000000003,0.0016178000000008,-0.0002975999999998,0,sub_13
0.0070577999999998,-0.0013901999999987,0.0049922,0.0033512000000003,0.0017974000000008,-0.0003083999999998,0,sub_13
0.0072787999999998,-0.0017763999999987,0.0054184,0.0033560000000003,0.0026506000000008,-0.0005231999999998,0,sub_13
0.0072467999999998,0.0007358000000012,0.005358,0.0033646000000003,0.0039316000000008,-0.0011655999999998,0,sub_13
0.0085197999999998,0.0025776000000012,0.005395,0.0033722000000003,0.0047872000000008,-0.0020211999999998,0,sub_13
0.0085127999999998,0.0033958000000012,0.0056262,0.0023052000000003,0.0039422000000008,-0.0028821999999998,0,sub_13
0.0069863999999998,0.0044984000000012,0.0051758,0.0005986000000003,0.0030782000000008,-0.0031185999999998,0,sub_13
0.0069139999999998,0.0045642000000012,0.0047628,-4.199999999964528e-05,0.0015730000000008,-0.0037739999999998,0,sub_13
0.0069413999999998,0.0022280000000012,0.0052712,-0.0004653999999996,0.0002826000000009,-0.0050691999999998,0,sub_13
0.0062121999999998,0.0005392000000012,0.00493,0.0001760000000003,-0.001225399999999,-0.0061429999999998,0,sub_13
0.0063555999999997,-0.0003161999999987,0.0052126,0.0012510000000003,-0.001243599999999,-0.0072155999999998,0,sub_13
0.0067477999999997,-0.0009347999999987,0.0064112,0.0027494000000003,-0.0003957999999991,-0.0074199999999998,0,sub_13
0.0072413999999997,-0.0004679999999987,0.006303,0.0040362000000003,0.0010910000000008,-0.0074127999999998,0,sub_13
0.0075207999999998,-0.0001371999999987,0.0057608,0.0046716000000003,0.0017050000000008,-0.0063451999999998,0,sub_13
0.0080959999999997,0.0006054000000012,0.0061804,0.0048766000000003,0.0016806000000008,-0.0050661999999998,0,sub_13
0.0086459999999998,0.0013458000000012,0.0062684,0.0044356000000003,0.0003800000000008,-0.0037901999999998,0,sub_13
0.0088805999999998,0.0018982000000012,0.0062792,0.0037850000000003,-0.000916599999999,-0.0033699999999998,0,sub_13
0.0082221999999998,0.0012260000000012,0.0065916,0.0035652000000003,-0.001362199999999,-0.0029479999999998,0,sub_13
0.0074613999999998,0.0006476000000012,0.0067734,0.0039930000000003,-0.001150599999999,-0.0029453999999998,0,sub_13
0.0071513999999998,0.0004534000000012,0.0068546,0.0042112000000003,-0.000510599999999,-0.0033719999999998,0,sub_13
0.0065413999999998,0.0003652000000012,0.0061384,0.0040066000000003,0.0011954000000009,-0.0035891999999998,0,sub_13
0.0065607999999998,-0.0001067999999987,0.0050428,0.0037962000000003,0.0018354000000008,-0.0035915999999998,0,sub_13
0.0062185999999998,-0.0004145999999987,0.0052416,0.0031466000000003,0.0011852000000008,-0.0031701999999998,0,sub_13
0.0060019999999998,7.900000000128399e-05,0.005102,0.0031390000000003,0.0007468000000008,-0.0029579999999998,0,sub_13
0.0058141999999998,8.6200000001264e-05,0.004287,0.0031332000000003,0.0005224000000008,-0.0029597999999998,0,sub_13
0.0064897999999998,0.0003390000000012,0.0044592,0.0035542000000003,-0.0001279999999991,-0.0033853999999998,0,sub_13
0.0063571999999998,0.0010924000000012,0.0046534,0.0037618000000003,-0.0005653999999991,-0.0035989999999998,0,sub_13
0.0070401999999998,0.0019292000000012,0.0040956,0.0037618000000003,-0.0009897999999991,-0.0040257999999998,0,sub_13
0.0072403999999998,0.0013414000000012,0.0044172,0.0029044000000003,-0.0016267999999991,-0.0038173999999998,0,sub_13
0.0072233999999998,0.0013662000000012,0.0048616,0.0024720000000003,-0.0022669999999991,-0.0031785999999998,0,sub_13
0.0063693999999998,0.0004028000000012,0.0051592,0.0024628000000003,-0.002491799999999,-0.0027523999999998,0,sub_13
0.0067503999999998,-0.0003269999999987,0.0058526,0.0024604000000003,-0.001437599999999,-0.0025413999999997,0,sub_13
0.0070845999999998,-0.0001845999999987,0.0065886,0.0026714000000003,-0.000596199999999,-0.0025421999999997,0,sub_13
0.0071935999999998,0.0001498000000012,0.0061118,0.0026718000000003,0.0004606000000008,-0.0029719999999998,0,sub_13
0.0074989999999998,0.0002924000000012,0.0057118,0.0024570000000003,0.0013042000000008,-0.0031895999999998,0,sub_13
0.0079113999999998,0.0011928000000012,0.005027,0.0020294000000003,0.0010926000000008,-0.0031921999999998,0,sub_13
0.0074267999999998,0.0013686000000012,0.0051814,0.0022380000000003,2.660000000087089e-05,-0.0031893999999998,0,sub_13
0.0070209999999998,0.0020802000000012,0.0049678,0.0026638000000003,2.420000000087092e-05,-0.0029727999999998,0,sub_13
0.0072777999999998,0.0026876000000012,0.005164,0.0028686000000003,0.0002246000000008,-0.0029679999999998,0,sub_13
0.0074471999999998,0.0026330000000012,0.005281,0.0032924000000003,0.0008538000000008,-0.0038165999999998,0,sub_13
0.0068387999999998,0.0017210000000013,0.005207,0.0035028000000003,0.0021204000000008,-0.0040265999999998,0,sub_13
0.0066281999999998,0.0014400000000013,0.0044818,0.0032836000000003,0.0027492000000008,-0.0042387999999998,0,sub_13
0.0069577999999998,1.3600000001323794e-05,0.004163,0.0026356000000003,0.0027412000000008,-0.0046667999999998,0,sub_13
0.0070733999999998,-0.0007463999999986,0.0045782,0.0026336000000003,0.0018906000000008,-0.0050929999999998,0,sub_13
0.0068933999999998,-0.0010443999999986,0.005388,0.0024164000000003,0.0012514000000008,-0.0048799999999998,0,sub_13
0.0073355999999998,-0.0004133999999987,0.0061414,0.0028312000000003,0.0012414000000008,-0.0048621999999998,0,sub_13
0.0075605999999998,0.0004788000000012,0.005957,0.0032480000000003,0.0018698000000008,-0.0046315999999998,0,sub_13
0.0078023999999998,0.0012426000000012,0.0057108,0.0036628000000003,0.0018598000000008,-0.0046137999999998,0,sub_13
0.0078407999999998,0.0010616000000012,0.0055546,0.0038596000000003,0.0014220000000008,-0.0039559999999998,0,sub_13
0.0078021999999998,0.0016120000000012,0.0052964,0.0040534000000003,0.0007692000000008,-0.0028705999999998,0,sub_13
0.0080921999999998,0.0023882000000012,0.0050842,0.0034066000000003,-8.3399999999109e-05,-0.0022329999999998,0,sub_13
0.0077473999999998,0.0017514000000012,0.0058538,0.0027598000000003,-0.0007237999999991,-0.0013819999999998,0,sub_13
0.0068857999999998,0.0012912000000012,0.0057502,0.0021140000000003,-0.0009387999999991,-0.0003179999999998,0,sub_13
0.0064659999999998,0.0015732000000012,0.005148,0.0019006000000003,-0.0003013999999991,0.0003208000000001,0,sub_13
0.0066221999999998,0.0013256000000012,0.0050548,0.0010308000000003,0.0001198000000008,0.0007590000000001,0,sub_13
0.0065211999999998,0.0005456000000012,0.0051294,0.0007982000000003,0.0001118000000008,0.0014158000000001,0,sub_13
0.0068609999999997,0.0005752000000012,0.00474,0.0005646000000003,-0.0001091999999991,0.0020730000000001,0,sub_13
0.0069925999999997,0.0009050000000012,0.005128,-9.659999999962524e-05,-0.0003295999999991,0.0029410000000001,0,sub_13
0.0069137999999997,0.0013758000000012,0.0057304,-0.0007579999999996,-0.0007623999999991,0.0035954000000001,0,sub_13
0.0064135999999997,0.0012352000000012,0.00522,-0.0005437999999996,-0.0005499999999991,0.0035968000000001,0,sub_13
0.0066665999999997,0.0016210000000012,0.0056854,-0.0003293999999996,8.660000000089091e-05,0.0040248000000001,0,sub_13
0.0067965999999998,0.0018402000000012,0.0057382,-0.0003449999999996,0.0007226000000008,0.0042566000000001,0,sub_13
0.0068873999999998,0.0018292000000012,0.0057956,6.500000000037474e-05,0.0011442000000008,0.0044916000000001,0,sub_13
0.0072343999999998,0.0016490000000012,0.0055002,-0.0003783999999996,0.0013566000000008,0.0045074000000001,0,sub_13
0.0070469999999998,0.0010374000000013,0.0066376,-0.0010407999999996,0.0007158000000008,0.0049500000000001,0,sub_13
0.0068707999999998,0.0003654000000013,0.0067514,-0.0014871999999996,0.0002890000000008,0.0049666000000001,0,sub_13
0.0067965999999998,-0.0001801999999986,0.0068448,-0.0016995999999996,0.0005028000000008,0.0049650000000001,0,sub_13
0.0069053999999998,2.3400000001303888e-05,0.0068262,-0.0014813999999996,0.0011428000000008,0.0045384000000001,0,sub_13
0.0063073999999998,0.0005130000000013,0.006956,-0.0008383999999996,0.0019920000000008,0.0047554000000001,0,sub_13
0.0075707999999998,0.0010820000000012,0.0062236,-0.0002135999999996,0.0019892000000008,0.0043520000000001,0,sub_13
0.0073573999999998,0.0013270000000012,0.0060454,-0.0006583999999996,0.0017756000000009,0.0043688000000001,0,sub_13
0.0073691999999997,0.0024182000000012,0.0057542,-0.0013233999999996,0.0009202000000009,0.0052394000000001,0,sub_13
0.0063717999999998,0.0022666000000012,0.0061722,-0.0028399999999996,0.0007060000000009,0.0063170000000001,0,sub_13
0.0067481999999998,0.0017872000000012,0.0061142,-0.0037133999999996,0.0004920000000008,0.0067580000000001,0,sub_13
0.0059887999999998,0.0015358000000012,0.0062822,-0.0047801999999996,0.0017690000000008,0.0080308000000001,0,sub_13
0.0057793999999998,0.0019576000000012,0.005571,-0.0052087999999996,0.0017688000000008,0.0084550000000001,0,sub_13
0.0063009999999998,0.0008584000000013,0.0059592,-0.0058431999999996,0.0015640000000008,0.0069552000000001,0,sub_13
0.0072375999999998,-0.0005359999999986,0.0060256,-0.0049857999999996,0.0009278000000008,0.0054664000000001,0,sub_13
0.0071083999999998,-0.0005901999999986,0.006587,-0.0039331999999996,0.0011348000000008,0.0048550000000001,0,sub_13
0.0076245999999998,-0.0001987999999986,0.0065296,-0.0028795999999996,0.0017670000000008,0.0044566000000001,0,sub_13
0.0082363999999998,-0.0004181999999986,0.006963,-0.0022517999999996,0.0030382000000008,0.0044818000000001,0,sub_13
0.0081837999999998,0.0004172000000012,0.0069096,-0.0016285999999996,0.0043050000000008,0.0055752000000001,0,sub_13
0.0085757999999998,0.0013006000000012,0.0063878,-0.0014359999999996,0.0049334000000008,0.0068802000000001,0,sub_13
0.0089073999999998,0.0011748000000012,0.0060856,-0.0016531999999996,0.0049308000000008,0.0077334000000001,0,sub_13
0.0083743999999998,0.0011004000000012,0.0059336,-0.0020837999999996,0.0038680000000008,0.0075182000000001,0,sub_13
0.0075819999999998,0.0009354000000012,0.0058558,-0.0023009999999996,0.0032288000000008,0.0077312000000001,0,sub_13
0.0068821999999998,0.0003078000000012,0.0053166,-0.0025201999999996,0.0025878000000008,0.0083714000000001,0,sub_13
0.0063479999999998,0.0007676000000012,0.0053952,-0.0031793999999996,0.0021606000000008,0.0083846000000001,0,sub_13
0.0060535999999998,0.0006672000000012,0.005423,-0.0042641999999996,0.0015234000000008,0.0079680000000001,0,sub_13
0.0061255999999998,0.0007336000000012,0.0055046,-0.0044943999999996,0.0015206000000008,0.0079838000000001,0,sub_13
0.0067777999999998,0.0015408000000012,0.0051604,-0.0045083999999996,0.0010952000000008,0.0069334000000001,0,sub_13
0.0076493999999998,0.0021810000000012,0.0055586,-0.0043061999999996,0.0002474000000008,0.0048170000000001,0,sub_13
0.0080711999999998,0.0019276000000012,0.0054904,-0.0040907999999996,-0.0010247999999991,0.0031110000000001,0,sub_13
0.0087757999999998,0.0024056000000012,0.0052932,-0.0030229999999996,-0.0020885999999991,0.0018378000000001,0,sub_13
0.0089233999999998,0.0030566000000012,0.0055424,-0.0021781999999996,-0.0031533999999991,0.0003534000000001,0,sub_13
0.0091711999999998,0.0037084000000012,0.0055214,-0.0017611999999996,-0.0044297999999991,-0.0011337999999998,0,sub_13
0.0089473999999998,0.0045210000000012,0.0052124,-0.0017737999999996,-0.0061315999999991,-0.0024097999999998,0,sub_13
0.0087283999999998,0.0045594000000012,0.0053954,-0.0009299999999996,-0.0078339999999991,-0.0043205999999998,0,sub_13
0.0086099999999998,0.0039046000000012,0.0056734,-0.0002955999999996,-0.0093199999999991,-0.0068741999999998,0,sub_13
0.0083767999999998,0.0026722000000012,0.0056466,0.0003464000000003,-0.0110181999999991,-0.0090039999999998,0,sub_13
0.0081027999999998,0.0008104000000012,0.006543,0.0014162000000003,-0.0110193999999991,-0.0096373999999998,0,sub_13
0.0085311999999998,-0.0009949999999987,0.0068718,0.0029204000000003,-0.0091053999999991,-0.0100565999999998,0,sub_13
0.0082867999999998,-0.0023295999999987,0.0078388,0.0035706000000003,-0.0054913999999991,-0.0096379999999998,0,sub_13
0.0075043999999998,-0.0012657999999987,0.0080264,0.0042170000000003,-0.0010319999999991,-0.0075111999999998,0,sub_13
0.0074353999999998,0.0002854000000012,0.0075882,0.0040090000000003,0.0036418000000008,-0.0049633999999998,0,sub_13
0.0074171999999998,0.0012582000000012,0.0067418,0.0031588000000003,0.0066186000000008,-0.0036997999999998,0,sub_13
0.0070641999999998,0.0021462000000012,0.0058984,0.0018704000000003,0.0074644000000008,-0.0020093999999998,0,sub_13
0.0070617999999998,0.0038714000000012,0.0041822,0.0007930000000003,0.0066100000000008,-0.0005201999999998,0,sub_13
0.0079165999999998,0.0031760000000012,0.0038276,-0.0004967999999995,0.0040596000000008,-0.0009531999999998,0,sub_13
0.0082061999999998,0.0015188000000012,0.0051396,-0.0011399999999995,0.0008650000000008,-0.0022553999999998,0,sub_13
0.0083237999999998,0.0003968000000012,0.0059728,-0.0004997999999996,-0.0016949999999991,-0.0035491999999998,0,sub_13
0.0079269999999997,-0.0007883999999987,0.0076262,0.0007900000000003,-0.0019143999999991,-0.0046277999999998,0,sub_13
0.0080621999999997,-0.0016053999999987,0.0091864,0.0020828000000003,-0.0010701999999991,-0.0052805999999998,0,sub_13
0.0079867999999997,-0.0018447999999986,0.009077,0.0027344000000003,0.0006242000000008,-0.0048707999999998,0,sub_13
0.0084683999999998,-0.0014469999999987,0.0085,0.0029526000000003,0.0023254000000008,-0.0042303999999998,0,sub_13
0.0082141999999998,-0.0006651999999987,0.0085716,0.0033784000000003,0.0033842000000008,-0.0029469999999998,0,sub_13
0.0083997999999998,0.0007866000000012,0.0077566,0.0042310000000003,0.0038048000000008,-0.0023007999999998,0,sub_13
0.0085429999999998,0.0018542000000012,0.0070606,0.0044452000000003,0.0044414000000008,-0.0018729999999998,0,sub_13
0.0087157999999998,0.0019276000000012,0.0067042,0.0048758000000003,0.0035748000000008,-0.0014703999999998,0,sub_13
0.0082601999999998,0.0020558000000012,0.0059896,0.0053056000000003,0.0029196000000008,-0.0006407999999998,0,sub_13
0.0080049999999998,0.0024668000000012,0.005258,0.0040302000000003,0.0024842000000008,-3.699999999981357e-05,0,sub_13
0.0080021999999998,0.0019558000000012,0.0048014,0.0016880000000003,0.0018404000000008,0.0003460000000001,0,sub_13
0.0082107999999998,0.0014938000000012,0.0043184,-0.0002301999999996,0.0001316000000008,0.0003060000000001,0,sub_13
