userAcceleration.x,userAcceleration.y,userAcceleration.z,rotationRate.x,rotationRate.y,rotationRate.z,label,subject
0.0014363999999997,0.0007434000000012,-0.0073107999999999,-0.0043047999999995,0.0085220000000008,-0.0044597999999999,0,sub_3
0.0015203999999997,0.0009214000000012,-0.0071377999999999,-0.0042961999999995,0.0080774000000008,-0.0042379999999999,0,sub_3
0.0016257999999997,0.0010788000000012,-0.0072731999999999,-0.0042865999999995,0.0076336000000008,-0.0042297999999999,0,sub_3
0.0009965999999998,0.0011832000000012,-0.0070649999999999,-0.0042759999999995,0.0074028000000008,-0.0042217999999999,0,sub_3
0.0007973999999998,0.0010936000000012,-0.0075609999999999,-0.0046929999999995,0.0069606000000008,-0.0042165999999999,0,sub_3
0.0012173999999998,0.0005940000000012,-0.0081587999999999,-0.0046987999999996,0.0063188000000008,-0.0035747999999999,0,sub_3
0.0011531999999998,0.0002422000000012,-0.0082509999999998,-0.0038471999999996,0.0061018000000008,-0.0033549999999999,0,sub_3
0.0012399999999998,-0.0001821999999987,-0.0078785999999998,-0.0031929999999996,0.0054338000000008,-0.0033373999999999,0,sub_3
0.0015601999999997,0.0001692000000012,-0.0077721999999998,-0.0027511999999996,0.0049796000000008,-0.0033215999999999,0,sub_3
0.0020507999999997,0.0002114000000012,-0.0073055999999998,-0.0020951999999996,0.0045254000000008,-0.0035179999999999,0,sub_3
0.0019377999999997,0.0002722000000012,-0.0068127999999998,-0.0016505999999996,0.0044982000000008,-0.0037163999999999,0,sub_3
0.0019183999999997,0.0002182000000012,-0.0069975999999999,-0.0022767999999996,0.0042590000000008,-0.0032809999999999,0,sub_3
0.0021939999999997,0.0001214000000012,-0.0073857999999999,-0.0033447999999996,0.0044740000000008,-0.0028615999999999,0,sub_3
0.0026429999999997,0.0001258000000012,-0.0077707999999999,-0.0035543999999996,0.0053270000000008,-0.0028641999999999,0,sub_3
0.0026607999999997,0.0005016000000012,-0.0079317999999999,-0.0039791999999996,0.0059668000000008,-0.0026543999999999,0,sub_3
0.0024029999999997,0.0005298000000012,-0.0081077999999998,-0.0037511999999996,0.0044380000000008,-0.0026323999999999,0,sub_3
0.0021017999999997,0.0004162000000012,-0.0082213999999998,-0.0024513999999996,0.0039708000000008,-0.0026043999999999,0,sub_3
0.0016051999999997,-3.799999999877747e-05,-0.0085969999999998,-0.0011553999999996,0.0032880000000008,-0.0019349999999999,0,sub_3
0.0009989999999997,-0.0006301999999987,-0.0086177999999998,-0.0004995999999996,0.0026074000000008,-0.0012701999999999,0,sub_3
0.0007001999999997,-0.0010035999999987,-0.0079919999999998,0.0001552000000003,0.0017136000000008,-0.0006049999999999,0,sub_3
0.0010849999999997,-0.0007105999999987,-0.0083759999999999,0.0001582000000003,0.0021406000000008,-0.0008191999999999,0,sub_3
0.0015805999999997,-2.379999999877749e-05,-0.0079815999999999,-5.51999999996128e-05,0.0017170000000008,-0.0012473999999998,0,sub_3
0.0014991999999997,0.0009066000000012,-0.0073861999999999,-5.319999999961279e-05,0.0019310000000008,-0.0014613999999998,0,sub_3
0.0020389999999997,0.0009096000000012,-0.0075071999999999,-0.0006981999999996,0.0010800000000008,-0.0012511999999999,0,sub_3
0.0020185999999997,0.0011086000000012,-0.0080447999999999,-0.0013133999999996,0.0010394000000008,-0.0016607999999999,0,sub_3
0.0022083999999997,0.0004316000000012,-0.0074967999999999,-0.0012875999999996,0.0016338000000008,-0.0016393999999999,0,sub_3
0.0023209999999997,9.340000000122258e-05,-0.0078459999999999,-0.0021121999999996,0.0026582000000008,-0.0018381999999999,0,sub_3
0.0027137999999997,-0.0006881999999987,-0.0078657999999999,-0.0029359999999996,0.0032590000000008,-0.0026773999999999,0,sub_3
0.0029675999999997,-0.0008007999999987,-0.0073089999999999,-0.0035433999999996,0.0044984000000008,-0.0035159999999998,0,sub_3
0.0030949999999997,-0.0006189999999987,-0.0075129999999999,-0.0031107999999996,0.0053508000000008,-0.0039413999999998,0,sub_3
0.0028391999999997,1.3200000001222564e-05,-0.0074495999999999,-0.0031107999999996,0.0055630000000008,-0.0037279999999998,0,sub_3
0.0024053999999997,0.0005716000000012,-0.0071147999999999,-0.0026609999999995,0.0050858000000008,-0.0032711999999998,0,sub_3
0.0021865999999997,0.0014422000000012,-0.0072679999999999,-0.0024255999999995,0.0041840000000008,-0.0030289999999998,0,sub_3
0.0019839999999997,0.0019006000000012,-0.0076947999999999,-0.0021891999999995,0.0032832000000008,-0.0030003999999999,0,sub_3
0.0013861999999997,0.0015146000000012,-0.0077109999999999,-0.0023815999999995,0.0021698000000008,-0.0027609999999999,0,sub_3
0.0012671999999997,0.0014646000000012,-0.0082247999999999,-0.0021431999999995,0.0014828000000008,-0.0029465999999999,0,sub_3
0.0015971999999997,0.0006942000000012,-0.0083613999999998,-0.0023585999999995,0.0010574000000008,-0.0029475999999999,0,sub_3
0.0015987999999998,0.0002228000000012,-0.0084293999999998,-0.0019327999999995,0.0010552000000008,-0.0027309999999999,0,sub_3
0.0018305999999998,-0.0001221999999987,-0.0081931999999998,-0.0010851999999995,0.0006226000000008,-0.0018699999999999,0,sub_3
0.0024593999999997,4.920000000122257e-05,-0.0079669999999998,0.0001884000000003,-0.0002365999999991,-0.0012191999999999,0,sub_3
0.0024409999999997,-0.0001635999999987,-0.0074019999999998,-3.19999999963288e-06,-0.0009217999999991,-0.0007671999999999,0,sub_3
0.0017559999999997,0.0004000000000012,-0.0073697999999999,0.0002340000000003,-0.0011823999999991,-0.0003127999999999,0,sub_3
0.0014985999999997,0.0003154000000012,-0.0079645999999999,-0.0001689999999996,-0.0012285999999991,0.0003504,0,sub_3
0.0011591999999997,0.0010278000000012,-0.0076663999999999,-0.0001403999999996,-0.0012719999999991,-5.15999999999091e-05,0,sub_3
0.0013745999999997,0.0012432000000012,-0.0073705999999999,-0.0009653999999996,-0.0011001999999991,-0.0002461999999999,0,sub_3
0.0015355999999997,0.0016452000000012,-0.0077687999999999,-0.0003357999999996,-0.0025971999999991,0.0006146,0,sub_3
0.0017341999999997,0.0010406000000012,-0.0077557999999999,0.0009340000000003,-0.0038841999999991,0.0016932,0,sub_3
0.0023565999999997,0.0011854000000012,-0.0072791999999999,0.0030796000000003,-0.0060635999999991,0.0023742,0,sub_3
0.0021883999999997,0.0002536000000012,-0.0078289999999999,0.0041594000000003,-0.0073895999999991,0.0036876,0,sub_3
0.0017703999999997,6.060000000124256e-05,-0.0078743999999999,0.0050306000000003,-0.008073999999999,0.0045714,0,sub_3
0.0020657999999997,2.380000000124253e-05,-0.0074045999999998,0.0056998000000003,-0.007261999999999,0.0043836,0,sub_3
0.0025053999999997,0.0007996000000012,-0.0074239999999998,0.0057270000000003,-0.007298199999999,0.0037652,0,sub_3
0.0023559999999997,0.0013288000000012,-0.0068307999999998,0.0048764000000003,-0.006868199999999,0.003545,0,sub_3
0.0021953999999997,0.0021152000000012,-0.0065109999999998,0.0044478000000003,-0.007292799999999,0.0035424,0,sub_3
0.0021211999999997,0.0019740000000012,-0.0069657999999998,0.0040152000000003,-0.0085695999999991,0.003541,0,sub_3
0.0019947999999997,0.0014314000000012,-0.0072041999999999,0.0038164000000003,-0.0092377999999991,0.0035588,0,sub_3
0.0020749999999997,0.0006028000000012,-0.0078011999999999,0.0031954000000003,-0.0090515999999991,0.0033588,0,sub_3
0.0016479999999997,-0.0001799999999987,-0.0081483999999999,0.0025756000000003,-0.008864599999999,0.0029452,0,sub_3
0.0017105999999997,-0.0004521999999987,-0.0084001999999999,0.0023852000000003,-0.008039799999999,0.002534,0,sub_3
0.0017297999999997,-0.0003187999999987,-0.0079757999999999,0.0026208000000003,-0.007005199999999,0.0025526,0,sub_3
0.0015139999999997,0.0003784000000012,-0.0082689999999999,0.0028312000000003,-0.007220799999999,0.0029816,0,sub_3
0.0012345999999997,0.0013684000000012,-0.0073161999999999,0.0032514000000003,-0.008289199999999,0.0034132,0,sub_3
0.0017621999999997,0.0021366000000012,-0.0072859999999999,0.0034618000000003,-0.0085045999999991,0.0038422,0,sub_3
0.0020955999999997,0.0022912000000012,-0.0071785999999999,0.0034736000000003,-0.0095979999999991,0.0040758,0,sub_3
0.0023373999999997,0.0017976000000012,-0.0076881999999998,0.0032758000000003,-0.0100505999999991,0.0040936,0,sub_3
0.0022095999999997,0.0012542000000012,-0.0075175999999998,0.0030818000000003,-0.0096509999999991,0.0041104,0,sub_3
0.0026205999999997,0.0005362000000012,-0.0081639999999998,0.0028888000000003,-0.0090385999999991,0.004127,0,sub_3
0.0025751999999997,-0.0001299999999987,-0.0078639999999998,0.0033322000000003,-0.0092805999999991,0.004149,0,sub_3
0.0023839999999997,-0.0003331999999987,-0.0076091999999998,0.0043982000000003,-0.0094973999999991,0.0041568,0,sub_3
0.0020223999999997,0.0001338000000012,-0.0074835999999998,0.0052488000000003,-0.0101395999999991,0.0041636,0,sub_3
0.0021195999999997,0.0003224000000012,-0.0068897999999998,0.0050346000000003,-0.0105641999999991,0.003949,0,sub_3
0.0017417999999997,0.0008804000000012,-0.0061997999999998,0.0050346000000003,-0.0105641999999991,0.003949,0,sub_3
0.0020879999999997,0.0011942000000012,-0.0064715999999998,0.0044088000000003,-0.0105825999999991,0.0039616,0,sub_3
0.0022919999999997,0.0014400000000012,-0.0059251999999998,0.0033638000000003,-0.0093195999999991,0.0035422,0,sub_3
0.0026293999999997,0.0016876000000012,-0.0056265999999999,0.0029600000000003,-0.0076335999999991,0.0033404,0,sub_3
0.0025647999999997,0.0014382000000012,-0.0062917999999999,0.0036106000000003,-0.0078721999999991,0.004003,0,sub_3
0.0025443999999997,0.0012554000000012,-0.0070205999999999,0.0044716000000003,-0.008750599999999,0.0046678,0,sub_3
0.0019771999999997,0.0013272000000012,-0.0074103999999998,0.0057422000000003,-0.010461199999999,0.0051062,0,sub_3
0.0017881999999997,0.0009140000000012,-0.0084617999999998,0.0065842000000003,-0.011959799999999,0.0061822,0,sub_3
0.0017037999999997,0.0004784000000012,-0.0086053999999998,0.0072252000000003,-0.012610199999999,0.0066236,0,sub_3
0.0017495999999997,0.0008938000000012,-0.0081183999999998,0.0072376000000003,-0.011550399999999,0.0062038,0,sub_3
0.0024513999999997,0.0010310000000012,-0.0072663999999998,0.0070386000000003,-0.010488199999999,0.0053552,0,sub_3
0.0024285999999997,0.0011208000000012,-0.0068443999999998,0.0064166000000003,-0.008572399999999,0.0045024,0,sub_3
0.0022987999999997,0.0015382000000012,-0.0057983999999998,0.0057890000000003,-0.0077227999999991,0.0038648,0,sub_3
0.0021759999999997,0.0018690000000012,-0.0060753999999998,0.0049346000000003,-0.0081449999999991,0.0036456,0,sub_3
0.0022717999999997,0.0013968000000012,-0.0064287999999998,0.0042906000000003,-0.0087827999999991,0.0038556,0,sub_3
0.0019091999999997,0.0008344000000012,-0.0071357999999998,0.0034380000000003,-0.0085667999999991,0.0038494,0,sub_3
0.0023187999999997,0.0003602000000012,-0.0072549999999998,0.0032204000000003,-0.0083411999999991,0.0038464,0,sub_3
0.0029445999999997,-0.0001397999999987,-0.0077275999999999,0.0030038000000003,-0.0079023999999991,0.0038432,0,sub_3
0.0034539999999997,-0.0004695999999987,-0.0071639999999999,0.0027910000000003,-0.0068237999999991,0.0036256,0,sub_3
0.0035553999999997,-0.0001375999999987,-0.0072771999999999,0.0030030000000003,-0.0061727999999991,0.0034114,0,sub_3
0.0031671999999997,-3.779999999877746e-05,-0.0069981999999998,0.0036360000000003,-0.0065893999999991,0.0034152,0,sub_3
0.0029495999999997,0.0004032000000012,-0.0070729999999998,0.0038484000000003,-0.0068031999999991,0.003417,0,sub_3
0.0025607999999997,0.0008748000000012,-0.0073853999999998,0.0038502000000003,-0.0065893999999991,0.003203,0,sub_3
0.0020505999999997,0.0012968000000012,-0.0074121999999998,0.0042750000000003,-0.0070169999999991,0.0032066,0,sub_3
0.0018191999999997,0.0014342000000012,-0.0070389999999998,0.0042652000000003,-0.0069891999999991,0.0029852,0,sub_3
0.0019833999999997,0.0016936000000012,-0.0070953999999998,0.0036154000000003,-0.0067467999999991,0.0029726,0,sub_3
0.0019093999999997,0.0015464000000012,-0.0067717999999999,0.0033932000000003,-0.0062929999999991,0.0029628,0,sub_3
0.0017543999999997,0.0014396000000012,-0.0066399999999998,0.0035940000000003,-0.0064805999999991,0.0031704,0,sub_3
0.0020321999999997,0.0011372000000012,-0.0065693999999998,0.0033690000000003,-0.0064535999999991,0.0033748,0,sub_3
0.0024401999999997,0.0010066000000012,-0.0068171999999998,0.0033700000000003,-0.0062403999999991,0.0033746,0,sub_3
0.0027019999999997,0.0012340000000012,-0.0063493999999998,0.0033720000000003,-0.0058143999999991,0.0033742,0,sub_3
0.0028795999999997,0.0009966000000012,-0.0065893999999998,0.0031606000000003,-0.0053873999999991,0.0033722,0,sub_3
0.0030743999999997,0.0003940000000012,-0.0073399999999998,0.0018822000000003,-0.0051689999999991,0.0031494,0,sub_3
0.0033053999999997,0.0004628000000012,-0.0074831999999998,0.0012370000000003,-0.0036323999999991,0.0022748,0,sub_3
0.0028887999999997,0.0010446000000012,-0.0068147999999998,0.0014386000000003,-0.002953599999999,0.002048,0,sub_3
0.0026011999999997,0.0008654000000012,-0.0068913999999999,0.0022688000000003,-0.003772599999999,0.0028958,0,sub_3
0.0026901999999997,0.0009464000000012,-0.0069779999999999,0.0026722000000003,-0.004802399999999,0.0035274,0,sub_3
0.0027869999999997,0.0014170000000012,-0.0067335999999999,0.0043578000000003,-0.005622599999999,0.003954,0,sub_3
0.0025597999999997,0.0014342000000012,-0.0071807999999999,0.0054132000000003,-0.007121999999999,0.0050314,0,sub_3
0.0021501999999997,0.0011152000000012,-0.0074849999999999,0.0054094000000003,-0.0077619999999991,0.005246,0,sub_3
0.0021993999999997,0.0007962000000012,-0.0078711999999999,0.0047560000000003,-0.0062181999999991,0.0045782,0,sub_3
0.0020025999999997,0.0009972000000012,-0.0072967999999999,0.0045304000000003,-0.0044627999999991,0.003913,0,sub_3
0.0019963999999997,0.0015028000000012,-0.0065669999999999,0.0038780000000003,-0.0029181999999991,0.0030316,0,sub_3
0.0016929999999997,0.0019320000000012,-0.0055251999999999,0.0034332000000003,-0.0022281999999991,0.00258,0,sub_3
0.0020663999999997,0.0015450000000012,-0.0054837999999999,0.0031980000000003,-0.0021789999999991,0.0023442,0,sub_3
0.0020509999999997,0.0012236000000012,-0.0054303999999999,0.0027712000000003,-0.002601999999999,0.0019146,0,sub_3
0.0027425999999997,0.0009824000000012,-0.0061151999999999,0.0021312000000003,-0.002811999999999,0.0016968,0,sub_3
0.0027633999999997,0.0008642000000012,-0.0062355999999999,0.0019218000000003,-0.002171199999999,0.0014808,0,sub_3
0.0030993999999997,0.0003480000000012,-0.0064957999999999,0.0010740000000003,-0.001314199999999,0.0010466,0,sub_3
0.0036035999999997,0.0001096000000012,-0.0069065999999998,-0.0004357999999996,0.0002340000000008,0.0005838,0,sub_3
0.0035759999999997,0.0009756000000012,-0.0071751999999998,-0.0006681999999996,0.0011386000000008,0.0001306,0,sub_3
0.0025819999999997,0.0012102000000012,-0.0068061999999998,-5.099999999961281e-05,0.0014002000000008,-0.0001019999999999,0,sub_3
0.0020527999999997,0.0010170000000012,-0.0067943999999998,-7.779999999961281e-05,0.0008116000000008,-0.0003379999999999,0,sub_3
0.0021297999999997,0.0014276000000012,-0.0068853999999998,0.0001108000000003,0.0006484000000008,-0.0005731999999999,0,sub_3
0.0022999999999997,0.0019066000000012,-0.0069561999999999,0.0013882000000003,0.0002170000000008,-0.0003499999999999,0,sub_3
0.0022245999999997,0.0019580000000012,-0.0065983999999998,0.0020244000000003,-0.0004251999999991,-0.0001309999999999,0,sub_3
0.0027717999999997,0.0020020000000012,-0.0064561999999998,0.0017860000000003,-0.0005883999999991,-0.0001551999999998,0,sub_3
0.0030341999999997,0.0019838000000011,-0.0066489999999998,0.0015456000000003,-0.0007531999999991,0.0002478000000001,0,sub_3
0.0029047999999997,0.0017130000000011,-0.0068993999999998,0.0017310000000003,-0.0011325999999991,0.0006542000000001,0,sub_3
0.0022217999999997,0.0014296000000012,-0.0072841999999998,0.0010638000000003,-0.0015081999999991,0.0008410000000001,0,sub_3
0.0025463999999997,0.0005606000000012,-0.0076593999999998,0.0004006000000004,-0.0012437999999991,0.0008134000000001,0,sub_3
0.0022607999999997,0.0004956000000012,-0.0078941999999998,0.0001862000000004,-0.0010317999999991,0.001239,0,sub_3
0.0026479999999997,0.0004302000000012,-0.0074281999999999,0.0001900000000004,-0.0003917999999991,0.0010246,0,sub_3
0.0028753999999997,0.0008670000000012,-0.0073663999999999,0.0001958000000004,0.0002500000000008,0.000383,0,sub_3
0.0026993999999997,0.0014294000000012,-0.0068707999999998,0.0006038000000004,0.0005072000000008,-6.219999999988905e-05,0,sub_3
0.0027567999999997,0.0019646000000012,-0.0064925999999998,0.0003706000000003,0.0011902000000008,0.0001284000000001,0,sub_3
0.0028103999999997,0.0017308000000012,-0.0067563999999998,0.0001432000000003,0.0020906000000008,-0.0007493999999998,0,sub_3
0.0029683999999997,0.0028134000000012,-0.0068041999999998,0.0003378000000003,0.0023486000000008,-0.0011959999999998,0,sub_3
0.0026393999999997,0.0033578000000012,-0.0070737999999998,0.0007312000000003,0.0011076000000008,6.980000000011109e-05,0,sub_3
0.0032321999999997,0.0026712000000012,-0.0066435999999998,0.0007216000000003,3.820000000089359e-05,0.0011394,0,sub_3
0.0031957999999997,0.0025744000000012,-0.0064307999999998,0.0013550000000003,-0.0012431999999991,0.0013592,0,sub_3
0.0028487999999997,0.0028668000000012,-0.0062501999999998,0.0024102000000003,-0.0025301999999991,0.0026502,0,sub_3
0.0027183999999997,0.0021636000000012,-0.0066199999999998,0.0030210000000003,-0.0029235999999991,0.003703,0,sub_3
0.0025719999999997,0.0011456000000011,-0.0062403999999998,0.0032176000000003,-0.0022435999999991,0.0030424,0,sub_3
0.0021151999999997,0.0016324000000011,-0.0066037999999998,0.0032016000000003,-0.0015619999999991,0.0021666,0,sub_3
0.0020847999999997,0.0020462000000011,-0.0065019999999998,0.0031866000000003,-0.0004549999999991,0.001504,0,sub_3
0.0021125999999997,0.0022376000000011,-0.0062611999999998,0.0023144000000003,-0.0001973999999991,0.0008364,0,sub_3
0.0016885999999997,0.0022620000000011,-0.0061491999999998,0.0010360000000003,-0.000615799999999,-2.639999999992891e-05,0,sub_3
0.0017243999999997,0.0019770000000012,-0.0064297999999998,-0.0002451999999996,-0.001036599999999,-0.0002483999999999,0,sub_3
0.0021519999999997,0.0015618000000012,-0.0067347999999998,-0.0008813999999996,-0.000394399999999,-0.0004671999999998,0,sub_3
0.0023699999999997,0.0009716000000012,-0.0074831999999999,-0.0006679999999996,-0.0006073999999991,-0.0006789999999998,0,sub_3
0.0026965999999997,0.0007770000000012,-0.0076303999999999,-0.0008957999999996,-0.0001499999999991,-0.0011241999999998,0,sub_3
0.0027247999999997,0.0004788000000012,-0.0077651999999999,-0.0006995999999996,0.0003034000000008,-0.0009257999999998,0,sub_3
0.0027663999999997,0.0007884000000011,-0.0075903999999999,-0.0007149999999996,0.0009714000000008,-0.0009425999999998,0,sub_3
0.0025807999999997,0.0015080000000011,-0.0073345999999998,-0.0003083999999996,0.0005726000000008,-0.0009551999999999,0,sub_3
0.0022259999999997,0.0021040000000011,-0.0065785999999998,-0.0011791999999996,0.0008174000000008,-0.0009775999999999,0,sub_3
0.0024035999999997,0.0021966000000012,-0.0065621999999998,-0.0011801999999996,0.0008164000000009,-0.0007639999999999,0,sub_3
0.0027385999999997,0.0024566000000012,-0.0064423999999998,-0.0007525999999996,0.0010280000000009,-0.0007611999999998,0,sub_3
0.0028435999999997,0.0025918000000012,-0.0060579999999998,8.880000000038709e-05,0.0010446000000009,-0.0009789999999998,0,sub_3
0.0028583999999997,0.0022506000000012,-0.0060165999999999,-0.0001367999999996,0.0012770000000008,-0.0009905999999998,0,sub_3
0.0027441999999997,0.0019506000000012,-0.0062697999999999,0.0002742000000003,0.0006550000000009,-0.0009967999999998,0,sub_3
0.0023503999999997,0.0018182000000012,-0.0064651999999998,0.0006852000000003,3.300000000091359e-05,-0.0010029999999998,0,sub_3
0.0021413999999997,0.0012074000000012,-0.0065643999999998,0.0002444000000003,-0.000159999999999,-0.0010155999999999,0,sub_3
0.0019677999999997,0.0011232000000012,-0.0071875999999998,3.0200000000387045e-05,-0.000160199999999,-0.0008033999999999,0,sub_3
0.0021269999999997,0.0012122000000012,-0.0075467999999998,0.0002436000000003,-0.000373199999999,-0.0010153999999999,0,sub_3
0.0023201999999997,0.0012664000000012,-0.0076665999999998,0.0002444000000003,5.200000000089358e-05,-0.0008021999999998,0,sub_3
0.0022317999999997,0.0012806000000012,-0.0073459999999998,-0.0001805999999996,0.0004796000000008,-0.0008055999999998,0,sub_3
0.0023917999999997,0.0015256000000012,-0.0072811999999998,-0.0001917999999995,0.0002776000000008,-0.0005995999999998,0,sub_3
0.0028187999999997,0.0015812000000012,-0.0069687999999998,-0.0001983999999995,0.0007166000000008,-0.0008215999999998,0,sub_3
0.0028269999999997,0.0014910000000012,-0.0066085999999998,-0.0002067999999995,0.0011538000000008,-0.0006161999999998,0,sub_3
0.0025621999999997,0.0014908000000012,-0.0063621999999998,-3.599999999592948e-06,0.0007398000000008,-0.0008355999999998,0,sub_3
0.0033601999999997,0.0018486000000012,-0.0063075999999998,0.0002006000000003,0.0007510000000008,-0.0008419999999998,0,sub_3
0.0032667999999997,0.0020284000000012,-0.0061073999999998,0.0004178000000003,0.0013904000000008,-0.0010549999999998,0,sub_3
0.0025921999999997,0.0019848000000012,-0.0067177999999998,-1.5599999999632923e-05,0.0007492000000008,-0.0002025999999998,0,sub_3
0.0023461999999997,0.0018450000000012,-0.0071673999999998,-0.0006555999999996,0.0007514000000008,-0.0002071999999998,0,sub_3
0.0028937999999997,0.0022730000000011,-0.0071359999999998,-0.0006565999999996,0.0022532000000008,-0.0006439999999998,0,sub_3
0.0022991999999997,0.0031032000000011,-0.0071441999999998,-0.0002403999999996,0.0022596000000008,-0.0004349999999999,0,sub_3
0.0016577999999997,0.0031672000000011,-0.0076369999999998,-0.0002595999999996,0.0009866000000008,0.0004136,0,sub_3
0.0022691999999997,0.0030676000000011,-0.0063737999999998,0.0003700000000003,0.0003558000000008,-1.5999999999948998e-05,0,sub_3
0.0024285999999997,0.0032350000000011,-0.0060331999999998,0.0016338000000003,-0.0007067999999991,0.000414,0,sub_3
0.0019427999999997,0.0029574000000011,-0.0064493999999998,0.0020480000000003,-0.0022045999999991,0.0017008,0,sub_3
0.0019571999999997,0.0018484000000011,-0.0063459999999998,0.0026870000000003,-0.0024197999999991,0.0017056,0,sub_3
0.0028069999999997,0.0015360000000012,-0.0059819999999998,0.0033264000000003,-0.0017767999999991,0.001064,0,sub_3
0.0026375999999997,0.0015990000000012,-0.0068447999999998,0.0033246000000003,-0.001132599999999,0.0006316,0,sub_3
0.0023263999999997,0.0014810000000012,-0.0067883999999999,0.0024686000000003,-0.000698199999999,0.0001934,0,sub_3
0.0025263999999997,0.0015692000000012,-0.0064723999999999,0.0014002000000003,-0.000262399999999,-0.0004599999999999,0,sub_3
0.0029697999999997,0.0010010000000012,-0.0066525999999999,-0.0003121999999996,-0.000252199999999,-0.0006899999999999,0,sub_3
0.0029125999999997,0.0006716000000012,-0.0068369999999999,-0.0015913999999996,-3.479999999908636e-05,-0.0006991999999999,0,sub_3
0.0029963999999997,0.0007328000000012,-0.0070053999999999,-0.0018007999999996,0.0008182000000008,-0.0007017999999999,0,sub_3
0.0028535999999997,0.0003810000000012,-0.0067003999999999,-0.0011577999999996,0.0012428000000008,-0.0009113999999999,0,sub_3
0.0028805999999997,-0.0002885999999987,-0.0066261999999999,-0.0009485999999996,0.0012440000000008,-0.0009125999999999,0,sub_3
0.0026581999999997,0.0001802000000012,-0.0071047999999998,-0.0007373999999996,0.0016714000000008,-0.0009141999999999,0,sub_3
0.0024723999999997,0.0011066000000012,-0.0070411999999998,-0.0001013999999996,0.0016712000000008,-0.0009123999999999,0,sub_3
0.0019991999999997,0.0018646000000012,-0.0072689999999998,-0.0001093999999996,0.0008210000000008,-0.0009139999999999,0,sub_3
0.0023889999999997,0.0025228000000012,-0.0073041999999998,-0.0005411999999996,0.0008238000000008,-0.0007059999999999,0,sub_3
0.0021639999999997,0.0032858000000012,-0.0076005999999998,-0.0005401999999996,0.0010370000000008,-0.0007061999999999,0,sub_3
0.0019345999999997,0.0034766000000012,-0.0067411999999998,-0.0005419999999996,0.0006110000000008,-0.0007057999999998,0,sub_3
0.0017215999999997,0.0026136000000012,-0.0068877999999998,-0.0003285999999996,0.0003982000000008,-0.0009175999999998,0,sub_3
0.0018371999999997,0.0011196000000012,-0.0065053999999998,-0.0007577999999996,0.0006148000000008,-0.0009225999999998,0,sub_3
