userAcceleration.x,userAcceleration.y,userAcceleration.z,rotationRate.x,rotationRate.y,rotationRate.z,label,subject
-0.0112856000000001,0.0216888000000011,-0.0194881999999999,0.0282548000000004,-0.0389825999999991,0.0050238,0,sub_4
-0.0158622000000001,0.0138176000000012,-0.0158621999999999,0.0181980000000005,0.0017480000000008,0.004474,0,sub_4
-0.0157122000000001,0.0043420000000012,-0.0086243999999998,-0.0044545999999995,0.0412434000000008,0.0040514,0,sub_4
-0.0140030000000001,-0.0075167999999987,-0.0006569999999999,-0.0349395999999995,0.0967368000000008,0.0056902,0,sub_4
-0.0058362000000001,-0.0044465999999987,0.0010576,-0.0611743999999995,0.1528366000000008,0.0118444,0,sub_4
0.0004543999999997,0.0009956000000012,0.001789,-0.0804311999999995,0.1986698000000008,0.021906,0,sub_4
0.0041307999999997,0.0065600000000012,0.0006738,-0.0907435999999995,0.2416978000000008,0.033102,0,sub_4
0.0127301999999997,0.0172994000000012,-0.0099449999999999,-0.0843515999999995,0.3050936000000008,0.0512252,0,sub_4
0.0103013999999998,0.0240210000000012,-0.0103347999999999,-0.0796725999999994,0.3120662000000008,0.0617176,0,sub_4
0.0043555999999998,0.0199812000000012,-0.0064949999999999,-0.0639721999999994,0.2862554000000009,0.0558782,0,sub_4
-0.0038540000000001,0.0201580000000012,-0.0033887999999999,-0.0718339999999994,0.2383770000000008,0.0479798,0,sub_4
-0.0029068000000001,0.0159850000000012,-0.0031619999999999,-0.0716659999999995,0.1783048000000008,0.0454942,0,sub_4
-0.0156520000000001,0.0032602000000012,0.0057448,-0.0825799999999994,0.1187078000000008,0.040367,0,sub_4
-0.0148728000000001,0.0048618000000012,0.0043052,-0.0847079999999994,0.1189326000000008,0.0392836,0,sub_4
-0.0147960000000001,0.0147964000000012,0.0013682,-0.1005665999999995,0.1089530000000008,0.0445268,0,sub_4
-0.0069616000000002,0.0235344000000012,-0.0091149999999999,-0.0786639999999994,0.0935312000000008,0.0459814,0,sub_4
-0.0107960000000002,0.0278836000000012,-0.0078865999999999,-0.0486465999999995,0.0725700000000008,0.0404496,0,sub_4
-0.0105140000000002,0.0304248000000012,-0.0055607999999999,-0.0170333999999995,0.0169150000000008,0.024932,0,sub_4
-0.0096574000000002,0.0235888000000012,-0.0069951999999999,0.0059884000000004,-0.0517043999999991,0.0089438,0,sub_4
-0.0051004000000002,0.0166762000000012,-0.0106189999999999,0.0317288000000004,-0.0792375999999991,-0.0010959999999999,0,sub_4
-0.0077818000000001,0.0056412000000012,-0.0050645999999999,0.0454134000000004,-0.0792597999999991,-0.0074095999999999,0,sub_4
-0.0049500000000001,0.0011876000000012,-0.0024145999999999,0.0388544000000004,-0.0728211999999991,-0.0134457999999999,0,sub_4
0.0027805999999998,0.0004714000000012,-0.0029229999999999,0.0229464000000004,-0.0540071999999991,-0.0159311999999999,0,sub_4
0.0069431999999998,0.0007348000000012,-0.0019567999999999,0.0053802000000004,-0.0207141999999991,-0.0148147999999999,0,sub_4
0.0042349999999998,0.0001874000000012,-0.0021371999999999,-0.0141215999999995,0.0127842000000008,-0.0100801999999999,0,sub_4
0.0008741999999998,-0.0018315999999987,-0.0025337999999999,-0.0338635999999995,0.0398934000000008,-0.0057663999999999,0,sub_4
-0.0047148000000001,-0.0005553999999987,-0.0046347999999999,-0.0508373999999995,0.0631680000000008,-0.0039919999999999,0,sub_4
-0.0093624000000001,0.0026374000000012,-0.0044073999999999,-0.0646317999999995,0.0787736000000008,-0.0051765999999999,0,sub_4
-0.0081186000000001,0.0107694000000012,-0.0069367999999999,-0.0757127999999995,0.0858278000000008,-0.0014173999999999,0,sub_4
-0.0069140000000001,0.0173998000000012,-0.0077649999999999,-0.0797859999999995,0.0870980000000008,0.0041072,0,sub_4
-0.0071718000000001,0.0230346000000012,-0.0100617999999999,-0.0802849999999994,0.0773440000000008,0.0094928,0,sub_4
-0.0051020000000001,0.0230538000000012,-0.0091379999999999,-0.0779757999999995,0.0727040000000008,0.0123276,0,sub_4
-0.0021144000000001,0.0202108000000012,-0.0095637999999999,-0.0752283999999995,0.0704068000000008,0.014949,0,sub_4
-0.0053482000000001,0.0125542000000011,-0.0077799999999999,-0.0707701999999995,0.0644996000000008,0.0131002,0,sub_4
-0.0077654000000001,0.0077546000000011,-0.0074225999999999,-0.0680091999999995,0.0592436000000008,0.0097434,0,sub_4
-0.0080536000000001,0.0057932000000011,-0.0069993999999999,-0.0652085999999995,0.0626530000000008,0.0071948,0,sub_4
-0.0051570000000001,0.0087142000000011,-0.0093847999999999,-0.0594705999999995,0.0573074000000008,0.0070282,0,sub_4
-0.0044214000000001,0.0119960000000011,-0.0101301999999999,-0.0471553999999995,0.0432052000000008,0.0064914,0,sub_4
-0.0011734000000001,0.0165040000000011,-0.0075009999999999,-0.0314491999999995,0.0237656000000008,0.0057716,0,sub_4
0.0043705999999998,0.0222474000000011,-0.0051435999999999,-0.0123463999999995,0.0023890000000008,0.0070006,0,sub_4
0.0087377999999998,0.0258668000000011,-0.0006169999999999,0.0101542000000004,-0.0219847999999991,0.0088982,0,sub_4
0.0106781999999998,0.0255334000000012,0.004855,0.0290350000000004,-0.0461269999999991,0.0092746,0,sub_4
0.0137985999999998,0.0258410000000012,0.0091968,0.0423664000000004,-0.0717369999999991,0.0085458,0,sub_4
0.0153419999999998,0.0239708000000012,0.0102214,0.0525096000000004,-0.0977491999999991,0.0045906,0,sub_4
0.0146789999999997,0.0170810000000012,0.0094052,0.0583728000000004,-0.1197715999999991,-0.0044681999999999,0,sub_4
0.0125065999999997,0.0081358000000012,0.0062148,0.0570494000000004,-0.1289759999999991,-0.0159435999999999,0,sub_4
0.0087447999999997,-0.0020515999999987,0.0022328,0.0463722000000004,-0.1294167999999991,-0.0264273999999999,0,sub_4
0.0014183999999997,-0.0133625999999987,-0.0028925999999999,0.0293722000000004,-0.1117279999999991,-0.0363375999999999,0,sub_4
-0.0098872000000002,-0.0207967999999987,-0.0095547999999999,0.0071156000000004,-0.0706095999999991,-0.0401187999999999,0,sub_4
-0.0224778000000002,-0.0182661999999987,-0.0160251999999999,-0.0195833999999995,-0.0245149999999991,-0.0356639999999999,0,sub_4
-0.0343460000000001,-0.0045133999999987,-0.0224851999999999,-0.0466233999999995,0.0044910000000008,-0.0198667999999999,0,sub_4
-0.0391242000000001,0.0152614000000011,-0.0238925999999999,-0.0515725999999995,-0.0290347999999991,0.0034288,0,sub_4
-0.0330786000000001,0.0335434000000011,-0.0248557999999999,-0.0213521999999995,-0.1197765999999991,0.025548,0,sub_4
-0.0151568000000001,0.0394248000000011,-0.0128855999999999,0.0390060000000004,-0.2576635999999991,0.0366148,0,sub_4
-0.0002410000000001,0.0365766000000011,0.0009944,0.0841638000000004,-0.3238627999999991,0.0355194,0,sub_4
0.0114893999999998,0.0311334000000011,0.009568,0.1123838000000004,-0.3273077999999991,0.020125,0,sub_4
0.0152597999999998,0.0173684000000012,0.0132648,0.1183810000000004,-0.2524449999999991,-0.0051389999999999,0,sub_4
0.0089449999999998,-0.0009679999999987,0.0143524,0.0926476000000004,-0.1203559999999991,-0.0347573999999999,0,sub_4
-0.0121140000000001,1.880000000122721e-05,-0.0023693999999999,0.0459476000000004,0.0522646000000007,-0.0590193999999999,0,sub_4
-0.0278232000000001,0.0059506000000011,-0.0193407999999999,0.0214058000000004,0.1344250000000008,-0.0712601999999999,0,sub_4
-0.0301126000000001,0.0050466000000011,-0.0230483999999999,0.0181812000000004,0.1280488000000008,-0.0723427999999999,0,sub_4
-0.0219164000000001,0.0097928000000011,-0.0206677999999999,0.0203726000000004,0.0608686000000008,-0.0572863999999999,0,sub_4
-0.0091312000000001,0.0184322000000011,-0.0145925999999999,0.0208548000000004,-0.0345087999999991,-0.0223367999999999,0,sub_4
0.0014007999999998,0.0082662000000011,-0.0013041999999999,0.0138880000000004,-0.1202939999999991,0.0178896,0,sub_4
0.0120323999999998,-0.0063177999999987,0.0114302,-0.0058383999999995,-0.1612439999999991,0.0457918,0,sub_4
0.0146067999999998,-0.0176455999999987,0.0147036,-0.0364997999999995,-0.1366763999999991,0.055801,0,sub_4
0.0148697999999997,-0.0194589999999987,0.010657,-0.0631761999999995,-0.0553583999999991,0.0429056,0,sub_4
0.0111071999999997,-0.0126273999999987,0.0037802,-0.0758099999999995,0.0462246000000008,0.0117088,0,sub_4
0.0133963999999997,0.0039180000000012,-0.0039795999999999,-0.0689379999999995,0.1134640000000008,-0.0259305999999999,0,sub_4
0.0090617999999997,0.0265614000000012,-0.0101573999999999,-0.0371287999999995,0.1324440000000008,-0.0579929999999999,0,sub_4
0.0023639999999997,0.0466754000000011,-0.0124431999999999,0.0110886000000004,0.1121120000000008,-0.0768581999999999,0,sub_4
-0.0096934000000001,0.0501392000000011,-0.0120645999999999,0.0561462000000004,0.0670220000000008,-0.0820405999999999,0,sub_4
-0.0152158000000001,0.0419270000000011,-0.0083173999999999,0.0857882000000004,0.0185436000000008,-0.0789939999999999,0,sub_4
-0.0190824000000001,0.0298726000000011,-0.0041443999999999,0.0932970000000004,-0.0113447999999991,-0.0703575999999999,0,sub_4
-0.0171016000000001,0.0137614000000011,5.400000000054319e-06,0.0786678000000004,-0.0247691999999991,-0.0571967999999999,0,sub_4
-0.0135606000000001,-0.0001473999999988,0.0009676,0.0486950000000004,-0.0277249999999991,-0.0379605999999999,0,sub_4
-0.0113594000000001,-0.0055653999999988,-0.0022483999999999,0.0174860000000004,-0.0185417999999991,-0.0163985999999999,0,sub_4
-0.0129756000000001,-0.0041701999999988,-0.0049801999999999,-0.0073207999999995,-0.0083191999999991,0.0060612,0,sub_4
-0.0126606000000001,-0.0004481999999988,-0.0076193999999999,-0.0251131999999995,-0.0059963999999991,0.0266574,0,sub_4
-0.0136254000000001,0.0046886000000011,-0.0099433999999999,-0.0317657999999995,-0.0098717999999991,0.0417804,0,sub_4
-0.0130126000000001,0.0122122000000011,-0.0093423999999999,-0.0262561999999995,-0.0246119999999991,0.0461064,0,sub_4
-0.0110240000000001,0.0127702000000012,-0.0051485999999999,-0.0154065999999995,-0.0446707999999991,0.0438536,0,sub_4
-0.0050440000000001,0.0103646000000012,-0.0028511999999999,-0.0121683999999995,-0.0542425999999991,0.0364066,0,sub_4
0.0042695999999998,0.0122658000000012,-0.0024671999999999,-0.0105057999999995,-0.0363177999999991,0.0272044,0,sub_4
0.0104235999999998,0.0155696000000012,-0.0025209999999999,-0.0018137999999995,-0.0120169999999991,0.0165518,0,sub_4
0.0098621999999998,0.0156946000000012,-0.0054997999999999,0.0175402000000004,0.0071478000000008,0.0023482,0,sub_4
0.0047237999999998,0.0254470000000012,-0.0102717999999999,0.0456004000000004,0.0177566000000008,-0.0109289999999999,0,sub_4
-0.0046780000000001,0.0353526000000012,-0.0134649999999999,0.0771898000000004,0.0111444000000008,-0.0160487999999999,0,sub_4
-0.0170832000000001,0.0381122000000011,-0.0120313999999999,0.1011328000000004,-0.0306131999999991,-0.0166905999999999,0,sub_4
-0.0178056000000001,0.0251668000000011,-0.0063985999999999,0.0992856000000004,-0.0620703999999991,-0.0134663999999999,0,sub_4
-0.0112026000000001,0.0119078000000011,-0.0033291999999999,0.0732796000000004,-0.0493695999999991,-0.0032035999999999,0,sub_4
-0.0023078000000001,0.0002390000000012,-0.0009201999999999,0.0328746000000004,-0.0127535999999991,0.006287,0,sub_4
0.0041793999999998,-0.0054731999999987,0.0005502,-0.0083173999999995,0.0357404000000008,0.0093554,0,sub_4
0.0093977999999998,-0.0028567999999987,-0.0004321999999999,-0.0462291999999995,0.1004212000000008,0.0109306,0,sub_4
0.0038585999999998,0.0131706000000012,-0.0069109999999999,-0.0683811999999995,0.1599276000000008,0.014118,0,sub_4
-0.0044766000000001,0.0255724000000012,-0.0115633999999999,-0.0731839999999995,0.1894104000000008,0.0155714,0,sub_4
-0.0068926000000001,0.0348940000000012,-0.0173951999999999,-0.0631713999999995,0.1973014000000008,0.022497,0,sub_4
-0.0076898000000001,0.0389778000000011,-0.0184309999999999,-0.0426369999999995,0.1770142000000008,0.0340188,0,sub_4
-0.0093684000000001,0.0352594000000011,-0.0110769999999999,-0.0294617999999995,0.1284366000000008,0.040398,0,sub_4
-0.0055188000000001,0.0283660000000011,-0.0055965999999999,-0.0207893999999995,0.0711550000000008,0.0429112,0,sub_4
-0.0044000000000001,0.0252090000000011,0.0010916,-0.0129227999999995,0.0240156000000008,0.0496494,0,sub_4
-0.0135786000000001,0.0211748000000011,0.011197,-0.0111559999999995,-0.0054111999999991,0.0543996,0,sub_4
-0.0233628000000001,0.0182438000000012,0.0145972,-0.0112297999999995,-0.0237259999999991,0.0524998,0,sub_4
-0.0215926000000001,0.0187516000000012,0.0046168,0.0024386000000004,-0.0216405999999991,0.0519516,0,sub_4
-0.0171246000000001,0.0198052000000012,-0.0022331999999999,0.0141770000000004,-0.0208301999999991,0.0522462,0,sub_4
-0.0045478000000001,0.0189776000000012,-0.0095711999999999,0.0084036000000004,-0.0252773999999991,0.0505024,0,sub_4
0.0147745999999998,0.0130500000000012,-0.0157233999999999,-0.0029567999999995,-0.0390769999999991,0.0480906,0,sub_4
0.0289181999999998,0.0044296000000012,-0.0158467999999999,-0.0136263999999995,-0.0386161999999991,0.0486564,0,sub_4
0.0232073999999998,-0.0043247999999987,-0.0087493999999999,-0.0278925999999995,-0.0300517999999991,0.0504686,0,sub_4
0.0116015999999998,-0.0106637999999987,-0.0037133999999999,-0.0427577999999995,-0.0146581999999991,0.0499178,0,sub_4
-0.0049814000000001,-0.0118151999999987,0.0003194,-0.0480059999999995,0.0002912000000008,0.0455892,0,sub_4
-0.0179992000000001,-0.0013853999999987,-0.0003553999999999,-0.0507933999999995,-0.0028939999999991,0.0453602,0,sub_4
-0.0234798000000001,0.0144454000000012,-0.0004909999999999,-0.0571191999999995,-0.0216687999999991,0.0573042,0,sub_4
-0.0124168000000001,0.0328464000000012,0.0049008,-0.0725573999999995,-0.0553999999999991,0.0877906,0,sub_4
-0.0019706000000001,0.0467622000000011,0.0035406,-0.0955357999999995,-0.0520561999999991,0.1239454,0,sub_4
0.0082421999999998,0.0494084000000011,0.0075776,-0.1236341999999995,-0.0491181999999991,0.159424,0,sub_4
0.0050075999999998,0.0375534000000011,0.008058,-0.1498347999999995,-0.0216133999999991,0.1769382,0,sub_4
-0.0003304000000001,0.0180112000000012,0.0001538,-0.1712843999999995,0.0347632000000008,0.1630428,0,sub_4
-0.0010838000000001,-0.0082181999999987,-0.0114337999999999,-0.1703897999999995,0.0918352000000008,0.1157606,0,sub_4
-0.0008710000000001,-0.0301303999999987,-0.0110483999999999,-0.1494693999999995,0.0885662000000008,0.0627134,0,sub_4
-0.0073784000000001,-0.0420927999999987,-0.0175583999999999,-0.1274387999999995,0.0987126000000008,0.0137158,0,sub_4
-0.0088294000000001,-0.0430917999999987,-0.0141429999999999,-0.1039989999999995,0.0977442000000008,-0.0275663999999999,0,sub_4
-0.0103026000000001,-0.0288839999999987,-0.0097999999999999,-0.0800483999999994,0.0822290000000008,-0.0545121999999999,0,sub_4
-0.0206980000000001,-0.0046573999999987,-0.0136513999999999,-0.0565933999999994,0.0664416000000008,-0.0662925999999999,0,sub_4
-0.0312112000000001,0.0195762000000012,-0.0216445999999999,-0.0309703999999995,0.0668048000000008,-0.0695327999999999,0,sub_4
-0.0394506000000001,0.0378958000000012,-0.0242799999999999,0.0039336000000004,0.0466564000000008,-0.0694767999999999,0,sub_4
-0.0416178000000001,0.0497900000000012,-0.0308617999999999,0.0341454000000004,0.0305580000000008,-0.0658267999999999,0,sub_4
-0.0409736000000001,0.0506976000000012,-0.0356867999999999,0.0583162000000004,0.0127138000000008,-0.0619937999999999,0,sub_4
-0.0420902000000001,0.0373788000000012,-0.0316521999999999,0.0720996000000004,0.0106696000000008,-0.0576123999999999,0,sub_4
-0.0415870000000001,0.0235486000000012,-0.0237543999999999,0.0731490000000004,0.0216748000000008,-0.0554731999999999,0,sub_4
-0.0352088000000001,0.0164470000000012,-0.0129725999999999,0.0612314000000004,0.0435912000000008,-0.0534385999999999,0,sub_4
-0.0254256000000001,0.0117376000000012,-0.0001269999999999,0.0414200000000004,0.0725386000000008,-0.0446315999999999,0,sub_4
-0.0121664000000002,0.0086972000000012,0.0106688,0.0160794000000004,0.1028050000000008,-0.0258329999999999,0,sub_4
0.0023671999999997,0.0133506000000012,0.0162676,-0.0071657999999995,0.1264516000000008,-0.0050885999999999,0,sub_4
0.0149695999999997,0.0144148000000012,0.0186038,-0.0208225999999995,0.1438990000000008,0.0125262,0,sub_4
0.0274221999999997,0.0095142000000012,0.0147698,-0.0245045999999995,0.1421654000000008,0.0229712,0,sub_4
0.0352559999999997,0.0038146000000012,0.0113084,-0.0173467999999995,0.1248658000000008,0.0273162,0,sub_4
0.0343533999999998,-0.0007163999999987,0.0105412,-0.0076321999999995,0.1016122000000008,0.0265592,0,sub_4
0.0307643999999998,-0.0043217999999987,0.0079262,-0.0036911999999995,0.0739114000000008,0.0240586,0,sub_4
0.0286571999999998,-0.0032757999999988,0.003786,-0.0049305999999995,0.0336558000000008,0.0221786,0,sub_4
0.0269729999999997,0.0019456000000011,0.0023214,-0.0042621999999995,-0.0064051999999991,0.0233028,0,sub_4
0.0250601999999997,0.0063750000000011,-0.0023693999999999,-0.0004861999999995,-0.0601411999999991,0.0315166,0,sub_4
0.0308875999999997,0.0116612000000011,-0.0072147999999999,0.0078642000000004,-0.1184563999999991,0.0619872,0,sub_4
0.0411653999999997,0.0195770000000011,-0.0232993999999999,0.0336080000000004,-0.1272911999999991,0.1177258,0,sub_4
0.0355251999999997,0.0273380000000011,-0.0360807999999999,0.0771652000000004,-0.1106315999999991,0.17612,0,sub_4
0.0251147999999997,0.0252334000000011,-0.0333515999999999,0.1208500000000004,-0.0804901999999991,0.2195426,0,sub_4
-0.0026856000000002,0.0254568000000011,-0.0189919999999999,0.1463648000000004,-0.0473875999999991,0.2292886,0,sub_4
-0.0455808000000002,0.0205232000000011,-0.0001537999999999,0.1328154000000004,-0.0271295999999991,0.1817352,0,sub_4
-0.0642364000000002,0.0166750000000011,0.0029626,0.1064534000000005,-0.0429103999999991,0.100169,0,sub_4
-0.0591014000000001,0.0146866000000011,0.0025946,0.0744774000000005,-0.0570331999999991,0.0350122,0,sub_4
-0.0500790000000001,0.0256242000000011,-0.0101419999999999,0.0438934000000005,-0.0563971999999991,0.0074476,0,sub_4
-0.0398366000000001,0.0247326000000011,-0.0282675999999999,0.0311860000000004,-0.0295307999999991,0.0130928,0,sub_4
-0.0243520000000001,0.0221556000000011,-0.0483763999999999,0.0583380000000004,0.0079818000000008,0.0390854,0,sub_4
-0.0377408000000001,0.0120218000000012,-0.0345305999999999,0.0768880000000004,0.0212736000000008,0.0556486,0,sub_4
-0.0467456000000001,0.0047260000000012,-0.0257833999999999,0.0758816000000004,0.0202702000000008,0.041115,0,sub_4
-0.0519266000000001,-0.0023577999999987,-0.0219775999999999,0.0662938000000004,0.0342994000000008,0.0042832,0,sub_4
-0.0375372000000001,0.0070024000000012,-0.0249683999999999,0.0548832000000004,0.0717644000000008,-0.0308821999999999,0,sub_4
-0.0281640000000001,0.0167758000000012,-0.0242179999999999,0.0502538000000004,0.1148932000000008,-0.0497705999999999,0,sub_4
-0.0198000000000001,0.0252678000000011,-0.0251225999999999,0.0591630000000004,0.1453506000000008,-0.0550885999999999,0,sub_4
-0.0222268000000001,0.0264544000000011,-0.0191161999999999,0.0773456000000004,0.1572112000000008,-0.0532675999999999,0,sub_4
-0.0199456000000001,0.0218048000000011,-0.0125991999999999,0.0954026000000004,0.1415864000000008,-0.0509849999999999,0,sub_4
-0.0215192000000001,0.0112700000000011,-0.0035473999999999,0.1001866000000004,0.1117512000000008,-0.0532633999999999,0,sub_4
-0.0147708000000001,0.0028802000000011,0.0036006,0.0841212000000004,0.0952000000000008,-0.0561317999999999,0,sub_4
-0.0056498000000001,0.0003620000000011,0.0065764,0.0534302000000004,0.1070090000000008,-0.0523019999999999,0,sub_4
0.0029715999999998,0.0003474000000011,0.0074248,0.0225468000000004,0.1292354000000008,-0.0427185999999999,0,sub_4
0.0030887999999998,0.0042518000000011,0.0084026,0.0007858000000004,0.1392876000000008,-0.0334831999999999,0,sub_4
0.0076811999999998,0.0100894000000012,0.0100968,-0.0089301999999995,0.1188484000000008,-0.0286109999999999,0,sub_4
0.0164445999999998,0.0166902000000012,0.007426,-0.0050677999999995,0.0828020000000008,-0.0219147999999999,0,sub_4
0.0219743999999998,0.0195012000000012,0.0069506,0.0094458000000004,0.0450054000000008,-0.0130055999999999,0,sub_4
0.0252311999999998,0.0205930000000012,0.0102582,0.0178052000000004,0.0144750000000008,-0.0043623999999999,0,sub_4
0.0255573999999998,0.0177478000000012,0.0129196,0.0151096000000004,-0.0111003999999991,0.0001382,0,sub_4
0.0206223999999998,0.0127308000000012,0.0129828,0.0075630000000004,-0.0281201999999991,0.0005344,0,sub_4
0.0124373999999998,0.0089112000000012,0.010112,0.0004786000000004,-0.0438367999999991,-0.0056905999999999,0,sub_4
0.0043833999999998,0.0057626000000012,0.0062012,-0.0072497999999995,-0.0674059999999991,-0.0189603999999999,0,sub_4
-0.0031612000000001,0.0016700000000012,0.0015626,-0.0149819999999995,-0.0988299999999991,-0.0392703999999998,0,sub_4
-0.0083818000000001,-0.0012939999999987,-0.0008425999999999,-0.0239533999999995,-0.1234223999999991,-0.0619479999999998,0,sub_4
-0.0117854000000001,-0.0024207999999987,-0.0033355999999999,-0.0379811999999995,-0.1322369999999991,-0.0831853999999998,0,sub_4
-0.0143110000000001,0.0020742000000011,-0.0066359999999999,-0.0562237999999995,-0.1229527999999991,-0.0980661999999999,0,sub_4
-0.0133550000000001,0.0137382000000011,-0.0119543999999999,-0.0723135999999995,-0.0992293999999991,-0.1026953999999999,0,sub_4
-0.0117184000000001,0.0301388000000011,-0.0200287999999999,-0.0754229999999994,-0.0673071999999991,-0.0910073999999999,0,sub_4
-0.0088350000000001,0.0447360000000011,-0.0283129999999999,-0.0524073999999995,-0.0491639999999991,-0.0660869999999999,0,sub_4
-0.0072516000000001,0.0543968000000011,-0.0339743999999999,-0.0107341999999995,-0.0538975999999991,-0.0373751999999999,0,sub_4
-0.0088938000000001,0.0430140000000011,-0.0305375999999999,0.0355758000000004,-0.0777967999999991,-0.0150157999999999,0,sub_4
-0.0139062000000001,0.0203918000000011,-0.0217915999999999,0.0659588000000004,-0.0975409999999991,-0.0055915999999999,0,sub_4
-0.0176830000000001,-0.0062217999999987,-0.0114751999999999,0.0668458000000004,-0.0943311999999991,-0.0098623999999999,0,sub_4
-0.0210752000000001,-0.0258071999999987,-0.0065163999999999,0.0323106000000004,-0.0526133999999991,-0.0229757999999999,0,sub_4
-0.0238162000000001,-0.0359853999999987,-0.0041267999999999,-0.0200413999999995,0.0111184000000008,-0.0379509999999999,0,sub_4
-0.0226470000000001,-0.0265423999999988,-0.0082593999999999,-0.0685527999999995,0.0773832000000008,-0.0503387999999999,0,sub_4
-0.0201180000000001,0.0010584000000011,-0.0184465999999999,-0.0835355999999995,0.1109000000000008,-0.0541183999999999,0,sub_4
-0.0183096000000001,0.0323920000000011,-0.0236161999999999,-0.0569579999999995,0.0941718000000008,-0.0496385999999999,0,sub_4
-0.0176004000000001,0.0536200000000011,-0.0198705999999999,-0.0096243999999995,0.0466764000000008,-0.0413421999999999,0,sub_4
-0.0060802000000001,0.0585354000000011,-0.0111753999999999,0.0379764000000004,0.0032596000000008,-0.0409539999999999,0,sub_4
-0.0025852000000001,0.0494500000000012,-0.0043489999999999,0.0678510000000004,-0.0335315999999991,-0.0304431999999999,0,sub_4
0.0004203999999998,0.0314116000000012,0.0014286,0.0644208000000004,-0.0299267999999991,-0.0232077999999999,0,sub_4
0.0028251999999998,0.0131118000000012,0.000585,0.0332142000000004,0.0083082000000008,-0.0206973999999999,0,sub_4
0.0028905999999998,0.0031760000000012,-0.0048281999999999,0.0024296000000004,0.0429300000000008,-0.0207431999999999,0,sub_4
-0.0076258000000001,0.0022664000000012,-0.0109413999999999,-0.0131753999999995,0.0467786000000008,-0.0106021999999999,0,sub_4
-0.0094630000000001,0.0093050000000012,-0.0126113999999999,-0.0089289999999995,0.0341674000000008,-0.0082175999999999,0,sub_4
-0.0076190000000001,0.0133424000000012,-0.0095415999999999,0.0069752000000004,0.0055310000000008,-0.0044491999999999,0,sub_4
-0.0079280000000001,0.0150608000000012,-0.0052701999999999,0.0239472000000004,-0.0220473999999991,0.00018,0,sub_4
