userAcceleration.x,userAcceleration.y,userAcceleration.z,rotationRate.x,rotationRate.y,rotationRate.z,label,subject
-0.0088286000000002,0.0013190000000011,-0.0089707999999998,0.0020292000000004,-0.006472999999999,0.0003832000000001,0,sub_17
-0.0070328000000002,0.0006208000000011,-0.0092139999999998,0.0005490000000004,-0.003484999999999,0.0003690000000001,0,sub_17
-0.0078818000000001,5.380000000121189e-05,-0.0084915999999999,-0.0009225999999995,0.0014204000000009,0.0003526000000001,0,sub_17
-0.0083554000000001,-0.0002887999999987,-0.0088549999999999,-0.0023995999999995,0.0054766000000009,0.0003342000000001,0,sub_17
-0.0088064000000001,-0.0005989999999987,-0.0094015999999999,-0.0038763999999995,0.0099572000000009,0.0007426,0,sub_17
-0.0100004000000001,-0.0013425999999987,-0.0087211999999999,-0.0038749999999995,0.0101750000000008,0.000312,0,sub_17
-0.0092668000000001,-0.0020387999999987,-0.0086089999999999,-0.0032315999999995,0.0097556000000009,-0.0011813999999999,0,sub_17
-0.0087168000000001,-0.0024861999999987,-0.0083191999999999,-0.0023755999999995,0.0086980000000009,-0.0030997999999999,0,sub_17
-0.0081952000000001,-0.0023377999999987,-0.0076465999999999,-0.0006743999999996,0.0057162000000009,-0.0047933999999999,0,sub_17
-0.0082246000000002,-0.0019341999999987,-0.0070143999999999,0.0014516000000003,0.0020946000000009,-0.0066967999999998,0,sub_17
-0.0075242000000002,-0.0011321999999987,-0.0080815999999999,0.0018812000000003,0.0020956000000009,-0.0073345999999998,0,sub_17
-0.0076956000000002,-0.0001725999999987,-0.0076739999999999,0.0010228000000004,0.0023080000000009,-0.0062743999999998,0,sub_17
-0.0074410000000002,0.0005744000000012,-0.0072053999999998,0.0012168000000004,-4.239999999908137e-05,-0.0045625999999998,0,sub_17
-0.0076902000000002,0.0006190000000012,-0.0070759999999998,0.0024712000000004,-0.004524799999999,-0.0034815999999998,0,sub_17
-0.0076476000000002,0.0007198000000012,-0.0072173999999998,0.0050000000000004,-0.010926399999999,-0.0030301999999998,0,sub_17
-0.0099664000000002,0.0007046000000012,-0.0074673999999998,0.0064754000000004,-0.014553799999999,-0.0028033999999998,0,sub_17
-0.0095224000000002,-0.0005469999999987,-0.0085273999999998,0.0071012000000004,-0.017964199999999,-0.0030081999999998,0,sub_17
-0.0097214000000002,-0.0005577999999988,-0.0087105999999999,0.0028712000000004,-0.009852399999999,-0.0032617999999998,0,sub_17
-0.0096310000000001,0.0001186000000011,-0.0083099999999999,-0.0013569999999995,-0.001102199999999,-0.0033023999999998,0,sub_17
-0.0087806000000001,0.0014604000000011,-0.0083763999999999,-0.0047373999999995,0.0067910000000009,-0.0029087999999998,0,sub_17
-0.0074656000000001,0.0027660000000011,-0.0073231999999999,-0.0053681999999995,0.0093474000000009,-0.0024913999999998,0,sub_17
-0.0071822000000001,0.0046758000000011,-0.0072525999999999,-0.0026137999999995,0.0061370000000009,-0.0014019999999998,0,sub_17
-0.0057720000000001,0.0060904000000012,-0.0088777999999999,0.0022486000000004,-0.002196999999999,0.0003496000000001,0,sub_17
-0.0056822000000002,0.0044296000000012,-0.0081657999999999,0.0058298000000004,-0.009678399999999,0.0031594000000001,0,sub_17
-0.0067730000000001,0.0015882000000012,-0.0071057999999999,0.0068668000000004,-0.013528999999999,0.0059468000000001,0,sub_17
-0.0056940000000001,-0.0021899999999987,-0.0071161999999999,0.0070640000000004,-0.015029599999999,0.0080866000000001,0,sub_17
-0.0069082000000001,-0.0052599999999987,-0.0054357999999999,0.0038932000000003,-0.008838199999999,0.0076292000000001,0,sub_17
-0.0086190000000001,-0.0072125999999987,-0.0042031999999999,0.0013546000000004,-0.005407199999999,0.0056832000000001,0,sub_17
-0.0083316000000001,-0.0055171999999988,-0.0060555999999999,-0.0009647999999995,-0.001547399999999,0.0028836000000001,0,sub_17
-0.0103470000000001,-0.0041061999999988,-0.0098395999999999,-0.0013821999999995,-0.000681399999999,0.0011694000000001,0,sub_17
-0.0083928000000001,-0.0010075999999988,-0.0125479999999998,-0.0011929999999995,-0.005788999999999,0.0009626000000001,0,sub_17
-0.0065360000000001,0.0017692000000011,-0.0156981999999998,-0.0020369999999995,-0.003648199999999,0.0005256000000001,0,sub_17
-0.0056772000000001,0.0029914000000011,-0.0151339999999998,-0.0018167999999995,-0.002581999999999,9.860000000011216e-05,0,sub_17
-0.0056794000000001,0.0026126000000012,-0.0138277999999998,-0.0005297999999995,-0.0017317999999991,-0.0005343999999998,0,sub_17
-0.0031278000000001,0.0030808000000012,-0.0110621999999998,0.0005458000000004,-0.0015155999999991,-0.0022361999999998,0,sub_17
-0.0042078000000001,0.0025394000000012,-0.0076637999999998,0.0020672000000004,0.0018990000000009,-0.0050073999999998,0,sub_17
-0.0043284000000001,0.0017592000000012,-0.0057577999999998,0.0035476000000004,-0.000447399999999,-0.0045679999999998,0,sub_17
-0.0047714000000002,0.0003026000000012,-0.0059947999999999,0.0037476000000004,-0.001515999999999,-0.0028573999999998,0,sub_17
-0.0051758000000002,-0.0003953999999987,-0.0064247999999999,0.0022464000000004,-0.001088199999999,-0.0009467999999998,0,sub_17
-0.0053574000000002,-0.0006839999999987,-0.0066381999999999,0.0001120000000004,0.0006210000000009,0.0007440000000001,0,sub_17
-0.0056264000000002,-0.0002091999999987,-0.0080945999999999,-0.0020195999999995,0.0029694000000008,0.0024342000000001,0,sub_17
-0.0076290000000002,3.620000000121148e-05,-0.0080885999999999,-0.0018109999999995,0.0016912000000008,0.0022238000000001,0,sub_17
-0.0085066000000002,0.0002726000000012,-0.0083351999999999,-0.0001191999999995,-0.0021479999999991,0.0018132,0,sub_17
-0.0094772000000002,0.0004646000000012,-0.0087101999999998,0.0019982000000004,-0.006201799999999,0.0014058,0,sub_17
-0.0098540000000002,-4.239999999878855e-05,-0.0088749999999998,0.0030560000000004,-0.007912999999999,0.0014234,0,sub_17
-0.0100494000000001,-0.0001363999999987,-0.0084433999999998,0.0022080000000004,-0.006845999999999,0.0009968,0,sub_17
-0.0091280000000001,4.120000000121128e-05,-0.0080211999999998,0.0015694000000004,-0.005995399999999,0.0012128,0,sub_17
-0.0083452000000001,0.0003192000000012,-0.0077367999999998,0.0015652000000004,-0.006637399999999,0.0012218,0,sub_17
-0.0082078000000001,-0.0008179999999987,-0.0063219999999999,0.0004914000000004,-0.007278199999999,0.0018642,0,sub_17
-0.0074164000000001,-0.0017161999999987,-0.0068655999999999,6.660000000047097e-05,-0.007274999999999,0.001434,0,sub_17
-0.0072380000000002,-0.0028701999999987,-0.0056783999999999,-0.0014001999999995,-0.002152999999999,0.0005626000000001,0,sub_17
-0.0075720000000002,-0.0041881999999987,-0.0045905999999999,-0.0024565999999995,0.0010610000000009,-7.71999999998879e-05,0,sub_17
-0.0061606000000002,-0.0031645999999987,-0.0042331999999999,-0.0037179999999995,0.0061932000000009,-0.0007209999999998,0,sub_17
-0.0053036000000002,-0.0016119999999988,-0.0056517999999998,-0.0024283999999995,0.0083372000000009,-0.0021977999999998,0,sub_17
-0.0078768000000002,-0.0007423999999988,-0.0052653999999998,-0.0017817999999995,0.0106932000000009,-0.0028245999999998,0,sub_17
-0.0085588000000002,-0.0004479999999988,-0.0060731999999998,0.0009468000000004,0.0034464000000009,-0.0015017999999998,0,sub_17
-0.0068632000000002,0.0013606000000011,-0.0089069999999998,0.0011448000000004,0.0017344000000009,0.0002110000000001,0,sub_17
-0.0080558000000002,0.0003092000000011,-0.0095477999999998,6.66000000004512e-05,0.0008790000000009,0.0019138000000001,0,sub_17
-0.0083140000000001,6.340000000121155e-05,-0.0087561999999998,-0.0001553999999995,0.0004476000000009,0.0034084,0,sub_17
-0.0059140000000001,0.0003514000000012,-0.0083795999999998,0.0004570000000004,-0.003156199999999,0.0036318,0,sub_17
-0.0053990000000001,-0.0001701999999987,-0.0087803999999998,0.0010944000000004,-0.003130399999999,0.0019280000000001,0,sub_17
-0.0072888000000001,-0.0014803999999987,-0.0071121999999999,0.0017336000000004,-0.003314999999999,-0.0004163999999998,0,sub_17
-0.0076984000000001,-0.0014159999999987,-0.0063817999999999,0.0027956000000004,-0.003716799999999,-0.0021167999999998,0,sub_17
-0.0076876000000002,-0.0010525999999987,-0.0072471999999998,0.0015182000000004,-0.001769399999999,-0.0031953999999998,0,sub_17
-0.0061644000000002,0.0008022000000012,-0.0069923999999998,0.0002428000000004,-6.319999999908162e-05,-0.0025655999999998,0,sub_17
-0.0053916000000002,0.0020362000000012,-0.0069851999999998,-0.0008279999999995,0.0003616000000009,-0.0012917999999998,0,sub_17
-0.0058926000000002,0.0026992000000012,-0.0068319999999998,-0.0018967999999995,0.0016368000000009,0.0004082000000001,0,sub_17
-0.0047886000000002,0.0022306000000012,-0.0081319999999998,-0.0004445999999995,-0.004104999999999,0.0019220000000001,0,sub_17
-0.0031358000000002,0.0038014000000011,-0.0087351999999998,-0.0015049999999995,-0.000882799999999,0.0016974000000001,0,sub_17
-0.0043008000000002,0.0024082000000011,-0.0081065999999998,-0.0017205999999995,0.0002068000000009,0.0012680000000001,0,sub_17
-0.0037200000000001,0.0018644000000011,-0.0072715999999999,-0.0012921999999995,0.0019342000000009,0.0006286000000001,0,sub_17
-0.0035782000000001,0.0003876000000011,-0.0071747999999999,0.0006154000000004,-0.000388399999999,-0.0008497999999998,0,sub_17
-0.0072026000000001,-0.0002871999999988,-0.0062123999999999,-0.0012667999999995,0.0068672000000009,-0.0021541999999998,0,sub_17
-0.0086726000000001,-0.0022657999999987,-0.0053187999999999,0.0006162000000004,-0.000175399999999,-0.0008499999999998,0,sub_17
-0.0072490000000001,-0.0010791999999987,-0.0080035999999999,-0.0002363999999995,0.0008894000000009,-2.7999999998880484e-06,0,sub_17
-0.0091416000000002,-0.0008319999999987,-0.0088627999999999,-0.0029977999999995,0.0045174000000009,0.0008280000000001,0,sub_17
-0.0090370000000002,0.0009936000000012,-0.0089219999999999,-0.0040609999999995,0.0077312000000009,0.0016702000000001,0,sub_17
-0.0066364000000001,0.0022216000000012,-0.0093635999999999,-0.0025883999999995,0.0049724000000009,0.0021108000000001,0,sub_17
-0.0065836000000001,0.0025918000000012,-0.0093787999999999,-0.0017369999999995,0.0049914000000009,0.0010478000000001,0,sub_17
-0.0077170000000001,0.0014690000000012,-0.0077297999999999,0.0007994000000004,0.0003164000000009,0.0002162000000001,0,sub_17
-0.0070094000000001,0.0010304000000012,-0.0074205999999999,0.0031196000000004,-0.004360399999999,2.4000000000111887e-05,0,sub_17
-0.0063964000000001,0.0001086000000012,-0.0076905999999999,0.0026842000000004,-0.005851999999999,0.0004502000000001,0,sub_17
-0.0055596000000002,0.0003334000000012,-0.0067031999999998,0.0013990000000004,-0.006063999999999,0.0012960000000001,0,sub_17
-0.0050352000000002,0.0008230000000011,-0.0063003999999998,0.0011742000000004,-0.007558999999999,0.0023644,0,sub_17
-0.0096722000000002,0.0016100000000011,-0.0056211999999998,0.0024260000000004,-0.012028399999999,0.0036592,0,sub_17
-0.0066174000000002,0.0037256000000011,-0.0068923999999998,0.0032500000000004,-0.016921599999999,0.0047378,0,sub_17
-0.0072334000000002,0.0042662000000011,-0.0080127999999998,0.0034638000000004,-0.016268799999999,0.0047368,0,sub_17
-0.0081170000000002,0.0036082000000011,-0.0078707999999998,0.0028318000000004,-0.014333199999999,0.004301,0,sub_17
-0.0079586000000002,0.0032812000000011,-0.0083069999999998,0.0015796000000004,-0.008557799999999,0.0032150000000001,0,sub_17
-0.0033940000000002,0.0029382000000011,-0.0086229999999998,0.0001166000000004,-0.003432599999999,0.0014890000000001,0,sub_17
-0.0068592000000001,0.0001622000000011,-0.0075703999999999,0.0007856000000004,0.0006226000000009,-0.0008615999999998,0,sub_17
-0.0065772000000001,-0.0010595999999987,-0.0067173999999999,0.0022754000000004,-0.001720399999999,-0.0023435999999998,0,sub_17
-0.0060378000000001,-0.0008331999999987,-0.0075307999999999,0.0029204000000004,-0.001712399999999,-0.0036229999999998,0,sub_17
-0.0055884000000001,-0.0001851999999987,-0.0080403999999999,0.0020662000000004,-0.001491999999999,-0.0034173999999998,0,sub_17
-0.0051926000000001,0.0002402000000012,-0.0087045999999999,-0.0004815999999995,0.0025658000000009,-0.0023739999999998,0,sub_17
-0.0054282000000001,0.0013418000000012,-0.0088013999999999,-0.0026103999999995,0.0053420000000009,-0.0008987999999998,0,sub_17
-0.0053460000000001,0.0025946000000012,-0.0091399999999999,-0.0028245999999995,0.0055600000000009,-0.0006889999999998,0,sub_17
-0.0058772000000001,0.0032924000000012,-0.0095531999999999,-0.0019729999999995,0.0051308000000009,-0.0006823999999998,0,sub_17
-0.0073584000000001,0.0025612000000012,-0.0095621999999999,-0.0002783999999995,0.0027794000000009,-0.0002403999999999,0,sub_17
-0.0087346000000001,0.0011710000000012,-0.0090947999999999,0.0020548000000004,0.0004336000000009,0.0002054,0,sub_17
-0.0085808000000002,0.0004196000000012,-0.0091875999999999,0.0020456000000004,-0.000414399999999,0.0010602,0,sub_17
-0.0084468000000002,-0.0004955999999987,-0.0088007999999999,0.0005476000000004,0.0006570000000009,0.002757,0,sub_17
-0.0082518000000002,-0.0013219999999987,-0.0078641999999999,-0.0005235999999995,0.0008782000000009,0.003603,0,sub_17
-0.0072204000000002,-0.0010231999999987,-0.0067953999999999,-0.0007365999999995,0.0006762000000009,0.0029602000000001,0,sub_17
-0.0060760000000002,-2.079999999880875e-05,-0.0067545999999999,-0.0005299999999995,-0.001876799999999,0.0018968000000001,0,sub_17
-0.0066158000000001,-0.0005291999999988,-0.0064477999999999,0.0020162000000004,-0.006566799999999,0.0004252000000001,0,sub_17
-0.0072186000000001,-0.0007951999999988,-0.0059447999999999,0.0041374000000004,-0.010404799999999,-0.0006233999999998,0,sub_17
-0.0091434000000001,-0.0019067999999987,-0.0074113999999999,0.0037068000000004,-0.010831199999999,-0.0001983999999998,0,sub_17
-0.0072324000000001,-0.0021999999999987,-0.0087239999999999,0.0032608000000004,-0.013817199999999,0.0012974000000001,0,sub_17
-0.0074718000000001,-0.0022487999999987,-0.0106187999999999,0.0005118000000004,-0.007843599999999,0.0019110000000001,0,sub_17
-0.0060458000000002,-0.0005651999999987,-0.0106785999999999,-0.0024487999999995,-0.001230799999999,0.0027360000000001,0,sub_17
-0.0050610000000002,0.0003332000000012,-0.0108475999999999,-0.0041327999999994,0.0041008000000009,0.0031444,0,sub_17
-0.0033498000000002,0.0014866000000011,-0.0097633999999998,-0.0026345999999995,0.0043124000000009,0.0025132,0,sub_17
-0.0058380000000002,0.0009646000000011,-0.0090637999999998,-0.0021763999999995,0.0094318000000009,0.0005872,0,sub_17
-0.0065070000000002,0.0001662000000011,-0.0077705999999998,-0.0009019999999995,0.0073002000000009,-0.0002555999999999,0,sub_17
-0.0081514000000002,-0.0010799999999988,-0.0072961999999998,-5.89999999995486e-05,0.0049536000000009,-0.0002467999999999,0,sub_17
-0.0075116000000002,-0.0001819999999987,-0.0087347999999998,-0.0021839999999995,0.0073122000000009,0.000158,0,sub_17
-0.0070894000000002,0.0004100000000012,-0.0095105999999999,-0.0051557999999995,0.0111652000000009,0.000555,0,sub_17
-0.0076428000000002,0.0013778000000012,-0.0089739999999999,-0.0064377999999995,0.0120260000000009,0.0018222,0,sub_17
-0.0071448000000002,0.0022030000000012,-0.0078741999999999,-0.0058041999999995,0.0109662000000009,0.0022506,0,sub_17
-0.0058098000000002,0.0030306000000012,-0.0085229999999999,-0.0051631999999995,0.0107618000000009,0.0018234,0,sub_17
-0.0063912000000002,0.0022230000000012,-0.0073653999999999,-0.0030467999999995,0.0064950000000009,0.0014164000000001,0,sub_17
-0.0067134000000002,0.0014258000000012,-0.0061709999999999,-0.0007197999999995,0.0024370000000009,0.0018652000000001,0,sub_17
-0.0069174000000002,-0.0001625999999987,-0.0067987999999999,-0.0007285999999995,0.0009574000000008,0.0022890000000001,0,sub_17
-0.0071964000000001,-0.0006455999999987,-0.0068371999999999,-0.0009489999999995,0.0005410000000008,0.0033510000000001,0,sub_17
-0.0071808000000001,-0.0007477999999987,-0.0066815999999999,-0.0013815999999995,-0.0002979999999991,0.0037712000000001,0,sub_17
-0.0068486000000001,-0.0007909999999987,-0.0061681999999999,-0.0001139999999995,-0.0032709999999991,0.0035650000000001,0,sub_17
-0.0063726000000001,-0.0001653999999987,-0.0064611999999999,0.0022156000000004,-0.0083739999999991,0.0023006000000001,0,sub_17
-0.0029362000000001,0.0035378000000012,-0.0060309999999999,0.0053864000000004,-0.015838799999999,0.0014778000000001,0,sub_17
-0.0055108000000002,0.0016584000000012,-0.0043497999999999,0.0100404000000004,-0.023954599999999,0.0023752000000001,0,sub_17
-0.0059650000000002,0.0003684000000012,-0.0038201999999999,0.0123644000000004,-0.029712799999999,0.0017580000000001,0,sub_17
-0.0072962000000001,-0.0012151999999987,-0.0046531999999999,0.0117214000000004,-0.029498999999999,0.0028190000000001,0,sub_17
-0.0059786000000001,-0.0013171999999987,-0.0051357999999999,0.0083440000000004,-0.021389199999999,0.0029964000000001,0,sub_17
-0.0065850000000001,-0.0029103999999988,-0.0060903999999999,0.0047792000000004,-0.009435799999999,0.0012446000000001,0,sub_17
-0.0043182000000001,-0.0006173999999988,-0.0073591999999999,0.0007904000000004,0.0008240000000009,-0.0028579999999998,0,sub_17
-0.0044278000000001,0.0007860000000011,-0.0075043999999999,-0.0006627999999995,0.0074452000000009,-0.0050153999999998,0,sub_17
-0.0038432000000002,0.0022736000000011,-0.0065395999999999,0.0006386000000004,0.0093694000000009,-0.0077859999999998,0,sub_17
-0.0055314000000002,0.0014328000000011,-0.0061597999999998,0.0027618000000004,0.0065940000000009,-0.0081947999999998,0,sub_17
-0.0068298000000002,-0.0002359999999988,-0.0054633999999998,0.0042160000000004,0.0004000000000009,-0.0056127999999998,0,sub_17
-0.0056332000000001,-0.0005791999999988,-0.0067085999999998,0.0022908000000004,0.0016756000000009,-0.0032775999999998,0,sub_17
-0.0047916000000001,-0.0009649999999988,-0.0069697999999998,-5.419999999958809e-05,0.0042472000000009,-0.0018059999999998,0,sub_17
-0.0043074000000001,-0.0005255999999987,-0.0073519999999998,-0.0013283999999995,0.0059694000000009,-0.0020349999999998,0,sub_17
-0.0037398000000001,0.0007854000000012,-0.0073383999999998,-0.0004775999999995,0.0042814000000009,-0.0037403999999998,0,sub_17
-0.0051494000000001,0.0017784000000012,-0.0076839999999998,0.0016564000000004,0.0023792000000009,-0.0062909999999998,0,sub_17
-0.0063862000000002,0.0020332000000012,-0.0079161999999998,0.0044084000000004,-0.003364399999999,-0.0077641999999998,0,sub_17
-0.0074178000000002,0.0023528000000012,-0.0089471999999999,0.0058896000000004,-0.005714999999999,-0.0073235999999998,0,sub_17
-0.0079072000000001,0.0023200000000012,-0.0100151999999999,0.0041778000000004,-0.004652199999999,-0.0052005999999998,0,sub_17
-0.0088104000000001,0.0025720000000011,-0.0104509999999999,0.0011948000000004,-0.001245999999999,-0.0020271999999999,0,sub_17
-0.0096234000000001,0.0022382000000011,-0.0110805999999999,-0.0015729999999995,0.0019490000000009,0.000507,0,sub_17
-0.0085678000000001,0.0037050000000011,-0.0095943999999999,-0.0009555999999995,-0.001471599999999,0.0028596,0,sub_17
-0.0072576000000001,0.0027636000000011,-0.0097773999999999,0.0007460000000004,-0.003607399999999,0.0026544,0,sub_17
-0.0058156000000002,0.0024684000000011,-0.0083791999999999,0.0032962000000004,-0.008296999999999,0.000963,0,sub_17
-0.0039014000000002,0.0014902000000012,-0.0068687999999999,0.0060624000000004,-0.011708599999999,-0.0007223999999998,0,sub_17
-0.0027774000000001,-2.7799999998769086e-05,-0.0048079999999998,0.0083980000000004,-0.015758799999999,-0.0021963999999998,0,sub_17
-0.0031194000000001,-0.0031815999999987,-0.0044857999999998,0.0086278000000004,-0.013623199999999,-0.0036929999999998,0,sub_17
-0.0032720000000001,-0.0029725999999987,-0.0030479999999998,0.0077694000000004,-0.014473399999999,-0.0034841999999998,0,sub_17
-0.0049858000000001,-0.0025463999999987,-0.0034069999999998,0.0064996000000004,-0.012356399999999,-0.0020085999999998,0,sub_17
-0.0068092000000001,-0.0024677999999987,-0.0054607999999998,0.0033132000000004,-0.008531799999999,0.0003058000000001,0,sub_17
-0.0066416000000002,-0.0012769999999988,-0.0057045999999998,-0.0005045999999995,-0.003423999999999,0.0019732000000001,0,sub_17
-0.0067058000000002,0.0001660000000011,-0.0065251999999998,-0.0022059999999995,-0.002158599999999,0.0036604000000001,0,sub_17
-0.0066080000000002,0.0005178000000011,-0.0068283999999998,-0.0017735999999995,-0.002385999999999,0.0038690000000001,0,sub_17
-0.0056434000000002,-0.0003461999999987,-0.0065713999999998,0.0001448000000004,-0.004092199999999,0.0026026000000001,0,sub_17
-0.0048040000000002,-0.0004555999999987,-0.0053583999999999,0.0035540000000004,-0.008140199999999,-0.0003593999999998,0,sub_17
-0.0045564000000002,-0.0012707999999987,-0.0057087999999999,0.0069598000000004,-0.011529199999999,-0.0033325999999998,0,sub_17
-0.0044496000000001,-0.0022159999999987,-0.0059245999999999,0.0067574000000004,-0.010007799999999,-0.0056963999999998,0,sub_17
-0.0053478000000001,-0.0024425999999987,-0.0063997999999999,0.0042070000000004,-0.006144799999999,-0.0055159999999998,0,sub_17
-0.0057822000000001,-0.0017609999999987,-0.0067801999999999,0.0012252000000004,-0.002072199999999,-0.0040567999999998,0,sub_17
-0.0061776000000001,-0.0009827999999988,-0.0071625999999998,-0.0015471999999995,0.0011472000000009,-0.0025951999999998,0,sub_17
-0.0057744000000001,0.0007330000000011,-0.0080337999999998,-0.0026121999999995,0.0028502000000009,-0.0013229999999998,0,sub_17
-0.0063064000000002,0.0018318000000011,-0.0085221999999998,-0.0011203999999995,0.0022066000000009,-0.0015253999999998,0,sub_17
-0.0056354000000002,0.0025122000000011,-0.0083075999999998,0.0018620000000004,-0.000566799999999,-0.0032101999999998,0,sub_17
-0.0056326000000002,0.0023942000000011,-0.0081569999999998,0.0048320000000004,-0.004394199999999,-0.0053189999999998,0,sub_17
-0.0050670000000002,0.0019484000000011,-0.0080281999999998,0.0067344000000004,-0.007157599999999,-0.0061545999999998,0,sub_17
-0.0052828000000002,0.0016340000000011,-0.0081517999999998,0.0073632000000004,-0.007151799999999,-0.0057207999999998,0,sub_17
-0.0040786000000002,0.0022906000000011,-0.0087499999999998,0.0060716000000004,-0.005866199999999,-0.0040201999999998,0,sub_17
-0.0044944000000002,0.0018968000000012,-0.0090513999999998,0.0035086000000004,-0.002021999999999,-0.0016907999999998,0,sub_17
-0.0045418000000002,0.0016132000000012,-0.0092753999999998,0.0013788000000004,0.0011720000000009,0.0006404000000001,0,sub_17
-0.0061312000000002,0.0010454000000012,-0.0097433999999999,-0.0001119999999995,0.0030896000000009,0.0019094000000001,0,sub_17
-0.0068474000000002,0.0004496000000012,-0.0095405999999999,-0.0013911999999995,0.0035192000000009,0.0021134000000001,0,sub_17
-0.0079922000000002,0.0002384000000011,-0.0093869999999999,-0.0020425999999995,0.0037442000000009,0.002118,0,sub_17
-0.0082972000000002,0.0008688000000011,-0.0094189999999999,-0.0014195999999995,0.0024740000000009,0.0019198,0,sub_17
-0.0088106000000002,0.0014162000000011,-0.0095809999999999,-0.0016489999999995,0.0020564000000008,0.0023554,0,sub_17
-0.0078912000000002,0.0014154000000011,-0.0094639999999999,-0.0018773999999995,0.0022764000000009,0.0032176,0,sub_17
-0.0077320000000002,0.0012742000000011,-0.0093691999999999,-0.0023163999999995,0.0031364000000008,0.0040776,0,sub_17
-0.0071524000000002,0.0007580000000012,-0.0082823999999999,-0.0029555999999995,0.0039882000000008,0.004713,0,sub_17
-0.0068048000000002,-0.0001445999999987,-0.0078187999999999,-0.0035975999999995,0.0039888000000008,0.0051358,0,sub_17
-0.0058422000000002,-0.0009493999999987,-0.0079671999999999,-0.0038091999999995,0.0039914000000008,0.004707,0,sub_17
-0.0051310000000002,-0.0005465999999987,-0.0071199999999999,-0.0035957999999995,0.0031418000000008,0.003855,0,sub_17
-0.0045470000000002,-0.0007019999999987,-0.0063167999999999,-0.0027657999999995,0.0021028000000008,0.0036574,0,sub_17
-0.0045704000000001,-0.0011253999999987,-0.0061981999999999,-0.0019357999999995,0.0006396000000009,0.003033,0,sub_17
-0.0038808000000001,-0.0010207999999987,-0.0060157999999999,-0.0013143999999995,0.0002422000000009,0.0024058,0,sub_17
-0.0044426000000001,-0.0011333999999987,-0.0050499999999999,-0.0009091999999995,5.52000000009197e-05,0.0026314,0,sub_17
-0.0056060000000001,-0.0023353999999987,-0.0050101999999998,-0.0002889999999995,0.0002936000000009,0.002858,0,sub_17
-0.0062346000000001,-0.0032761999999987,-0.0049413999999998,0.0001328000000004,-0.001197599999999,0.0024356,0,sub_17
-0.0058780000000002,-0.0033019999999987,-0.0051119999999998,0.0011938000000004,-0.003116399999999,0.0018046000000001,0,sub_17
-0.0063026000000002,-0.0033105999999987,-0.0047831999999998,0.0026600000000004,-0.006065599999999,0.0007578000000001,0,sub_17
-0.0064764000000002,-0.0029815999999987,-0.0048985999999998,0.0049778000000004,-0.010080399999999,-0.0009225999999998,0,sub_17
-0.0056536000000002,-0.0021131999999987,-0.0054049999999998,0.0068682000000004,-0.014094599999999,-0.0023925999999998,0,sub_17
-0.0075114000000002,-0.0033409999999987,-0.0060629999999998,0.0095958000000004,-0.020248199999999,-0.0023583999999998,0,sub_17
-0.0081334000000002,-0.0045165999999987,-0.0072493999999998,0.0080924000000004,-0.019139799999999,-0.0032175999999998,0,sub_17
