userAcceleration.x,userAcceleration.y,userAcceleration.z,rotationRate.x,rotationRate.y,rotationRate.z,label,subject
-0.0258334000000001,-0.0102267999999987,-0.0086713999999999,-0.0142867999999996,-0.0028369999999991,0.0043776000000001,0,sub_14
-0.0222142000000001,-0.0114119999999987,-0.0078523999999998,-0.0104373999999996,-0.0003181999999991,0.0074090000000001,0,sub_14
-0.0203052000000001,-0.0126191999999987,-0.0077095999999998,-0.0066005999999996,8.940000000087506e-05,0.0087172000000001,0,sub_14
-0.0201166000000001,-0.0131995999999987,-0.0075913999999999,-0.0061787999999996,-0.0011893999999991,0.0085082000000001,0,sub_14
-0.0208530000000001,-0.0136203999999987,-0.0070761999999999,-0.0076665999999996,-0.0018155999999991,0.0065758000000001,0,sub_14
-0.0220460000000001,-0.0138755999999987,-0.0059885999999999,-0.0089343999999996,-0.0024365999999991,0.0031494000000001,0,sub_14
-0.0226232000000001,-0.0149089999999987,-0.0043341999999999,-0.0089005999999996,-0.0022237999999991,-0.0013131999999998,0,sub_14
-0.0229504000000001,-0.0168097999999987,-0.0041123999999999,-0.0060805999999996,0.0011734000000008,-0.0053329999999998,0,sub_14
-0.0233306000000001,-0.0183453999999987,-0.0051283999999999,-0.0009163999999996,0.0051964000000008,-0.0080553999999998,0,sub_14
-0.0250536000000001,-0.0182509999999987,-0.0066779999999999,0.0053050000000002,0.0081462000000008,-0.0097007999999998,0,sub_14
-0.0269976000000001,-0.0169531999999987,-0.0080143999999999,0.0098080000000002,0.0098186000000008,-0.0100745999999998,0,sub_14
-0.0291354000000001,-0.0142293999999987,-0.0100709999999999,0.0119368000000002,0.0095948000000008,-0.0092047999999998,0,sub_14
-0.0306958000000001,-0.0109159999999987,-0.0106289999999999,0.0123510000000003,0.0072480000000008,-0.0087715999999998,0,sub_14
-0.0307414000000001,-0.0076527999999987,-0.0102279999999999,0.0121290000000003,0.0053314000000008,-0.0087705999999998,0,sub_14
-0.0293644000000001,-0.0056633999999987,-0.0107615999999999,0.0114850000000003,0.0040570000000008,-0.0092005999999998,0,sub_14
-0.0285822000000001,-0.0049877999999987,-0.0127255999999999,0.0091338000000003,0.0021220000000008,-0.0076939999999998,0,sub_14
-0.0287042000000001,-0.0050057999999987,-0.0122441999999999,0.0044230000000003,-0.0008769999999991,-0.0044933999999998,0,sub_14
-0.0289020000000001,-0.0049845999999987,-0.0111615999999999,-0.0013545999999996,-0.0023867999999991,0.0001934000000001,0,sub_14
-0.0293326000000001,-0.0055641999999987,-0.0096807999999999,-0.0064863999999996,-0.0026205999999991,0.0048830000000001,0,sub_14
-0.0295464000000001,-0.0087179999999987,-0.0083861999999999,-0.0099083999999996,-0.0022209999999991,0.0095836000000001,0,sub_14
-0.0295652000000001,-0.0119723999999987,-0.0065829999999999,-0.0107685999999996,-0.0011629999999991,0.0121400000000001,0,sub_14
-0.0292294000000001,-0.0147659999999987,-0.0068295999999999,-0.0092633999999996,0.0009640000000008,0.0117204000000001,0,sub_14
-0.0284028000000001,-0.0166905999999987,-0.0068673999999999,-0.0045645999999996,0.0015930000000008,0.0081330000000001,0,sub_14
-0.0277192000000001,-0.0177355999999987,-0.0076807999999999,0.0016308000000003,0.0009460000000008,0.0026350000000001,0,sub_14
-0.0266636000000001,-0.0155263999999987,-0.0078851999999999,0.0071880000000003,-0.0001213999999991,-0.0037213999999998,0,sub_14
-0.0253238000000001,-0.0132811999999987,-0.0078969999999999,0.0118906000000003,-0.0007621999999991,-0.0094435999999998,0,sub_14
-0.0244486000000001,-0.0110577999999987,-0.0080123999999999,0.0153044000000003,-0.0014061999999991,-0.0132517999999998,0,sub_14
-0.0240644000000001,-0.0095319999999987,-0.0090345999999999,0.0150938000000003,-0.0014029999999991,-0.0138941999999998,0,sub_14
-0.0237750000000001,-0.0080745999999987,-0.0090625999999999,0.0123084000000003,-0.0020399999999991,-0.0119899999999998,0,sub_14
-0.0242078000000001,-0.0077553999999987,-0.0084345999999999,0.0084522000000003,-0.002464799999999,-0.0090253999999998,0,sub_14
-0.0249880000000001,-0.0077479999999987,-0.0078869999999999,0.0035088000000003,-0.002254399999999,-0.0054169999999998,0,sub_14
-0.0259306000000001,-0.0077113999999987,-0.0080949999999999,-0.0007937999999996,-0.0014087999999991,-0.0013775999999998,0,sub_14
-0.0277984000000001,-0.0077421999999986,-0.0084163999999999,-0.0053075999999996,-0.0003483999999991,0.0024464000000001,0,sub_14
-0.0293896000000001,-0.0089171999999986,-0.0090705999999999,-0.0093909999999996,0.0009260000000008,0.0056322,0,sub_14
-0.0304516000000001,-0.0102533999999986,-0.0094011999999999,-0.0121939999999996,0.0017716000000008,0.0084002,0,sub_14
-0.0305360000000001,-0.0113385999999986,-0.0092939999999999,-0.0126265999999996,0.0021924000000008,0.0101058000000001,0,sub_14
-0.0297092000000001,-0.0128897999999987,-0.0089707999999999,-0.0117701999999996,0.0026164000000008,0.0098976000000001,0,sub_14
-0.0282442000000001,-0.0141929999999987,-0.0083267999999999,-0.0087743999999996,0.0026136000000008,0.0079958000000001,0,sub_14
-0.0274314000000001,-0.0146081999999987,-0.0078417999999999,-0.0051337999999996,0.0021844000000008,0.0052458000000001,0,sub_14
-0.0276226000000001,-0.0145979999999987,-0.0080453999999998,-0.0008559999999996,0.0013262000000008,0.0027144000000001,0,sub_14
-0.0287920000000001,-0.0143359999999987,-0.0084953999999998,0.0027806000000003,-0.0001673999999991,-0.0002477999999998,0,sub_14
-0.0296950000000001,-0.0139603999999987,-0.0088763999999998,0.0066306000000003,-0.001873999999999,-0.0034219999999998,0,sub_14
-0.0303238000000001,-0.0148883999999987,-0.0086897999999998,0.0113360000000003,-0.002945199999999,-0.0063773999999998,0,sub_14
-0.0294244000000001,-0.0158253999999987,-0.0085511999999998,0.0173228000000003,-0.002954999999999,-0.0091129999999998,0,sub_14
-0.0276906000000001,-0.0157219999999987,-0.0077135999999999,0.0233078000000003,-0.002754399999999,-0.0112077999999998,0,sub_14
-0.0253928000000001,-0.0143383999999987,-0.0071301999999998,0.0271438000000003,-0.001923999999999,-0.0120195999999998,0,sub_14
-0.0238700000000001,-0.0103609999999987,-0.0069849999999998,0.0260618000000003,-0.0006613999999991,-0.0100887999999998,0,sub_14
-0.0230586000000001,-0.0059537999999987,-0.0073781999999999,0.0196368000000003,0.0008244000000008,-0.0060591999999998,0,sub_14
-0.0234926000000001,-0.0024461999999987,-0.0072437999999999,0.0091452000000003,0.0018888000000008,0.0002926000000001,0,sub_14
-0.0247730000000001,-0.0012459999999987,-0.0079763999999999,-0.0034773999999996,0.0038120000000008,0.0068420000000001,0,sub_14
-0.0261622000000001,-0.0014481999999987,-0.0085047999999999,-0.0139527999999996,0.0051038000000008,0.0125356000000001,0,sub_14
-0.0280022000000001,-0.0058137999999987,-0.0083187999999999,-0.0195167999999996,0.0053210000000008,0.0163420000000001,0,sub_14
-0.0299258000000001,-0.0094713999999987,-0.0082653999999999,-0.0195301999999996,0.0038236000000008,0.0178392000000001,0,sub_14
-0.0315610000000001,-0.0120643999999987,-0.0086965999999999,-0.0148349999999996,0.0016862000000008,0.0155246000000001,0,sub_14
-0.0322372000000001,-0.0143289999999987,-0.0089695999999999,-0.0075755999999996,-0.0015221999999991,0.0106692000000001,0,sub_14
-0.0329060000000001,-0.0164547999999987,-0.0092227999999999,-0.0003085999999996,-0.0038749999999991,0.0049582000000001,0,sub_14
-0.0326812000000001,-0.0157669999999986,-0.0097569999999999,0.0063240000000003,-0.0053715999999991,-0.0011855999999998,0,sub_14
-0.0316992000000001,-0.0149093999999986,-0.0096559999999999,0.0104028000000003,-0.0047311999999991,-0.0067089999999998,0,sub_14
-0.0302348000000001,-0.0143755999999987,-0.0094429999999999,0.0114878000000003,-0.0034499999999991,-0.0101177999999998,0,sub_14
-0.0277778000000001,-0.0127463999999987,-0.0094217999999999,0.0106506000000003,-0.0008859999999991,-0.0111951999999998,0,sub_14
-0.0252300000000001,-0.0123029999999987,-0.0083167999999999,0.0083074000000003,0.0010356000000008,-0.0101457999999998,0,sub_14
-0.0224362000000001,-0.0113379999999987,-0.0069681999999999,0.0046772000000003,0.0027432000000008,-0.0078231999999998,0,sub_14
-0.0200568000000001,-0.0103809999999987,-0.0069481999999999,0.0008250000000003,0.0033830000000008,-0.0046461999999998,0,sub_14
-0.0184682000000001,-0.0103785999999987,-0.0065469999999999,-0.0022023999999996,0.0027340000000008,-0.0001637999999998,0,sub_14
-0.0199608000000001,-0.0108289999999987,-0.0058219999999999,-0.0041695999999996,0.0008020000000008,0.0045414000000001,0,sub_14
-0.0230688000000001,-0.0104599999999987,-0.0069311999999999,-0.0044231999999996,-0.000705599999999,0.0081896000000001,0,sub_14
-0.0261206000000001,-0.0110629999999987,-0.0088597999999999,-0.0027487999999996,-0.002000799999999,0.0103554000000001,0,sub_14
-0.0289710000000001,-0.0117843999999987,-0.0096411999999999,0.0002136000000003,-0.002869399999999,0.0112478000000001,0,sub_14
-0.0318792000000001,-0.0116003999999987,-0.0108943999999999,0.0029894000000003,-0.002877399999999,0.0108400000000001,0,sub_14
-0.0327618000000001,-0.0108587999999987,-0.0119245999999999,0.0042838000000003,-0.002450999999999,0.0087116000000001,0,sub_14
-0.0318674000000001,-0.0100775999999987,-0.0111385999999999,0.0051506000000003,-0.0024483999999991,0.0063672000000001,0,sub_14
-0.0308486000000001,-0.0097769999999987,-0.0097797999999999,0.0036654000000003,-0.0024417999999991,0.0050746000000001,0,sub_14
-0.0294924000000001,-0.0103187999999987,-0.0089429999999999,0.0015352000000003,-0.0028615999999991,0.0044190000000001,0,sub_14
-0.0277834000000001,-0.0107993999999987,-0.0081757999999999,-0.0003757999999996,-0.0026405999999991,0.0031232000000001,0,sub_14
-0.0262066000000001,-0.0117991999999987,-0.0076137999999998,-0.0003719999999996,-0.0022127999999991,0.0026954000000001,0,sub_14
-0.0247840000000001,-0.0123813999999987,-0.0076535999999998,6.040000000038844e-05,-0.0017847999999991,0.0018434000000001,0,sub_14
-0.0241306000000001,-0.0125637999999987,-0.0079199999999998,0.0011350000000003,-0.001569599999999,0.0003552000000001,0,sub_14
-0.0241312000000001,-0.0119033999999987,-0.0075489999999998,0.0015694000000003,-0.001564399999999,-0.0013507999999998,0,sub_14
-0.0241026000000001,-0.0117261999999987,-0.0077213999999998,0.0015492000000003,-0.001559199999999,-0.0028347999999998,0,sub_14
-0.0245660000000001,-0.0115127999999987,-0.0078903999999999,0.0004614000000003,-0.001551199999999,-0.0041123999999998,0,sub_14
-0.0255388000000001,-0.0116427999999987,-0.0082355999999999,-0.0008435999999996,-0.001333599999999,-0.0043237999999998,0,sub_14
-0.0266234000000001,-0.0119203999999987,-0.0081241999999999,-0.0010789999999996,-0.000692799999999,-0.0047417999999998,0,sub_14
-0.0271940000000001,-0.0121703999999987,-0.0084203999999999,0.0001850000000003,0.0007968000000009,-0.0055777999999998,0,sub_14
-0.0278986000000001,-0.0120439999999987,-0.0080841999999999,0.0025408000000003,0.0018574000000008,-0.0064171999999998,0,sub_14
-0.0279852000000001,-0.0119965999999987,-0.0077777999999999,0.0048926000000003,0.0027022000000008,-0.0066155999999998,0,sub_14
-0.0284090000000001,-0.0119161999999987,-0.0079025999999999,0.0061738000000003,0.0029108000000008,-0.0066067999999998,0,sub_14
-0.0287008000000001,-0.0113751999999987,-0.0086289999999999,0.0057318000000003,0.0026900000000008,-0.0051237999999998,0,sub_14
-0.0290922000000001,-0.0106859999999987,-0.0092617999999999,0.0046468000000003,0.0020444000000008,-0.0034311999999998,0,sub_14
-0.0295204000000001,-0.0103307999999987,-0.0100801999999999,0.0035636000000003,0.0016126000000008,-0.0019525999999998,0,sub_14
-0.0296792000000001,-0.0095035999999987,-0.0098769999999999,0.0029110000000003,0.0011830000000008,-0.0013253999999998,0,sub_14
-0.0291202000000001,-0.0089891999999987,-0.0099481999999999,0.0026890000000003,0.0011796000000008,-0.0011231999999998,0,sub_14
-0.0277916000000001,-0.0091665999999987,-0.0097479999999999,0.0026860000000003,0.0007526000000008,-0.0009091999999998,0,sub_14
-0.0270942000000001,-0.0097293999999986,-0.0090923999999999,0.0016096000000003,-0.0001009999999991,0.0003664000000001,0,sub_14
-0.0263574000000001,-0.0104323999999986,-0.0084931999999999,-0.0005383999999996,-0.0013793999999991,0.0022758000000001,0,sub_14
-0.0266658000000001,-0.0109853999999987,-0.0092451999999999,-0.0024867999999996,-0.0024463999999991,0.0041886000000001,0,sub_14
-0.0270588000000001,-0.0113385999999987,-0.0088973999999999,-0.0033607999999995,-0.0028737999999991,0.0050400000000001,0,sub_14
-0.0274792000000001,-0.0116721999999987,-0.0082611999999999,-0.0023007999999996,-0.0022347999999991,0.0039808000000001,0,sub_14
-0.0266902000000001,-0.0120809999999987,-0.0088089999999999,-0.0008083999999996,-0.0015921999999991,0.0016424000000001,0,sub_14
-0.0259286000000001,-0.0122467999999987,-0.0089357999999998,0.0008972000000003,-0.0007381999999991,-0.0004807999999998,0,sub_14
-0.0256066000000001,-0.0118817999999987,-0.0084937999999998,0.0017602000000003,-9.619999999910488e-05,-0.0019711999999998,0,sub_14
-0.0246598000000001,-0.0109643999999987,-0.0083803999999998,0.0009086000000003,-0.0003035999999991,-0.0026177999999998,0,sub_14
-0.0246620000000001,-0.0111053999999987,-0.0085077999999998,-0.0025101999999996,-0.0011447999999991,-0.0024269999999998,0,sub_14
-0.0251010000000001,-0.0107751999999987,-0.0077399999999998,-0.0059349999999996,-0.0007057999999991,-0.0020375999999998,0,sub_14
-0.0259916000000001,-0.0103977999999987,-0.0070065999999999,-0.0078593999999996,0.0003706000000008,-0.0024931999999998,0,sub_14
-0.0267338000000001,-0.0104437999999987,-0.0069421999999998,-0.0087091999999996,0.0020868000000008,-0.0040101999999998,0,sub_14
-0.0280558000000001,-0.0111231999999987,-0.0074675999999999,-0.0082777999999996,0.0040114000000008,-0.0055185999999998,0,sub_14
-0.0288354000000001,-0.0107561999999987,-0.0079385999999999,-0.0065701999999996,0.0055038000000008,-0.0065901999999998,0,sub_14
-0.0296896000000001,-0.0108197999999987,-0.0094629999999999,-0.0046507999999996,0.0052842000000008,-0.0065763999999998,0,sub_14
-0.0301270000000001,-0.0108471999999987,-0.0106615999999999,-0.0040201999999996,0.0037880000000009,-0.0059291999999998,0,sub_14
-0.0300138000000001,-0.0111295999999987,-0.0108571999999999,-0.0040345999999996,0.0018654000000009,-0.0046449999999998,0,sub_14
-0.0303218000000001,-0.0111935999999987,-0.0109415999999999,-0.0042703999999996,0.0003750000000009,-0.0031603999999998,0,sub_14
-0.0306756000000001,-0.0116339999999987,-0.0109091999999999,-0.0042905999999996,-0.000689999999999,-0.0016747999999998,0,sub_14
-0.0311306000000001,-0.0120991999999986,-0.0100407999999999,-0.0038765999999996,-0.000688799999999,-0.0008283999999998,0,sub_14
-0.0308302000000001,-0.0120101999999987,-0.0090233999999999,-0.0028195999999996,0.0001616000000009,0.0002350000000001,0,sub_14
-0.0299996000000001,-0.0121511999999987,-0.0081483999999999,-0.0017663999999996,0.0005842000000008,0.0017262000000001,0,sub_14
-0.0284946000000001,-0.0127433999999987,-0.0078749999999999,-0.0015577999999996,0.0007914000000008,0.0030092000000001,0,sub_14
-0.0270944000000001,-0.0125761999999987,-0.0068225999999999,-0.0019923999999996,0.0007860000000009,0.0047152000000001,0,sub_14
-0.0261900000000001,-0.0119521999999987,-0.0066613999999999,-0.0024401999999996,0.0003564000000009,0.0064248000000001,0,sub_14
-0.0256902000000001,-0.0119541999999987,-0.0070879999999998,-0.0033135999999996,-7.079999999908478e-05,0.007918,0,sub_14
-0.0259990000000001,-0.0116251999999987,-0.0078215999999998,-0.0033287999999996,-0.000496799999999,0.0083488,0,sub_14
-0.0266880000000001,-0.0114441999999987,-0.0074031999999998,-0.0024885999999996,-0.001136399999999,0.008145,0,sub_14
-0.0272394000000001,-0.0116469999999987,-0.0078559999999998,-0.0014329999999996,-0.0013503999999991,0.0079422,0,sub_14
-0.0271720000000001,-0.0119383999999987,-0.0077257999999999,5.680000000034867e-05,-0.0022079999999991,0.0079538,0,sub_14
-0.0277612000000001,-0.0120057999999987,-0.0082699999999999,0.0015474000000003,-0.0028523999999991,0.007965,0,sub_14
-0.0281982000000001,-0.0120975999999987,-0.0084609999999999,0.0019702000000003,-0.0032817999999991,0.0083958000000001,0,sub_14
-0.0280810000000001,-0.0111923999999987,-0.0089705999999999,0.0021798000000003,-0.003497999999999,0.0090386000000001,0,sub_14
-0.0281598000000001,-0.0103399999999987,-0.0094533999999999,0.0028102000000003,-0.003922799999999,0.0084046000000001,0,sub_14
-0.0285534000000001,-0.0098941999999987,-0.0093449999999999,0.0028036000000003,-0.003493799999999,0.0079786000000001,0,sub_14
-0.0282568000000001,-0.0094485999999987,-0.0089635999999999,0.0023682000000003,-0.003065199999999,0.0079770000000001,0,sub_14
-0.0274756000000001,-0.0095019999999987,-0.0088933999999999,0.0019310000000003,-0.002850399999999,0.0081894000000001,0,sub_14
-0.0271480000000001,-0.0094597999999987,-0.0089715999999999,0.0017032000000003,-0.0030641999999991,0.0088310000000001,0,sub_14
-0.0265120000000001,-0.0096271999999987,-0.0084697999999999,0.0014842000000003,-0.0032807999999991,0.0098980000000001,0,sub_14
-0.0261970000000001,-0.0096627999999987,-0.0083879999999999,0.0010554000000003,-0.0032809999999991,0.0103224000000001,0,sub_14
-0.0257544000000001,-0.0099563999999987,-0.0083649999999999,0.0006258000000003,-0.003918599999999,0.0103202000000001,0,sub_14
-0.0257672000000001,-0.0098061999999987,-0.0084393999999999,-1.6599999999671304e-05,-0.004126599999999,0.0101056000000001,0,sub_14
-0.0259802000000001,-0.0100895999999987,-0.0081425999999999,-0.0006551999999996,-0.003694599999999,0.0096764000000001,0,sub_14
-0.0272100000000001,-0.0100283999999987,-0.0084371999999999,-0.0008651999999996,-0.003049999999999,0.0090364000000001,0,sub_14
-0.0274740000000001,-0.0102089999999987,-0.0092459999999999,-0.0006491999999996,-0.002620199999999,0.0083996000000001,0,sub_14
-0.0279862000000001,-0.0097653999999987,-0.0094353999999999,-7.999999996512533e-07,-0.001762399999999,0.0069108000000001,0,sub_14
-0.0280938000000001,-0.0095621999999987,-0.0092843999999999,0.0012890000000003,-0.001121599999999,0.0054234000000001,0,sub_14
-0.0280954000000001,-0.0094107999999987,-0.0095225999999999,0.0021540000000003,-0.000477799999999,0.0035058000000001,0,sub_14
-0.0272514000000001,-0.0095949999999987,-0.0097069999999999,0.0019484000000003,-0.000470399999999,0.0017952000000001,0,sub_14
-0.0271766000000001,-0.0093629999999987,-0.0091685999999999,0.0017502000000003,-0.000469399999999,0.0007370000000001,0,sub_14
-0.0271222000000001,-0.0095231999999987,-0.0086283999999998,0.0021864000000003,-0.000687799999999,0.0007518000000001,0,sub_14
-0.0272438000000001,-0.0094851999999987,-0.0087037999999998,0.0019824000000003,-0.001116399999999,0.0005488000000001,0,sub_14
-0.0274278000000001,-0.0099743999999987,-0.0089363999999998,0.0017746000000003,-0.0011237999999991,0.0016272000000001,0,sub_14
-0.0276960000000001,-0.0099731999999987,-0.0087753999999998,0.0019916000000003,-0.0011343999999991,0.0031358000000001,0,sub_14
-0.0282304000000001,-0.0101403999999987,-0.0088473999999999,0.0024182000000003,-0.0007113999999991,0.0035656000000001,0,sub_14
-0.0285828000000001,-0.0101729999999987,-0.0096047999999999,0.0015732000000003,0.0003602000000008,0.0027038000000001,0,sub_14
-0.0287348000000001,-0.0103935999999987,-0.0100359999999999,0.0013694000000003,0.0012182000000008,0.0014194000000001,0,sub_14
-0.0283414000000001,-0.0101353999999987,-0.0099315999999999,0.0013900000000003,0.0014340000000008,-7.579999999984188e-05,0,sub_14
-0.0280438000000001,-0.0101373999999987,-0.0097789999999999,0.0016250000000003,0.0020744000000008,-0.0013563999999998,0,sub_14
-0.0273210000000001,-0.0101689999999987,-0.0101329999999998,0.0009950000000003,0.0014344000000008,-0.0013595999999998,0,sub_14
-0.0268232000000001,-0.0106913999999987,-0.0101211999999998,0.0003584000000003,0.0003640000000008,-0.0002939999999998,0,sub_14
-0.0266150000000001,-0.0106973999999987,-0.0093941999999998,-0.0009213999999996,-0.0004943999999991,0.0016214000000001,0,sub_14
-0.0274894000000001,-0.0105599999999987,-0.0087349999999998,-0.0015699999999996,-0.0013485999999991,0.0026862000000001,0,sub_14
-0.0279802000000001,-0.0108177999999987,-0.0089667999999998,-0.0017843999999996,-0.0011365999999991,0.0031116000000001,0,sub_14
-0.0282402000000001,-0.0108341999999987,-0.0087771999999999,-0.0021985999999996,-0.0007033999999991,0.0024500000000001,0,sub_14
-0.0285356000000001,-0.0106097999999987,-0.0084275999999999,-0.0021843999999996,-0.0002697999999991,0.0013640000000001,0,sub_14
-0.0283852000000001,-0.0106265999999987,-0.0082217999999999,-0.0017421999999996,0.0001630000000008,6.740000000017808e-05,0,sub_14
-0.0270056000000001,-0.0108019999999987,-0.0085501999999999,-0.0010887999999996,0.0005934000000008,-0.0008003999999998,0,sub_14
-0.0262930000000001,-0.0103023999999987,-0.0086091999999999,-0.0015087999999996,-3.9399999999104987e-05,-0.0012469999999998,0,sub_14
-0.0265150000000001,-0.0098209999999987,-0.0084599999999999,-0.0015107999999996,-0.0004653999999991,-0.0012463999999998,0,sub_14
-0.0267682000000001,-0.0095205999999987,-0.0085755999999999,-0.0012973999999996,-0.0004661999999991,-0.0012449999999998,0,sub_14
-0.0272480000000001,-0.0092861999999987,-0.0090421999999999,-0.0008715999999996,-0.0004683999999991,-0.0010283999999998,0,sub_14
-0.0279540000000001,-0.0092261999999987,-0.0089887999999999,-0.0012965999999996,-0.0004581999999991,-0.0008499999999998,0,sub_14
-0.0284802000000001,-0.0095485999999987,-0.0085369999999999,-0.0015073999999996,-0.0006599999999991,-0.0010969999999998,0,sub_14
-0.0280250000000001,-0.0098001999999987,-0.0086193999999999,-0.0019313999999996,-0.0006489999999991,-0.0011321999999998,0,sub_14
-0.0282836000000001,-0.0096431999999987,-0.0086523999999999,-0.0023591999999996,-0.0010657999999991,-0.0007393999999998,0,sub_14
-0.0283200000000001,-0.0095049999999987,-0.0085489999999999,-0.0034215999999996,-0.0006265999999991,-0.0007793999999998,0,sub_14
-0.0288970000000001,-0.0092721999999986,-0.0085907999999999,-0.0044835999999996,-0.0001941999999991,-0.0014281999999998,0,sub_14
-0.0289502000000001,-0.0090619999999987,-0.0088135999999999,-0.0049073999999996,0.0002342000000008,-0.0016453999999998,0,sub_14
-0.0288030000000001,-0.0093813999999987,-0.0091891999999999,-0.0049025999999996,0.0006628000000008,-0.0022867999999998,0,sub_14
-0.0279574000000001,-0.0100267999999987,-0.0093215999999999,-0.0049007999999996,0.0004522000000008,-0.0029275999999998,0,sub_14
-0.0278330000000001,-0.0103359999999987,-0.0095655999999999,-0.0044787999999996,-0.0006027999999991,-0.0031703999999998,0,sub_14
-0.0270826000000001,-0.0102675999999987,-0.0095291999999999,-0.0038463999999996,-0.0016611999999991,-0.0027707999999998,0,sub_14
-0.0271252000000001,-0.0100961999999987,-0.0096147999999999,-0.0034205999999996,-0.0018639999999991,-0.0030143999999998,0,sub_14
-0.0273476000000001,-0.0093349999999986,-0.0092927999999999,-0.0029919999999996,-0.0018519999999991,-0.0036855999999998,0,sub_14
-0.0277336000000001,-0.0090477999999986,-0.0087385999999999,-0.0023459999999996,-0.0012005999999991,-0.0045695999999998,0,sub_14
-0.0276810000000001,-0.0097723999999986,-0.0085773999999999,-0.0012753999999996,-0.0003519999999991,-0.0045631999999998,0,sub_14
-0.0276292000000001,-0.0102341999999986,-0.0089197999999999,0.0002152000000003,-0.0001473999999991,-0.0036983999999998,0,sub_14
-0.0273786000000001,-0.0107749999999986,-0.0094661999999999,0.0008456000000003,-0.0007947999999991,-0.0021977999999998,0,sub_14
-0.0277240000000001,-0.0116077999999987,-0.0094171999999999,0.0010484000000003,-0.0010171999999991,-5.979999999986179e-05,0,sub_14
-0.0280024000000001,-0.0111035999999986,-0.0098821999999999,0.0012478000000003,-0.0010199999999991,0.0020530000000001,0,sub_14
-0.0281826000000001,-0.0102341999999986,-0.0092583999999999,0.0014568000000003,-0.0008019999999991,0.0022430000000001,0,sub_14
-0.0287940000000001,-0.0096413999999987,-0.0087739999999999,0.0006114000000003,0.0007040000000008,0.0009284000000001,0,sub_14
-0.0284802000000001,-0.0089441999999987,-0.0087673999999999,0.0001948000000003,0.0024224000000008,-0.0005969999999998,0,sub_14
-0.0276302000000001,-0.0085505999999986,-0.0090953999999999,-0.0004409999999996,0.0030756000000008,-0.0019089999999998,0,sub_14
-0.0267968000000001,-0.0088757999999987,-0.0094193999999999,-0.0017165999999996,0.0030844000000008,-0.0029859999999998,0,sub_14
-0.0265724000000001,-0.0086507999999987,-0.0104611999999999,-0.0032103999999996,0.0028828000000008,-0.0034419999999998,0,sub_14
-0.0262634000000001,-0.0085777999999987,-0.0106679999999999,-0.0040687999999996,0.0022502000000008,-0.0032519999999998,0,sub_14
-0.0268654000000001,-0.0089873999999987,-0.0105017999999999,-0.0049301999999996,0.0009786000000008,-0.0030611999999998,0,sub_14
-0.0279048000000001,-0.0090755999999987,-0.0097569999999999,-0.0047199999999996,0.0003440000000008,-0.0032909999999998,0,sub_14
-0.0286396000000001,-0.0088893999999987,-0.0089881999999999,-0.0038647999999996,0.0003480000000008,-0.0039445999999998,0,sub_14
-0.0284850000000001,-0.0094765999999987,-0.0083069999999999,-0.0036503999999996,0.0001358000000008,-0.0043699999999998,0,sub_14
-0.0287084000000001,-0.0105941999999987,-0.0087117999999999,-0.0032235999999996,-0.0002901999999991,-0.0047937999999998,0,sub_14
-0.0285514000000001,-0.0112537999999987,-0.0081335999999998,-0.0017299999999996,-0.0002953999999991,-0.0047833999999998,0,sub_14
-0.0277296000000001,-0.0115631999999987,-0.0084441999999998,-0.0002391999999996,-0.0005153999999991,-0.0043453999999998,0,sub_14
-0.0269790000000001,-0.0121949999999987,-0.0084945999999998,0.0012532000000003,-0.0007325999999991,-0.0037037999999998,0,sub_14
-0.0276288000000001,-0.0124427999999987,-0.0085119999999998,0.0027416000000002,-0.0011653999999991,-0.0024211999999998,0,sub_14
