userAcceleration.x,userAcceleration.y,userAcceleration.z,rotationRate.x,rotationRate.y,rotationRate.z,label,subject
0.0027019999999997,0.0083206000000012,-0.0074219999999999,0.0009244000000004,-0.001731799999999,0.0030118,0,sub_14
0.0025107999999997,0.0077116000000012,-0.0069969999999999,7.760000000046441e-05,-0.000661799999999,0.0025772,0,sub_14
0.0016647999999997,0.0071508000000011,-0.0075297999999999,-0.0005585999999995,0.0004048000000009,0.002785,0,sub_14
-0.0005862000000002,0.0070968000000011,-0.0079079999999999,-0.0009805999999995,0.0021082000000009,0.0034208,0,sub_14
-0.0022416000000001,0.0071104000000011,-0.0081697999999998,-0.0009795999999995,0.0036012000000009,0.0038534,0,sub_14
-0.0028488000000001,0.0072484000000011,-0.0087351999999998,-0.0007679999999995,0.0038178000000009,0.0036482,0,sub_14
-0.0023990000000001,0.0070256000000011,-0.0095137999999998,0.0003008000000004,0.0040348000000009,0.0025944,0,sub_14
-0.0018852000000001,0.0067906000000011,-0.0089327999999998,0.0009466000000004,0.0044688000000009,0.0008964,0,sub_14
-0.0007890000000001,0.0056956000000011,-0.0084115999999998,0.0018030000000004,0.0042630000000009,-0.0007991999999999,0,sub_14
-5.3600000000187806e-05,0.0060202000000011,-0.0093091999999999,0.0030862000000004,0.0042610000000009,-0.0014311999999999,0,sub_14
0.0001523999999997,0.0067718000000012,-0.0096021999999999,0.0039444000000004,0.0048990000000009,-0.0018531999999999,0,sub_14
-0.0004722000000002,0.0074878000000012,-0.0097175999999999,0.0030870000000004,0.0042620000000009,-0.0016447999999999,0,sub_14
-0.0005482000000002,0.0080028000000012,-0.0104513999999999,0.0024392000000004,0.0031964000000009,-0.0010069999999999,0,sub_14
-0.0004648000000002,0.0084540000000012,-0.0103949999999999,0.0013546000000004,0.0019162000000009,-0.0003711999999999,0,sub_14
-0.0004242000000002,0.0070396000000012,-0.0094193999999999,0.0002728000000004,0.0008508000000009,-0.0001629999999999,0,sub_14
-0.0002988000000002,0.0062700000000012,-0.0088469999999999,4.460000000042447e-05,0.0002066000000009,0.000478,0,sub_14
-0.0005206000000002,0.0063146000000011,-0.0082939999999999,0.0002470000000004,0.0006254000000009,0.0013344,0,sub_14
-0.0011890000000002,0.0064720000000011,-0.0081895999999999,0.0006648000000004,0.0010454000000009,0.0017647999999999,0,sub_14
-0.0014282000000002,0.0071662000000011,-0.0086005999999999,0.0013078000000004,0.0014700000000009,0.0015552,0,sub_14
-0.0007536000000002,0.0082046000000011,-0.0089999999999999,0.0013116000000004,0.0014734000000009,0.0007008,0,sub_14
-0.0010140000000002,0.0081486000000011,-0.0086169999999999,0.0011002000000004,0.0012638000000009,5.860000000001689e-05,0,sub_14
-0.0009262000000002,0.0080450000000012,-0.0087403999999998,0.0010968000000004,0.0012492000000009,-0.0005793999999999,0,sub_14
-0.0011860000000002,0.0076354000000011,-0.0077527999999998,0.0017382000000004,0.0029340000000009,-0.0005739999999999,0,sub_14
-0.0026172000000002,0.0085046000000011,-0.0063743999999998,0.0028190000000004,0.0078114000000009,-0.0001423999999999,0,sub_14
-0.0027730000000002,0.0117898000000011,-0.0062613999999998,0.0034960000000004,0.0148328000000009,-0.0027075999999999,0,sub_14
0.0002837999999997,0.0147658000000011,-0.0087017999999998,0.0013980000000004,0.0174068000000009,-0.0095591999999999,0,sub_14
0.0034393999999997,0.0151168000000011,-0.0104263999999999,-0.0034847999999995,0.0140508000000009,-0.0185621999999999,0,sub_14
0.0031617999999997,0.0128184000000012,-0.0109025999999999,-0.0105269999999995,0.0064354000000009,-0.0260791999999999,0,sub_14
0.0027043999999997,0.0086602000000012,-0.0117481999999999,-0.0163129999999995,-0.003327799999999,-0.0303799999999999,0,sub_14
0.0002873999999997,0.0028516000000012,-0.0118379999999999,-0.0200111999999995,-0.013988399999999,-0.0278381999999999,0,sub_14
-0.0044494000000001,-0.0018355999999987,-0.0103985999999999,-0.0196685999999995,-0.020643399999999,-0.0182231999999999,0,sub_14
-0.0075654000000001,-0.0032923999999987,-0.0095523999999998,-0.0159005999999995,-0.021994999999999,-0.0058135999999999,0,sub_14
-0.0059688000000002,-0.0013767999999987,-0.0103279999999998,-0.0114657999999995,-0.020354199999999,0.0036058,0,sub_14
-0.0023582000000002,0.0017912000000012,-0.0104093999999998,-0.0080795999999995,-0.019542199999999,0.008105,0,sub_14
0.0004769999999997,0.0051872000000012,-0.0094291999999998,-0.0050827999999995,-0.018270999999999,0.0072698,0,sub_14
0.0026385999999997,0.0083672000000012,-0.0075367999999998,-0.0031221999999995,-0.014846599999999,0.0017244,0,sub_14
0.0028433999999997,0.0110064000000012,-0.0065203999999998,-0.0024311999999995,-0.010771799999999,-0.0055397999999999,0,sub_14
0.0021235999999997,0.0130786000000012,-0.0060309999999998,-0.0015437999999995,-0.007561999999999,-0.0119611999999999,0,sub_14
0.0007415999999998,0.0137966000000012,-0.0064225999999998,-0.0030159999999995,-0.005203799999999,-0.0164749999999999,0,sub_14
-0.0002622000000001,0.0128780000000012,-0.0073681999999998,-0.0064315999999995,-0.004556799999999,-0.0175819999999999,0,sub_14
-0.0009362000000001,0.0111568000000012,-0.0083593999999999,-0.0102921999999995,-0.005197799999999,-0.0159129999999999,0,sub_14
-0.0013674000000001,0.0084856000000012,-0.0085705999999999,-0.0133079999999995,-0.006061799999999,-0.0125287999999999,0,sub_14
-0.0024840000000002,0.0067966000000012,-0.0089577999999998,-0.0152493999999995,-0.006498199999999,-0.0082687999999999,0,sub_14
-0.0029090000000002,0.0057780000000012,-0.0091647999999998,-0.0156933999999995,-0.007148599999999,-0.0050663999999999,0,sub_14
-0.0026250000000002,0.0048348000000012,-0.0090325999999998,-0.0146489999999995,-0.008025799999999,-0.0031439999999999,0,sub_14
-0.0025802000000002,0.0042900000000012,-0.0092255999999998,-0.0127443999999995,-0.008475599999999,-0.0022843999999999,0,sub_14
-0.0026514000000002,0.0045974000000011,-0.0095261999999998,-0.0099823999999995,-0.008075999999999,-0.0014197999999999,0,sub_14
-0.0016968000000002,0.0043452000000011,-0.0090771999999999,-0.0074309999999995,-0.006824399999999,-0.0003441999999999,0,sub_14
-0.0010566000000002,0.0038276000000011,-0.0085733999999999,-0.0046701999999995,-0.004515999999999,0.0026542,0,sub_14
-0.0006946000000002,0.0040762000000011,-0.0081479999999999,-0.0025393999999995,-0.001555199999999,0.0062972,0,sub_14
0.0003635999999997,0.0043030000000011,-0.0075409999999999,-0.0014811999999995,0.0005554000000009,0.0103612,0,sub_14
0.0006247999999997,0.0047580000000012,-0.0068921999999998,-0.0021299999999995,0.0026718000000009,0.0144132,0,sub_14
0.0004115999999997,0.0049666000000012,-0.0067857999999998,-0.0034229999999995,0.0052064000000009,0.017813,0,sub_14
-0.0003492000000002,0.0054640000000011,-0.0061035999999998,-0.0036431999999995,0.0085912000000009,0.0207919999999999,0,sub_14
-0.0011940000000002,0.0066480000000011,-0.0060297999999998,-0.0038605999999995,0.0128274000000009,0.0239836,0,sub_14
-0.0021312000000002,0.0092490000000011,-0.0064907999999998,-0.0038569999999995,0.0179184000000009,0.026321,0,sub_14
-0.0016946000000002,0.0111614000000011,-0.0070357999999998,-0.0036303999999995,0.0221686000000009,0.02567,0,sub_14
-0.0001818000000002,0.0128368000000011,-0.0077201999999998,-0.0031747999999995,0.0247392000000009,0.0218243999999999,0,sub_14
0.0032611999999997,0.0132396000000012,-0.0087065999999998,-0.0056987999999995,0.0249928000000009,0.0139016,0,sub_14
0.0052807999999997,0.0121782000000012,-0.0094253999999998,-0.0095115999999995,0.0216358000000009,0.0042652,0,sub_14
0.0035127999999997,0.0099674000000012,-0.0091611999999998,-0.0139769999999995,0.0157006000000009,-0.0034241999999999,0,sub_14
-0.0004152000000002,0.0082646000000012,-0.0096935999999999,-0.0180349999999995,0.0086858000000009,-0.0079047999999999,0,sub_14
-0.0051930000000002,0.0062910000000012,-0.0114525999999999,-0.0206185999999995,0.0016488000000009,-0.0081021999999999,0,sub_14
-0.0110846000000002,0.0052000000000011,-0.0127807999999999,-0.0197957999999995,-0.003284999999999,-0.0044327999999999,0,sub_14
-0.0145864000000002,0.0062546000000011,-0.0130231999999999,-0.0157581999999995,-0.0052463999999989,-0.0009583999999999,0,sub_14
-0.0142778000000002,0.0074230000000011,-0.0139217999999998,-0.0099961999999995,-0.0046289999999989,-0.0004917999999999,0,sub_14
-0.0113780000000001,0.0085932000000011,-0.0140369999999998,-0.0042205999999995,-0.0033631999999989,-0.0023757999999999,0,sub_14
-0.0078132000000001,0.0103930000000011,-0.0122237999999998,-0.0001473999999995,-0.0033603999999989,-0.0066201999999999,0,sub_14
-0.0029044000000002,0.0123950000000011,-0.0102393999999998,0.0028648000000004,-0.004409599999999,-0.0132207999999999,0,sub_14
0.0049283999999997,0.0109178000000011,-0.0080665999999998,0.0046182000000004,-0.005647599999999,-0.0195877999999999,0,sub_14
0.0128825999999997,0.0111082000000011,-0.0057155999999999,0.0063792000000004,-0.006029999999999,-0.0268103999999999,0,sub_14
0.0174201999999997,0.0132580000000011,-0.0034673999999998,0.0049444000000004,-0.005335799999999,-0.0340567999999999,0,sub_14
0.0164591999999997,0.0118582000000011,-0.0021403999999998,-0.0003375999999995,-0.001238999999999,-0.0364205999999999,0,sub_14
0.0128953999999997,0.0067362000000012,-0.0025845999999998,-0.0058657999999995,0.0030416000000009,-0.0313087999999999,0,sub_14
0.0053319999999997,0.0034480000000012,-0.0045391999999998,-0.0108019999999995,0.0081260000000009,-0.0198129999999999,0,sub_14
-0.0027398000000002,-0.0009429999999987,-0.0069115999999998,-0.0159823999999995,0.0110618000000009,-0.0036159999999999,0,sub_14
-0.0063210000000002,-0.0074899999999987,-0.0096825999999998,-0.0164397999999995,0.0142138000000009,0.0152142,0,sub_14
-0.0050206000000002,-0.0091495999999987,-0.0134719999999998,-0.0143531999999995,0.0103396000000009,0.0306528,0,sub_14
-0.0026156000000002,-0.0049035999999987,-0.0148917999999998,-0.0126769999999995,0.0039352000000009,0.0398962,0,sub_14
-0.0009776000000002,0.0006040000000012,-0.0146757999999998,-0.0116131999999995,-0.003715599999999,0.0416592,0,sub_14
0.0005469999999997,0.0059374000000012,-0.0141655999999998,-0.0094449999999995,-0.009002599999999,0.037445,0,sub_14
0.0006419999999997,0.0113838000000012,-0.0121461999999998,-0.0085809999999995,-0.014301399999999,0.0297666,0,sub_14
-0.0001832000000002,0.0157226000000011,-0.0090995999999998,-0.0074709999999995,-0.013842399999999,0.020587,0,sub_14
-0.0015238000000001,0.0173740000000011,-0.0075949999999998,-0.0074133999999995,-0.010183999999999,0.011396,0,sub_14
-0.0031190000000001,0.0165148000000011,-0.0073383999999998,-0.0075719999999995,-0.005041799999999,0.0043382,0,sub_14
-0.0032358000000001,0.0121594000000011,-0.0069101999999998,-0.0079333999999995,-0.000752999999999,0.0021952,0,sub_14
-0.0041390000000001,0.0084370000000011,-0.0083615999999999,-0.0085311999999995,0.0005454000000009,0.002191,0,sub_14
-0.0030948000000001,0.0053730000000011,-0.0090345999999999,-0.0080667999999995,0.0031090000000009,0.0045426,0,sub_14
-0.0015452000000001,0.0011440000000011,-0.0057883999999999,-0.0037329999999995,0.0124752000000009,0.0073398,0,sub_14
0.0040959999999997,-0.0023883999999987,-0.0026213999999999,0.0003662000000004,0.0167304000000009,0.0097146,0,sub_14
0.0056285999999997,0.0005422000000012,-0.0024899999999999,0.0029354000000004,0.0209732000000009,0.0120772,0,sub_14
0.0052769999999997,0.0038664000000012,-0.0036305999999999,0.0014446000000004,0.0241640000000009,0.0146264,0,sub_14
0.0030317999999997,0.0059630000000011,-0.0048983999999998,-0.0015221999999995,0.0194636000000009,0.0152298,0,sub_14
-0.0002100000000002,0.0093360000000011,-0.0102015999999998,-0.0066467999999995,0.0094442000000009,0.0158248,0,sub_14
-0.0074008000000002,0.0129456000000011,-0.0156907999999998,-0.0113319999999995,0.0028298000000009,0.0170594,0,sub_14
-0.0116380000000002,0.0128144000000011,-0.0182005999999998,-0.0166621999999995,-0.006333199999999,0.0167974,0,sub_14
-0.0132520000000001,0.0111312000000011,-0.0183225999999998,-0.0181401999999995,-0.013589599999999,0.0159187999999999,0,sub_14
-0.0130248000000001,0.0096650000000012,-0.0170237999999999,-0.0160083999999995,-0.014871999999999,0.0150808,0,sub_14
-0.0126458000000001,0.0086428000000012,-0.0159187999999998,-0.0119523999999995,-0.016369799999999,0.0131882,0,sub_14
-0.0100662000000001,0.0080968000000012,-0.0134729999999998,-0.0068123999999995,-0.016158399999999,0.0091646,0,sub_14
-0.0066036000000002,0.0083382000000012,-0.0106385999999998,-0.0003361999999995,-0.013825399999999,0.0040836,0,sub_14
-0.0033756000000002,0.0086644000000012,-0.0076941999999998,0.0067918000000004,-0.008937999999999,-0.0009959999999999,0,sub_14
-0.0007722000000002,0.0097758000000012,-0.0060541999999998,0.0120012000000004,-0.003829999999999,-0.0063029999999999,0,sub_14
0.0030851999999997,0.0102552000000012,-0.0050927999999998,0.0137824000000004,-0.001057199999999,-0.0107761999999999,0,sub_14
0.0055237999999997,0.0106158000000012,-0.0050773999999998,0.0129898000000004,-0.000197199999999,-0.0141967999999999,0,sub_14
0.0078435999999997,0.0094976000000011,-0.0047117999999998,0.0110820000000004,-0.000179399999999,-0.0169873999999999,0,sub_14
0.0093021999999997,0.0079628000000012,-0.0040403999999998,0.0089520000000004,-0.000805199999999,-0.0184969999999999,0,sub_14
0.0100651999999997,0.0054246000000012,-0.0036465999999998,0.0074612000000004,0.0009002000000009,-0.0174413999999999,0,sub_14
0.0083439999999997,0.0040980000000012,-0.0030909999999998,0.0060100000000004,0.0038586000000009,-0.0142341999999999,0,sub_14
0.0056103999999997,0.0044038000000012,-0.0040785999999998,0.0039108000000004,0.0070246000000009,-0.0091087999999999,0,sub_14
0.0016305999999998,0.0059836000000012,-0.0065623999999998,0.0003036000000004,0.0084854000000009,-0.0024963999999999,0,sub_14
-0.0015412000000001,0.0085106000000011,-0.0100345999999998,-0.0050169999999995,0.0071876000000009,0.0028258,0,sub_14
-0.0034898000000001,0.0096864000000011,-0.0131923999999998,-0.0114139999999995,0.0014286000000009,0.0057962,0,sub_14
-0.0025210000000002,0.0089128000000011,-0.0143785999999998,-0.0165627999999995,-0.004731999999999,0.0057682,0,sub_14
-0.0002310000000002,0.0063262000000012,-0.0131349999999998,-0.0176371999999995,-0.008979199999999,0.0032024,0,sub_14
0.0019213999999997,0.0039594000000012,-0.0108595999999998,-0.0142039999999995,-0.008761999999999,-0.0008329999999999,0,sub_14
0.0030491999999997,0.0017894000000012,-0.0082827999999998,-0.0077215999999995,-0.004938399999999,-0.0044553999999999,0,sub_14
0.0035981999999997,0.0013994000000012,-0.0060335999999998,0.0011204000000004,0.0022834000000009,-0.0074249999999999,0,sub_14
0.0030961999999997,0.0026942000000012,-0.0058061999999998,0.0090984000000004,0.0090744000000009,-0.0084771999999999,0,sub_14
0.0023403999999997,0.0045546000000011,-0.0064625999999998,0.0140710000000004,0.0137376000000009,-0.0076247999999999,0,sub_14
0.0016585999999997,0.0065136000000011,-0.0073971999999998,0.0141160000000004,0.0152170000000009,-0.0055209999999999,0,sub_14
0.0011337999999997,0.0079504000000011,-0.0078755999999999,0.0113230000000004,0.0145732000000009,-0.0019077999999999,0,sub_14
0.0008597999999997,0.0090888000000011,-0.0081173999999999,0.0059600000000004,0.0113834000000009,0.0012636,0,sub_14
8.799999999979148e-05,0.0097220000000012,-0.0080665999999999,0.0003864000000004,0.0079844000000009,0.0035792,0,sub_14
-0.0005476000000002,0.0100580000000012,-0.0082741999999999,-0.0047097999999995,0.0054160000000009,0.0043566,0,sub_14
-0.0016888000000001,0.0094608000000012,-0.0077671999999999,-0.0076645999999995,0.0032714000000009,0.0038668,0,sub_14
-0.0005518000000001,0.0087286000000012,-0.0071557999999999,-0.0091075999999995,0.0030474000000009,0.0012486,0,sub_14
-0.0001518000000001,0.0082168000000012,-0.0073385999999999,-0.0090513999999995,0.0045210000000009,-0.0009339999999999,0,sub_14
-0.0009486000000001,0.0074356000000011,-0.0079615999999999,-0.0079289999999995,0.0057780000000009,-0.0031089999999999,0,sub_14
-0.0022878000000001,0.0076510000000012,-0.0088467999999999,-0.0066373999999995,0.0066326000000009,-0.0048101999999999,0,sub_14
-0.0028566000000002,0.0076148000000012,-0.0100013999999999,-0.0047133999999995,0.0062050000000009,-0.0060781999999999,0,sub_14
-0.0051938000000002,0.0073528000000011,-0.0110627999999999,-0.0023719999999995,0.0044942000000009,-0.0064869999999999,0,sub_14
-0.0067432000000002,0.0071112000000011,-0.0111351999999999,8.800000000444042e-06,0.0027844000000009,-0.0069453999999999,0,sub_14
-0.0066910000000002,0.0078444000000011,-0.0105885999999999,0.0013216000000004,0.0012896000000009,-0.0069841999999999,0,sub_14
-0.0057302000000002,0.0077526000000011,-0.0096329999999999,0.0024212000000004,-0.000204399999999,-0.0070243999999999,0,sub_14
-0.0046544000000002,0.0080878000000011,-0.0088289999999999,0.0026694000000004,-0.001057199999999,-0.0068575999999999,0,sub_14
-0.0027780000000002,0.0083714000000012,-0.0090987999999999,0.0018516000000004,-0.0021175999999989,-0.0071253999999999,0,sub_14
-0.0010856000000002,0.0082894000000012,-0.0091349999999999,0.0003494000000004,-0.0040299999999989,-0.0071333999999999,0,sub_14
0.0002121999999997,0.0065194000000011,-0.0090013999999999,-8.599999999953599e-05,-0.0055215999999989,-0.0067071999999999,0,sub_14
0.0010167999999997,0.0046302000000011,-0.0086009999999999,0.0001160000000004,-0.006381399999999,-0.0049955999999999,0,sub_14
0.0018501999999997,0.0029394000000011,-0.0080699999999999,0.0013884000000004,-0.005755999999999,-0.0026375999999999,0,sub_14
0.0023911999999997,0.0022114000000011,-0.0073155999999998,0.0028872000000004,-0.004493599999999,-7.59999999999832e-05,0,sub_14
0.0024041999999997,0.0024600000000011,-0.0069407999999998,0.0043870000000004,-0.002805999999999,0.0026985999999999,0,sub_14
0.0025075999999997,0.0042008000000011,-0.0068467999999998,0.0052488000000004,-0.001326599999999,0.0048281999999999,0,sub_14
0.0025047999999997,0.0055842000000011,-0.0068999999999998,0.0048320000000004,-0.000477599999999,0.0058814,0,sub_14
0.0022415999999997,0.0074306000000011,-0.0073145999999998,0.0037792000000004,-0.000259599999999,0.0054356,0,sub_14
0.0016543999999997,0.0081612000000011,-0.0076227999999999,0.0024970000000004,-0.000893399999999,0.0052138,0,sub_14
0.0005583999999997,0.0079378000000011,-0.0078127999999999,0.0007910000000004,-0.001310799999999,0.0045616,0,sub_14
-0.0011812000000002,0.0071326000000011,-0.0084097999999999,-0.0004695999999995,-0.001732799999999,0.0041218,0,sub_14
-0.0032896000000002,0.0068878000000011,-0.0093979999999998,-0.0010889999999995,-0.001519599999999,0.004113,0,sub_14
-0.0050522000000002,0.0062848000000011,-0.0101511999999998,-0.0010731999999995,-0.001737199999999,0.00475,0,sub_14
-0.0064980000000002,0.0058804000000011,-0.0107197999999998,-0.0008429999999995,-0.001954799999999,0.0051748,0,sub_14
-0.0071628000000002,0.0059178000000011,-0.0113095999999998,-0.0001879999999995,-0.002599999999999,0.005603,0,sub_14
-0.0073044000000001,0.0061606000000011,-0.0115645999999998,0.0010912000000004,-0.003029599999999,0.0053988,0,sub_14
-0.0056824000000001,0.0060226000000011,-0.0109003999999998,0.0030066000000004,-0.004525999999999,0.0049868,0,sub_14
-0.0035928000000001,0.0059626000000011,-0.0108907999999998,0.0042868000000004,-0.005591599999999,0.0039288,0,sub_14
-0.0012906000000001,0.0057046000000011,-0.0100019999999998,0.0059956000000004,-0.006232399999999,0.0028734,0,sub_14
0.0005477999999998,0.0048582000000012,-0.0087503999999998,0.0077160000000004,-0.006040999999999,0.0018178,0,sub_14
0.0016537999999997,0.0053028000000011,-0.0075313999999998,0.0085792000000004,-0.005213399999999,0.0022508,0,sub_14
0.0013025999999997,0.0062424000000012,-0.0068663999999998,0.0085928000000004,-0.003106199999999,0.0031036,0,sub_14
0.0011651999999997,0.0060422000000012,-0.0066103999999998,0.0075326000000004,-0.001849999999999,0.004591,0,sub_14
0.0010583999999997,0.0063710000000012,-0.0072865999999998,0.0058316000000004,-0.001016799999999,0.0058605999999999,0,sub_14
0.0022507999999997,0.0067304000000012,-0.0073661999999999,0.0039114000000004,-0.000373399999999,0.0064873999999999,0,sub_14
0.0033501999999997,0.0058914000000012,-0.0066539999999999,0.0022102000000004,0.0002742000000009,0.0058337999999999,0,sub_14
0.0045001999999997,0.0046898000000011,-0.0062097999999999,0.0013644000000004,0.0007084000000009,0.0045453999999999,0,sub_14
0.0036511999999997,0.0052192000000011,-0.0062063999999999,0.0024580000000004,0.0026044000000009,0.0034925999999999,0,sub_14
0.0019037999999997,0.0059782000000011,-0.0059731999999999,0.0031238000000004,0.0045010000000009,0.0026506,0,sub_14
-0.0008314000000002,0.0070688000000011,-0.0068773999999998,0.0031428000000004,0.0053328000000009,0.0022326,0,sub_14
-0.0027602000000002,0.0074848000000011,-0.0088883999999998,0.0029416000000004,0.0048862000000009,0.0020284,0,sub_14
-0.0045248000000002,0.0078726000000011,-0.0101935999999998,0.0025224000000004,0.0035874000000009,0.0020376,0,sub_14
-0.0048794000000002,0.0069222000000012,-0.0103995999999998,0.0016584000000004,0.0014590000000009,0.002248,0,sub_14
-0.0043874000000002,0.0062810000000011,-0.0104429999999998,0.0014344000000004,-0.000671799999999,0.002463,0,sub_14
-0.0038540000000002,0.0056936000000011,-0.0105797999999999,0.0022872000000004,-0.0017477999999989,0.0026994,0,sub_14
-0.0038384000000002,0.0054684000000011,-0.0100777999999999,0.0031450000000004,-0.0021829999999989,0.0025078,0,sub_14
-0.0030420000000001,0.0056906000000011,-0.0100533999999998,0.0040026000000004,-0.0028303999999989,0.0021026,0,sub_14
-0.0019152000000001,0.0061454000000011,-0.0090465999999998,0.0048660000000004,-0.0026239999999989,0.0012692,0,sub_14
-0.0007722000000002,0.0058002000000012,-0.0084313999999998,0.0059456000000004,-0.0017789999999989,0.0004364,0,sub_14
0.0004083999999997,0.0051872000000012,-0.0079223999999998,0.0065886000000004,-0.001354399999999,0.0002268,0,sub_14
0.0018061999999997,0.0052226000000012,-0.0067327999999998,0.0065894000000004,-0.000929199999999,0.0004398,0,sub_14
0.0022397999999997,0.0055058000000012,-0.0058685999999998,0.0063788000000004,0.0003472000000009,0.0010776,0,sub_14
0.0025695999999997,0.0058946000000012,-0.0060613999999998,0.0050976000000004,0.0005630000000009,0.0014956,0,sub_14
0.0028875999999997,0.0061006000000012,-0.0056241999999998,0.0033880000000004,0.0003538000000009,0.001698,0,sub_14
0.0028461999999997,0.0064128000000012,-0.0053733999999999,0.0016794000000004,0.0001454000000009,0.0016868,0,sub_14
0.0023731999999997,0.0066166000000012,-0.0062385999999999,0.0006138000000004,0.0001496000000009,0.0012526,0,sub_14
0.0015609999999997,0.0063556000000012,-0.0068277999999999,-0.0002373999999995,0.0003660000000009,0.0008196,0,sub_14
3.639999999979198e-05,0.0062242000000011,-0.0074311999999999,-0.0002333999999995,0.0012178000000009,0.0006054,0,sub_14
-0.0017864000000002,0.0064496000000011,-0.0090977999999998,-0.0002313999999995,0.0016438000000009,0.0006048,0,sub_14
-0.0028042000000001,0.0067692000000011,-0.0098283999999998,-1.419999999955593e-05,0.0014342000000009,-0.0004617999999999,0,sub_14
-0.0030452000000001,0.0070428000000011,-0.0100123999999998,-1.2199999999555926e-05,0.0005870000000009,-0.0017425999999999,0,sub_14
-0.0024186000000002,0.0065002000000011,-0.0096979999999998,0.0004092000000004,-0.000465999999999,-0.0032433999999999,0,sub_14
-0.0018258000000002,0.0065484000000011,-0.0094269999999998,0.0012584000000004,-0.001307599999999,-0.0047415999999999,0,sub_14
-0.0010304000000002,0.0061838000000011,-0.0082097999999999,0.0021094000000004,-0.001722999999999,-0.0062401999999999,0,sub_14
-0.0007840000000002,0.0058448000000011,-0.0075727999999999,0.0027432000000004,-0.001928799999999,-0.0066723999999999,0,sub_14
-0.0003816000000002,0.0056100000000011,-0.0075983999999999,0.0031598000000004,-0.002349599999999,-0.0064649999999999,0,sub_14
-0.0003602000000002,0.0059850000000011,-0.0074343999999999,0.0025176000000004,-0.002985799999999,-0.0066823999999999,0,sub_14
9.7999999999792e-05,0.0056300000000012,-0.0072991999999999,0.0008076000000004,-0.003831199999999,-0.0069067999999999,0,sub_14
0.0002135999999997,0.0061070000000012,-0.0074935999999999,-0.0007011999999995,-0.004032799999999,-0.0071473999999999,0,sub_14
-0.0002336000000002,0.0065934000000012,-0.0071937999999999,-0.0015697999999995,-0.004024399999999,-0.0071699999999999,0,sub_14
-0.0012548000000002,0.0056348000000012,-0.0064019999999999,-0.0011495999999995,-0.002527399999999,-0.0076127999999999,0,sub_14
-0.0010188000000002,0.0051318000000012,-0.0066793999999999,-9.4799999999556e-05,-0.001674399999999,-0.0074093999999999,0,sub_14
