userAcceleration.x,userAcceleration.y,userAcceleration.z,rotationRate.x,rotationRate.y,rotationRate.z,label,subject
0.0007765999999998,0.0126028000000012,0.0015142,0.0012580000000004,-0.002695999999999,-0.0152513999999998,0,sub_10
0.0016515999999998,0.0122968000000012,0.0009848,0.0029698000000004,-0.002060999999999,-0.0156675999999998,0,sub_10
0.0013983999999998,0.0128830000000012,0.0007868,0.0040452000000004,-0.000783999999999,-0.0163027999999998,0,sub_10
0.0006257999999998,0.0140290000000012,-4.199999999990735e-05,0.0038470000000004,0.0009334000000009,-0.0176023999999998,0,sub_10
-0.0005124000000001,0.0148092000000012,-0.0001137999999999,0.0047148000000004,0.0020098000000009,-0.0193209999999998,0,sub_10
-0.0006544000000001,0.0157090000000012,0.0001114,0.0042956000000004,0.0032968000000009,-0.0193395999999998,0,sub_10
4.399999999985821e-05,0.0164676000000012,5.980000000011263e-05,0.0038746000000004,0.0045820000000009,-0.0189309999999998,0,sub_10
0.0001779999999998,0.0153650000000012,-0.0002311999999999,0.0021734000000004,0.0043864000000009,-0.0200247999999998,0,sub_10
0.0011121999999998,0.0145988000000012,0.001313,0.0019592000000004,0.0035376000000009,-0.0206659999999998,0,sub_10
0.0012887999999998,0.0146728000000012,0.0016356,3.4000000000466295e-05,0.0033278000000009,-0.0198245999999998,0,sub_10
8.879999999987821e-05,0.0141148000000012,0.001618,-0.0010375999999995,0.0033272000000009,-0.0187639999999998,0,sub_10
-0.0024760000000001,0.0122720000000012,0.0026228,-0.0016901999999995,0.0031062000000009,-0.0162043999999998,0,sub_10
-0.0035122000000001,0.0118608000000012,0.0038066,0.0008854000000004,0.0039400000000009,-0.0119449999999998,0,sub_10
-0.0045588000000001,0.0108984000000012,0.003006,0.0043096000000004,0.0049788000000009,-0.0063979999999998,0,sub_10
-0.0048634000000001,0.0102326000000012,0.0038946,0.0109392000000004,0.0064350000000009,-0.0014699999999998,0,sub_10
-0.0038956000000001,0.0113348000000012,0.003458,0.0173496000000004,0.0064016000000009,0.0032448000000001,0,sub_10
-0.0005202000000001,0.0150076000000012,0.0029216,0.0231248000000004,0.0063744000000009,0.0068868000000001,0,sub_10
0.0022049999999998,0.0181704000000012,0.0021978,0.0235314000000004,0.0057184000000009,0.0107360000000001,0,sub_10
0.0032557999999998,0.0197586000000012,0.0011004,0.0196706000000004,0.0042284000000009,0.0137018000000001,0,sub_10
0.0032907999999998,0.0199192000000012,-0.0007059999999998,0.0130850000000004,0.0025454000000009,0.0157696000000001,0,sub_10
0.0034425999999998,0.0189142000000012,-0.0002487999999998,0.0065156000000004,0.0023622000000009,0.0156992000000001,0,sub_10
0.0015285999999998,0.0156270000000012,-4.79999999988736e-06,0.0014444000000004,0.0019660000000009,0.0143576000000001,0,sub_10
-0.0004996000000001,0.0126318000000012,9.520000000009264e-05,0.0008580000000004,0.0013454000000009,0.0119794000000001,0,sub_10
-0.0011176000000001,0.0107808000000012,0.0006034,0.0041114000000004,0.0002862000000009,0.0094150000000001,0,sub_10
-0.0008790000000001,0.0101078000000012,0.001618,0.0085940000000004,-0.000576599999999,0.0081656000000001,0,sub_10
-0.0004472000000001,0.0093350000000012,0.001451,0.0130738000000004,-0.001017399999999,0.0079838000000001,0,sub_10
-1.5200000000101935e-05,0.0096248000000012,0.001296,0.0154152000000004,-0.001030599999999,0.0092820000000001,0,sub_10
0.0013815999999998,0.0106376000000012,0.0013978,0.0158644000000004,-0.000606999999999,0.0112196000000001,0,sub_10
0.0023829999999998,0.0122264000000012,0.0012598,0.0139684000000004,0.0008874000000009,0.0137804000000001,0,sub_10
0.0033877999999998,0.0132932000000012,0.0007754,0.0112200000000004,0.0019614000000009,0.0156948000000001,0,sub_10
0.0046313999999998,0.0144562000000012,0.0007724,0.0074038000000004,0.0017650000000009,0.0165350000000001,0,sub_10
0.0064065999999998,0.0147536000000012,0.0010466,0.0031580000000004,-0.000130199999999,0.0163062000000001,0,sub_10
0.0067963999999998,0.0146524000000012,0.0010082,-0.0015505999999995,-0.003097399999999,0.0164908000000001,0,sub_10
0.0084507999999998,0.0153612000000012,0.002127,-0.0054151999999995,-0.008622599999999,0.0162572000000001,0,sub_10
0.0096497999999998,0.0153900000000012,0.00206,-0.0107771999999995,-0.014994599999999,0.0160142000000001,0,sub_10
0.0100243999999998,0.0149660000000012,0.0019506,-0.0184939999999995,-0.020304399999999,0.0185308000000001,0,sub_10
0.0075715999999998,0.0155590000000012,0.0011578,-0.0270407999999995,-0.020716599999999,0.0240712000000001,0,sub_10
0.0031009999999998,0.0152096000000012,0.0007044,-0.0330097999999995,-0.016878599999999,0.0300512000000001,0,sub_10
-0.0032792000000001,0.0141626000000012,-0.0008943999999999,-0.0374689999999995,-0.010696999999999,0.0347570000000001,0,sub_10
-0.0085938000000001,0.0130850000000012,-0.0018867999999999,-0.0372243999999995,-0.004523399999999,0.0373592000000001,0,sub_10
-0.0131672000000001,0.0115756000000012,-0.0034235999999998,-0.0299211999999995,0.0014288000000009,0.0359518000000001,0,sub_10
-0.0145462000000001,0.0098926000000012,-0.0044639999999998,-0.0179301999999995,0.0039708000000009,0.0291956000000001,0,sub_10
-0.0123870000000001,0.0087500000000012,-0.0045055999999998,-0.0059439999999995,0.0031134000000009,0.0200938000000001,0,sub_10
-0.0082412000000001,0.0083326000000012,-0.0035321999999999,0.0051954000000004,0.0035306000000009,0.0116910000000001,0,sub_10
-0.0042852000000001,0.0087932000000012,-0.0016915999999999,0.0135580000000004,0.0052280000000009,0.0051898000000001,0,sub_10
-0.0003970000000001,0.0094548000000012,0.000121,0.0163606000000004,0.0056606000000009,0.0001470000000001,0,sub_10
0.0026423999999998,0.0097528000000012,0.001876,0.0161578000000004,0.0052388000000009,-0.0017109999999998,0,sub_10
0.0051251999999998,0.0104750000000012,0.0027238,0.0140318000000004,0.0060942000000009,-0.0016613999999998,0,sub_10
0.0064483999999998,0.0102642000000012,0.0035604,0.0103968000000004,0.0050390000000009,-0.0010445999999998,0,sub_10
0.0073303999999998,0.0100588000000012,0.0038116,0.0063342000000004,0.0035602000000009,-0.0006435999999998,0,sub_10
0.0073175999999998,0.0108198000000012,0.0043512,0.0035460000000004,0.0020718000000009,0.0010480000000001,0,sub_10
0.0067425999999998,0.0122358000000012,0.0042824,0.0009448000000004,0.0009944000000009,0.0031958000000001,0,sub_10
0.0057213999999998,0.0136630000000012,0.00366,-0.0012363999999995,-0.001575599999999,0.0053486000000001,0,sub_10
0.0042043999999998,0.0152034000000012,0.0029252,-0.0023467999999995,-0.003509399999999,0.0072942000000001,0,sub_10
0.0020343999999998,0.0162586000000012,0.0020066,-0.0015349999999995,-0.005448199999999,0.0088258000000001,0,sub_10
0.0002121999999998,0.0171188000000012,0.0006604,0.0007760000000004,-0.007387199999999,0.0090862000000001,0,sub_10
-0.0003812000000001,0.0170688000000012,-0.0006745999999999,0.0033316000000004,-0.009734599999999,0.0078252000000001,0,sub_10
-8.320000000014167e-05,0.0162268000000012,-0.0015705999999999,0.0067466000000004,-0.011231199999999,0.0061418000000001,0,sub_10
-0.0002094000000001,0.0144646000000012,-0.0009605999999999,0.0099520000000004,-0.012086999999999,0.0042426000000001,0,sub_10
-0.0004128000000001,0.0134956000000012,-0.0009183999999999,0.0110218000000004,-0.012724799999999,0.0029692000000001,0,sub_10
0.0004213999999998,0.0129356000000012,-0.0006819999999999,0.0114158000000004,-0.012517999999999,0.0016836000000001,0,sub_10
0.0008999999999998,0.0126094000000012,-0.0013381999999999,0.0113830000000004,-0.011460799999999,0.0012484000000001,0,sub_10
0.0004431999999998,0.0121496000000012,-0.0011403999999999,0.0111318000000004,-0.011468199999999,0.0008132000000001,0,sub_10
0.0010605999999998,0.0112862000000012,-0.0026683999999999,0.0104454000000004,-0.012754999999999,0.0010174000000001,0,sub_10
0.0020011999999998,0.0105492000000012,-0.0026465999999998,0.0099714000000004,-0.014467799999999,0.0010100000000001,0,sub_10
0.0014689999999998,0.0094892000000012,-0.0020337999999998,0.0093264000000004,-0.015106399999999,0.0014336000000001,0,sub_10
0.0009795999999998,0.0094478000000012,0.0005866,0.0082644000000004,-0.014249599999999,0.0012116000000001,0,sub_10
0.0003309999999998,0.0097796000000012,0.0020952,0.0065646000000004,-0.011672799999999,0.0007206000000001,0,sub_10
-0.0001072000000001,0.0109914000000012,0.003498,0.0057200000000004,-0.008884999999999,2.180000000013369e-05,0,sub_10
-0.0003020000000001,0.0116922000000012,0.0034054,0.0061518000000004,-0.006529599999999,-0.0002401999999998,0,sub_10
9.579999999983844e-05,0.0130516000000012,0.0031498,0.0065722000000004,-0.006094199999999,0.0001412000000001,0,sub_10
0.0003611999999998,0.0135612000000012,0.0018482,0.0067714000000004,-0.006938199999999,0.0009498000000001,0,sub_10
0.0009805999999998,0.0144538000000012,0.0013388,0.0065446000000004,-0.009071399999999,0.0018056000000001,0,sub_10
0.0008691999999998,0.0144960000000012,0.0008154,0.0050404000000005,-0.010560999999999,0.0026516000000001,0,sub_10
0.0010429999999998,0.0146670000000012,0.000472,0.0033306000000005,-0.010557599999999,0.0032806000000001,0,sub_10
0.0008477999999998,0.0140094000000012,6.960000000009276e-05,0.0018638000000005,-0.009264399999999,0.0034026000000001,0,sub_10
0.0001765999999998,0.0132028000000012,3.660000000009276e-05,0.0018926000000005,-0.007974599999999,0.0031078000000001,0,sub_10
-0.0005620000000001,0.0122042000000012,-0.0002789999999999,0.0027758000000005,-0.006262599999999,0.0030322000000001,0,sub_10
-0.0007184000000001,0.0118372000000012,-0.0002753999999999,0.0051498000000004,-0.005407199999999,0.0027544000000001,0,sub_10
-0.0006642000000001,0.0112548000000012,-0.0001229999999999,0.0081648000000004,-0.004977599999999,0.0018408000000001,0,sub_10
-0.0001370000000001,0.0110098000000012,0.0001146,0.0107340000000004,-0.004129999999999,0.0007894000000001,0,sub_10
0.0002663999999998,0.0113544000000012,0.0002488,0.0120210000000004,-0.003279599999999,0.0001564000000001,0,sub_10
0.0007431999999998,0.0117452000000012,0.0005602,0.0124536000000004,-0.002214799999999,-5.559999999984631e-05,0,sub_10
0.0007375999999998,0.0126190000000012,0.0001888,0.0124594000000004,-0.001148599999999,-0.0002703999999998,0,sub_10
0.0009625999999998,0.0133094000000012,-0.0001953999999999,0.0116138000000004,-7.659999999905702e-05,-0.0005503999999998,0,sub_10
0.0006991999999998,0.0133502000000012,-0.0004241999999999,0.0107682000000004,0.0007832000000009,-0.0010435999999998,0,sub_10
0.0011857999999998,0.0129430000000011,3.140000000009281e-05,0.0101340000000004,0.0014282000000009,-0.0013213999999998,0,sub_10
0.0011583999999998,0.0122108000000011,0.0006842,0.0088596000000004,0.0016510000000009,-0.0020303999999998,0,sub_10
0.0023945999999998,0.0115030000000012,0.0010654,0.0082264000000004,0.0020848000000009,-0.0027353999999998,0,sub_10
0.0029837999999998,0.0115966000000012,0.0012848000000001,0.0080054000000004,0.0012300000000009,-0.0018811999999998,0,sub_10
0.0035105999999998,0.0114288000000012,0.0014970000000001,0.0067068000000004,-0.001115999999999,-0.0001779999999998,0,sub_10
0.0039539999999998,0.0108600000000012,0.0006220000000001,0.0041310000000004,-0.003030399999999,0.0013020000000001,0,sub_10
0.0049573999999998,0.0112198000000012,3.060000000013278e-05,0.0030430000000004,-0.003861399999999,0.0025276000000001,0,sub_10
0.0043203999999998,0.0116088000000012,6.420000000013282e-05,0.0015398000000004,-0.002770999999999,0.0031070000000001,0,sub_10
0.0031881999999998,0.0110586000000012,0.000733,0.0002614000000004,-0.000610199999999,0.0021910000000001,0,sub_10
0.0014891999999998,0.0112482000000012,0.0005992000000001,0.0004806000000004,0.0017612000000009,0.0006442000000001,0,sub_10
-0.0001606000000001,0.0122038000000012,0.0010766,0.0028306000000004,0.0032736000000009,-0.0011001999999998,0,sub_10
-0.0019384000000001,0.0127184000000012,0.0002724,0.0053978000000004,0.0032706000000009,-0.0025777999999998,0,sub_10
-0.0018736000000001,0.0128108000000012,-0.0006183999999998,0.0081678000000004,0.0015598000000009,-0.0034107999999998,0,sub_10
-0.0012478000000001,0.0136336000000012,-0.0008225999999998,0.0105072000000004,5.940000000096333e-05,-0.0031787999999998,0,sub_10
5.999999999858419e-06,0.0141836000000012,-0.0010421999999999,0.0117548000000004,-0.000546199999999,-0.0025623999999998,0,sub_10
0.0007521999999998,0.0144506000000012,-0.0012471999999999,0.0121500000000004,-0.000723399999999,-0.0017387999999998,0,sub_10
0.0020607999999998,0.0145830000000012,-0.0007697999999999,0.0112698000000004,0.0003814000000009,-0.0007121999999998,0,sub_10
0.0022099999999998,0.0144278000000012,0.000115,0.0086854000000004,0.0021314000000009,0.0003016000000001,0,sub_10
0.0019127999999998,0.0137928000000012,7.200000000092766e-06,0.0056742000000004,0.0030340000000009,0.0004590000000001,0,sub_10
0.0021417999999998,0.0128604000000012,0.0005988,0.0031166000000004,0.0030456000000009,-0.0001997999999998,0,sub_10
0.0024855999999998,0.0112976000000012,0.000289,0.0011962000000004,0.0028402000000009,-0.0004265999999998,0,sub_10
0.0022165999999998,0.0100264000000012,0.0002228,0.0005560000000004,0.0019936000000009,-0.0012845999999998,0,sub_10
0.0027285999999998,0.0097684000000012,4.380000000009281e-05,0.0009578000000004,0.0020410000000009,-0.0021621999999998,0,sub_10
0.0037859999999998,0.0089950000000012,0.0001092,0.0011530000000004,0.0031562000000009,-0.0034699999999998,0,sub_10
0.0043915999999998,0.0088544000000012,0.000224,0.0007052000000004,0.0044832000000009,-0.0039279999999998,0,sub_10
0.0044051999999998,0.0092576000000012,0.0007244,-0.0001665999999995,0.0056020000000009,-0.0052433999999998,0,sub_10
0.0036373999999998,0.0098364000000012,0.0005306,-0.0016745999999995,0.0071508000000009,-0.0069907999999998,0,sub_10
0.0024533999999998,0.0100708000000012,0.0005434,-0.0025145999999995,0.0075902000000009,-0.0095609999999998,0,sub_10
0.0009751999999998,0.0109372000000012,0.0003784,-0.0031497999999995,0.0069600000000009,-0.0112737999999998,0,sub_10
0.0011891999999998,0.0114610000000012,7.780000000009281e-05,-0.0025457999999995,0.0063608000000009,-0.0127811999999998,0,sub_10
0.0027019999999998,0.0130246000000012,0.0001458,-0.0019427999999995,0.0061852000000009,-0.0136479999999998,0,sub_10
0.0049819999999998,0.0141968000000012,0.0001376,-0.0028457999999995,0.0045184000000009,-0.0132417999999998,0,sub_10
0.0055907999999998,0.0135578000000012,0.000395,-0.0065293999999995,0.0030672000000009,-0.0111459999999998,0,sub_10
0.0059715999999998,0.0128360000000012,0.0006932,-0.0106339999999995,0.0028960000000009,-0.0090547999999998,0,sub_10
0.0042537999999998,0.0127192000000012,0.000682,-0.0144813999999995,0.0024790000000009,-0.0080127999999998,0,sub_10
0.0017757999999998,0.0114154000000012,0.0011972,-0.0172579999999995,0.0024860000000009,-0.0073913999999998,0,sub_10
-0.0006446000000001,0.0091696000000012,0.0014162,-0.0172541999999995,0.0027016000000009,-0.0080325999999998,0,sub_10
-0.0013070000000001,0.0091108000000012,0.0008958000000001,-0.0136571999999995,0.0031474000000009,-0.0099409999999998,0,sub_10
-0.0010916000000001,0.0092808000000012,0.0008972000000001,-0.0087789999999995,0.0029528000000009,-0.0126941999999998,0,sub_10
-0.0001134000000001,0.0093088000000012,0.0008110000000001,-0.0047541999999995,0.0031856000000009,-0.0150265999999998,0,sub_10
0.0012563999999998,0.0096314000000012,9.100000000011268e-05,-0.0020143999999995,0.0027820000000009,-0.0169397999999998,0,sub_10
0.0027147999999998,0.0109414000000012,5.880000000011267e-05,-0.0005547999999995,0.0032316000000009,-0.0180083999999998,0,sub_10
0.0031037999999998,0.0118022000000012,0.0001342000000001,-0.0011937999999995,0.0028102000000009,-0.0186531999999998,0,sub_10
0.0028807999999998,0.0124250000000012,-0.0004653999999998,-0.0031121999999995,0.0032430000000009,-0.0186671999999998,0,sub_10
0.0019531999999998,0.0123826000000012,-3.499999999988737e-05,-0.0052439999999995,0.0041010000000009,-0.0182557999999998,0,sub_10
0.0013155999999998,0.0121174000000012,0.0001518000000001,-0.0071643999999995,0.0047444000000009,-0.0176289999999998,0,sub_10
0.0005559999999998,0.0115366000000012,0.0005204,-0.0084879999999995,0.0051848000000009,-0.0165741999999998,0,sub_10
0.0003181999999998,0.0104600000000012,0.0007486,-0.0091715999999995,0.0058352000000009,-0.0153015999999998,0,sub_10
0.0006181999999998,0.0099100000000012,0.00115,-0.0090035999999995,0.0056322000000009,-0.0144491999999998,0,sub_10
0.0011409999999998,0.0101954000000012,0.0003112,-0.0079877999999995,0.0043600000000009,-0.0133759999999998,0,sub_10
0.0017507999999998,0.0103492000000012,-5.399999999990731e-05,-0.0069681999999995,0.0035156000000008,-0.0127305999999998,0,sub_10
0.0016557999999998,0.0101808000000012,-0.0005351999999998,-0.0056879999999995,0.0037234000000009,-0.0125083999999998,0,sub_10
0.0019813999999998,0.0110496000000012,-0.0003437999999998,-0.0041885999999995,0.0043598000000009,-0.0131395999999998,0,sub_10
0.0011223999999998,0.0107702000000012,-0.0008163999999998,-0.0033627999999994,0.0058532000000009,-0.0135621999999998,0,sub_10
0.0004007999999998,0.0099042000000012,-0.0008661999999998,-0.0025311999999994,0.0082006000000009,-0.0144131999999998,0,sub_10
-0.0009860000000001,0.0094988000000012,-0.0006601999999999,-0.0012775999999995,0.0096934000000009,-0.0150463999999998,0,sub_10
-0.0010398000000001,0.0097916000000012,-0.0004677999999999,-0.0004555999999995,0.0101224000000009,-0.0156813999999998,0,sub_10
0.0005205999999998,0.0101362000000012,-0.0013783999999999,0.0005788000000004,0.0111866000000009,-0.0154611999999998,0,sub_10
0.0027809999999998,0.0107330000000012,-0.0018015999999999,0.0009980000000004,0.0099052000000009,-0.0150293999999998,0,sub_10
0.0047355999999998,0.0108282000000012,-0.0006973999999999,-0.0002927999999995,0.0079906000000009,-0.0146085999999998,0,sub_10
0.0059337999999998,0.0105244000000012,-0.0008017999999999,-0.0032867999999995,0.0071464000000009,-0.0139875999999998,0,sub_10
0.0059819999999998,0.0099920000000012,-0.0008413999999999,-0.0067103999999995,0.0058766000000009,-0.0131551999999998,0,sub_10
0.0035533999999998,0.0093550000000012,-0.0002653999999999,-0.0095171999999995,0.0039544000000009,-0.0120843999999998,0,sub_10
0.0015227999999998,0.0085740000000012,0.0006084,-0.0106091999999994,0.0039428000000009,-0.0107903999999998,0,sub_10
0.0006967999999998,0.0088646000000012,0.0004062,-0.0091359999999994,0.0051996000000009,-0.0092663999999998,0,sub_10
0.0008507999999998,0.0091806000000012,0.0006368,-0.0057433999999994,0.0060246000000009,-0.0079421999999998,0,sub_10
0.0009813999999998,0.0093772000000012,0.0007422,-0.0029889999999994,0.0068536000000009,-0.0070497999999998,0,sub_10
0.0015753999999998,0.0093366000000012,0.000787,-0.0004313999999994,0.0066298000000009,-0.0066043999999998,0,sub_10
0.0017423999999998,0.0102222000000012,0.0005266,0.0019108000000004,0.0059808000000009,-0.0061597999999998,0,sub_10
0.0007981999999998,0.0101574000000012,-0.0004259999999999,0.0031864000000004,0.0044868000000009,-0.0065763999999998,0,sub_10
-0.0004128000000001,0.0099126000000012,-0.0013281999999999,0.0042582000000004,0.0023416000000009,-0.0073839999999998,0,sub_10
-0.0005216000000001,0.0096088000000012,-0.0019819999999999,0.0072522000000004,0.0006158000000009,-0.0081785999999998,0,sub_10
-0.0002968000000001,0.0093668000000012,-0.0022507999999999,0.0108864000000004,-0.000475599999999,-0.0083285999999998,0,sub_10
0.0009679999999998,0.0096338000000012,-0.0014395999999999,0.0143082000000004,-0.000928999999999,-0.0080537999999998,0,sub_10
0.0025571999999998,0.0097770000000012,-0.0006835999999999,0.0140948000000004,-0.001376399999999,-0.0060951999999998,0,sub_10
0.0039887999999998,0.0102132000000012,0.0002218,0.0123812000000004,-0.000315399999999,-0.0035447999999998,0,sub_10
0.0043069999999998,0.0099298000000012,-0.0001865999999999,0.0093854000000004,0.0005362000000009,-0.0007893999999998,0,sub_10
0.0040185999999998,0.0092690000000012,0.0005128,0.0051316000000004,0.0009514000000009,0.0009510000000001,0,sub_10
0.0027841999999998,0.0081018000000012,0.0002158,0.0004530000000004,0.0011578000000009,0.0020478000000001,0,sub_10
0.0017585999999998,0.0075794000000012,0.0004198,4.960000000046707e-05,0.0015682000000009,0.0016788000000001,0,sub_10
0.0009797999999998,0.0072236000000012,-0.0003481999999999,0.0002852000000004,0.0007022000000009,0.0002478000000001,0,sub_10
0.0007065999999998,0.0076098000000012,0.0001626,0.0009496000000004,0.0004730000000009,-0.0009675999999998,0,sub_10
0.0007301999999998,0.0081708000000012,-0.0007023999999999,0.0020204000000004,0.0006850000000009,-0.0016011999999998,0,sub_10
0.0006595999999998,0.0081070000000012,-0.0002259999999999,0.0035140000000004,0.0002554000000009,-0.0020173999999998,0,sub_10
0.0008975999999998,0.0077632000000012,-5.799999999990709e-05,0.0047904000000004,-0.000176999999999,-0.0015805999999998,0,sub_10
0.0024019999999998,0.0082572000000012,-8.199999999907066e-06,0.0069424000000004,-0.000639399999999,-0.0004253999999998,0,sub_10
0.0038933999999998,0.0086506000000012,-0.0001323999999999,0.0071730000000004,-0.001732599999999,0.0002900000000001,0,sub_10
0.0047505999999998,0.0087750000000012,0.0003692,0.0067672000000004,-0.002395799999999,0.0005730000000001,0,sub_10
0.0049157999999998,0.0092706000000012,-0.0006215999999999,0.0052936000000004,-0.003056199999999,0.0010622000000001,0,sub_10
0.0038325999999998,0.0097402000000012,-0.0013341999999999,0.0033990000000004,-0.003285399999999,0.0006934000000001,0,sub_10
0.0020859999999998,0.0088760000000012,-0.0012289999999999,0.0021282000000004,-0.001999199999999,-0.0001717999999998,0,sub_10
0.0010449999999998,0.0085818000000012,-0.0008543999999999,0.0027808000000004,0.0003440000000009,-0.0005975999999998,0,sub_10
0.0005353999999998,0.0088852000000012,-0.0006855999999999,0.0032124000000004,0.0020444000000009,4.4200000000154015e-05,0,sub_10
0.0013621999999998,0.0093134000000012,-0.0008969999999998,0.0038546000000004,0.0028928000000009,0.0004748000000001,0,sub_10
0.0024005999999998,0.0095956000000012,-0.0004009999999998,0.0044890000000004,0.0024610000000009,0.0013342000000001,0,sub_10
0.0030655999999998,0.0099718000000012,4.2800000000112944e-05,0.0040838000000004,0.0022148000000009,0.0018360000000001,0,sub_10
0.0025235999999998,0.0101324000000012,0.0001354000000001,0.0028270000000004,0.0017610000000009,0.0016910000000001,0,sub_10
0.0024255999999998,0.0094654000000012,-0.0006333999999998,0.0011464000000004,0.0008870000000009,0.0004754000000001,0,sub_10
0.0017467999999998,0.0085898000000012,5.060000000011301e-05,0.0011756000000004,0.0006460000000009,-0.0007289999999998,0,sub_10
0.0013293999999998,0.0076520000000012,-0.0003813999999998,0.0014192000000004,0.0010418000000009,-0.0015053999999998,0,sub_10
0.0008473999999998,0.0071428000000012,3.300000000009303e-05,0.0022690000000004,0.0006110000000009,-0.0010715999999998,0,sub_10
0.0009779999999998,0.0066244000000012,-0.0001151999999999,0.0031100000000004,-0.000463999999999,0.0006448000000001,0,sub_10
0.0006545999999998,0.0069824000000012,-0.0002847999999999,0.0058862000000004,-0.001791199999999,0.0026566000000001,0,sub_10
0.0010477999999998,0.0077062000000012,-0.0005889999999999,0.0080300000000004,-0.001623799999999,0.0044484000000001,0,sub_10
0.0016355999999998,0.0085158000000012,-0.0007081999999999,0.0095384000000004,-0.001025599999999,0.0055944000000001,0,sub_10
0.0023241999999998,0.0088386000000012,-0.0012483999999998,0.0099780000000004,-0.001061999999999,0.0065200000000001,0,sub_10
0.0028473999999998,0.0090136000000012,-0.0010835999999999,0.0110626000000004,-0.001096399999999,0.0063820000000001,0,sub_10
0.0032829999999998,0.0091904000000012,-0.0006347999999999,0.0110702000000004,-0.000240799999999,0.0055264000000001,0,sub_10
0.0029579999999998,0.0092936000000012,-0.0009977999999999,0.0102252000000004,0.0001942000000009,0.0040244000000001,0,sub_10
0.0024351999999998,0.0092062000000012,-0.0014417999999999,0.0089536000000004,0.0008430000000009,0.0027328000000001,0,sub_10
0.0015837999999998,0.0089172000000012,-0.0013357999999999,0.0080986000000004,0.0012530000000009,0.0021366000000001,0,sub_10
0.0011651999999998,0.0084282000000012,-0.0012391999999999,0.0078858000000004,0.0020868000000009,0.0015444000000001,0,sub_10
0.0018357999999998,0.0081854000000012,-0.0012057999999998,0.0095866000000004,0.0026958000000009,0.0022478000000001,0,sub_10
0.0023309999999998,0.0086176000000012,-0.0013621999999998,0.0102080000000004,0.0018120000000009,0.0042276000000001,0,sub_10
