userAcceleration.x,userAcceleration.y,userAcceleration.z,rotationRate.x,rotationRate.y,rotationRate.z,label,subject
0.0108831999999997,0.0126532000000012,-0.0063721999999999,-0.0021953999999995,0.0045668000000009,-0.0014551999999999,0,sub_15
0.0108019999999997,0.0134634000000012,-0.0058547999999999,-0.0007265999999995,0.0035084000000009,-0.0010279999999999,0,sub_15
0.0103589999999998,0.0147016000000012,-0.0056995999999999,0.0005250000000004,0.0022352000000009,3.880000000006153e-05,0,sub_15
0.0103309999999998,0.0147304000000012,-0.0055879999999999,0.0013526000000004,0.0016026000000009,0.001102,0,sub_15
0.0111669999999997,0.0142642000000012,-0.0055475999999999,0.0013270000000004,0.0005486000000009,0.0017324,0,sub_15
0.0120239999999997,0.0128820000000011,-0.0053029999999999,0.0015214000000004,0.0001364000000009,0.0015088,0,sub_15
0.0125703999999997,0.0122672000000011,-0.0055963999999999,2.8800000000449648e-05,0.0001426000000009,0.0012846,0,sub_15
0.0130393999999997,0.0109894000000011,-0.0057913999999999,-0.0012523999999995,-0.000702599999999,0.0006358,0,sub_15
0.0133809999999997,0.0105944000000011,-0.0061361999999999,-0.0023579999999995,-0.001095599999999,-2.03999999999385e-05,0,sub_15
0.0126769999999997,0.0110636000000011,-0.0061799999999999,-0.0036761999999995,-0.000638199999999,-3.81999999999385e-05,0,sub_15
0.0119003999999998,0.0113686000000011,-0.0066437999999999,-0.0047855999999995,-0.000610199999999,0.000587,0,sub_15
0.0104661999999998,0.0111606000000011,-0.0072443999999999,-0.0048311999999995,-0.000800799999999,0.0016472,0,sub_15
0.0096199999999998,0.0117876000000011,-0.0067883999999999,-0.0048727999999995,-0.000138999999999,0.0027064,0,sub_15
0.0092031999999997,0.0118336000000011,-0.0065791999999999,-0.0048755999999995,0.0004952000000009,0.0039874,0,sub_15
0.0095993999999997,0.0119722000000011,-0.0062121999999999,-0.0046659999999995,6.66000000009658e-05,0.0044166,0,sub_15
0.0099719999999997,0.0121342000000012,-0.0056443999999999,-0.0042403999999995,-0.000360199999999,0.0042066,0,sub_15
0.0111519999999997,0.0126422000000012,-0.0055627999999999,-0.0042881999999995,-0.000538799999999,0.0033534,0,sub_15
0.0120493999999997,0.0127236000000012,-0.0058091999999999,-0.0049743999999995,-0.000289199999999,0.0024952,0,sub_15
0.0128723999999998,0.0124304000000012,-0.0054385999999999,-0.0056595999999995,-0.000463199999999,0.0009966,0,sub_15
0.0131209999999998,0.0122694000000012,-0.0056189999999999,-0.0065551999999995,0.0004272000000009,-7.739999999993854e-05,0,sub_15
0.0129311999999998,0.0124028000000012,-0.0059567999999999,-0.0076687999999995,0.0008896000000009,-0.0005115999999999,0,sub_15
0.0125581999999998,0.0122884000000012,-0.0058919999999999,-0.0080935999999995,0.0011050000000009,-0.0007283999999999,0,sub_15
0.0116763999999998,0.0122472000000012,-0.0060443999999999,-0.0074543999999995,0.0011018000000009,-0.0005101999999999,0,sub_15
0.0108195999999998,0.0123956000000012,-0.0057827999999999,-0.0066037999999995,0.0013084000000009,0.00035,0,sub_15
0.0100253999999998,0.0121294000000012,-0.0058789999999999,-0.0057531999999995,0.0013028000000009,0.0009968,0,sub_15
0.0094053999999997,0.0123388000000012,-0.0060089999999999,-0.0049551999999995,0.0013364000000009,0.001011,0,sub_15
0.0088129999999997,0.0127046000000012,-0.0060033999999999,-0.0043677999999994,0.0020098000000009,0.001023,0,sub_15
0.0088683999999997,0.0126576000000012,-0.0064389999999999,-0.0042077999999995,0.0020472000000009,0.0006054,0,sub_15
0.0094351999999997,0.0132784000000011,-0.0077441999999999,-0.0051155999999995,0.0016632000000009,-3.259999999997842e-05,0,sub_15
0.0100907999999997,0.0133048000000011,-0.0080363999999999,-0.0049575999999995,0.0008502000000009,-0.0008763999999999,0,sub_15
0.0103137999999998,0.0134336000000011,-0.0080093999999999,-0.0041031999999995,0.0006358000000009,-0.0012973999999999,0,sub_15
0.0106843999999998,0.0129050000000011,-0.0076577999999999,-0.0043173999999995,0.0012722000000009,-0.0004451999999999,0,sub_15
0.0115255999999998,0.0129646000000011,-0.0074935999999999,-0.0045355999999995,0.0016932000000009,0.0010482,0,sub_15
0.0117241999999997,0.0120908000000011,-0.0061477999999999,-0.0030841999999995,0.0019170000000009,0.0021378,0,sub_15
0.0114545999999997,0.0123798000000011,-0.0058861999999998,-0.0026985999999995,0.0025698000000009,0.003433,0,sub_15
0.0112291999999997,0.0125748000000011,-0.0058611999999998,-0.0033779999999995,0.0032282000000009,0.0042934,0,sub_15
0.0112485999999997,0.0131650000000011,-0.0062445999999998,-0.0025675999999995,0.0019682000000009,0.0040984,0,sub_15
0.0106129999999997,0.0131420000000011,-0.0060969999999999,-0.0006873999999995,0.0007068000000009,0.00327,0,sub_15
0.0100481999999998,0.0129942000000011,-0.0062367999999999,0.0012292000000004,-0.000576399999999,0.0028578,0,sub_15
0.0099157999999997,0.0126240000000011,-0.0061933999999999,0.0033562000000004,-0.002287399999999,0.0026612,0,sub_15
0.0104919999999997,0.0116342000000011,-0.0058757999999999,0.0052452000000004,-0.004625799999999,0.0026836,0,sub_15
0.0111939999999997,0.0107050000000011,-0.0051901999999999,0.0062854000000004,-0.005895999999999,0.0026988,0,sub_15
0.0116871999999997,0.0108020000000012,-0.0049689999999999,0.0064750000000004,-0.006311599999999,0.0029206,0,sub_15
0.0119433999999997,0.0119152000000012,-0.0057851999999999,0.0055996000000004,-0.0065097999999989,0.002921,0,sub_15
0.0119073999999997,0.0121332000000012,-0.0060897999999999,0.0049396000000004,-0.0062825999999989,0.0029224,0,sub_15
0.0115963999999997,0.0134032000000012,-0.0061717999999999,0.0045166000000004,-0.0054287999999989,0.0029184,0,sub_15
0.0109643999999997,0.0146962000000012,-0.0063507999999998,0.0043090000000004,-0.0045741999999989,0.0024886,0,sub_15
0.0102129999999997,0.0156324000000012,-0.0063921999999998,0.0032488000000004,-0.0032913999999989,0.002266,0,sub_15
0.0097333999999997,0.0154040000000011,-0.0058513999999999,0.0019738000000004,-0.0015757999999989,0.0022528,0,sub_15
0.0097913999999998,0.0156528000000011,-0.0056831999999999,0.0011236000000004,-7.559999999901413e-05,0.0024568,0,sub_15
0.0101725999999998,0.0145612000000011,-0.0060641999999999,-0.0001549999999995,0.0010000000000009,0.0026582,0,sub_15
0.0102801999999998,0.0133574000000011,-0.0063771999999999,-0.0022881999999995,0.0020778000000009,0.0030672,0,sub_15
0.0109797999999998,0.0117394000000011,-0.0068185999999999,-0.0044233999999995,0.0020928000000009,0.0028366,0,sub_15
0.0116005999999998,0.0106446000000011,-0.0068703999999999,-0.0044271999999995,0.0012406000000009,0.0028378,0,sub_15
0.0123645999999998,0.0097976000000011,-0.0072695999999999,-0.0044327999999995,-3.759999999899416e-05,0.0028394,0,sub_15
0.0126641999999998,0.0098644000000011,-0.0069795999999999,-0.0035869999999995,-0.0017449999999989,0.0028476,0,sub_15
0.0131621999999998,0.0103886000000012,-0.0071223999999999,-0.0022997999999995,-0.0034503999999989,0.0024286,0,sub_15
0.0127927999999998,0.0118052000000012,-0.0068737999999999,-0.0012219999999995,-0.0043027999999989,0.002007,0,sub_15
0.0124857999999998,0.0138016000000012,-0.0066265999999999,-0.0020579999999995,-0.004081599999999,0.0011432,0,sub_15
0.0115657999999998,0.0156960000000012,-0.0059023999999999,-0.0033197999999995,-0.003645799999999,0.0002762,0,sub_15
0.0105581999999998,0.0168382000000012,-0.0063807999999999,-0.0045795999999995,-0.002783999999999,-0.0005913999999998,0,sub_15
0.0090363999999998,0.0176788000000011,-0.0061513999999999,-0.0058549999999995,-0.001714199999999,-0.0006017999999998,0,sub_15
0.0090135999999997,0.0171060000000011,-0.0063169999999999,-0.0064961999999995,-0.001076199999999,0.0002474,0,sub_15
0.0087337999999997,0.0159300000000011,-0.0068075999999999,-0.0069323999999995,-0.001507599999999,0.001954,0,sub_15
0.0089859999999997,0.0149822000000011,-0.0064975999999999,-0.0073475999999995,-0.001941199999999,0.0032308,0,sub_15
0.0096011999999997,0.0142304000000011,-0.0053863999999999,-0.0084047999999995,-0.001949799999999,0.0053572,0,sub_15
0.0105843999999997,0.0130868000000011,-0.0058695999999999,-0.0094619999999995,-0.002170599999999,0.0072704,0,sub_15
0.0108625999999997,0.0122192000000011,-0.0056705999999999,-0.0100951999999995,-0.003244199999999,0.008974,0,sub_15
0.0114653999999997,0.0119968000000012,-0.0055775999999999,-0.0094425999999995,-0.003892799999999,0.0098314,0,sub_15
0.0110787999999997,0.0126498000000011,-0.0058231999999999,-0.0094483999999995,-0.003473399999999,0.01154,0,sub_15
0.0114659999999997,0.0133976000000011,-0.0063773999999999,-0.0100885999999995,-0.002410199999999,0.0126024,0,sub_15
0.0117613999999997,0.0141074000000011,-0.0057477999999999,-0.0105123999999995,-0.001557399999999,0.012812,0,sub_15
0.0116081999999998,0.0155502000000011,-0.0052445999999999,-0.0109125999999995,0.0001550000000009,0.0108764,0,sub_15
0.0116671999999998,0.0168612000000011,-0.0048615999999999,-0.0119489999999995,0.0020854000000009,0.0082952,0,sub_15
0.0117103999999998,0.0167674000000011,-0.0052105999999999,-0.0119175999999995,0.0029518000000009,0.0044408,0,sub_15
0.0114869999999997,0.0162018000000011,-0.0049461999999999,-0.0101801999999995,0.0029626000000009,-4.139999999993888e-05,0,sub_15
0.0111743999999997,0.0155844000000011,-0.0047269999999999,-0.0080189999999995,0.0031816000000009,-0.0036663999999999,0,sub_15
0.0106245999999997,0.0140966000000011,-0.0048325999999999,-0.0054527999999995,0.0031778000000009,-0.0049303999999999,0,sub_15
0.0101629999999997,0.0120064000000011,-0.0048453999999999,-0.0026789999999995,0.0029558000000009,-0.0051243999999999,0,sub_15
0.0103677999999997,0.0110168000000011,-0.0045259999999999,-0.0005491999999995,0.0029448000000009,-0.0042547999999999,0,sub_15
0.0102123999999997,0.0105808000000011,-0.0043925999999999,0.0009348000000004,0.0031434000000009,-0.0018945999999999,0,sub_15
0.0101233999999997,0.0111646000000011,-0.0049513999999999,0.0026282000000004,0.0024956000000009,0.000243,0,sub_15
0.0104605999999997,0.0119590000000011,-0.0059759999999999,0.0032586000000004,0.0020670000000009,0.001732,0,sub_15
0.0109013999999997,0.0135044000000011,-0.0068355999999999,0.0028240000000004,0.0016440000000009,0.0027862,0,sub_15
0.0116647999999998,0.0149050000000011,-0.0068605999999999,0.0023942000000004,0.0012252000000009,0.0027722,0,sub_15
0.0126637999999998,0.0160748000000011,-0.0076689999999999,0.0006890000000004,0.0006028000000009,0.0014678,0,sub_15
0.0141197999999998,0.0168732000000011,-0.0075281999999999,-0.0020753999999995,0.0004088000000009,-0.0009013999999999,0,sub_15
0.0151745999999998,0.0173468000000011,-0.0068289999999999,-0.0044101999999995,0.0004282000000009,-0.0036951999999999,0,sub_15
0.0153733999999998,0.0168682000000011,-0.0060127999999999,-0.0063113999999995,0.0006650000000009,-0.0067137999999999,0,sub_15
0.0149005999999998,0.0158670000000011,-0.0060075999999999,-0.0077885999999995,0.0011100000000009,-0.0088751999999999,0,sub_15
0.0135085999999998,0.0144100000000011,-0.0058929999999999,-0.0075627999999995,0.0015458000000009,-0.0101701999999999,0,sub_15
0.0114327999999998,0.0127066000000011,-0.0054333999999999,-0.0062795999999995,0.0017570000000009,-0.0095345999999999,0,sub_15
0.0099847999999998,0.0116050000000011,-0.0052709999999999,-0.0045801999999995,0.0013206000000009,-0.0071861999999999,0,sub_15
0.0086791999999997,0.0112346000000011,-0.0049733999999999,-0.0028885999999995,0.0015132000000009,-0.0035427999999999,0,sub_15
0.0079459999999997,0.0111446000000011,-0.0049943999999999,-0.0014103999999995,0.0012822000000009,-0.0003275999999999,0,sub_15
0.0076533999999997,0.0120250000000012,-0.0045995999999999,0.0002860000000004,0.0010546000000009,0.001821,0,sub_15
0.0079407999999997,0.0129020000000012,-0.0050283999999999,0.0013676000000004,0.0014828000000009,0.0026672,0,sub_15
0.0088037999999997,0.0142754000000012,-0.0052927999999999,0.0013882000000004,0.0021322000000009,0.0024376,0,sub_15
0.0100147999999997,0.0156248000000011,-0.0059905999999999,0.0020508000000004,0.0019322000000009,0.0009316,0,sub_15
0.0118401999999997,0.0161424000000011,-0.0064435999999999,0.0031420000000004,0.0017324000000009,-0.0009985999999999,0,sub_15
0.0130727999999998,0.0165208000000011,-0.0067407999999999,0.0025234000000004,0.0015360000000009,-0.0022999999999999,0,sub_15
0.0145327999999998,0.0167782000000011,-0.0073285999999999,0.0025254000000004,0.0009012000000009,-0.0033673999999999,0,sub_15
0.0151963999999998,0.0167322000000011,-0.0073405999999999,0.0040228000000004,0.0004750000000009,-0.0046383999999998,0,sub_15
0.0155225999999998,0.0156626000000012,-0.0076505999999999,0.0046620000000004,-0.000164599999999,-0.0050603999999998,0,sub_15
0.0147585999999998,0.0149968000000012,-0.0084987999999999,0.0040182000000004,-0.000590199999999,-0.0046371999999998,0,sub_15
0.0146693999999998,0.0141128000000012,-0.0084453999999999,0.0053256000000004,-0.001651599999999,-0.0044417999999998,0,sub_15
0.0134967999999997,0.0135998000000012,-0.0079691999999999,0.0059908000000004,-0.002287999999999,-0.0033969999999998,0,sub_15
0.0116693999999997,0.0130192000000012,-0.0079907999999999,0.0062246000000004,-0.002714999999999,-0.0010733999999999,0,sub_15
0.0109065999999997,0.0126404000000012,-0.0073249999999999,0.0073166000000004,-0.002928599999999,0.0004012,0,sub_15
0.0108975999999997,0.0124630000000012,-0.0061569999999999,0.0096888000000004,-0.003995399999999,0.0010314,0,sub_15
0.0103953999999997,0.0123448000000012,-0.0057137999999999,0.0107538000000004,-0.004637399999999,0.000826,0,sub_15
0.0103345999999998,0.0125846000000011,-0.0051733999999999,0.0116102000000004,-0.005062399999999,-0.0002355999999999,0,sub_15
0.0110245999999998,0.0126988000000011,-0.0045185999999998,0.0118658000000004,-0.005053399999999,-0.0028139999999999,0,sub_15
0.0104335999999998,0.0131552000000011,-0.0047281999999998,0.0114842000000004,-0.0046151999999989,-0.0056109999999998,0,sub_15
0.0096945999999998,0.0135796000000011,-0.0054401999999999,0.0104644000000004,-0.0033241999999989,-0.0079863999999998,0,sub_15
0.0102511999999998,0.0141460000000011,-0.0059723999999998,0.0100806000000004,-0.0022509999999989,-0.0097159999999998,0,sub_15
0.0110263999999998,0.0143828000000012,-0.0065969999999998,0.0092664000000003,-0.0013919999999989,-0.0108073999999999,0,sub_15
0.0115837999999998,0.0142218000000012,-0.0068989999999999,0.0084156000000003,-0.0007497999999989,-0.0108141999999999,0,sub_15
0.0128107999999998,0.0141412000000012,-0.0072609999999999,0.0084126000000004,-0.000964399999999,-0.0103865999999999,0,sub_15
0.0133669999999998,0.0141798000000012,-0.0072421999999998,0.0088316000000004,-0.001821399999999,-0.0095279999999999,0,sub_15
0.0135819999999998,0.0140724000000012,-0.0068839999999999,0.0099152000000004,-0.002047199999999,-0.0078165999999999,0,sub_15
0.0134493999999998,0.0133618000000012,-0.0069125999999999,0.0109998000000004,-0.002271999999999,-0.0063187999999999,0,sub_15
0.0131697999999998,0.0134604000000011,-0.0075069999999999,0.0120844000000004,-0.003345599999999,-0.0056743999999999,0,sub_15
0.0124241999999998,0.0140462000000011,-0.0070617999999998,0.0118916000000004,-0.003563399999999,-0.0048263999999999,0,sub_15
0.0118687999999997,0.0148886000000011,-0.0059769999999999,0.0114912000000004,-0.002926599999999,-0.0044081999999999,0,sub_15
0.0109267999999997,0.0154664000000011,-0.0062299999999999,0.0104226000000004,-0.0031367999999989,-0.0042015999999999,0,sub_15
0.0103363999999997,0.0158466000000011,-0.0060259999999999,0.0106330000000004,-0.0037765999999989,-0.0041993999999999,0,sub_15
0.0105691999999997,0.0162184000000011,-0.0060395999999999,0.0114836000000004,-0.0042065999999989,-0.0039791999999999,0,sub_15
0.0106453999999997,0.0155612000000011,-0.0060955999999999,0.0121422000000004,-0.004214999999999,-0.0035441999999998,0,sub_15
0.0106083999999998,0.0144126000000011,-0.0066251999999999,0.0119472000000004,-0.004220199999999,-0.0031151999999998,0,sub_15
0.0108233999999998,0.0134078000000011,-0.0066901999999999,0.0117550000000004,-0.004010599999999,-0.0031137999999998,0,sub_15
0.0109599999999998,0.0134168000000011,-0.0066563999999999,0.0113534000000004,-0.003584799999999,-0.0037549999999998,0,sub_15
0.0108351999999998,0.0131410000000012,-0.0068565999999999,0.0109518000000004,-0.002734599999999,-0.0039695999999998,0,sub_15
0.0108361999999998,0.0134760000000012,-0.0068285999999999,0.0111670000000004,-0.002733599999999,-0.0043953999999998,0,sub_15
0.0110003999999998,0.0136420000000012,-0.0068921999999999,0.0113804000000004,-0.002734399999999,-0.0043937999999998,0,sub_15
0.0108305999999998,0.0140372000000012,-0.0067783999999999,0.0109574000000004,-0.001880799999999,-0.0043977999999998,0,sub_15
0.0106307999999998,0.0146800000000012,-0.0071813999999999,0.0098974000000004,-0.001242199999999,-0.0039691999999998,0,sub_15
0.0102349999999997,0.0155500000000012,-0.0063301999999999,0.0084106000000004,-0.000814199999999,-0.0037569999999999,0,sub_15
0.0103183999999997,0.0156358000000012,-0.0063783999999999,0.0069258000000004,3.980000000096533e-05,-0.0035455999999999,0,sub_15
0.0103785999999997,0.0155676000000011,-0.0068947999999999,0.0065050000000004,0.0004630000000009,-0.0031123999999999,0,sub_15
0.0109091999999997,0.0154900000000011,-0.0068963999999999,0.0067176000000004,-0.000607199999999,-0.0026729999999999,0,sub_15
0.0116191999999997,0.0149940000000011,-0.0063679999999999,0.0067128000000004,-0.001460199999999,-0.0024583999999999,0,sub_15
0.0124427999999998,0.0135608000000011,-0.0065477999999999,0.0062872000000004,-0.001670199999999,-0.0028883999999999,0,sub_15
0.0118061999999998,0.0135472000000011,-0.0070187999999999,0.0052214000000004,-0.001241199999999,-0.0026825999999999,0,sub_15
0.0118751999999998,0.0137604000000011,-0.0070443999999999,0.0035014000000004,-0.000376799999999,-0.0024699999999999,0,sub_15
0.0115695999999998,0.0138362000000011,-0.0069211999999999,0.0013558000000004,0.0009142000000009,-0.0020469999999999,0,sub_15
0.0111129999999998,0.0141974000000011,-0.0068363999999999,-0.0007907999999995,0.0022042000000009,-0.0014105999999999,0,sub_15
0.0098971999999998,0.0153756000000011,-0.0066429999999999,-0.0025165999999995,0.0032756000000009,0.0002972,0,sub_15
0.0104393999999998,0.0151540000000011,-0.0057091999999999,-0.0025401999999995,0.0028512000000009,0.0015916,0,sub_15
0.0099709999999998,0.0156542000000011,-0.0051319999999999,-0.0016943999999995,0.0017804000000009,0.0022398,0,sub_15
0.0100183999999998,0.0153538000000012,-0.0048941999999999,-0.0006313999999995,0.0015610000000009,0.0028884,0,sub_15
0.0099799999999998,0.0149054000000011,-0.0049657999999999,0.0002172000000004,0.0011294000000009,0.003536,0,sub_15
0.0113403999999998,0.0138358000000011,-0.0054411999999999,0.0008554000000004,0.0004888000000009,0.0033278,0,sub_15
0.0116687999999997,0.0134926000000011,-0.0062637999999999,0.0008248000000004,7.64000000009852e-05,0.002501,0,sub_15
0.0127903999999997,0.0125636000000011,-0.0061405999999999,0.0003674000000004,-0.000122399999999,0.0018848,0,sub_15
0.0130889999999997,0.0128322000000011,-0.0069279999999999,-0.0013691999999995,-0.000315799999999,0.0010458,0,sub_15
0.0128797999999997,0.0133412000000011,-0.0072749999999999,-0.0026799999999995,-0.000299399999999,0.0006368,0,sub_15
0.0121701999999997,0.0139100000000012,-0.0076235999999999,-0.0027135999999995,-0.000502199999999,0.0006642,0,sub_15
0.0121135999999998,0.0144692000000012,-0.0070877999999999,-0.0029287999999995,-0.000290999999999,0.0013034,0,sub_15
0.0115191999999998,0.0149202000000012,-0.0067841999999999,-0.0037831999999995,0.0003478000000009,0.002151,0,sub_15
0.0107399999999998,0.0148288000000011,-0.0067171999999999,-0.0040457999999995,0.0005716000000009,0.0030326,0,sub_15
0.0106157999999998,0.0142350000000011,-0.0069137999999999,-0.0045169999999995,0.0012248000000009,0.0032712,0,sub_15
0.0105679999999998,0.0145314000000011,-0.0062615999999999,-0.0054157999999995,0.0016666000000009,0.0035072,0,sub_15
0.0107133999999997,0.0143962000000011,-0.0068905999999999,-0.0058869999999995,0.0018954000000009,0.0033192,0,sub_15
0.0110109999999997,0.0143696000000011,-0.0077671999999998,-0.0061447999999995,0.0019112000000009,0.0029194,0,sub_15
0.0112337999999997,0.0146328000000011,-0.0077027999999998,-0.0063533999999995,0.0025528000000009,0.0024898,0,sub_15
0.0118789999999997,0.0145766000000011,-0.0074151999999998,-0.0057103999999995,0.0027654000000009,0.0020668,0,sub_15
0.0120167999999997,0.0141046000000011,-0.0077571999999999,-0.0054931999999995,0.0029802000000009,0.0014272,0,sub_15
0.0121219999999998,0.0139358000000011,-0.0073675999999998,-0.0061275999999995,0.0036242000000009,0.000781,0,sub_15
0.0116817999999998,0.0139922000000012,-0.0072239999999999,-0.0072421999999995,0.0044972000000009,0.0003722,0,sub_15
0.0121211999999998,0.0138760000000011,-0.0069421999999999,-0.0070805999999995,0.0047258000000009,0.000187,0,sub_15
0.0122337999999998,0.0142144000000011,-0.0068371999999999,-0.0071369999999995,0.0045264000000009,0.0006416,0,sub_15
0.0125919999999997,0.0142086000000011,-0.0070469999999999,-0.0071923999999995,0.0045402000000009,0.001096,0,sub_15
0.0123533999999997,0.0148262000000011,-0.0069519999999999,-0.0072497999999995,0.0043400000000009,0.0017642,0,sub_15
0.0124471999999997,0.0150732000000011,-0.0063151999999999,-0.0061839999999995,0.0043356000000009,0.0019854,0,sub_15
0.0123211999999997,0.0147792000000011,-0.0061473999999999,-0.0055437999999995,0.0041212000000009,0.0017764,0,sub_15
0.0123629999999997,0.0145560000000011,-0.0067327999999999,-0.0053745999999995,0.0037080000000009,0.0011608,0,sub_15
0.0126827999999998,0.0146526000000011,-0.0066645999999999,-0.0066981999999995,0.0033006000000009,0.000321,0,sub_15
0.0127001999999998,0.0152564000000011,-0.0073907999999999,-0.0075929999999995,0.0028936000000009,-0.0009429999999999,0,sub_15
0.0122769999999998,0.0152360000000011,-0.0074595999999999,-0.0091297999999995,0.0037602000000009,-0.0005039999999999,0,sub_15
0.0122577999999998,0.0150876000000011,-0.0083583999999999,-0.0104561999999995,0.0046234000000009,0.0005776,0,sub_15
0.0121379999999998,0.0152200000000011,-0.0077117999999999,-0.0115241999999995,0.0054750000000009,0.0016372,0,sub_15
0.0118337999999997,0.0149610000000012,-0.0071387999999999,-0.0104581999999995,0.0056826000000009,0.0020716,0,sub_15
0.0111351999999997,0.0141534000000012,-0.0061593999999999,-0.0091789999999995,0.0061016000000009,0.002721,0,sub_15
0.0115195999999997,0.0141596000000012,-0.0062119999999999,-0.0081417999999995,0.0050408000000009,0.0018868,0,sub_15
0.0112735999999997,0.0148550000000012,-0.0052737999999999,-0.0066767999999995,0.0039796000000009,0.0008418,0,sub_15
0.0109239999999997,0.0152114000000012,-0.0053695999999999,-0.0045715999999995,0.0031282000000009,1.4800000000041409e-05,0,sub_15
0.0102705999999998,0.0156542000000012,-0.0054735999999999,-0.0031075999999995,0.0027028000000009,-0.0001761999999999,0,sub_15
0.0105931999999998,0.0155838000000012,-0.0055787999999999,-0.0024969999999995,0.0020680000000009,-0.0005867999999999,0,sub_15
0.0108557999999998,0.0153990000000011,-0.0055729999999999,-0.0016433999999995,0.0016406000000009,-0.0010075999999999,0,sub_15
0.0114149999999998,0.0148648000000011,-0.0056597999999998,-0.0012157999999995,0.0012156000000009,-0.0016449999999999,0,sub_15
0.0114239999999998,0.0143788000000011,-0.0062539999999998,-0.0016395999999995,0.0012196000000009,-0.0022889999999999,0,sub_15
0.0120029999999997,0.0141688000000011,-0.0061653999999998,-0.0022883999999995,0.0014378000000009,-0.0027185999999999,0,sub_15
0.0128337999999997,0.0141996000000011,-0.0060993999999998,-0.0022999999999995,0.0016514000000009,-0.0025025999999999,0,sub_15
0.0125905999999997,0.0139106000000011,-0.0063469999999999,-0.0023135999999995,0.0016512000000009,-0.0020727999999999,0,sub_15
0.0125039999999997,0.0140834000000012,-0.0066461999999999,-0.0025411999999995,0.0016508000000009,-0.0014307999999999,0,sub_15
0.0125947999999997,0.0146786000000012,-0.0062427999999999,-0.0027679999999995,0.0016514000000009,-0.0010023999999999,0,sub_15
0.0122281999999997,0.0148124000000012,-0.0066773999999999,-0.0034099999999995,0.0016520000000009,-0.0005795999999999,0,sub_15
0.0115625999999998,0.0154724000000012,-0.0071429999999999,-0.0044757999999995,0.0020810000000009,-0.0003739999999999,0,sub_15
0.0116747999999998,0.0161744000000012,-0.0075785999999999,-0.0053281999999995,0.0022970000000009,-0.0003801999999998,0,sub_15
