userAcceleration.x,userAcceleration.y,userAcceleration.z,rotationRate.x,rotationRate.y,rotationRate.z,label,subject
0.0253217999999998,0.0244404000000012,0.0180538,-0.0099703999999996,0.0208150000000008,-0.0015759999999998,0,sub_18
0.0251563999999998,0.0250674000000012,0.0194024,-0.0091311999999996,0.0180408000000008,-0.0011391999999999,0,sub_18
0.0250261999999998,0.0253602000000012,0.0209842,-0.0082861999999996,0.0169692000000008,-0.0002773999999999,0,sub_18
0.0249945999999997,0.0256352000000012,0.0220914,-0.0083113999999996,0.0161382000000008,-7.079999999991534e-05,0,sub_18
0.0250817999999997,0.0256126000000012,0.0218246,-0.0079079999999996,0.0153074000000008,-0.0002883999999999,0,sub_18
0.0253117999999997,0.0252966000000012,0.0211,-0.0075037999999996,0.0144774000000008,-0.0007197999999999,0,sub_18
0.0256745999999997,0.0252914000000012,0.0195778,-0.0077375999999996,0.0136514000000008,-0.0015827999999999,0,sub_18
0.0255227999999997,0.0250054000000012,0.017976,-0.0081791999999996,0.0141044000000008,-0.0024487999999999,0,sub_18
0.0258053999999997,0.0245488000000012,0.017055,-0.0088077999999996,0.0162388000000008,-0.0028831999999998,0,sub_18
0.0265315999999997,0.0237450000000012,0.0166724,-0.0092239999999996,0.0183716000000008,-0.0031023999999998,0,sub_18
0.0271909999999997,0.0230600000000012,0.0161734,-0.0096439999999996,0.0196522000000008,-0.0033205999999998,0,sub_18
0.0279433999999997,0.0227018000000012,0.0161006,-0.0102949999999996,0.0211670000000008,-0.0033333999999998,0,sub_18
0.0284553999999997,0.0226976000000012,0.0168274,-0.0109447999999996,0.0228950000000008,-0.0033465999999998,0,sub_18
0.0281269999999997,0.0227990000000012,0.0176288,-0.0113861999999996,0.0233448000000008,-0.0035701999999998,0,sub_18
0.0271275999999997,0.0233288000000012,0.0185924,-0.0122561999999996,0.0235822000000008,-0.0035829999999998,0,sub_18
0.0263749999999997,0.0241794000000012,0.0193874,-0.0126965999999996,0.0242450000000008,-0.0038067999999998,0,sub_18
0.0247321999999997,0.0244674000000012,0.0202526,-0.0118459999999996,0.0233906000000008,-0.0040133999999998,0,sub_18
0.0238683999999997,0.0240956000000012,0.0198668,-0.0122833999999996,0.0216850000000008,-0.0033731999999998,0,sub_18
0.0227143999999998,0.0235508000000012,0.0189104,-0.0159271999999996,0.0197734000000008,-0.0016869999999999,0,sub_18
0.0220457999999998,0.0246456000000012,0.0167544,-0.0197985999999996,0.0172132000000008,0.0025622,0,sub_18
0.0231075999999998,0.0234158000000012,0.0168588,-0.0221849999999996,0.0165824000000008,0.0080986,0,sub_18
0.0244397999999998,0.0225702000000012,0.0182686,-0.0237015999999996,0.0182972000000008,0.0123562,0,sub_18
0.0274063999999998,0.0227930000000012,0.0191748,-0.0232997999999996,0.0174572000000008,0.014494,0,sub_18
0.0305945999999998,0.0252924000000012,0.0197574,-0.0197087999999996,0.0136250000000008,0.0162308,0,sub_18
0.0315651999999998,0.0274110000000012,0.022951,-0.0148317999999996,0.0091568000000008,0.0160544,0,sub_18
0.0310839999999998,0.0288624000000012,0.0258146,-0.0097337999999996,0.0033890000000008,0.0154566,0,sub_18
0.0300561999999998,0.0308388000000012,0.0264872,-0.0046329999999996,-0.0015273999999991,0.0150712,0,sub_18
0.0267661999999998,0.0308356000000012,0.0257082,-0.0001737999999996,-0.0068721999999991,0.0151072,0,sub_18
0.0225317999999997,0.0271294000000012,0.0236428,0.0045322000000003,-0.0070951999999991,0.0127882,0,sub_18
0.0207447999999997,0.0214554000000012,0.0193988,0.0079818000000003,-0.0043215999999991,0.0081068,0,sub_18
0.0188271999999997,0.0194884000000012,0.0123454,0.0088720000000003,-0.0017503999999991,0.0029802,0,sub_18
0.0190595999999997,0.0168954000000012,0.0055302,0.0080332000000003,-0.0019513999999991,-1.839999999989517e-05,0,sub_18
0.0190535999999997,0.0137738000000012,0.0024204,0.0048470000000003,0.0001946000000008,-0.0011115999999998,0,sub_18
0.0188569999999997,0.0144548000000012,0.0024018,-0.0041309999999996,-0.001698399999999,0.0005374000000001,0,sub_18
0.0198711999999997,0.0172200000000012,0.004671,-0.0122667999999996,-0.005938799999999,0.0024088,0,sub_18
0.0225973999999997,0.0180426000000012,0.0090684,-0.0163443999999996,-0.014288599999999,0.0045282,0,sub_18
0.0259931999999997,0.0172416000000012,0.0140326,-0.0206507999999996,-0.025834399999999,0.0068638,0,sub_18
0.0246325999999997,0.0172674000000012,0.017209,-0.0283767999999996,-0.038222199999999,0.0096038,0,sub_18
0.0244817999999998,0.0186862000000012,0.0180646,-0.0365151999999996,-0.048261599999999,0.0114834,0,sub_18
0.0208743999999998,0.0182262000000012,0.017158,-0.0437971999999996,-0.057452599999999,0.0135814,0,sub_18
0.0170517999999998,0.0195090000000012,0.0138104,-0.0551307999999996,-0.063589199999999,0.0128692,0,sub_18
0.0128621999999998,0.0213628000000012,0.0120818,-0.0660087999999996,-0.0663063999999991,0.0091648,0,sub_18
0.0138765999999998,0.0225380000000012,0.0135704,-0.0749369999999996,-0.0645475999999991,0.0033318,0,sub_18
0.0165059999999998,0.0225692000000012,0.0145226,-0.0814891999999996,-0.0658435999999991,-0.0039693999999999,0,sub_18
0.0255203999999998,0.0231994000000012,0.0129486,-0.0906133999999996,-0.0701115999999991,-0.0117119999999999,0,sub_18
0.0355235999999998,0.0242998000000012,0.0141306,-0.0978211999999996,-0.0746019999999991,-0.0187999999999999,0,sub_18
0.0427357999999998,0.0263652000000012,0.013255,-0.1018389999999996,-0.0784763999999991,-0.0228755999999999,0,sub_18
0.0502677999999998,0.0281738000000012,0.0111618,-0.1061303999999996,-0.093862599999999,-0.0250153999999999,0,sub_18
0.0585583999999998,0.0284248000000012,0.0111864,-0.1079321999999996,-0.118131799999999,-0.0282015999999999,0,sub_18
0.0624041999999998,0.0296104000000012,0.0121394,-0.1016509999999996,-0.1483931999999991,-0.0317509999999999,0,sub_18
0.0625937999999998,0.0293792000000012,0.0128584,-0.0896315999999996,-0.1837879999999991,-0.0352535999999999,0,sub_18
0.0554297999999998,0.0261474000000012,0.0158532,-0.0814011999999996,-0.220751199999999,-0.0392027999999999,0,sub_18
0.0490665999999998,0.0242754000000012,0.016667,-0.0720809999999996,-0.2509073999999991,-0.0414439999999999,0,sub_18
0.0413883999999998,0.0261326000000012,0.0175614,-0.0624641999999996,-0.259133399999999,-0.0402929999999999,0,sub_18
0.0295097999999998,0.0303376000000012,0.0254004,-0.0514901999999996,-0.2494709999999991,-0.0383007999999999,0,sub_18
0.0165755999999998,0.0328876000000012,0.032446,-0.0345207999999996,-0.2340811999999991,-0.0352059999999998,0,sub_18
0.0112109999999998,0.0370436000000012,0.0384528,-0.0073217999999996,-0.2113809999999991,-0.0346177999999999,0,sub_18
0.0070607999999998,0.0434200000000012,0.0468848,0.0293298000000003,-0.1788951999999991,-0.0384627999999998,0,sub_18
0.0028497999999998,0.0448072000000012,0.052289,0.0710966000000003,-0.1485545999999991,-0.0431237999999998,0,sub_18
0.0007343999999998,0.0458612000000012,0.0545944,0.1086628000000003,-0.119329399999999,-0.0504005999999999,0,sub_18
-0.0019628000000001,0.0499738000000012,0.0562604,0.1434696000000003,-0.089232999999999,-0.0600477999999999,0,sub_18
-0.0022906000000001,0.0548598000000012,0.0571604,0.1861606000000003,-0.059597799999999,-0.0677167999999999,0,sub_18
0.0013225999999998,0.0547762000000012,0.0523762,0.2266786000000002,-0.037417199999999,-0.0741093999999999,0,sub_18
0.0040783999999998,0.0510174000000012,0.0485752,0.2565098000000003,-0.020095999999999,-0.0814249999999998,0,sub_18
0.0102011999999998,0.0416538000000012,0.0436064,0.2787466000000003,-0.013766599999999,-0.0851233999999998,0,sub_18
0.0167119999999998,0.0368090000000012,0.0324284,0.2864626000000003,-0.006335599999999,-0.0852927999999998,0,sub_18
0.0261003999999998,0.0350962000000012,0.0183972,0.2817694000000003,-0.0046207999999991,-0.0838321999999999,0,sub_18
0.0344363999999998,0.0320622000000012,0.0093488,0.2773398000000003,0.0019452000000008,-0.0772747999999999,0,sub_18
0.0375179999999997,0.0273188000000012,0.0075798,0.2713524000000003,-0.0004531999999991,-0.0653757999999999,0,sub_18
0.0379755999999997,0.0263424000000012,0.0045402,0.2653504000000003,-0.0032885999999991,-0.0506987999999999,0,sub_18
0.0366543999999997,0.0220446000000012,0.0067892,0.2627144000000003,-0.0142421999999991,-0.0334241999999999,0,sub_18
0.0229807999999997,0.0176750000000012,0.0121658,0.2624880000000003,-0.0172971999999991,-0.0221249999999999,0,sub_18
0.0027997999999997,0.0174642000000012,0.0178694,0.2621292000000003,-0.0023809999999991,-0.0223603999999999,0,sub_18
0.0043013999999998,0.0218808000000012,0.0117794,0.2674208000000003,0.0238536000000008,-0.0341073999999999,0,sub_18
0.0169573999999998,0.0270550000000012,0.0051088,0.2705682000000003,0.0452056000000008,-0.0484269999999999,0,sub_18
0.0359147999999998,0.0302048000000012,0.0004586,0.2811942000000003,0.0733312000000008,-0.0582163999999999,0,sub_18
0.0565011999999998,0.0267432000000012,0.0042442,0.2947594000000003,0.0990696000000009,-0.0596501999999999,0,sub_18
0.0730511999999998,0.0281084000000012,0.0036472,0.2949200000000004,0.0860776000000008,-0.0609141999999999,0,sub_18
0.0758199999999998,0.0335966000000012,0.0032898,0.2992608000000003,0.0570782000000008,-0.0587103999999999,0,sub_18
0.0728279999999998,0.0310444000000012,-0.0003499999999999,0.3127968000000003,0.0342184000000008,-0.0547409999999999,0,sub_18
0.0666563999999998,0.0271860000000012,-0.0027111999999999,0.3223152000000003,0.0116174000000008,-0.0587047999999999,0,sub_18
0.0623517999999997,0.0292180000000012,-0.0077293999999999,0.3175328000000004,-0.019213599999999,-0.0700217999999999,0,sub_18
0.0609891999999997,0.0308560000000012,-0.0087077999999999,0.3193794000000003,-0.0449621999999991,-0.0793761999999999,0,sub_18
0.0603571999999997,0.0328558000000012,-0.0056953999999999,0.3253154000000003,-0.063054199999999,-0.0889253999999999,0,sub_18
0.0584751999999997,0.0371546000000012,0.005219,0.3220956000000003,-0.0821581999999991,-0.1038785999999998,0,sub_18
0.0591735999999997,0.0408838000000012,0.0101817999999999,0.3079746000000004,-0.107607199999999,-0.1210361999999999,0,sub_18
0.0590537999999997,0.0428754000000012,0.012571,0.2870410000000003,-0.1291991999999991,-0.1378189999999998,0,sub_18
0.0631003999999997,0.0396102000000012,0.0114626,0.2518010000000003,-0.1535089999999991,-0.1551255999999999,0,sub_18
0.0600129999999997,0.0437794000000012,0.0103118,0.2124888000000003,-0.1820649999999991,-0.1726687999999998,0,sub_18
0.0521325999999998,0.0502824000000012,0.0040246,0.1985564000000003,-0.2156003999999991,-0.1923783999999999,0,sub_18
0.0384711999999998,0.0501892000000012,0.0084856,0.1964274000000003,-0.2351109999999991,-0.2130917999999999,0,sub_18
0.0244873999999998,0.0455394000000012,0.0137622,0.1879578000000003,-0.2454209999999991,-0.2381341999999998,0,sub_18
0.0107129999999998,0.0480578000000012,0.0221118,0.1791870000000003,-0.2310025999999991,-0.2664149999999999,0,sub_18
0.0057065999999998,0.0394786000000012,0.0348872,0.1604576000000003,-0.2050279999999991,-0.2988394,0,sub_18
0.0053165999999998,0.0315686000000012,0.0497606,0.1170422000000003,-0.1687233999999991,-0.3357224,0,sub_18
0.0080669999999998,0.0305714000000012,0.0568018,0.0576374000000003,-0.1319265999999991,-0.3752813999999999,0,sub_18
0.0137395999999998,0.0334624000000012,0.0615128,0.0044528000000003,-0.0859977999999991,-0.4128857999999999,0,sub_18
0.0155467999999998,0.0325320000000012,0.0657662,-0.0356103999999996,-0.0383575999999991,-0.4461473999999999,0,sub_18
0.0119035999999998,0.0339638000000012,0.0662178,-0.0647827999999996,0.0130718000000008,-0.4774151999999999,0,sub_18
0.0056465999999998,0.0326822000000012,0.062326,-0.0868593999999996,0.0823500000000008,-0.5028875999999999,0,sub_18
0.0029363999999998,0.0326630000000012,0.0586116,-0.0957059999999996,0.1560390000000008,-0.5240005999999999,0,sub_18
0.0047277999999997,0.0321568000000011,0.0526674,-0.1001703999999996,0.2149828000000008,-0.5378001999999998,0,sub_18
0.0036707999999997,0.0243524000000012,0.044517,-0.1075833999999996,0.2642666000000009,-0.5483837999999999,0,sub_18
0.0014231999999997,0.0163584000000012,0.0359806,-0.1212129999999996,0.3131220000000009,-0.553028,0,sub_18
-0.0008204000000002,0.0125362000000012,0.0280846,-0.1372653999999996,0.3519450000000008,-0.5508398,0,sub_18
-0.0022194000000002,-0.0007575999999987,0.0219812,-0.1531607999999996,0.3851998000000008,-0.5415929999999999,0,sub_18
-0.0057346000000002,-0.0135285999999987,0.0146236,-0.1626983999999996,0.4164840000000008,-0.5246082,0,sub_18
-0.0046670000000002,-0.0161763999999987,0.0075852,-0.1665419999999996,0.4425956000000008,-0.4977493999999999,0,sub_18
-0.0018396000000001,-0.0172793999999987,0.0025044,-0.1617111999999996,0.4613962000000008,-0.4616339999999998,0,sub_18
0.0007467999999998,-0.0253885999999987,0.0033564,-0.1499137999999996,0.4694956000000008,-0.4194741999999999,0,sub_18
-0.0006918000000001,-0.0271081999999987,0.0004226,-0.1366995999999996,0.4652138000000008,-0.3725883999999999,0,sub_18
-0.0001838000000001,-0.0281853999999987,-0.0013273999999999,-0.1266935999999996,0.4603000000000007,-0.3246557999999999,0,sub_18
0.0032743999999998,-0.0352947999999987,-0.0017269999999999,-0.1211845999999996,0.4575092000000008,-0.2709889999999999,0,sub_18
0.0087093999999998,-0.0405843999999987,-0.0071715999999999,-0.1270609999999996,0.4415334000000008,-0.2135391999999999,0,sub_18
0.0138289999999998,-0.0389889999999987,-0.0163247999999999,-0.1402065999999996,0.4255702000000008,-0.1529353999999999,0,sub_18
0.0171751999999998,-0.0345949999999987,-0.0194099999999999,-0.1578309999999996,0.4136562000000008,-0.0887361999999998,0,sub_18
0.0160253999999998,-0.0298485999999987,-0.0180235999999999,-0.1684217999999996,0.4053180000000008,-0.0191513999999998,0,sub_18
0.0086633999999998,-0.0211963999999987,-0.0187891999999999,-0.1675163999999996,0.3848212000000008,0.0441200000000001,0,sub_18
0.0034967999999998,-0.0154451999999987,-0.0063283999999999,-0.1682711999999996,0.3652210000000008,0.0977646000000001,0,sub_18
0.0033127999999997,-0.0036587999999987,0.0048814,-0.1783585999999996,0.3601326000000009,0.1534618000000001,0,sub_18
0.0059381999999997,0.0099088000000012,0.01477,-0.1807445999999996,0.3565208000000008,0.2062198000000001,0,sub_18
0.0135867999999997,0.0230650000000012,0.0230458,-0.1921121999999996,0.3421002000000008,0.2525198,0,sub_18
0.0236775999999997,0.0409708000000012,0.030098,-0.2173251999999996,0.3275372000000008,0.2931684000000001,0,sub_18
0.0262601999999997,0.0559844000000012,0.031234,-0.2223927999999996,0.3250778000000009,0.3264646000000001,0,sub_18
0.0219529999999997,0.0563038000000012,0.0394686,-0.2126983999999996,0.3177214000000009,0.3461970000000001,0,sub_18
0.0281177999999998,0.0535070000000012,0.040464,-0.2196201999999996,0.3110836000000009,0.3604714000000001,0,sub_18
0.0424065999999998,0.0633378000000012,0.0203196,-0.2210845999999996,0.2841872000000008,0.3745960000000001,0,sub_18
0.0731999999999998,0.0655012000000012,0.012051,-0.2085697999999996,0.2359294000000008,0.3905550000000001,0,sub_18
0.0993611999999998,0.0627044000000012,0.0064514,-0.2087849999999996,0.1627628000000008,0.4128664000000001,0,sub_18
0.1154569999999998,0.0645964000000012,0.0036272,-0.2037885999999996,0.0578506000000008,0.4307682,0,sub_18
0.1215485999999998,0.0690374000000012,0.0048394,-0.1825901999999996,-0.0517995999999991,0.4472938000000001,0,sub_18
0.1224383999999998,0.0617170000000012,0.0246252,-0.1570131999999996,-0.1325063999999991,0.4680858,0,sub_18
0.1130227999999998,0.0490894000000012,0.0401632,-0.1422405999999996,-0.184034599999999,0.5007290000000001,0,sub_18
0.1041025999999998,0.0463858000000012,0.0498142,-0.1329973999999996,-0.230646599999999,0.5341818,0,sub_18
0.0987575999999998,0.0474736000000012,0.0479586,-0.1354437999999996,-0.263807999999999,0.5707404,0,sub_18
0.0881911999999998,0.0459800000000012,0.0411568,-0.1391453999999996,-0.2948207999999991,0.6038692000000001,0,sub_18
0.0706017999999998,0.0419398000000012,0.0311876,-0.1434323999999996,-0.324297399999999,0.6263098000000001,0,sub_18
0.0453149999999998,0.0392144000000012,0.0199746,-0.1425485999999996,-0.3599013999999991,0.631489,0,sub_18
0.0188229999999998,0.0335820000000012,0.0069194,-0.1426961999999996,-0.3944089999999991,0.629823,0,sub_18
0.0050895999999998,0.0276620000000012,-0.0059389999999999,-0.1412887999999996,-0.4186817999999991,0.6247364000000001,0,sub_18
0.0036993999999997,0.0214220000000012,-0.0027267999999999,-0.1438923999999996,-0.4363237999999991,0.6166222000000001,0,sub_18
0.0039829999999997,0.0246292000000012,0.0005356,-0.1482135999999996,-0.4592743999999991,0.6055118000000002,0,sub_18
0.0028217999999997,0.0266198000000012,-0.0007529999999998,-0.1506191999999996,-0.4805381999999991,0.5971902000000001,0,sub_18
0.0063097999999997,0.0290746000000012,0.0025194000000001,-0.1423053999999996,-0.4896987999999991,0.5897824,0,sub_18
0.0040961999999997,0.0303026000000012,0.0103424,-0.1339503999999996,-0.4886371999999991,0.5834302000000001,0,sub_18
-0.0023286000000001,0.0302964000000012,0.0097404,-0.1300665999999996,-0.4845803999999991,0.5778974,0,sub_18
-0.0064196000000001,0.0249480000000012,0.0081904,-0.1306779999999996,-0.479035199999999,0.5770314000000001,0,sub_18
-0.0142598000000001,0.0333996000000012,0.0060922,-0.1278245999999996,-0.4645445999999991,0.5738280000000001,0,sub_18
-0.0109546000000001,0.0300162000000012,0.0092532,-0.1276669999999996,-0.439801199999999,0.5688938000000001,0,sub_18
-0.0050084000000002,0.0259198000000012,0.009459,-0.1301291999999996,-0.426348199999999,0.5658786000000001,0,sub_18
-0.0026908000000002,0.0303316000000012,0.0099642,-0.1285413999999995,-0.4237351999999991,0.5528644,0,sub_18
-0.0018022000000002,0.0342674000000012,0.013873,-0.1123797999999995,-0.420266999999999,0.5264912,0,sub_18
0.0072753999999997,0.0293612000000012,0.019297,-0.0940175999999996,-0.4108049999999991,0.4911526,0,sub_18
0.0147735999999997,0.0310640000000012,0.021136,-0.0771569999999996,-0.3994231999999991,0.4540818000000001,0,sub_18
0.0212073999999997,0.0347302000000012,0.0238062,-0.0576725999999996,-0.3803547999999991,0.4106100000000001,0,sub_18
0.0265723999999998,0.0323734000000012,0.0240224,-0.0347281999999996,-0.3500107999999991,0.3682160000000001,0,sub_18
0.0349315999999998,0.0288326000000012,0.0243052,-0.0181187999999996,-0.3100365999999991,0.3206382,0,sub_18
0.0429595999999998,0.0265706000000012,0.024505,-0.0006605999999996,-0.2772843999999991,0.2668798,0,sub_18
0.0484475999999998,0.0273846000000012,0.0215784,0.0249680000000003,-0.2372901999999991,0.2065462,0,sub_18
0.0558373999999998,0.0301224000000012,0.0282026,0.0534384000000003,-0.1908793999999991,0.1374648,0,sub_18
0.0618031999999998,0.0285818000000012,0.0308464,0.0789322000000003,-0.1399923999999991,0.0704934000000001,0,sub_18
0.0722657999999998,0.0232162000000012,0.0318652,0.0915852000000002,-0.0871849999999991,0.0138982000000001,0,sub_18
0.0752795999999998,0.0241214000000012,0.0323126,0.0914590000000003,-0.0203071999999991,-0.0338309999999998,0,sub_18
0.0708265999999998,0.0255822000000012,0.0311708,0.0976544000000003,0.0309868000000008,-0.0793597999999998,0,sub_18
0.0545387999999998,0.0250956000000012,0.0201374,0.1039702000000003,0.0671312000000008,-0.1193135999999998,0,sub_18
0.0351973999999998,0.0334886000000012,0.0173476,0.1271070000000003,0.0908776000000008,-0.1636203999999999,0,sub_18
0.0144605999999997,0.0385828000000012,0.0175272,0.1444070000000003,0.0973886000000008,-0.2083731999999999,0,sub_18
0.0117593999999997,0.0352182000000012,0.0067498,0.1701132000000003,0.0842330000000008,-0.2440691999999999,0,sub_18
0.0162051999999997,0.0256844000000012,0.008379,0.1968652000000003,0.0793308000000009,-0.2667359999999999,0,sub_18
0.0278085999999997,0.0196640000000012,0.0117942,0.2081768000000003,0.0686838000000008,-0.2779663999999998,0,sub_18
0.0431349999999997,0.0148030000000012,0.009701,0.2078598000000003,0.0545872000000008,-0.2689775999999999,0,sub_18
0.0480679999999997,0.0187084000000012,0.0092398,0.2350620000000003,0.0490894000000008,-0.2497661999999999,0,sub_18
0.0383515999999997,0.0230854000000012,0.0245324,0.2635946000000003,0.0521198000000008,-0.2331199999999999,0,sub_18
0.0301603999999997,0.0292006000000011,0.0285222,0.2614072000000003,0.0539894000000008,-0.2192507999999999,0,sub_18
0.0282267999999997,0.0329814000000011,0.0258074,0.2652220000000003,0.0645632000000008,-0.2027871999999999,0,sub_18
0.0266523999999997,0.0328678000000011,0.0248166,0.2622434000000003,0.0751914000000008,-0.1940621999999999,0,sub_18
0.0228175999999997,0.0302274000000012,0.0263082,0.2419884000000003,0.0778224000000008,-0.1950615999999999,0,sub_18
0.0208993999999997,0.0264244000000012,0.0241488,0.2082936000000003,0.0788052000000008,-0.1985029999999999,0,sub_18
0.0147525999999997,0.0282306000000012,0.0183306,0.1888710000000003,0.0767458000000008,-0.1994905999999998,0,sub_18
0.0075679999999997,0.0264272000000012,0.016733,0.1675194000000003,0.0721390000000008,-0.2011291999999998,0,sub_18
0.0063097999999998,0.0168994000000012,0.0149754,0.1333654000000003,0.0716088000000008,-0.1988033999999998,0,sub_18
0.0128765999999998,0.0123616000000012,0.0078346,0.0998276000000003,0.0736016000000009,-0.1885715999999999,0,sub_18
0.0197769999999997,0.0095762000000012,0.0044724,0.0735062000000003,0.0753228000000008,-0.1699569999999998,0,sub_18
0.0262597999999997,0.0004850000000012,0.0037244,0.0392716000000003,0.0755700000000008,-0.1488319999999999,0,sub_18
0.0311941999999997,-0.0006173999999987,0.004742,0.0084586000000003,0.0755998000000008,-0.1296057999999999,0,sub_18
0.0352615999999997,0.0080708000000012,0.0074126,-0.0059025999999996,0.0734698000000008,-0.1173119999999999,0,sub_18
0.0375901999999997,0.0113636000000012,0.0131144,-0.0170477999999996,0.0715544000000008,-0.1082007999999999,0,sub_18
0.0437187999999997,0.0075802000000012,0.013056,-0.0388893999999996,0.0647710000000008,-0.0978759999999999,0,sub_18
0.0521103999999997,0.0096348000000012,0.0115778,-0.0601329999999996,0.0500964000000008,-0.0860413999999999,0,sub_18
0.0606667999999998,0.0124426000000012,0.0155766,-0.0779683999999996,0.0345562000000008,-0.0737545999999999,0,sub_18
0.0613311999999998,0.0126828000000012,0.0200464,-0.1004739999999996,0.0247830000000008,-0.0610805999999999,0,sub_18
0.0624079999999998,0.0110196000000012,0.0214054,-0.1310715999999996,0.0114452000000008,-0.0557223999999999,0,sub_18
0.0588387999999998,0.0194938000000012,0.0193812,-0.1522309999999996,-0.0014567999999991,-0.0609811999999998,0,sub_18
0.0525361999999998,0.0284378000000012,0.0208174,-0.1660349999999996,-0.0038967999999991,-0.0781661999999998,0,sub_18
0.0440011999999997,0.0293580000000012,0.0163614,-0.1791585999999996,0.0004870000000008,-0.0974913999999998,0,sub_18
0.0309459999999997,0.0260254000000012,0.0082136,-0.1886941999999996,0.0012160000000008,-0.1116593999999998,0,sub_18
0.0184861999999997,0.0242028000000012,0.001001,-0.1845883999999996,0.0069772000000008,-0.1174063999999998,0,sub_18
0.0109705999999997,0.0217554000000012,0.0044284,-0.1781249999999996,0.0178324000000008,-0.1203661999999999,0,sub_18
0.0080905999999997,0.0224688000000012,0.008755,-0.1708329999999996,0.0273894000000008,-0.1190455999999998,0,sub_18
0.0073661999999998,0.0251172000000012,0.0140326,-0.1625077999999996,0.0356396000000008,-0.1115205999999998,0,sub_18
