userAcceleration.x,userAcceleration.y,userAcceleration.z,rotationRate.x,rotationRate.y,rotationRate.z,label,subject
0.0086187999999998,0.0143700000000012,-0.0047779999999999,-0.0047121999999995,0.0038144000000009,-0.0012297999999999,0,sub_15
0.0098539999999997,0.0145052000000011,-0.0049695999999998,-0.0042625999999995,0.0038096000000009,-0.0016645999999999,0,sub_15
0.0111715999999997,0.0154100000000011,-0.0055629999999999,-0.0035995999999995,0.0035920000000009,-0.0023111999999999,0,sub_15
0.0127587999999997,0.0159536000000011,-0.0060839999999999,-0.0031537999999995,0.0029472000000009,-0.0025315999999999,0,sub_15
0.0141621999999997,0.0168406000000011,-0.0071855999999998,-0.0029233999999995,0.0018770000000009,-0.0027529999999999,0,sub_15
0.0158889999999997,0.0181132000000011,-0.0084303999999998,-0.0016297999999995,0.0001630000000009,-0.0027523999999999,0,sub_15
0.0170703999999997,0.0191606000000012,-0.0085973999999999,0.0007018000000004,-0.002193199999999,-0.0016647999999999,0,sub_15
0.0174729999999997,0.0201044000000012,-0.0087741999999999,0.0032430000000004,-0.004553399999999,0.0002788,0,sub_15
0.0176627999999997,0.0205634000000012,-0.0085519999999999,0.0055728000000004,-0.006910999999999,0.0017936,0,sub_15
0.0168193999999997,0.0209178000000012,-0.0080329999999999,0.0060208000000004,-0.007793199999999,0.0028656,0,sub_15
0.0150571999999997,0.0208706000000012,-0.0070191999999999,0.0045578000000004,-0.007599199999999,0.0028546,0,sub_15
0.0129075999999997,0.0207446000000012,-0.0061615999999999,0.0028902000000004,-0.006123399999999,0.0021996,0,sub_15
0.0105709999999997,0.0191444000000012,-0.0050353999999999,0.0018676000000004,-0.004009199999999,0.0011208,0,sub_15
0.0077031999999997,0.0166190000000012,-0.0046913999999999,0.0008450000000004,-0.001682799999999,0.0002556,0,sub_15
0.0058431999999997,0.0143364000000012,-0.0040373999999999,-0.0004227999999995,3.040000000092552e-05,-0.0008235999999999,0,sub_15
0.0047925999999997,0.0133664000000012,-0.0037909999999999,-0.0021143999999995,0.0025964000000009,-0.0016933999999999,0,sub_15
0.0047189999999998,0.0123866000000012,-0.0034925999999999,-0.0037659999999995,0.0046966000000009,-0.0031961999999999,0,sub_15
0.0060873999999998,0.0118480000000012,-0.0042983999999999,-0.0056339999999995,0.0057340000000009,-0.0051261999999999,0,sub_15
0.0082135999999998,0.0131482000000012,-0.0051297999999999,-0.0066531999999995,0.0061276000000009,-0.0066223999999999,0,sub_15
0.0104095999999997,0.0136240000000012,-0.0060133999999999,-0.0061845999999995,0.0067230000000009,-0.0066129999999999,0,sub_15
0.0124821999999997,0.0141330000000012,-0.0064389999999999,-0.0046577999999995,0.0064584000000009,-0.0055265999999999,0,sub_15
0.0144047999999997,0.0151624000000012,-0.0075351999999999,-0.0038225999999995,0.0053782000000009,-0.0025283999999999,0,sub_15
0.0162199999999997,0.0167260000000012,-0.0081149999999999,-0.0034139999999995,0.0038752000000009,4.000000000008146e-05,0,sub_15
0.0179815999999997,0.0177794000000012,-0.0077545999999999,-0.0036389999999995,0.0030170000000009,0.0017486,0,sub_15
0.0193655999999998,0.0203052000000012,-0.0076179999999999,-0.0033947999999995,0.0025620000000009,0.0021828,0,sub_15
0.0190423999999998,0.0214414000000012,-0.0074623999999999,-0.0027181999999995,0.0021106000000009,0.0013382,0,sub_15
0.0171545999999997,0.0213138000000012,-0.0070355999999999,-0.0018203999999995,0.0020896000000009,-0.0007871999999999,0,sub_15
0.0141215999999997,0.0208536000000012,-0.0058203999999999,-0.0013437999999995,0.0033484000000009,-0.0029171999999999,0,sub_15
0.0100707999999997,0.0193508000000012,-0.0054293999999999,-0.0006593999999995,0.0043892000000009,-0.0039771999999999,0,sub_15
0.0062557999999997,0.0171254000000012,-0.0051101999999999,-0.0006623999999995,0.0041744000000009,-0.0035495999999999,0,sub_15
0.0044039999999997,0.0153956000000012,-0.0055403999999999,-0.0008861999999995,0.0033170000000009,-0.0020545999999999,0,sub_15
0.0049351999999998,0.0150086000000012,-0.0055809999999999,-0.0002605999999995,0.0020288000000009,-0.0001257999999999,0,sub_15
0.0059349999999998,0.0147504000000012,-0.0061049999999999,0.0007900000000004,0.0005252000000009,0.0020198,0,sub_15
0.0086733999999997,0.0155622000000012,-0.0061629999999999,0.0016638000000004,-0.000995799999999,0.0035276,0,sub_15
0.0118043999999997,0.0166054000000012,-0.0066329999999999,0.0023350000000004,-0.001869999999999,0.003324,0,sub_15
0.0146711999999997,0.0179584000000012,-0.0069703999999999,0.0015220000000004,-0.001669599999999,0.0020404,0,sub_15
0.0163013999999997,0.0186078000000012,-0.0076211999999999,-0.0001385999999995,-0.001248799999999,-0.0003175999999999,0,sub_15
0.0174857999999997,0.0191578000000012,-0.0073669999999999,-0.0009485999999995,-0.001045799999999,-0.0022419999999999,0,sub_15
0.0176305999999997,0.0190602000000011,-0.0068913999999999,-0.0013665999999995,-0.000824599999999,-0.0039543999999999,0,sub_15
0.0161901999999998,0.0182402000000012,-0.0064773999999999,-0.0022163999999995,-0.000605999999999,-0.0046013999999999,0,sub_15
0.0134039999999998,0.0173076000000011,-0.0057427999999999,-0.0024131999999995,-0.000618799999999,-0.0035305999999999,0,sub_15
0.0104591999999998,0.0168286000000011,-0.0048569999999999,-0.0023985999999995,-0.000209599999999,-0.0016043999999999,0,sub_15
0.0083991999999998,0.0165612000000012,-0.0050145999999999,-0.0028135999999995,-0.000437999999999,0.0003196,0,sub_15
0.0076005999999998,0.0163236000000012,-0.0057819999999999,-0.0021655999999995,-0.001097999999999,0.002679,0,sub_15
0.0081487999999998,0.0169494000000011,-0.0059505999999999,-0.0006581999999995,-0.001331599999999,0.004189,0,sub_15
0.0098521999999997,0.0179624000000011,-0.0062459999999999,0.0008316000000004,-0.002188999999999,0.0042004,0,sub_15
0.0115547999999997,0.0180094000000011,-0.0062491999999999,0.0016842000000004,-0.003041599999999,0.0035666,0,sub_15
0.0129267999999997,0.0181154000000011,-0.0067811999999999,0.0016842000000004,-0.003678199999999,0.0029266,0,sub_15
0.0139353999999997,0.0184672000000011,-0.0064209999999999,0.0012778000000004,-0.004103199999999,0.0014334,0,sub_15
0.0144967999999997,0.0180790000000012,-0.0062493999999998,0.0006552000000004,-0.004105799999999,0.0010064,0,sub_15
0.0146767999999997,0.0173404000000012,-0.0057707999999999,0.0004564000000004,-0.003687999999999,0.00165,0,sub_15
0.0142581999999997,0.0172326000000012,-0.0065625999999999,0.0006824000000004,-0.003485599999999,0.0025104,0,sub_15
0.0140269999999997,0.0166744000000012,-0.0059009999999998,0.0015504000000004,-0.002859399999999,0.0033748,0,sub_15
0.0125429999999997,0.0167978000000012,-0.0062513999999998,0.0011190000000004,-0.002013399999999,0.0052934,0,sub_15
0.0111295999999997,0.0179818000000012,-0.0059943999999998,0.0015352000000004,-0.002024199999999,0.0076464,0,sub_15
0.0098039999999997,0.0180922000000012,-0.0062247999999998,0.0032288000000004,-0.003103199999999,0.0095824,0,sub_15
0.0095261999999998,0.0179270000000012,-0.0059521999999998,0.0044928000000004,-0.004607599999999,0.0117296,0,sub_15
0.0095741999999997,0.0177910000000012,-0.0059373999999999,0.0057834000000004,-0.005480399999999,0.0126008,0,sub_15
0.0106477999999997,0.0169954000000012,-0.0051977999999999,0.0079350000000004,-0.006137399999999,0.0119824,0,sub_15
0.0120987999999997,0.0153982000000011,-0.0058135999999999,0.0096618000000004,-0.008064199999999,0.0096534,0,sub_15
0.0136153999999997,0.0148732000000011,-0.0069943999999999,0.0101114000000004,-0.009347399999999,0.0073148,0,sub_15
0.0153113999999997,0.0147922000000011,-0.0072025999999999,0.0099352000000004,-0.008917999999999,0.003474,0,sub_15
0.0167643999999997,0.0153306000000011,-0.0067903999999999,0.0088866000000004,-0.008473799999999,-0.0001657999999999,0,sub_15
0.0166989999999997,0.0163082000000011,-0.0067003999999999,0.0086886000000004,-0.008671599999999,-0.0037989999999999,0,sub_15
0.0157221999999997,0.0173944000000012,-0.0061137999999999,0.0093412000000004,-0.008662799999999,-0.0065717999999999,0,sub_15
0.0138127999999997,0.0187284000000012,-0.0041753999999999,0.0110814000000004,-0.007814599999999,-0.0101863999999999,0,sub_15
0.0120975999999997,0.0196782000000012,-0.0033755999999999,0.0140912000000004,-0.008041399999999,-0.0125087999999999,0,sub_15
0.0102757999999998,0.0194184000000012,-0.0042445999999999,0.0177326000000004,-0.009338999999999,-0.0139709999999999,0,sub_15
0.0088209999999998,0.0193812000000012,-0.0046745999999999,0.0196660000000004,-0.009358199999999,-0.0139511999999999,0,sub_15
0.0078435999999998,0.0184860000000012,-0.0043903999999999,0.0211756000000004,-0.008100199999999,-0.0132949999999999,0,sub_15
0.0081975999999997,0.0170190000000011,-0.0047617999999999,0.0213850000000004,-0.006831199999999,-0.0111587999999999,0,sub_15
0.0079841999999997,0.0158282000000011,-0.0046633999999999,0.0218032000000004,-0.006627999999999,-0.0090197999999999,0,sub_15
0.0087575999999997,0.0160032000000011,-0.0050825999999999,0.0220156000000004,-0.006646399999999,-0.0062333999999999,0,sub_15
0.0106449999999997,0.0153590000000011,-0.0058491999999999,0.0232912000000004,-0.007520999999999,-0.0034383999999999,0,sub_15
0.0128713999999997,0.0156822000000011,-0.0070409999999999,0.0243524000000004,-0.009032199999999,-0.0010715999999999,0,sub_15
0.0148995999999997,0.0162494000000011,-0.0077969999999999,0.0252002000000004,-0.011603599999999,0.000227,0,sub_15
0.0172097999999997,0.0170398000000012,-0.0088383999999999,0.0260508000000004,-0.0137481999999989,0.0013114,0,sub_15
0.0183411999999997,0.0174298000000012,-0.0088755999999999,0.0296628000000004,-0.0167453999999989,0.0017678,0,sub_15
0.0184039999999997,0.0177030000000012,-0.0085609999999999,0.0349826000000004,-0.0195353999999989,0.0022358,0,sub_15
0.0165415999999997,0.0180080000000012,-0.0066693999999999,0.0388174000000004,-0.0208271999999989,0.0022642,0,sub_15
0.0148057999999998,0.0177206000000012,-0.0048325999999999,0.0428696000000004,-0.021479799999999,0.0020796,0,sub_15
0.0125981999999998,0.0167774000000012,-0.0041559999999999,0.0452236000000004,-0.023183599999999,0.0003886,0,sub_15
0.0094261999999998,0.0156408000000012,-0.0046029999999999,0.0407746000000004,-0.019960799999999,-0.0019971999999999,0,sub_15
0.0072547999999997,0.0150650000000011,-0.0056599999999999,0.0329194000000004,-0.015233799999999,-0.0046223999999999,0,sub_15
0.0072967999999997,0.0146126000000011,-0.0071105999999999,0.0244164000000004,-0.010723599999999,-0.0057561999999999,0,sub_15
0.0063965999999997,0.0150444000000011,-0.0077819999999999,0.0161152000000004,-0.007497599999999,-0.0056049999999999,0,sub_15
0.0060637999999997,0.0158700000000011,-0.0075617999999999,0.0088682000000004,-0.003009199999999,-0.0028839999999999,0,sub_15
0.0074607999999997,0.0165342000000012,-0.0067265999999999,0.0065162000000004,-0.000883399999999,0.0003016,0,sub_15
0.0097549999999997,0.0171272000000012,-0.0053087999999999,0.0041646000000004,0.0010424000000009,0.0026172,0,sub_15
0.0119377999999997,0.0175886000000012,-0.0052767999999999,0.0031000000000004,0.0029696000000009,0.0034464,0,sub_15
0.0136977999999997,0.0172964000000012,-0.0063143999999999,0.0016182000000004,0.0063924000000009,0.0036296,0,sub_15
0.0145187999999997,0.0175072000000012,-0.0066689999999999,0.0005718000000004,0.0106702000000009,0.0027466,0,sub_15
0.0137127999999997,0.0173966000000012,-0.0061703999999999,-0.0009039999999995,0.0143104000000009,0.0018614,0,sub_15
0.0117263999999997,0.0160062000000012,-0.0058819999999999,-0.0015315999999995,0.0162336000000009,0.001,0,sub_15
0.0096031999999997,0.0142126000000011,-0.0055767999999999,-0.0032289999999995,0.0170970000000009,-0.0002947999999999,0,sub_15
0.0090421999999997,0.0131882000000011,-0.0056627999999999,-0.0055711999999995,0.0171096000000009,-0.0013793999999999,0,sub_15
0.0102009999999997,0.0114398000000011,-0.0067035999999999,-0.0073039999999995,0.0160776000000009,-0.0020415999999999,0,sub_15
0.0116961999999997,0.0108596000000011,-0.0081405999999999,-0.0090415999999995,0.0144048000000009,-0.0022757999999999,0,sub_15
0.0141415999999997,0.0115446000000012,-0.0103615999999999,-0.0110011999999995,0.0116640000000009,-0.0016555999999999,0,sub_15
0.0171805999999997,0.0128360000000012,-0.0119971999999999,-0.0112613999999995,0.0072128000000009,-0.0010213999999999,0,sub_15
0.0206655999999998,0.0145344000000012,-0.0123093999999999,-0.0091755999999995,0.0014794000000009,-0.0014373999999999,0,sub_15
0.0219665999999997,0.0166726000000012,-0.0112445999999999,-0.0081267999999995,-0.003845599999999,-0.0027051999999999,0,sub_15
0.0227205999999997,0.0176732000000012,-0.0104123999999999,-0.0077153999999995,-0.008316999999999,-0.0037647999999999,0,sub_15
0.0208935999999997,0.0186642000000012,-0.0087445999999999,-0.0062293999999995,-0.010663199999999,-0.0043923999999998,0,sub_15
0.0179099999999997,0.0194358000000012,-0.0073505999999999,-0.0039501999999995,-0.011494399999999,-0.0032947999999998,0,sub_15
0.0132827999999997,0.0193508000000012,-0.0067675999999999,-0.0014623999999995,-0.011481999999999,-0.0002737999999999,0,sub_15
0.0098473999999997,0.0184818000000012,-0.0072095999999999,0.0014406000000004,-0.012754399999999,0.0040336,0,sub_15
0.0072543999999997,0.0182090000000012,-0.0071001999999999,0.0049770000000004,-0.015308199999999,0.0085606,0,sub_15
0.0065127999999997,0.0177632000000012,-0.0061475999999999,0.0085162000000004,-0.018071799999999,0.0122334,0,sub_15
0.0067273999999998,0.0169246000000012,-0.0053633999999999,0.0093592000000004,-0.018932999999999,0.013736,0,sub_15
0.0080257999999998,0.0153040000000012,-0.0054379999999999,0.0082982000000004,-0.018287599999999,0.0130868,0,sub_15
0.0098253999999997,0.0138832000000012,-0.0055063999999999,0.0074658000000004,-0.015931799999999,0.0107278,0,sub_15
0.0114235999999997,0.0128836000000012,-0.0049735999999999,0.0047324000000004,-0.011430199999999,0.0062164,0,sub_15
0.0122435999999997,0.0128598000000012,-0.0058977999999999,-0.0004631999999995,-0.007289399999999,0.0019112,0,sub_15
0.0127293999999997,0.0128742000000012,-0.0075905999999999,-0.0014173999999995,-0.006581799999999,-9.79999999991825e-06,0,sub_15
0.0129933999999997,0.0138042000000012,-0.0068249999999999,-0.0010913999999995,-0.005454199999999,-0.0014951999999999,0,sub_15
0.0125683999999997,0.0150570000000012,-0.0055787999999999,-0.0020417999999995,-0.002620999999999,-0.0021369999999999,0,sub_15
0.0121315999999997,0.0161076000000012,-0.0050497999999999,-0.0021463999999995,-0.000646399999999,-0.0019171999999999,0,sub_15
0.0112707999999997,0.0159508000000012,-0.0053339999999998,-4.99999999953038e-06,0.0012628000000009,-0.0016909999999999,0,sub_15
0.0102265999999997,0.0160420000000012,-0.0047751999999998,1.7000000000469636e-05,0.0053142000000009,-0.0025505999999999,0,sub_15
0.0085571999999997,0.0159918000000011,-0.0048399999999998,-0.0017795999999995,0.0092036000000009,-0.0029847999999999,0,sub_15
0.0075239999999997,0.0156264000000011,-0.0055395999999998,-0.0042297999999995,0.0105370000000009,-0.0029929999999999,0,sub_15
0.0068065999999997,0.0149028000000011,-0.0063379999999999,-0.0060495999999995,0.0103742000000009,-0.0023539999999999,0,sub_15
0.0086529999999997,0.0154016000000011,-0.0066501999999999,-0.0082911999999995,0.0110660000000009,-0.0019325999999999,0,sub_15
0.0114399999999997,0.0158356000000011,-0.0071435999999999,-0.0101059999999995,0.0117564000000009,-0.0015081999999999,0,sub_15
0.0147019999999997,0.0162590000000012,-0.0085777999999999,-0.0099041999999995,0.0100480000000009,-0.0006499999999999,0,sub_15
0.0179199999999997,0.0169196000000012,-0.0092543999999999,-0.0073599999999995,0.0072660000000009,0.000226,0,sub_15
0.0203483999999997,0.0173720000000012,-0.0098657999999999,-0.0041737999999995,0.0053322000000009,0.0015326,0,sub_15
0.0208659999999997,0.0169960000000011,-0.0094903999999999,-0.0022727999999995,0.0027620000000009,0.0032584,0,sub_15
0.0199409999999997,0.0167352000000011,-0.0087221999999999,-0.0008621999999995,-0.000227799999999,0.0045596,0,sub_15
0.0187197999999997,0.0165326000000011,-0.0087401999999998,-8.979999999955026e-05,-0.003213599999999,0.0054292,0,sub_15
0.0166915999999997,0.0171236000000011,-0.0089455999999998,-0.0012281999999995,-0.004698799999999,0.0056424,0,sub_15
0.0147773999999997,0.0183158000000011,-0.0083111999999998,-0.0040667999999995,-0.005535399999999,0.0049884,0,sub_15
0.0117221999999997,0.0191186000000012,-0.0074739999999998,-0.0056173999999995,-0.005520799999999,0.0034876,0,sub_15
0.0090757999999998,0.0197322000000012,-0.0071209999999999,-0.0077453999999995,-0.004659399999999,0.0030442,0,sub_15
0.0068379999999998,0.0190410000000012,-0.0066229999999999,-0.0111477999999995,-0.002090799999999,0.003017,0,sub_15
0.0059861999999998,0.0176586000000012,-0.0059181999999999,-0.0130903999999995,-0.000794799999999,0.0030074,0,sub_15
0.0061047999999998,0.0158546000000012,-0.0053827999999999,-0.0118371999999995,-0.000787399999999,0.0028082,0,sub_15
0.0077583999999998,0.0143208000000012,-0.0053237999999999,-0.0095229999999995,-0.001425399999999,0.0032582,0,sub_15
0.0094583999999997,0.0131774000000012,-0.0058041999999999,-0.0074219999999995,-0.002487199999999,0.00328,0,sub_15
0.0112555999999997,0.0134904000000012,-0.0060039999999999,-0.0044675999999995,-0.003764199999999,0.0030944,0,sub_15
0.0117421999999997,0.0145484000000012,-0.0054247999999999,-0.0012621999999995,-0.003558999999999,0.002262,0,sub_15
0.0121973999999997,0.0161374000000012,-0.0058915999999999,-0.0006113999999995,-0.002066399999999,0.00141,0,sub_15
0.0124327999999997,0.0172232000000012,-0.0068027999999999,-0.0008159999999995,-0.000996999999999,0.0005526,0,sub_15
0.0130715999999997,0.0175822000000012,-0.0068625999999999,0.0002326000000004,-0.000320199999999,-0.0005213999999999,0,sub_15
0.0125065999999998,0.0181322000000012,-0.0067541999999999,0.0014946000000004,0.0003558000000009,-0.0015937999999999,0,sub_15
0.0122395999999997,0.0176442000000012,-0.0066815999999998,0.0012612000000004,0.0012476000000009,-0.0020359999999999,0,sub_15
0.0118385999999997,0.0170342000000012,-0.0066631999999998,0.0010278000000004,0.0023514000000009,-0.0022647999999999,0,sub_15
0.0113507999999997,0.0160884000000012,-0.0065433999999998,0.0010086000000004,0.0036676000000009,-0.0024923999999999,0,sub_15
0.0099903999999997,0.0163514000000012,-0.0065235999999998,-0.0006887999999995,0.0055918000000009,-0.0027201999999999,0,sub_15
0.0103697999999997,0.0161760000000012,-0.0063065999999998,-0.0023869999999995,0.0073030000000009,-0.0029479999999999,0,sub_15
0.0106793999999997,0.0163646000000012,-0.0069611999999999,-0.0028117999999995,0.0079428000000009,-0.0027381999999999,0,sub_15
0.0117939999999997,0.0153654000000012,-0.0073057999999999,-0.0030411999999995,0.0077470000000009,-0.0018903999999999,0,sub_15
0.0128639999999998,0.0152760000000012,-0.0071183999999999,-0.0039097999999995,0.0069176000000009,-0.0019007999999999,0,sub_15
0.0145001999999997,0.0149420000000012,-0.0065693999999999,-0.0039219999999995,0.0060880000000009,-0.0025461999999999,0,sub_15
0.0155183999999997,0.0149884000000012,-0.0061675999999999,-0.0052087999999995,0.0061168000000009,-0.0036287999999999,0,sub_15
0.0160389999999997,0.0149642000000012,-0.0072103999999999,-0.0071297999999995,0.0065772000000009,-0.0055709999999999,0,sub_15
0.0154373999999997,0.0156874000000011,-0.0079045999999999,-0.0073383999999995,0.0061578000000009,-0.0070673999999999,0,sub_15
0.0143553999999997,0.0172664000000011,-0.0074145999999999,-0.0054179999999995,0.0057268000000009,-0.0074807999999999,0,sub_15
0.0126447999999998,0.0173098000000011,-0.0076225999999999,-0.0047863999999995,0.0044436000000009,-0.0068337999999999,0,sub_15
0.0113337999999998,0.0168860000000011,-0.0079451999999999,-0.0037327999999995,0.0029424000000009,-0.0053289999999999,0,sub_15
0.0105451999999997,0.0168292000000011,-0.0067537999999999,-0.0028923999999995,0.0016492000000009,-0.0023347999999999,0,sub_15
0.0102877999999997,0.0165836000000012,-0.0059409999999998,-0.0024719999999995,0.0012122000000009,1.4200000000041696e-05,0,sub_15
0.0105603999999997,0.0159570000000012,-0.0062349999999998,-0.0039679999999995,0.0007852000000009,0.0014954,0,sub_15
0.0116845999999997,0.0159314000000012,-0.0059343999999998,-0.0046029999999995,0.0012110000000009,0.0021268,0,sub_15
0.0122885999999997,0.0163006000000012,-0.0057733999999999,-0.0041681999999995,0.0014234000000009,0.0019114,0,sub_15
0.0124003999999997,0.0155820000000012,-0.0062475999999999,-0.0026697999999995,0.0009980000000009,0.0004268,0,sub_15
0.0124729999999997,0.0153616000000012,-0.0066647999999999,-0.0026669999999995,0.0003640000000009,-0.0008541999999999,0,sub_15
0.0131417999999997,0.0144664000000012,-0.0069259999999999,-0.0026467999999995,-0.000263999999999,-0.0017189999999999,0,sub_15
0.0129177999999997,0.0148650000000012,-0.0078909999999999,-0.0026283999999995,-0.000893799999999,-0.0021563999999999,0,sub_15
0.0117117999999997,0.0153482000000012,-0.0082919999999998,-0.0038903999999995,-3.379999999903321e-05,-0.0011091999999999,0,sub_15
0.0114481999999997,0.0156150000000012,-0.0073789999999998,-0.0062209999999995,0.0014648000000009,0.000998,0,sub_15
0.0114861999999997,0.0155668000000012,-0.0064525999999999,-0.0068445999999995,0.0021088000000009,0.0022636,0,sub_15
0.0110045999999998,0.0156694000000011,-0.0058795999999999,-0.0070587999999995,0.0025330000000009,0.0029026,0,sub_15
0.0106637999999998,0.0153510000000011,-0.0051345999999999,-0.0076969999999995,0.0029614000000009,0.0028976,0,sub_15
0.0110687999999998,0.0150444000000011,-0.0042845999999999,-0.0072691999999995,0.0021120000000009,0.0018336,0,sub_15
0.0114017999999998,0.0156682000000011,-0.0046499999999999,-0.0055593999999995,0.0010476000000009,0.0001378000000001,0,sub_15
0.0113857999999998,0.0159660000000011,-0.0051825999999999,-0.0042563999999995,0.0006290000000009,-0.0011437999999998,0,sub_15
0.0112559999999998,0.0167486000000012,-0.0056281999999999,-0.0029543999999995,0.0004218000000009,-0.0019983999999998,0,sub_15
0.0114815999999998,0.0167398000000011,-0.0056553999999999,-0.0012311999999995,-0.000428599999999,-0.0022083999999998,0,sub_15
0.0120615999999998,0.0162356000000011,-0.0064129999999999,6.420000000046961e-05,-0.001278399999999,-0.0022077999999998,0,sub_15
0.0119955999999998,0.0157078000000011,-0.0064067999999999,0.0002928000000004,-0.001699999999999,-0.0017877999999999,0,sub_15
0.0121977999999998,0.0153478000000011,-0.0065155999999999,0.0009292000000004,-0.0017055999999989,-0.0009287999999999,0,sub_15
0.0118313999999998,0.0146782000000011,-0.0058455999999999,0.0007130000000004,-0.0012829999999989,0.0001372,0,sub_15
0.0120257999999998,0.0140012000000011,-0.0061015999999998,0.0007256000000004,-0.0010809999999989,0.0012052,0,sub_15
0.0120949999999998,0.0140588000000011,-0.0060975999999998,0.0003144000000004,-0.001086999999999,0.0014158,0,sub_15
0.0123037999999998,0.0143018000000011,-0.0062387999999998,0.0003318000000004,-0.001092799999999,0.001202,0,sub_15
0.0122047999999998,0.0146550000000011,-0.0061209999999999,-0.0007155999999995,-0.000881199999999,0.000767,0,sub_15
0.0121681999999997,0.0147462000000011,-0.0070777999999999,-0.0009095999999995,-0.000672399999999,0.000338,0,sub_15
0.0117993999999997,0.0153996000000011,-0.0071405999999999,-0.0011191999999995,-0.000243799999999,-9.139999999995842e-05,0,sub_15
0.0113695999999997,0.0155608000000011,-0.0067391999999999,-0.0009019999999995,0.0003954000000009,-0.0003041999999999,0,sub_15
0.0112921999999997,0.0150844000000011,-0.0066153999999999,-0.0013267999999995,0.0008230000000009,-0.0003075999999999,0,sub_15
0.0106923999999997,0.0144942000000012,-0.0063889999999999,-0.0015159999999995,0.0014476000000009,-0.0003007999999999,0,sub_15
0.0104967999999997,0.0144760000000011,-0.0064091999999998,-0.0023441999999995,0.0022874000000009,-0.0002985999999999,0,sub_15
0.0104051999999997,0.0142864000000011,-0.0065987999999999,-0.0035981999999995,0.0031296000000009,-0.0005131999999999,0,sub_15
0.0112073999999997,0.0139320000000011,-0.0072087999999999,-0.0044283999999995,0.0033312000000009,-0.0007239999999999,0,sub_15
0.0114703999999998,0.0145710000000011,-0.0073491999999999,-0.0046213999999995,0.0031036000000009,-0.0007161999999999,0,sub_15
0.0120019999999998,0.0148740000000011,-0.0076047999999999,-0.0048367999999995,0.0026784000000009,-0.0007171999999999,0,sub_15
0.0126115999999998,0.0153964000000011,-0.0072533999999999,-0.0048425999999995,0.0016124000000009,-0.0005023999999999,0,sub_15
0.0126855999999998,0.0159808000000011,-0.0068391999999999,-0.0042081999999995,0.0007562000000009,-6.939999999995839e-05,0,sub_15
