userAcceleration.x,userAcceleration.y,userAcceleration.z,rotationRate.x,rotationRate.y,rotationRate.z,label,subject
-0.0246598000000001,-0.0109643999999987,-0.0083803999999998,0.0009086000000003,-0.0003035999999991,-0.0026177999999998,0,sub_14
-0.0246620000000001,-0.0111053999999987,-0.0085077999999998,-0.0025101999999996,-0.0011447999999991,-0.0024269999999998,0,sub_14
-0.0251010000000001,-0.0107751999999987,-0.0077399999999998,-0.0059349999999996,-0.0007057999999991,-0.0020375999999998,0,sub_14
-0.0259916000000001,-0.0103977999999987,-0.0070065999999999,-0.0078593999999996,0.0003706000000008,-0.0024931999999998,0,sub_14
-0.0267338000000001,-0.0104437999999987,-0.0069421999999998,-0.0087091999999996,0.0020868000000008,-0.0040101999999998,0,sub_14
-0.0280558000000001,-0.0111231999999987,-0.0074675999999999,-0.0082777999999996,0.0040114000000008,-0.0055185999999998,0,sub_14
-0.0288354000000001,-0.0107561999999987,-0.0079385999999999,-0.0065701999999996,0.0055038000000008,-0.0065901999999998,0,sub_14
-0.0296896000000001,-0.0108197999999987,-0.0094629999999999,-0.0046507999999996,0.0052842000000008,-0.0065763999999998,0,sub_14
-0.0301270000000001,-0.0108471999999987,-0.0106615999999999,-0.0040201999999996,0.0037880000000009,-0.0059291999999998,0,sub_14
-0.0300138000000001,-0.0111295999999987,-0.0108571999999999,-0.0040345999999996,0.0018654000000009,-0.0046449999999998,0,sub_14
-0.0303218000000001,-0.0111935999999987,-0.0109415999999999,-0.0042703999999996,0.0003750000000009,-0.0031603999999998,0,sub_14
-0.0306756000000001,-0.0116339999999987,-0.0109091999999999,-0.0042905999999996,-0.000689999999999,-0.0016747999999998,0,sub_14
-0.0311306000000001,-0.0120991999999986,-0.0100407999999999,-0.0038765999999996,-0.000688799999999,-0.0008283999999998,0,sub_14
-0.0308302000000001,-0.0120101999999987,-0.0090233999999999,-0.0028195999999996,0.0001616000000009,0.0002350000000001,0,sub_14
-0.0299996000000001,-0.0121511999999987,-0.0081483999999999,-0.0017663999999996,0.0005842000000008,0.0017262000000001,0,sub_14
-0.0284946000000001,-0.0127433999999987,-0.0078749999999999,-0.0015577999999996,0.0007914000000008,0.0030092000000001,0,sub_14
-0.0270944000000001,-0.0125761999999987,-0.0068225999999999,-0.0019923999999996,0.0007860000000009,0.0047152000000001,0,sub_14
-0.0261900000000001,-0.0119521999999987,-0.0066613999999999,-0.0024401999999996,0.0003564000000009,0.0064248000000001,0,sub_14
-0.0256902000000001,-0.0119541999999987,-0.0070879999999998,-0.0033135999999996,-7.079999999908478e-05,0.007918,0,sub_14
-0.0259990000000001,-0.0116251999999987,-0.0078215999999998,-0.0033287999999996,-0.000496799999999,0.0083488,0,sub_14
-0.0266880000000001,-0.0114441999999987,-0.0074031999999998,-0.0024885999999996,-0.001136399999999,0.008145,0,sub_14
-0.0272394000000001,-0.0116469999999987,-0.0078559999999998,-0.0014329999999996,-0.0013503999999991,0.0079422,0,sub_14
-0.0271720000000001,-0.0119383999999987,-0.0077257999999999,5.680000000034867e-05,-0.0022079999999991,0.0079538,0,sub_14
-0.0277612000000001,-0.0120057999999987,-0.0082699999999999,0.0015474000000003,-0.0028523999999991,0.007965,0,sub_14
-0.0281982000000001,-0.0120975999999987,-0.0084609999999999,0.0019702000000003,-0.0032817999999991,0.0083958000000001,0,sub_14
-0.0280810000000001,-0.0111923999999987,-0.0089705999999999,0.0021798000000003,-0.003497999999999,0.0090386000000001,0,sub_14
-0.0281598000000001,-0.0103399999999987,-0.0094533999999999,0.0028102000000003,-0.003922799999999,0.0084046000000001,0,sub_14
-0.0285534000000001,-0.0098941999999987,-0.0093449999999999,0.0028036000000003,-0.003493799999999,0.0079786000000001,0,sub_14
-0.0282568000000001,-0.0094485999999987,-0.0089635999999999,0.0023682000000003,-0.003065199999999,0.0079770000000001,0,sub_14
-0.0274756000000001,-0.0095019999999987,-0.0088933999999999,0.0019310000000003,-0.002850399999999,0.0081894000000001,0,sub_14
-0.0271480000000001,-0.0094597999999987,-0.0089715999999999,0.0017032000000003,-0.0030641999999991,0.0088310000000001,0,sub_14
-0.0265120000000001,-0.0096271999999987,-0.0084697999999999,0.0014842000000003,-0.0032807999999991,0.0098980000000001,0,sub_14
-0.0261970000000001,-0.0096627999999987,-0.0083879999999999,0.0010554000000003,-0.0032809999999991,0.0103224000000001,0,sub_14
-0.0257544000000001,-0.0099563999999987,-0.0083649999999999,0.0006258000000003,-0.003918599999999,0.0103202000000001,0,sub_14
-0.0257672000000001,-0.0098061999999987,-0.0084393999999999,-1.6599999999671304e-05,-0.004126599999999,0.0101056000000001,0,sub_14
-0.0259802000000001,-0.0100895999999987,-0.0081425999999999,-0.0006551999999996,-0.003694599999999,0.0096764000000001,0,sub_14
-0.0272100000000001,-0.0100283999999987,-0.0084371999999999,-0.0008651999999996,-0.003049999999999,0.0090364000000001,0,sub_14
-0.0274740000000001,-0.0102089999999987,-0.0092459999999999,-0.0006491999999996,-0.002620199999999,0.0083996000000001,0,sub_14
-0.0279862000000001,-0.0097653999999987,-0.0094353999999999,-7.999999996512533e-07,-0.001762399999999,0.0069108000000001,0,sub_14
-0.0280938000000001,-0.0095621999999987,-0.0092843999999999,0.0012890000000003,-0.001121599999999,0.0054234000000001,0,sub_14
-0.0280954000000001,-0.0094107999999987,-0.0095225999999999,0.0021540000000003,-0.000477799999999,0.0035058000000001,0,sub_14
-0.0272514000000001,-0.0095949999999987,-0.0097069999999999,0.0019484000000003,-0.000470399999999,0.0017952000000001,0,sub_14
-0.0271766000000001,-0.0093629999999987,-0.0091685999999999,0.0017502000000003,-0.000469399999999,0.0007370000000001,0,sub_14
-0.0271222000000001,-0.0095231999999987,-0.0086283999999998,0.0021864000000003,-0.000687799999999,0.0007518000000001,0,sub_14
-0.0272438000000001,-0.0094851999999987,-0.0087037999999998,0.0019824000000003,-0.001116399999999,0.0005488000000001,0,sub_14
-0.0274278000000001,-0.0099743999999987,-0.0089363999999998,0.0017746000000003,-0.0011237999999991,0.0016272000000001,0,sub_14
-0.0276960000000001,-0.0099731999999987,-0.0087753999999998,0.0019916000000003,-0.0011343999999991,0.0031358000000001,0,sub_14
-0.0282304000000001,-0.0101403999999987,-0.0088473999999999,0.0024182000000003,-0.0007113999999991,0.0035656000000001,0,sub_14
-0.0285828000000001,-0.0101729999999987,-0.0096047999999999,0.0015732000000003,0.0003602000000008,0.0027038000000001,0,sub_14
-0.0287348000000001,-0.0103935999999987,-0.0100359999999999,0.0013694000000003,0.0012182000000008,0.0014194000000001,0,sub_14
-0.0283414000000001,-0.0101353999999987,-0.0099315999999999,0.0013900000000003,0.0014340000000008,-7.579999999984188e-05,0,sub_14
-0.0280438000000001,-0.0101373999999987,-0.0097789999999999,0.0016250000000003,0.0020744000000008,-0.0013563999999998,0,sub_14
-0.0273210000000001,-0.0101689999999987,-0.0101329999999998,0.0009950000000003,0.0014344000000008,-0.0013595999999998,0,sub_14
-0.0268232000000001,-0.0106913999999987,-0.0101211999999998,0.0003584000000003,0.0003640000000008,-0.0002939999999998,0,sub_14
-0.0266150000000001,-0.0106973999999987,-0.0093941999999998,-0.0009213999999996,-0.0004943999999991,0.0016214000000001,0,sub_14
-0.0274894000000001,-0.0105599999999987,-0.0087349999999998,-0.0015699999999996,-0.0013485999999991,0.0026862000000001,0,sub_14
-0.0279802000000001,-0.0108177999999987,-0.0089667999999998,-0.0017843999999996,-0.0011365999999991,0.0031116000000001,0,sub_14
-0.0282402000000001,-0.0108341999999987,-0.0087771999999999,-0.0021985999999996,-0.0007033999999991,0.0024500000000001,0,sub_14
-0.0285356000000001,-0.0106097999999987,-0.0084275999999999,-0.0021843999999996,-0.0002697999999991,0.0013640000000001,0,sub_14
-0.0283852000000001,-0.0106265999999987,-0.0082217999999999,-0.0017421999999996,0.0001630000000008,6.740000000017808e-05,0,sub_14
-0.0270056000000001,-0.0108019999999987,-0.0085501999999999,-0.0010887999999996,0.0005934000000008,-0.0008003999999998,0,sub_14
-0.0262930000000001,-0.0103023999999987,-0.0086091999999999,-0.0015087999999996,-3.9399999999104987e-05,-0.0012469999999998,0,sub_14
-0.0265150000000001,-0.0098209999999987,-0.0084599999999999,-0.0015107999999996,-0.0004653999999991,-0.0012463999999998,0,sub_14
-0.0267682000000001,-0.0095205999999987,-0.0085755999999999,-0.0012973999999996,-0.0004661999999991,-0.0012449999999998,0,sub_14
-0.0272480000000001,-0.0092861999999987,-0.0090421999999999,-0.0008715999999996,-0.0004683999999991,-0.0010283999999998,0,sub_14
-0.0279540000000001,-0.0092261999999987,-0.0089887999999999,-0.0012965999999996,-0.0004581999999991,-0.0008499999999998,0,sub_14
-0.0284802000000001,-0.0095485999999987,-0.0085369999999999,-0.0015073999999996,-0.0006599999999991,-0.0010969999999998,0,sub_14
-0.0280250000000001,-0.0098001999999987,-0.0086193999999999,-0.0019313999999996,-0.0006489999999991,-0.0011321999999998,0,sub_14
-0.0282836000000001,-0.0096431999999987,-0.0086523999999999,-0.0023591999999996,-0.0010657999999991,-0.0007393999999998,0,sub_14
-0.0283200000000001,-0.0095049999999987,-0.0085489999999999,-0.0034215999999996,-0.0006265999999991,-0.0007793999999998,0,sub_14
-0.0288970000000001,-0.0092721999999986,-0.0085907999999999,-0.0044835999999996,-0.0001941999999991,-0.0014281999999998,0,sub_14
-0.0289502000000001,-0.0090619999999987,-0.0088135999999999,-0.0049073999999996,0.0002342000000008,-0.0016453999999998,0,sub_14
-0.0288030000000001,-0.0093813999999987,-0.0091891999999999,-0.0049025999999996,0.0006628000000008,-0.0022867999999998,0,sub_14
-0.0279574000000001,-0.0100267999999987,-0.0093215999999999,-0.0049007999999996,0.0004522000000008,-0.0029275999999998,0,sub_14
-0.0278330000000001,-0.0103359999999987,-0.0095655999999999,-0.0044787999999996,-0.0006027999999991,-0.0031703999999998,0,sub_14
-0.0270826000000001,-0.0102675999999987,-0.0095291999999999,-0.0038463999999996,-0.0016611999999991,-0.0027707999999998,0,sub_14
-0.0271252000000001,-0.0100961999999987,-0.0096147999999999,-0.0034205999999996,-0.0018639999999991,-0.0030143999999998,0,sub_14
-0.0273476000000001,-0.0093349999999986,-0.0092927999999999,-0.0029919999999996,-0.0018519999999991,-0.0036855999999998,0,sub_14
-0.0277336000000001,-0.0090477999999986,-0.0087385999999999,-0.0023459999999996,-0.0012005999999991,-0.0045695999999998,0,sub_14
-0.0276810000000001,-0.0097723999999986,-0.0085773999999999,-0.0012753999999996,-0.0003519999999991,-0.0045631999999998,0,sub_14
-0.0276292000000001,-0.0102341999999986,-0.0089197999999999,0.0002152000000003,-0.0001473999999991,-0.0036983999999998,0,sub_14
-0.0273786000000001,-0.0107749999999986,-0.0094661999999999,0.0008456000000003,-0.0007947999999991,-0.0021977999999998,0,sub_14
-0.0277240000000001,-0.0116077999999987,-0.0094171999999999,0.0010484000000003,-0.0010171999999991,-5.979999999986179e-05,0,sub_14
-0.0280024000000001,-0.0111035999999986,-0.0098821999999999,0.0012478000000003,-0.0010199999999991,0.0020530000000001,0,sub_14
-0.0281826000000001,-0.0102341999999986,-0.0092583999999999,0.0014568000000003,-0.0008019999999991,0.0022430000000001,0,sub_14
-0.0287940000000001,-0.0096413999999987,-0.0087739999999999,0.0006114000000003,0.0007040000000008,0.0009284000000001,0,sub_14
-0.0284802000000001,-0.0089441999999987,-0.0087673999999999,0.0001948000000003,0.0024224000000008,-0.0005969999999998,0,sub_14
-0.0276302000000001,-0.0085505999999986,-0.0090953999999999,-0.0004409999999996,0.0030756000000008,-0.0019089999999998,0,sub_14
-0.0267968000000001,-0.0088757999999987,-0.0094193999999999,-0.0017165999999996,0.0030844000000008,-0.0029859999999998,0,sub_14
-0.0265724000000001,-0.0086507999999987,-0.0104611999999999,-0.0032103999999996,0.0028828000000008,-0.0034419999999998,0,sub_14
-0.0262634000000001,-0.0085777999999987,-0.0106679999999999,-0.0040687999999996,0.0022502000000008,-0.0032519999999998,0,sub_14
-0.0268654000000001,-0.0089873999999987,-0.0105017999999999,-0.0049301999999996,0.0009786000000008,-0.0030611999999998,0,sub_14
-0.0279048000000001,-0.0090755999999987,-0.0097569999999999,-0.0047199999999996,0.0003440000000008,-0.0032909999999998,0,sub_14
-0.0286396000000001,-0.0088893999999987,-0.0089881999999999,-0.0038647999999996,0.0003480000000008,-0.0039445999999998,0,sub_14
-0.0284850000000001,-0.0094765999999987,-0.0083069999999999,-0.0036503999999996,0.0001358000000008,-0.0043699999999998,0,sub_14
-0.0287084000000001,-0.0105941999999987,-0.0087117999999999,-0.0032235999999996,-0.0002901999999991,-0.0047937999999998,0,sub_14
-0.0285514000000001,-0.0112537999999987,-0.0081335999999998,-0.0017299999999996,-0.0002953999999991,-0.0047833999999998,0,sub_14
-0.0277296000000001,-0.0115631999999987,-0.0084441999999998,-0.0002391999999996,-0.0005153999999991,-0.0043453999999998,0,sub_14
-0.0269790000000001,-0.0121949999999987,-0.0084945999999998,0.0012532000000003,-0.0007325999999991,-0.0037037999999998,0,sub_14
-0.0276288000000001,-0.0124427999999987,-0.0085119999999998,0.0027416000000002,-0.0011653999999991,-0.0024211999999998,0,sub_14
-0.0277408000000001,-0.0116535999999987,-0.0076767999999999,0.0035870000000002,-0.0013861999999991,-0.0002885999999998,0,sub_14
-0.0280394000000001,-0.0104759999999987,-0.0079745999999999,0.0035828000000003,-0.0007519999999991,0.0018368000000001,0,sub_14
-0.0281558000000001,-0.0092101999999987,-0.0079931999999999,0.0029394000000003,0.0003098000000008,0.0041710000000001,0,sub_14
-0.0292402000000001,-0.0076573999999987,-0.0088711999999999,0.0007990000000003,0.0011602000000008,0.0065050000000001,0,sub_14
-0.0288858000000001,-0.0061523999999987,-0.0094549999999999,-0.0009087999999996,0.0022264000000008,0.0077736000000001,0,sub_14
-0.0284490000000001,-0.0053575999999987,-0.0104575999999999,-0.0019689999999996,0.0030850000000008,0.0071242000000001,0,sub_14
-0.0283178000000001,-0.0056005999999987,-0.0105559999999998,-0.0030179999999996,0.0028866000000008,0.0051924000000001,0,sub_14
-0.0290180000000001,-0.0067731999999987,-0.0107069999999998,-0.0038573999999996,0.0016230000000008,0.0030496000000001,0,sub_14
-0.0288166000000001,-0.0084191999999987,-0.0100743999999998,-0.0032033999999996,0.0001418000000008,0.0007040000000001,0,sub_14
-0.0288554000000001,-0.0094645999999987,-0.0100353999999999,-0.0019073999999996,-0.000915399999999,-0.0016375999999998,0,sub_14
-0.0289726000000001,-0.0098019999999987,-0.0094909999999999,-0.0006121999999996,-0.002397999999999,-0.0041923999999998,0,sub_14
-0.0284422000000001,-0.0100997999999987,-0.0091771999999999,0.0006766000000003,-0.003243599999999,-0.0069597999999998,0,sub_14
-0.0274760000000001,-0.0105805999999987,-0.0084381999999999,0.0019702000000003,-0.003023999999999,-0.0097283999999998,0,sub_14
-0.0261418000000001,-0.0111529999999986,-0.0082995999999999,0.0028428000000003,-0.002590199999999,-0.0114275999999998,0,sub_14
-0.0257190000000001,-0.0123253999999987,-0.0076957999999999,0.0028524000000003,-0.0021619999999991,-0.0109963999999998,0,sub_14
-0.0256772000000001,-0.0137249999999987,-0.0070937999999999,0.0026380000000003,-0.0013179999999991,-0.0077899999999998,0,sub_14
-0.0262600000000001,-0.0134421999999987,-0.0066977999999999,0.0024158000000003,-5.639999999910482e-05,-0.0024475999999998,0,sub_14
-0.0269580000000001,-0.0116359999999987,-0.0074185999999999,0.0015544000000003,0.0012084000000008,0.0026766000000001,0,sub_14
-0.0277690000000001,-0.0096955999999987,-0.0075409999999999,0.0004770000000003,0.0029004000000008,0.0067262000000001,0,sub_14
-0.0281258000000001,-0.0072281999999987,-0.0080975999999999,4.720000000034874e-05,0.0041726000000008,0.0086444000000001,0,sub_14
-0.0280988000000001,-0.0053091999999987,-0.0099341999999999,-0.0014415999999996,0.0048188000000008,0.0082060000000001,0,sub_14
-0.0279754000000001,-0.0048189999999987,-0.0112545999999999,-0.0033541999999996,0.0044080000000008,0.0060568000000001,0,sub_14
-0.0282262000000001,-0.0057219999999987,-0.0122431999999999,-0.0050471999999996,0.0029320000000008,0.0034900000000001,0,sub_14
-0.0284532000000001,-0.0067301999999987,-0.0124397999999999,-0.0052475999999996,0.0010256000000008,0.0007204000000001,0,sub_14
-0.0291702000000001,-0.0083957999999987,-0.0125847999999999,-0.0052315999999996,-0.0004545999999991,-0.0022619999999998,0,sub_14
-0.0297582000000001,-0.0104215999999987,-0.0115441999999999,-0.0030829999999996,-0.0017309999999991,-0.0048023999999998,0,sub_14
-0.0294550000000001,-0.0118113999999987,-0.0102853999999999,0.0003460000000003,-0.0023753999999991,-0.0066935999999998,0,sub_14
-0.0288844000000001,-0.0126515999999987,-0.0087707999999999,0.0041964000000003,-0.0019559999999991,-0.0083763999999998,0,sub_14
-0.0282236000000001,-0.0123589999999987,-0.0082139999999999,0.0059102000000003,-0.0008949999999991,-0.0087929999999998,0,sub_14
-0.0264918000000001,-0.0119137999999987,-0.0076123999999999,0.0054824000000003,0.0001666000000008,-0.0075153999999998,0,sub_14
-0.0251406000000001,-0.0109199999999987,-0.0072239999999999,0.0031380000000003,0.0014392000000008,-0.0045287999999998,0,sub_14
-0.0246878000000001,-0.0098405999999986,-0.0069627999999999,-5.999999999965113e-05,0.0027148000000008,-0.0015481999999998,0,sub_14
-0.0238358000000001,-0.0087641999999986,-0.0077747999999999,-0.0034761999999996,0.0037746000000008,0.0022858000000001,0,sub_14
-0.0239382000000001,-0.0087157999999986,-0.0079725999999999,-0.0058245999999996,0.0037706000000008,0.0048466000000001,0,sub_14
-0.0246428000000001,-0.0078311999999987,-0.0080555999999999,-0.0066753999999996,0.0031282000000008,0.0059234000000001,0,sub_14
-0.0256064000000001,-0.0070459999999987,-0.0086667999999999,-0.0068877999999996,0.0024932000000008,0.0050682000000001,0,sub_14
-0.0269956000000001,-0.0065153999999987,-0.0101619999999999,-0.0073107999999996,0.0016494000000008,0.0033572000000001,0,sub_14
-0.0288172000000001,-0.0063037999999987,-0.0103989999999999,-0.0070867999999996,0.0003848000000008,-0.0002715999999998,0,sub_14
-0.0298962000000001,-0.0066083999999987,-0.0111355999999999,-0.0057871999999996,-3.439999999910485e-05,-0.0036791999999998,0,sub_14
-0.0305980000000001,-0.0080173999999987,-0.0114433999999999,-0.0042741999999996,0.0001822000000008,-0.0064453999999998,0,sub_14
-0.0310472000000001,-0.0089231999999987,-0.0109171999999999,-0.0023391999999996,0.0001810000000008,-0.0083535999999998,0,sub_14
-0.0302094000000001,-0.0098757999999987,-0.0102083999999999,-0.0004117999999996,-3.919999999912488e-05,-0.0087661999999998,0,sub_14
-0.0294950000000001,-0.0104299999999987,-0.0096831999999999,0.0004448000000003,0.0001654000000008,-0.0079047999999998,0,sub_14
-0.0284710000000001,-0.0098471999999987,-0.0091311999999999,1.140000000034837e-05,0.0001610000000008,-0.0064121999999998,0,sub_14
-0.0276272000000001,-0.0093585999999987,-0.0085411999999999,-0.0008467999999996,0.0003720000000008,-0.0051365999999998,0,sub_14
-0.0264574000000001,-0.0092997999999987,-0.0084745999999998,-0.0021319999999996,0.0007966000000008,-0.0036505999999998,0,sub_14
-0.0262166000000001,-0.0094361999999987,-0.0084809999999998,-0.0023443999999996,0.0014336000000008,-0.0025739999999998,0,sub_14
-0.0260732000000001,-0.0097003999999987,-0.0084421999999999,-0.0021347999999996,0.0014284000000008,-0.0010663999999998,0,sub_14
-0.0264680000000001,-0.0100289999999987,-0.0089567999999999,-0.0019231999999996,0.0016370000000008,0.0002274000000001,0,sub_14
-0.0271162000000001,-0.0096827999999987,-0.0092537999999999,-0.0010743999999996,0.0009922000000008,0.0013132000000001,0,sub_14
-0.0283656000000001,-0.0093363999999987,-0.0095491999999999,0.0006318000000003,0.0009844000000008,0.0021904000000001,0,sub_14
-0.0293690000000001,-0.0088887999999987,-0.0096273999999999,0.0016968000000003,0.0009790000000008,0.0026252000000001,0,sub_14
-0.0302212000000001,-0.0086971999999987,-0.0099633999999999,0.0025512000000003,0.0011890000000008,0.0026310000000001,0,sub_14
-0.0312774000000001,-0.0085875999999987,-0.0095459999999999,0.0033990000000003,0.0003322000000008,0.0030652000000001,0,sub_14
-0.0318586000000001,-0.0084721999999987,-0.0101125999999999,0.0046784000000003,0.0001078000000008,0.0039306000000001,0,sub_14
-0.0314458000000001,-0.0084253999999987,-0.0100215999999999,0.0057446000000003,-0.0003279999999991,0.0045812000000001,0,sub_14
-0.0305016000000001,-0.0079263999999987,-0.0096655999999999,0.0063812000000003,-0.0011891999999991,0.0054430000000001,0,sub_14
-0.0296660000000001,-0.0074989999999987,-0.0088217999999999,0.0070206000000003,-0.001623399999999,0.0060906000000001,0,sub_14
-0.0282728000000001,-0.0074379999999987,-0.0080307999999999,0.0078734000000003,-0.001846199999999,0.0069532000000001,0,sub_14
-0.0267896000000001,-0.0073671999999987,-0.0074479999999999,0.0074372000000003,-0.002914199999999,0.0080198000000001,0,sub_14
-0.0262884000000001,-0.0080437999999987,-0.0075345999999999,0.0055102000000003,-0.003762199999999,0.0086484000000001,0,sub_14
-0.0259358000000001,-0.0094097999999987,-0.0080305999999999,0.0035864000000003,-0.003974399999999,0.0094998,0,sub_14
-0.0256834000000001,-0.0095487999999987,-0.0074931999999999,0.0031592000000003,-0.003552599999999,0.0103608,0,sub_14
-0.0262762000000001,-0.0101453999999987,-0.0078371999999999,0.0023138000000003,-0.002060799999999,0.0103628000000001,0,sub_14
-0.0265550000000001,-0.0112877999999987,-0.0085179999999999,0.0012580000000003,7.100000000089543e-05,0.0103626000000001,0,sub_14
-0.0267996000000001,-0.0117611999999987,-0.0087399999999999,0.0014728000000003,0.0007044000000008,0.0110142000000001,0,sub_14
-0.0274394000000001,-0.0115327999999987,-0.0079489999999999,0.0025416000000003,0.0009146000000008,0.0108078000000001,0,sub_14
-0.0277388000000001,-0.0121973999999987,-0.0085427999999999,0.0034010000000003,0.0011288000000008,0.0097452000000001,0,sub_14
-0.0270530000000001,-0.0113857999999987,-0.0093549999999999,0.0046936000000003,0.0009232000000008,0.0067636000000001,0,sub_14
-0.0267912000000001,-0.0099813999999987,-0.0089383999999999,0.0064196000000003,-0.0001267999999991,0.0014360000000001,0,sub_14
-0.0265552000000001,-0.0078597999999987,-0.0085013999999999,0.0073118000000003,-0.000322999999999,-0.0049609999999998,0,sub_14
-0.0258482000000001,-0.0067105999999987,-0.0091051999999999,0.0071390000000003,-8.919999999908489e-05,-0.0113659999999998,0,sub_14
-0.0252226000000001,-0.0054371999999987,-0.0097947999999999,0.0058908000000003,-0.000708199999999,-0.0167091999999998,0,sub_14
-0.0254832000000001,-0.0051909999999987,-0.0098103999999999,0.0044158000000003,-0.001974999999999,-0.0197031999999998,0,sub_14
-0.0274970000000001,-0.0066169999999987,-0.0097871999999999,0.0040010000000003,-0.002402599999999,-0.0203405999999998,0,sub_14
-0.0291110000000001,-0.0086325999999987,-0.0100899999999999,0.0069776000000003,-0.0030589999999991,-0.0186097999999998,0,sub_14
-0.0326422000000001,-0.0108693999999986,-0.0097533999999999,0.0142056000000003,-0.0039569999999991,-0.0134307999999998,0,sub_14
-0.0350456000000001,-0.0105297999999986,-0.0099313999999999,0.0242132000000003,-0.0048733999999991,-0.0071497999999998,0,sub_14
-0.0367138000000001,-0.0101103999999986,-0.0097285999999999,0.0342296000000003,-0.0045089999999991,-0.0015113999999998,0,sub_14
-0.0360346000000001,-0.0083613999999986,-0.0108899999999999,0.0423236000000003,-0.0047761999999991,0.0039006000000001,0,sub_14
-0.0346770000000001,-0.0060555999999986,-0.0119033999999999,0.0446634000000003,-0.0048051999999991,0.0079902000000001,0,sub_14
-0.0320458000000001,-0.0024669999999987,-0.0130871999999999,0.0404000000000003,-0.0054373999999991,0.0088300000000001,0,sub_14
-0.0315366000000001,-0.0011251999999987,-0.0125083999999999,0.0316536000000003,-0.0062539999999991,0.0074880000000001,0,sub_14
-0.0303142000000001,-0.0026077999999987,-0.0127975999999999,0.0224794000000003,-0.0081307999999991,0.0052900000000001,0,sub_14
-0.0292622000000001,-0.0044479999999987,-0.0115123999999999,0.0158784000000003,-0.0095811999999991,0.0007592000000001,0,sub_14
-0.0267888000000001,-0.0070543999999987,-0.0095471999999999,0.0142074000000003,-0.0095507999999991,-0.0065115999999998,0,sub_14
-0.0231218000000001,-0.0106183999999987,-0.0071043999999999,0.0176688000000003,-0.0074061999999991,-0.0141765999999998,0,sub_14
-0.0179484000000001,-0.0145747999999987,-0.0053733999999999,0.0241146000000003,-0.0046379999999991,-0.0205395999999998,0,sub_14
-0.0144096000000001,-0.0155139999999987,-0.0038461999999999,0.0305528000000003,-0.0014521999999991,-0.0247669999999998,0,sub_14
-0.0118012000000001,-0.0158099999999987,-0.0025035999999999,0.0341998000000003,0.0019402000000008,-0.0249547999999998,0,sub_14
-0.0113742000000001,-0.0158003999999987,-0.0021027999999999,0.0335462000000003,0.0038402000000008,-0.0200479999999998,0,sub_14
-0.0117444000000001,-0.0152229999999987,-0.0023915999999999,0.0277506000000003,0.0042540000000008,-0.0119705999999998,0,sub_14
-0.0142394000000001,-0.0143637999999987,-0.0033989999999999,0.0193908000000003,0.0042490000000008,-0.0034831999999998,0,sub_14
-0.0164820000000001,-0.0137561999999987,-0.0036247999999999,0.0118902000000003,0.0046704000000008,0.0041552000000001,0,sub_14
-0.0208200000000001,-0.0127175999999987,-0.0050121999999999,0.0071658000000003,0.0053060000000008,0.0094488000000001,0,sub_14
-0.0253440000000001,-0.0111237999999987,-0.0073225999999999,0.0060908000000003,0.0070096000000008,0.0109210000000001,0,sub_14
-0.0296442000000001,-0.0091079999999987,-0.0097561999999999,0.0086632000000003,0.0093550000000008,0.0085722000000001,0,sub_14
-0.0327324000000001,-0.0070249999999987,-0.0110477999999998,0.0129550000000003,0.0121300000000008,0.0038846000000001,0,sub_14
-0.0360482000000001,-0.0045185999999987,-0.0121273999999998,0.0163866000000003,0.0129922000000008,-0.0012337999999998,0,sub_14
-0.0362914000000001,-0.0020271999999987,-0.0136221999999998,0.0166248000000003,0.0130136000000008,-0.0067867999999998,0,sub_14
