userAcceleration.x,userAcceleration.y,userAcceleration.z,rotationRate.x,rotationRate.y,rotationRate.z,label,subject
-0.0023800000000003,0.0077388000000012,0.0816666,-0.0286815999999994,0.1172382000000008,-0.005862,0,sub_18
-0.0010522000000003,0.0080550000000012,0.0798478,-0.0226163999999994,0.1095970000000008,-0.006221,0,sub_18
-0.0001626000000003,0.0078464000000012,0.0776918,-0.0150769999999994,0.0981140000000008,-0.0061376,0,sub_18
0.0002745999999996,0.0079722000000012,0.0758732,-0.0084023999999994,0.0842896000000008,-0.0058438,0,sub_18
0.0004939999999996,0.0078480000000012,0.0738908,-0.0022817999999994,0.0704154000000008,-0.004715,0,sub_18
0.0006111999999996,0.0078534000000012,0.0730222,0.0034130000000005,0.0571800000000008,-0.0031628,0,sub_18
0.0005279999999996,0.0075228000000012,0.072825,0.0099480000000005,0.0405346000000008,-0.0020276,0,sub_18
0.0009743999999996,0.0071778000000012,0.0724821999999999,0.0159828000000005,0.0224304000000008,-0.0015432,0,sub_18
0.0019709999999996,0.0067200000000012,0.0717745999999999,0.0211736000000005,0.0070964000000008,-0.0004272,0,sub_18
0.0020107999999996,0.0070988000000012,0.0716927999999999,0.0250794000000005,-0.0092985999999991,0.0006809999999999,0,sub_18
0.0022341999999996,0.0072392000000012,0.0713906,0.0300434000000005,-0.0271901999999991,0.0022259999999999,0,sub_18
0.0022761999999996,0.0076968000000012,0.0712008,0.0337434000000005,-0.0414555999999991,0.0037573999999999,0,sub_18
0.0013889999999996,0.0080398000000012,0.0713532,0.0375178000000005,-0.0542599999999991,0.0057229999999999,0,sub_18
7.939999999963497e-05,0.0082536000000012,0.0716123999999999,0.0421428000000005,-0.0683431999999991,0.0070551999999999,0,sub_18
-0.0001934000000003,0.0088274000000012,0.0718506,0.0472052000000005,-0.0805083999999991,0.0079607999999999,0,sub_18
-0.0006804000000003,0.0083224000000012,0.0722904,0.0499378000000005,-0.0888305999999991,0.0088449999999999,0,sub_18
-0.0015914000000003,0.0078906000000012,0.0730422,0.0514006000000005,-0.0937103999999991,0.0101215999999999,0,sub_18
-0.0023332000000003,0.0083772000000012,0.0748704,0.0522332000000005,-0.0968817999999991,0.0109643999999999,0,sub_18
-0.0024726000000003,0.0091290000000012,0.0767974,0.0537020000000005,-0.1009075999999991,0.0118127999999999,0,sub_18
-0.0026842000000003,0.0080678000000012,0.0772294,0.0553832000000005,-0.1049351999999991,0.0128761999999999,0,sub_18
-0.0023500000000003,0.0092404000000012,0.0771035999999999,0.0596278000000005,-0.1098177999999991,0.0124631999999999,0,sub_18
-0.0012170000000003,0.0107794000000012,0.0765113999999999,0.0664222000000005,-0.1175105999999991,0.0123069999999999,0,sub_18
0.0008341999999996,0.0108356000000012,0.0756835999999999,0.0742728000000005,-0.1262775999999991,0.0134411999999999,0,sub_18
0.0023991999999996,0.0097628000000012,0.0742293999999999,0.0791506000000005,-0.1316261999999991,0.0147639999999999,0,sub_18
0.0033427999999996,0.0102458000000012,0.0737438,0.0824540000000005,-0.1338691999999991,0.0156329999999999,0,sub_18
0.0034907999999996,0.0100206000000012,0.0748022,0.0836332000000005,-0.1329133999999991,0.0175511999999999,0,sub_18
0.0026559999999996,0.0094796000000012,0.0758234,0.0831124000000005,-0.1315211999999991,0.0183885999999999,0,sub_18
0.0018649999999996,0.0094624000000012,0.0751988,0.0804616000000005,-0.1309667999999991,0.0175031999999999,0,sub_18
0.0020829999999996,0.0099054000000012,0.0735874,0.0788864000000005,-0.1295597999999991,0.0155559999999999,0,sub_18
0.0023407999999996,0.0095464000000012,0.073261,0.0801706000000005,-0.1318951999999991,0.0123631999999999,0,sub_18
0.0026195999999996,0.0087144000000012,0.0725816,0.0857192000000005,-0.1350967999999991,0.0089877999999999,0,sub_18
0.0040329999999996,0.0075038000000012,0.0729286,0.0914382000000005,-0.1351999999999991,0.0068937999999999,0,sub_18
0.0043079999999996,0.0080426000000012,0.0743098,0.0982568000000005,-0.1301851999999991,0.0026643999999999,0,sub_18
0.0023377999999996,0.0090890000000012,0.0780716,0.1059460000000005,-0.1226115999999991,-0.002844,0,sub_18
-0.0006782000000003,0.0105464000000012,0.0785168,0.1097898000000005,-0.1135433999999991,-0.0058174,0,sub_18
-0.0018832000000003,0.0091922000000012,0.0797962,0.1019040000000005,-0.1020947999999991,-0.0078076,0,sub_18
-0.0024932000000003,0.0059652000000013,0.0799724,0.0857586000000005,-0.0883941999999991,-0.0100744,0,sub_18
-0.0031644000000003,0.0044062000000012,0.0815036,0.0657724000000005,-0.0725581999999991,-0.0102342,0,sub_18
-0.0042558000000003,0.0030662000000012,0.0811368,0.0410654000000005,-0.0607613999999991,-0.0084992,0,sub_18
-0.0036776000000003,0.0018894000000012,0.0818206,0.0164798000000005,-0.0458771999999991,-0.0071862,0,sub_18
-0.0046926000000003,0.0048560000000012,0.0817714,-0.0023379999999994,-0.0282485999999991,-0.0045548,0,sub_18
-0.0075924000000003,0.0088554000000012,0.0813786,-0.0141133999999994,-0.0108559999999991,-0.002301,0,sub_18
-0.0100336000000003,0.0102908000000012,0.0800942,-0.0211993999999994,0.0050306000000008,-0.0004398,0,sub_18
-0.0104352000000003,0.0101648000000012,0.0784388,-0.0231569999999994,0.0230282000000008,0.0018817999999999,0,sub_18
-0.0105866000000003,0.0102016000000012,0.0783414,-0.0228783999999994,0.0387882000000008,0.0031453999999999,0,sub_18
-0.0101294000000003,0.0085316000000012,0.0770092,-0.0215425999999994,0.0507164000000008,0.0027121999999999,0,sub_18
-0.0082696000000003,0.0074082000000012,0.0769682,-0.0214975999999994,0.0605176000000008,0.0024863999999999,0,sub_18
-0.0074684000000003,0.0062740000000012,0.0764615999999999,-0.0251165999999994,0.0674694000000008,0.0032999999999998,0,sub_18
-0.0070392000000003,0.0059146000000012,0.0768054,-0.0319465999999994,0.0712400000000008,0.0032405999999998,0,sub_18
-0.0073688000000003,0.0051434000000012,0.0765616,-0.0421867999999994,0.0771480000000008,0.0044365999999998,0,sub_18
-0.0084626000000003,0.0052540000000012,0.0769236,-0.0556295999999994,0.0839142000000008,0.0068909999999999,0,sub_18
-0.0096428000000003,0.0052718000000012,0.0765092,-0.0725045999999994,0.0874932000000008,0.0101799999999999,0,sub_18
-0.0087346000000003,0.0031076000000012,0.0760264,-0.0921387999999994,0.0888316000000008,0.0121775999999999,0,sub_18
-0.0080584000000003,0.0020406000000012,0.0759464,-0.1126197999999994,0.0912398000000008,0.0137405999999999,0,sub_18
-0.0070760000000003,0.0023340000000012,0.0756474,-0.1303269999999994,0.0927898000000008,0.0144693999999999,0,sub_18
-0.0075330000000003,0.0024192000000012,0.0764312,-0.1411993999999994,0.0930486000000008,0.0124703999999999,0,sub_18
-0.0092046000000003,0.0036268000000012,0.0780502,-0.1439299999999994,0.0986140000000008,0.0083849999999999,0,sub_18
-0.0119108000000003,0.0069828000000012,0.0788272,-0.1376817999999994,0.1079828000000008,0.0043573999999999,0,sub_18
-0.0121992000000003,0.0105740000000012,0.077853,-0.1220431999999994,0.1179572000000008,0.0006083999999999,0,sub_18
-0.0115986000000003,0.0123850000000012,0.0764096,-0.0995939999999994,0.1249214000000008,-0.0022348,0,sub_18
-0.0073002000000003,0.0127012000000012,0.073584,-0.0763161999999994,0.1286776000000008,-0.0027180000000001,0,sub_18
-0.0010784000000003,0.0117040000000012,0.0708698,-0.0545703999999994,0.1245534000000008,-0.0025608,0,sub_18
0.0050849999999996,0.0104270000000012,0.0693012,-0.0373455999999994,0.1125578000000008,-0.001357,0,sub_18
0.0081351999999996,0.0077176000000012,0.0698822,-0.0288951999999994,0.0948404000000008,-0.0002072,0,sub_18
0.0088765999999996,0.0051300000000012,0.0712151999999999,-0.0302519999999994,0.0775886000000008,-0.0004082,0,sub_18
0.0068197999999996,0.0043422000000012,0.073368,-0.0365069999999994,0.0616356000000008,-0.0014996,0,sub_18
0.0026535999999996,0.0050542000000012,0.075007,-0.0442391999999994,0.0499462000000008,-0.001966,0,sub_18
-0.0007310000000003,0.0057118000000012,0.0761818,-0.0504481999999994,0.0442198000000008,-0.0030702,0,sub_18
-0.0024854000000003,0.0082726000000012,0.078203,-0.0530027999999994,0.0446582000000008,-0.003943,0,sub_18
-0.0026578000000003,0.0112880000000012,0.0800728,-0.0517081999999994,0.0474250000000008,-0.0043648,0,sub_18
-0.0018956000000003,0.0121490000000012,0.0804324,-0.0472099999999994,0.0503954000000008,-0.0051918,0,sub_18
0.0002811999999996,0.0116192000000012,0.0808364,-0.0407963999999994,0.0522940000000008,-0.006004,0,sub_18
0.0026239999999996,0.0112858000000012,0.0806406,-0.0350323999999994,0.0533374000000008,-0.0055378,0,sub_18
0.0038209999999996,0.0095498000000012,0.0797814,-0.0307811999999994,0.0523066000000008,-0.0050876,0,sub_18
0.0048785999999996,0.0075514000000012,0.0798786,-0.0278217999999994,0.0493602000000008,-0.0040028,0,sub_18
0.0047091999999996,0.0069024000000012,0.0816584,-0.0261751999999994,0.0447514000000008,-0.0031412,0,sub_18
0.0033639999999996,0.0074320000000012,0.082949,-0.0253829999999994,0.0395080000000008,-0.0027122,0,sub_18
0.0018773999999996,0.0074256000000012,0.0843668,-0.0241573999999994,0.0351178000000008,-0.0029222,0,sub_18
0.0003601999999996,0.0076174000000012,0.0853054,-0.0218485999999994,0.0328010000000008,-0.0024782,0,sub_18
-0.0008038000000003,0.0077444000000012,0.0852048,-0.0182527999999994,0.0306978000000008,-0.0033074,0,sub_18
-0.0003380000000003,0.0079096000000012,0.083458,-0.0144053999999994,0.0313270000000008,-0.004136,0,sub_18
0.0012639999999996,0.0081022000000012,0.0820688,-0.0111961999999994,0.0328090000000008,-0.0045426,0,sub_18
0.0014011999999996,0.0082946000000012,0.0807326,-0.0079965999999994,0.0325848000000008,-0.0045198,0,sub_18
0.0021507999999996,0.0082820000000012,0.0789794,-0.0042513999999994,0.0286390000000008,-0.0049428,0,sub_18
0.0022997999999996,0.0083112000000012,0.0770644,-0.0003043999999994,0.0231970000000008,-0.0042942,0,sub_18
0.0015013999999996,0.0087442000000012,0.0758986,0.0034228000000005,0.0162642000000008,-0.0036452,0,sub_18
0.0006437999999996,0.0085638000000012,0.0745678,0.0071480000000005,0.0093296000000008,-0.002569,0,sub_18
0.0004887999999996,0.0085540000000012,0.0729832,0.0104494000000005,0.0028236000000008,-0.00171,0,sub_18
8.759999999963499e-05,0.0084966000000012,0.0722968,0.0131906000000005,-0.0031567999999991,-0.0004012,0,sub_18
-0.0002806000000003,0.0086410000000012,0.0712616,0.0157194000000005,-0.0089233999999991,0.0009055999999999,0,sub_18
7.019999999963499e-05,0.0073378000000012,0.0698828,0.0182424000000005,-0.0159681999999991,0.0022141999999999,0,sub_18
-0.0002830000000003,0.0065998000000012,0.0689014,0.0198868000000005,-0.0225207999999991,0.0024159999999999,0,sub_18
-0.0005768000000003,0.0059082000000012,0.0690805999999999,0.0210996000000005,-0.0299249999999991,0.0028295999999999,0,sub_18
-0.0010870000000003,0.0057192000000012,0.0683485999999999,0.0216724000000005,-0.0364779999999991,0.0040921999999999,0,sub_18
-0.0014726000000003,0.0049264000000012,0.0687783999999999,0.0209698000000005,-0.0419613999999991,0.0053445999999999,0,sub_18
-0.0024324000000003,0.0056120000000012,0.0697451999999999,0.0198414000000005,-0.0470181999999991,0.0068069999999999,0,sub_18
-0.0030010000000003,0.0060072000000012,0.0712307999999999,0.0204470000000005,-0.0529925999999991,0.0085281999999999,0,sub_18
-0.0036036000000003,0.0063200000000012,0.0726359999999999,0.0214832000000005,-0.0583285999999991,0.0100377999999999,0,sub_18
-0.0042190000000003,0.0059166000000012,0.0742074,0.0220974000000005,-0.0634467999999991,0.0106895999999999,0,sub_18
-0.0048462000000003,0.0060670000000012,0.0752316,0.0231366000000005,-0.0692045999999991,0.0111315999999999,0,sub_18
-0.0059178000000003,0.0054640000000012,0.0769118,0.0239728000000005,-0.0724057999999991,0.0117823999999999,0,sub_18
-0.0077128000000003,0.0051762000000012,0.0778258,0.0235470000000005,-0.0713425999999991,0.0126325999999999,0,sub_18
-0.0090336000000003,0.0053146000000012,0.0791298,0.0231404000000005,-0.0672913999999991,0.0121973999999999,0,sub_18
-0.0102246000000003,0.0052178000000012,0.0811906,0.0238122000000005,-0.0615359999999991,0.0109127999999999,0,sub_18
-0.0110002000000003,0.0047208000000012,0.082732,0.0244906000000005,-0.0547137999999991,0.0091995999999999,0,sub_18
-0.0112638000000003,0.0047962000000012,0.0830926,0.0232564000000005,-0.0476657999999991,0.0059773999999999,0,sub_18
-0.0099580000000003,0.0038284000000012,0.083851,0.0203076000000005,-0.0427405999999991,0.0023185999999999,0,sub_18
-0.0094706000000003,0.0026708000000012,0.0836082,0.0145840000000005,-0.0384431999999991,-0.0017862,0,sub_18
-0.0084386000000003,0.0027552000000012,0.0827558,0.0058732000000005,-0.0347719999999991,-0.006552,0,sub_18
-0.0072236000000003,0.0026400000000012,0.0813772,-0.0034739999999994,-0.0310949999999991,-0.0121768,0,sub_18
-0.0057544000000003,0.0034800000000012,0.0791521999999999,-0.0115457999999994,-0.0274269999999991,-0.0167244,0,sub_18
-0.0051358000000003,0.0049644000000012,0.0765824,-0.0181277999999994,-0.0233429999999991,-0.0199804,0,sub_18
-0.0039974000000003,0.0069566000000012,0.0743028,-0.0217311999999994,-0.0190649999999991,-0.0210792,0,sub_18
-0.0034448000000003,0.0080910000000012,0.0711248,-0.0210729999999994,-0.0139581999999991,-0.0200128,0,sub_18
-0.0036922000000003,0.0094858000000012,0.0693732,-0.0178569999999994,-0.0069531999999991,-0.0163674,0,sub_18
-0.0039050000000003,0.0098946000000012,0.0682594,-0.0129387999999994,0.0004662000000008,-0.0112152,0,sub_18
-0.0041026000000003,0.0102028000000012,0.066975,-0.0067461999999994,0.0074514000000008,-0.0051988,0,sub_18
-0.0037570000000003,0.0106834000000012,0.0662818,-0.0007697999999994,0.0144348000000008,0.0014569999999999,0,sub_18
-0.0038166000000003,0.0099936000000012,0.066599,0.0039216000000005,0.0203574000000008,0.0081049999999999,0,sub_18
-0.0034186000000003,0.0096334000000012,0.0667144,0.0069010000000005,0.0241598000000008,0.0136757999999999,0,sub_18
-0.0031308000000003,0.0086856000000012,0.0680322,0.0090232000000005,0.0258396000000008,0.0179613999999999,0,sub_18
-0.0032796000000003,0.0086794000000012,0.070335,0.0102948000000005,0.0262518000000008,0.0203197999999999,0,sub_18
-0.0041836000000003,0.0075394000000012,0.0721072,0.0119940000000005,0.0258146000000008,0.0216139999999999,0,sub_18
-0.0045870000000003,0.0068890000000012,0.0739714,0.0134896000000005,0.0260234000000008,0.0214105999999999,0,sub_18
-0.0047486000000003,0.0062696000000012,0.0768048,0.0148190000000005,0.0266682000000008,0.0205599999999999,0,sub_18
-0.0046264000000003,0.0068096000000012,0.0799146,0.0148748000000005,0.0277480000000008,0.0186317999999999,0,sub_18
-0.0045654000000003,0.0053892000000012,0.0824752,0.0142940000000005,0.0273390000000008,0.0158447999999999,0,sub_18
-0.0049226000000003,0.0046380000000012,0.0858334,0.0115854000000005,0.0271548000000008,0.0119745999999999,0,sub_18
-0.0051510000000003,0.0048786000000012,0.089172,0.0086594000000005,0.0265434000000008,0.0085305999999999,0,sub_18
-0.0056966000000003,0.0051450000000012,0.0909708,0.0063322000000005,0.0263484000000008,0.0053083999999999,0,sub_18
-0.0060300000000003,0.0045452000000012,0.0906022,0.0050728000000005,0.0261504000000008,0.0018799999999999,0,sub_18
-0.0046196000000003,0.0051322000000012,0.0887848,0.0033832000000005,0.0261716000000008,-0.0019774,0,sub_18
-0.0021848000000003,0.0060508000000012,0.0854316,0.0018952000000005,0.0242722000000008,-0.0051902,0,sub_18
-0.0001756000000003,0.0068222000000012,0.0824774,0.0001738000000005,0.0187482000000008,-0.0075452,0,sub_18
0.0015929999999996,0.0072876000000012,0.0792482,-0.0017743999999994,0.0108786000000008,-0.009258,0,sub_18
0.0028295999999995,0.0081602000000012,0.0759024,-0.0028701999999994,0.0028358000000008,-0.0101336,0,sub_18
0.0026643999999995,0.0091974000000012,0.073856,-0.0009845999999994,-0.0045859999999991,-0.0090662,0,sub_18
0.0015191999999995,0.0096858000000012,0.0725616,0.0038856000000005,-0.0115965999999991,-0.0069102,0,sub_18
0.0002411999999996,0.0100396000000012,0.0712388,0.0111094000000005,-0.0166993999999991,-0.004313,0,sub_18
-0.0017562000000003,0.0110424000000012,0.0702012,0.0206756000000005,-0.0228755999999991,-0.001698,0,sub_18
-0.0044274000000003,0.0118914000000012,0.0708116,0.0325756000000005,-0.030175799999999,0.0020263999999999,0,sub_18
-0.0079412000000003,0.0122126000000012,0.0711816,0.0438440000000005,-0.0349193999999991,0.0063839999999999,0,sub_18
-0.0099450000000003,0.0128146000000012,0.072146,0.0559690000000005,-0.0367907999999991,0.0113825999999999,0,sub_18
-0.0112400000000003,0.0133196000000012,0.0728988,0.0685372000000005,-0.0348297999999991,0.0165929999999999,0,sub_18
-0.0097576000000003,0.0126516000000012,0.0722508,0.0804832000000005,-0.0290305999999991,0.0215805999999999,0,sub_18
-0.0060338000000003,0.0126354000000012,0.0704981999999999,0.0939134000000005,-0.0277013999999991,0.0242341999999999,0,sub_18
0.0027277999999996,0.0128170000000012,0.0694806,0.1101356000000005,-0.0248803999999991,0.0243415999999999,0,sub_18
0.0108223999999996,0.0118082000000012,0.0680388,0.1203822000000005,-0.0221531999999991,0.0261187999999999,0,sub_18
0.0197585999999996,0.0108140000000012,0.0644782,0.1265096000000005,-0.0353849999999991,0.0263921999999999,0,sub_18
0.0264847999999996,0.0112958000000012,0.0637283999999999,0.1355870000000005,-0.0594827999999991,0.0241363999999999,0,sub_18
0.0309051999999995,0.0118204000000012,0.0637332,0.1453014000000005,-0.0837973999999991,0.0223125999999998,0,sub_18
0.0292799999999995,0.0138206000000012,0.0665172,0.1534816000000005,-0.1176365999999991,0.0217771999999999,0,sub_18
0.0270367999999995,0.0142752000000012,0.0679838,0.1637484000000005,-0.1661671999999991,0.0170023999999999,0,sub_18
0.0238109999999996,0.0136888000000012,0.070608,0.1740440000000004,-0.2108523999999991,0.0096589999999999,0,sub_18
0.0220793999999996,0.0138632000000012,0.0717688,0.1775298000000005,-0.2497679999999991,0.0039697999999999,0,sub_18
0.0202359999999996,0.0098518000000013,0.075515,0.1714034000000005,-0.2861131999999992,0.0031239999999999,0,sub_18
0.0203133999999996,0.0045356000000013,0.0750026,0.1571712000000004,-0.3142073999999991,0.0081881999999999,0,sub_18
0.0187853999999996,0.0036930000000012,0.0758486,0.1374500000000005,-0.3280127999999991,0.0144773999999999,0,sub_18
0.0154671999999996,0.0036236000000013,0.07764,0.1124506000000005,-0.3256193999999991,0.0198221999999999,0,sub_18
0.0093101999999996,0.0021096000000013,0.0795153999999999,0.0855914000000005,-0.3106459999999992,0.0242833999999998,0,sub_18
6.259999999963517e-05,0.0044928000000012,0.080798,0.0594384000000005,-0.2847935999999992,0.0248899999999998,0,sub_18
-0.0094168000000003,0.0069934000000012,0.082004,0.0392954000000005,-0.2561721999999992,0.0204073999999999,0,sub_18
-0.0152628000000003,0.0087614000000012,0.0808908,0.0281176000000005,-0.2246075999999991,0.0181201999999999,0,sub_18
-0.0165000000000003,0.0093422000000012,0.0793876,0.0269380000000005,-0.1979885999999991,0.0223507999999999,0,sub_18
-0.0157548000000003,0.0091634000000012,0.079109,0.0291388000000005,-0.1754429999999991,0.0300283999999999,0,sub_18
-0.0119370000000003,0.0100870000000012,0.0778396,0.0355898000000005,-0.1554741999999991,0.0390209999999999,0,sub_18
-0.0103920000000003,0.0113968000000012,0.0765406,0.0426886000000005,-0.1338031999999991,0.0480159999999999,0,sub_18
-0.0100672000000003,0.0110448000000012,0.0770252,0.0482968000000005,-0.1142463999999991,0.0542257999999999,0,sub_18
-0.0115542000000003,0.0119586000000012,0.0767366,0.0502910000000005,-0.0944527999999991,0.0576325999999999,0,sub_18
-0.0160472000000003,0.0123718000000012,0.0776894,0.0516498000000005,-0.0746527999999991,0.0599667999999999,0,sub_18
-0.0213196000000003,0.0117892000000012,0.0799234,0.0538728000000005,-0.0535731999999991,0.0612371999999999,0,sub_18
-0.0248094000000003,0.0108000000000012,0.0836966,0.0543830000000005,-0.0369487999999991,0.0592965999999999,0,sub_18
-0.0268550000000003,0.0092534000000012,0.0876064,0.0566058000000005,-0.0203253999999991,0.0560861999999999,0,sub_18
-0.0291678000000003,0.0079092000000012,0.0928088,0.0607836000000005,0.0039612000000008,0.0528795999999999,0,sub_18
-0.0296912000000003,0.0082376000000012,0.096672,0.0626518000000005,0.0340186000000008,0.0470857999999999,0,sub_18
-0.0274464000000003,0.0063672000000012,0.0972612,0.0570452000000005,0.0598326000000008,0.0361025999999999,0,sub_18
-0.0212114000000003,0.0031386000000012,0.0945643999999999,0.0463080000000005,0.0811998000000008,0.0227391999999999,0,sub_18
-0.0158370000000003,-0.0011025999999987,0.090462,0.0259444000000005,0.0947270000000008,0.0069685999999999,0,sub_18
-0.0098224000000003,-0.0032671999999987,0.0860756,-0.0040775999999994,0.0944444000000008,-0.0101336,0,sub_18
-0.0042706000000003,-0.0036747999999987,0.0800214,-0.0341667999999994,0.0811580000000008,-0.025297,0,sub_18
-0.0004952000000003,-0.0022417999999987,0.0747322,-0.0580951999999994,0.0650870000000008,-0.0348438,0,sub_18
-0.0007356000000003,0.0008482000000012,0.0721252,-0.0743507999999994,0.0515278000000008,-0.0398538,0,sub_18
-0.0020182000000003,0.0067752000000012,0.0701974,-0.0788595999999994,0.0451526000000008,-0.0400908,0,sub_18
-0.0050890000000003,0.0110968000000012,0.0679296,-0.0705525999999994,0.0444740000000008,-0.0374682,0,sub_18
-0.0061862000000003,0.0139338000000012,0.0676832,-0.0536999999999994,0.0480190000000008,-0.0328684,0,sub_18
-0.0057840000000003,0.0168586000000012,0.0675964,-0.0321703999999994,0.0494104000000008,-0.0265242,0,sub_18
-0.0045546000000003,0.0181754000000012,0.0676402,-0.0112951999999994,0.0497302000000008,-0.0180466,0,sub_18
-0.0032922000000003,0.0173562000000012,0.0677484,0.0070060000000005,0.0464396000000008,-0.0102234,0,sub_18
-0.0014416000000003,0.0163460000000012,0.069032,0.0193308000000005,0.0412584000000007,-0.003935,0,sub_18
0.0010595999999996,0.0141532000000012,0.0687644,0.0241856000000005,0.0350406000000007,0.0016615999999999,0,sub_18
0.0022547999999996,0.0114726000000012,0.0695926,0.0233004000000005,0.0318324000000007,0.0055051999999999,0,sub_18
0.0036861999999996,0.0098338000000012,0.069732,0.0211340000000005,0.0258692000000008,0.0067795999999999,0,sub_18
0.0054305999999996,0.0099656000000012,0.0721398,0.0160036000000005,0.0243932000000008,0.0073865999999999,0,sub_18
0.0076173999999996,0.0105412000000012,0.0746514,0.0115170000000005,0.0231306000000008,0.0073569999999999,0,sub_18
0.0075435999999996,0.0117076000000012,0.078749,0.0104510000000005,0.0210132000000008,0.0050021999999999,0,sub_18
0.0074597999999996,0.0127466000000012,0.0821608,0.0119504000000005,0.0184668000000008,0.0011701999999999,0,sub_18
0.0071769999999996,0.0135222000000012,0.0860254,0.0143176000000005,0.0186888000000008,-0.0030864,0,sub_18
0.0069973999999995,0.0131364000000012,0.090047,0.0175286000000005,0.0150796000000008,-0.0090414,0,sub_18
0.0068159999999995,0.0118344000000012,0.0918274,0.0169000000000005,0.0114846000000008,-0.015237,0,sub_18
0.0082169999999995,0.0088928000000012,0.0901832,0.0094292000000005,0.0045054000000008,-0.0216896,0,sub_18
