userAcceleration.x,userAcceleration.y,userAcceleration.z,rotationRate.x,rotationRate.y,rotationRate.z,label,subject
-0.0049434000000002,-0.0002699999999987,0.0900843999999999,0.0385556000000005,-0.0136055999999991,0.00955,0,sub_19
-0.0032844000000002,-0.0013527999999987,0.0893077999999999,0.0360210000000005,-0.0038123999999991,0.013579,0,sub_19
-0.0023702000000002,-0.0020813999999987,0.0889553999999999,0.0307096000000005,0.0030172000000008,0.0152422,0,sub_19
-0.0020882000000002,-0.0024031999999987,0.0889647999999999,0.0243228000000005,0.0055988000000008,0.0145532,0,sub_19
-0.0029798000000002,-0.0022825999999987,0.0889743999999999,0.0194228000000005,0.0041374000000008,0.0113162,0,sub_19
-0.0043440000000002,-0.0009951999999987,0.0896485999999999,0.0147334000000005,-0.0002981999999991,0.0057344,0,sub_19
-0.0055874000000002,0.0005734000000012,0.0909483999999999,0.0089782000000005,-0.0047291999999991,-6.859999999995862e-05,0,sub_19
-0.0059590000000002,0.0023728000000012,0.0917889999999999,0.0019484000000005,-0.0061797999999991,-0.0041749999999999,0,sub_19
-0.0064240000000002,0.0038848000000012,0.0929379999999999,-0.0057061999999994,-0.0023095999999991,-0.0063697999999999,0,sub_19
-0.0069388000000002,0.0050324000000012,0.0941661999999999,-0.0133491999999994,0.0064516000000008,-0.0062207999999999,0,sub_19
-0.0068182000000002,0.0053350000000012,0.0948401999999999,-0.0194881999999994,0.0198854000000007,-0.0037169999999999,0,sub_19
-0.0067752000000002,0.0051788000000012,0.0949841999999999,-0.0232703999999994,0.0358658000000007,-0.0007727999999999,0,sub_19
-0.0073126000000002,0.0042252000000012,0.0953375999999999,-0.0249177999999994,0.0516274000000008,0.0017592,0,sub_19
-0.0076612000000002,0.0033670000000012,0.0951129999999999,-0.0255011999999994,0.0650486000000007,0.0025926,0,sub_19
-0.0074842000000002,0.0022534000000012,0.0943643999999999,-0.0256655999999994,0.0750662000000007,0.001724,0,sub_19
-0.0076728000000002,0.0004088000000012,0.0936463999999999,-0.0258443999999993,0.0801904000000008,-0.0008475999999999,0,sub_19
-0.0081720000000002,-0.0013531999999987,0.0927519999999999,-0.0256147999999993,0.0804164000000008,-0.0042645999999999,0,sub_19
-0.0084534000000002,-0.0023273999999987,0.0918505999999999,-0.0243335999999993,0.0776542000000008,-0.0072431999999999,0,sub_19
-0.0082974000000002,-0.0034947999999987,0.0912133999999999,-0.0237039999999993,0.0736108000000007,-0.0089427999999999,0,sub_19
-0.0087244000000002,-0.0041277999999987,0.0911399999999999,-0.0245719999999994,0.0697814000000007,-0.0095847999999999,0,sub_19
-0.0096834000000002,-0.0034027999999986,0.0910283999999999,-0.0262933999999994,0.0672282000000007,-0.0089525999999999,0,sub_19
-0.0101170000000002,-0.0030235999999986,0.0915507999999999,-0.0284385999999994,0.0661644000000007,-0.0074705999999999,0,sub_19
-0.0110780000000002,-0.0026575999999986,0.0925337999999999,-0.0288835999999994,0.0646644000000007,-0.0049079999999999,0,sub_19
-0.0131470000000002,-0.0030333999999986,0.0932081999999999,-0.0252369999999994,0.0626748000000008,-0.0003711999999999,0,sub_19
-0.0160014000000002,-0.0042021999999986,0.0928619999999999,-0.0171209999999994,0.0593862000000008,0.0054804,0,sub_19
-0.0192538000000002,-0.0062189999999986,0.0921243999999999,-0.0060263999999994,0.0550184000000008,0.0122088,0,sub_19
-0.0217252000000002,-0.0074261999999986,0.0908699999999999,0.0067750000000005,0.0512814000000007,0.0195892,0,sub_19
-0.0232366000000002,-0.0080983999999987,0.0900119999999999,0.0174524000000005,0.0498944000000007,0.0271656,0,sub_19
-0.0230130000000002,-0.0075605999999987,0.0897939999999999,0.0227540000000005,0.0494224000000007,0.03404,0,sub_19
-0.0214882000000002,-0.0050129999999987,0.0902023999999999,0.0225128000000005,0.0491862000000008,0.0400206,0,sub_19
-0.0185374000000002,-0.0015707999999987,0.0905079999999999,0.0178032000000005,0.0491890000000007,0.043406,0,sub_19
-0.0169418000000002,0.0014850000000012,0.0912203999999999,0.0097690000000005,0.0468682000000007,0.0438114,0,sub_19
-0.0158608000000002,0.0029646000000012,0.0911009999999999,0.0023844000000005,0.0428562000000007,0.0403778,0,sub_19
-0.0156090000000002,0.0024152000000012,0.0904733999999999,-0.0013543999999994,0.0388478000000007,0.0329106,0,sub_19
-0.0160976000000002,0.0006804000000012,0.0904637999999999,-0.0005933999999994,0.0361140000000007,0.0224822,0,sub_19
-0.0172282000000002,-0.0023741999999987,0.0907253999999999,0.0027292000000005,0.0335842000000008,0.0120714,0,sub_19
-0.0181340000000002,-0.0049527999999987,0.0902771999999999,0.0076714000000005,0.0319002000000007,0.0027078,0,sub_19
-0.0188048000000002,-0.0068183999999986,0.0900081999999999,0.0108912000000005,0.0278742000000007,-0.0055965999999999,0,sub_19
-0.0191210000000002,-0.0068061999999986,0.0898085999999999,0.0113054000000005,0.0193736000000007,-0.0113511999999999,0,sub_19
-0.0187146000000002,-0.0062777999999987,0.0899513999999999,0.0078770000000005,0.0070406000000007,-0.0145529999999999,0,sub_19
-0.0179454000000002,-0.0050835999999986,0.0901239999999999,0.0027366000000005,-0.0052905999999992,-0.0166985999999999,0,sub_19
-0.0173612000000002,-0.0035581999999986,0.0904497999999999,-0.0028237999999994,-0.0159167999999991,-0.0186355999999999,0,sub_19
-0.0168190000000002,-0.0013277999999987,0.0902001999999999,-0.0073067999999994,-0.0222931999999991,-0.0186477999999999,0,sub_19
-0.0165316000000002,0.0005632000000012,0.0896169999999999,-0.0100635999999994,-0.0239901999999991,-0.0182267999999999,0,sub_19
-0.0160470000000001,0.0018648000000012,0.0887003999999999,-0.0115485999999994,-0.0222795999999991,-0.0184529999999999,0,sub_19
-0.0151640000000001,0.0021834000000012,0.0883381999999999,-0.0123925999999994,-0.0199337999999991,-0.0182481999999999,0,sub_19
-0.0136512000000002,0.0015738000000012,0.0882153999999999,-0.0132413999999994,-0.0178045999999991,-0.0171887999999999,0,sub_19
-0.0121342000000002,1.4600000001280605e-05,0.0887741999999999,-0.0144621999999994,-0.0174839999999991,-0.0163321999999999,0,sub_19
-0.0106862000000002,-0.0006907999999987,0.0888257999999999,-0.0161097999999994,-0.0169497999999991,-0.0152651999999999,0,sub_19
-0.0098552000000002,-0.0012021999999987,0.0887595999999999,-0.0164771999999993,-0.0155711999999991,-0.0133357999999999,0,sub_19
-0.0093494000000002,-0.0001651999999987,0.0882461999999999,-0.0164119999999993,-0.0131279999999991,-0.0116185999999999,0,sub_19
-0.0092922000000002,0.0009636000000012,0.0878851999999999,-0.0154931999999993,-0.0104753999999992,-0.0096817999999999,0,sub_19
-0.0096084000000002,0.0017580000000012,0.0869941999999999,-0.0137783999999993,-0.0070793999999992,-0.0079651999999999,0,sub_19
-0.0096074000000002,0.0019162000000012,0.0869971999999999,-0.0114245999999993,-0.0047473999999992,-0.0070971999999999,0,sub_19
-0.0100350000000002,0.0011718000000012,0.0873463999999999,-0.0092869999999994,-0.0039027999999992,-0.0070833999999999,0,sub_19
-0.0109878000000002,-0.0002199999999987,0.0872511999999999,-0.0056595999999994,-0.0047643999999992,-0.0079113999999999,0,sub_19
-0.0117822000000002,-0.0008795999999987,0.0869919999999999,-0.0010915999999994,-0.0073341999999992,-0.0097853999999999,0,sub_19
-0.0126026000000002,-0.0015737999999987,0.0869499999999999,0.0032668000000005,-0.0105361999999992,-0.0131553999999999,0,sub_19
-0.0141694000000002,-0.0020843999999987,0.0865265999999999,0.0082674000000005,-0.0145875999999992,-0.0178017999999999,0,sub_19
-0.0154830000000002,-0.0024379999999987,0.0850477999999999,0.0147616000000005,-0.0186441999999992,-0.0224377999999999,0,sub_19
-0.0160298000000002,-0.0025561999999987,0.0836635999999999,0.0216768000000005,-0.0233439999999992,-0.0264291999999999,0,sub_19
-0.0168280000000002,-0.0033689999999987,0.0829465999999999,0.0282798000000005,-0.0288945999999991,-0.0293669999999999,0,sub_19
-0.0169314000000002,-0.0032057999999987,0.0826601999999999,0.0348780000000005,-0.0333885999999991,-0.0301697999999999,0,sub_19
-0.0168828000000002,-0.0040023999999987,0.0826431999999999,0.0398066000000005,-0.0370731999999991,-0.0291173999999999,0,sub_19
-0.0160528000000002,-0.0042277999999987,0.0831943999999999,0.0417498000000005,-0.0396845999999991,-0.0274463999999999,0,sub_19
-0.0155502000000002,-0.0056007999999987,0.0846695999999999,0.0417736000000005,-0.0414395999999991,-0.0251487999999999,0,sub_19
-0.0146582000000002,-0.0061457999999987,0.0861373999999998,0.0405202000000005,-0.0425509999999992,-0.0228609999999999,0,sub_19
-0.0151600000000002,-0.0064593999999987,0.0876751999999999,0.0384104000000005,-0.0453593999999992,-0.0216451999999999,0,sub_19
-0.0154930000000002,-0.0057589999999987,0.0889999999999999,0.0371120000000005,-0.0494029999999992,-0.0216491999999999,0,sub_19
-0.0163212000000002,-0.0044453999999987,0.0899703999999999,0.0364556000000005,-0.0545079999999992,-0.0231427999999999,0,sub_19
-0.0170956000000002,-0.0013645999999987,0.0898665999999999,0.0362356000000005,-0.0587571999999992,-0.0259163999999999,0,sub_19
-0.0180772000000002,0.0005192000000012,0.0895583999999999,0.0360402000000005,-0.0615191999999992,-0.0291649999999999,0,sub_19
-0.0177938000000002,0.0021452000000012,0.0885887999999999,0.0362794000000005,-0.0630027999999992,-0.0328395999999999,0,sub_19
-0.0168378000000002,0.0023902000000012,0.0873321999999999,0.0356678000000005,-0.0627831999999992,-0.0354539999999999,0,sub_19
-0.0151824000000002,0.0010818000000012,0.0867313999999999,0.0354782000000005,-0.0627815999999992,-0.0372105999999999,0,sub_19
-0.0134828000000002,-0.0014857999999987,0.0869019999999999,0.0354818000000005,-0.0655573999999992,-0.0372529999999999,0,sub_19
-0.0112752000000002,-0.0046347999999987,0.0868923999999999,0.0358838000000005,-0.0708861999999992,-0.0370297999999999,0,sub_19
-0.0097452000000002,-0.0081311999999987,0.0877359999999999,0.0362702000000005,-0.0785627999999992,-0.0357353999999999,0,sub_19
-0.0093392000000002,-0.0097413999999987,0.0892283999999998,0.0362166000000005,-0.0898571999999992,-0.0350803999999999,0,sub_19
-0.0100530000000002,-0.0103409999999987,0.0907491999999998,0.0344426000000005,-0.1039161999999992,-0.0342201999999999,0,sub_19
-0.0116996000000002,-0.0099883999999987,0.0918697999999999,0.0331312000000005,-0.1176555999999992,-0.0342059999999999,0,sub_19
-0.0142696000000002,-0.0078825999999987,0.0925811999999998,0.0348032000000005,-0.1316209999999991,-0.0335295999999999,0,sub_19
-0.0158130000000002,-0.0049227999999987,0.0929409999999999,0.0377612000000005,-0.1443127999999992,-0.0328457999999999,0,sub_19
-0.0165512000000002,-0.0027563999999987,0.0931429999999999,0.0417994000000005,-0.1533887999999992,-0.0315181999999999,0,sub_19
-0.0176302000000002,-0.0013153999999987,0.0939487999999999,0.0477772000000005,-0.1590593999999991,-0.0310359999999999,0,sub_19
-0.0182132000000002,-0.0006069999999987,0.0949601999999999,0.0550090000000005,-0.1646223999999992,-0.0314055999999999,0,sub_19
-0.0185246000000002,-0.0008421999999987,0.0958147999999999,0.0624558000000005,-0.1708211999999992,-0.0328411999999999,0,sub_19
-0.0201748000000002,-0.0015915999999987,0.0954915999999999,0.0731372000000005,-0.1800569999999992,-0.0357187999999999,0,sub_19
-0.0218434000000002,-0.0021153999999986,0.0952477999999999,0.0874314000000005,-0.1933501999999992,-0.0394205999999999,0,sub_19
-0.0221410000000002,-0.0019233999999986,0.0941043999999999,0.1034240000000005,-0.2077177999999992,-0.0422545999999999,0,sub_19
-0.0197138000000002,-0.0005011999999987,0.0925781999999999,0.1183516000000005,-0.2195337999999992,-0.0429627999999999,0,sub_19
-0.0161722000000002,0.0012046000000012,0.0919417999999999,0.1285986000000005,-0.2268649999999992,-0.0422139999999999,0,sub_19
-0.0115784000000002,0.0027278000000012,0.0922739999999999,0.1326296000000005,-0.2288093999999992,-0.0389787999999999,0,sub_19
-0.0071126000000002,0.0036348000000012,0.0917251999999999,0.1334754000000005,-0.2256361999999991,-0.0340629999999999,0,sub_19
-0.0030884000000002,0.0046268000000012,0.0917741999999999,0.1330448000000005,-0.2205453999999992,-0.0280903999999999,0,sub_19
-0.0013288000000002,0.0046330000000012,0.0920137999999999,0.1328064000000005,-0.2145773999999992,-0.0216209999999999,0,sub_19
0.0014219999999997,0.0049316000000012,0.0916001999999999,0.1342826000000005,-0.2062743999999992,-0.0145015999999999,0,sub_19
0.0038227999999997,0.0055154000000012,0.0911437999999999,0.1370524000000005,-0.1952051999999992,-0.0075903999999999,0,sub_19
0.0063183999999997,0.0070552000000012,0.0910863999999999,0.1387690000000005,-0.1819983999999992,-0.0015439999999999,0,sub_19
0.0086423999999997,0.0073792000000012,0.0903171999999999,0.1387928000000005,-0.1668629999999992,0.0032062,0,sub_19
0.0108695999999997,0.0089952000000012,0.0890743999999999,0.1365032000000005,-0.1523739999999992,0.0048806,0,sub_19
0.0109999999999997,0.0095620000000012,0.0884309999999999,0.1335678000000005,-0.1414951999999992,0.0042052,0,sub_19
0.0117059999999997,0.0109936000000012,0.0877787999999999,0.1304104000000005,-0.1338063999999992,0.0022504,0,sub_19
0.0124121999999997,0.0120676000000012,0.0873105999999999,0.1251154000000005,-0.1267501999999992,0.0004952,0,sub_19
0.0133339999999997,0.0143866000000012,0.0876037999999999,0.1176924000000005,-0.1181959999999991,-0.0010629999999999,0,sub_19
0.0138825999999997,0.0155456000000012,0.0881669999999999,0.1079338000000005,-0.1064403999999991,-0.0020007999999999,0,sub_19
0.0146367999999997,0.0162390000000012,0.0879687999999999,0.0960538000000005,-0.0899979999999991,-0.0010365999999999,0,sub_19
0.0147393999999997,0.0165582000000012,0.0877131999999999,0.0831196000000005,-0.0722673999999991,-0.0015769999999999,0,sub_19
0.0140907999999997,0.0169510000000012,0.0882775999999999,0.0710350000000005,-0.0558163999999991,-0.0025371999999999,0,sub_19
0.0132199999999997,0.0166672000000012,0.0881433999999999,0.0604394000000005,-0.0402237999999991,-0.0032721999999999,0,sub_19
0.0132973999999997,0.0169184000000012,0.0877351999999999,0.0513362000000005,-0.0225149999999991,-0.0016491999999999,0,sub_19
0.0138013999999997,0.0167546000000012,0.0873311999999999,0.0413864000000005,-0.0056461999999991,-0.0023813999999999,0,sub_19
0.0145247999999997,0.0157556000000012,0.0870633999999999,0.0295066000000005,0.0124940000000008,0.0002898,0,sub_19
0.0156115999999997,0.0143322000000012,0.0859227999999999,0.0159246000000005,0.0323420000000007,0.0035878,0,sub_19
0.0159059999999997,0.0109418000000012,0.0854771999999999,0.0019090000000005,0.0517612000000007,0.0079516,0,sub_19
0.0157079999999997,0.0112506000000012,0.0856799999999999,-0.0125435999999994,0.0656552000000007,0.0091146,0,sub_19
0.0145681999999997,0.0098148000000012,0.0854737999999999,-0.0255237999999994,0.0752814000000007,0.0107208,0,sub_19
0.0126717999999997,0.0086672000000012,0.0853231999999999,-0.0363789999999994,0.0802238000000007,0.0095704,0,sub_19
0.0111863999999997,0.0079408000000012,0.0858039999999999,-0.0453291999999994,0.0817508000000007,0.0084378,0,sub_19
0.0092979999999997,0.0100926000000012,0.0858895999999999,-0.0549241999999994,0.0809416000000007,0.0060216,0,sub_19
0.0071705999999997,0.0092184000000012,0.0855585999999999,-0.0645241999999994,0.0809768000000007,0.0055272,0,sub_19
0.0048567999999997,0.0119382000000012,0.0860681999999999,-0.0734791999999994,0.0829238000000007,0.0058894,0,sub_19
0.0027027999999997,0.0133420000000012,0.0865317999999999,-0.0811433999999994,0.0880588000000007,0.0071112,0,sub_19
0.0001101999999997,0.0140222000000012,0.0872749999999999,-0.0864517999999994,0.0944666000000007,0.0077068,0,sub_19
-0.0014168000000002,0.0143186000000012,0.0871927999999999,-0.0877051999999994,0.1012852000000007,0.008544,0,sub_19
-0.0028294000000002,0.0122514000000012,0.0876295999999999,-0.0855415999999994,0.1076702000000007,0.0083374,0,sub_19
-0.0034592000000002,0.0099176000000012,0.0874827999999999,-0.0818901999999994,0.1127716000000007,0.0081428,0,sub_19
-0.0037192000000002,0.0082704000000012,0.0872725999999999,-0.0778235999999994,0.1155272000000007,0.0081676,0,sub_19
-0.0040652000000002,0.0069382000000012,0.0862403999999999,-0.0746191999999994,0.1167926000000007,0.0086156,0,sub_19
-0.0047132000000002,0.0043578000000012,0.0864479999999999,-0.0735609999999994,0.1148714000000007,0.0086254,0,sub_19
-0.0054224000000002,0.0027770000000012,0.0863955999999999,-0.0727295999999994,0.1097560000000007,0.008424,0,sub_19
-0.0062938000000002,0.0028284000000012,0.0860441999999999,-0.0721125999999994,0.1048528000000007,0.0086482,0,sub_19
-0.0065858000000002,0.0030184000000012,0.0856365999999999,-0.0706351999999994,0.1012256000000007,0.0086632,0,sub_19
-0.0065286000000002,0.0033784000000012,0.0849779999999999,-0.0702199999999994,0.0988796000000008,0.0088828,0,sub_19
-0.0059382000000002,0.0052486000000012,0.0838853999999998,-0.0702111999999994,0.0997316000000008,0.0099614,0,sub_19
-0.0050498000000002,0.0056390000000012,0.0833435999999998,-0.0714711999999994,0.1044178000000007,0.0123082,0,sub_19
-0.0038134000000002,0.0042532000000012,0.0838175999999998,-0.0740027999999994,0.1095404000000007,0.01315,0,sub_19
-0.0033022000000002,0.0029426000000012,0.0840869999999999,-0.0776089999999994,0.1125380000000007,0.0135596,0,sub_19
-0.0023556000000002,0.0019492000000012,0.0842881999999999,-0.0797203999999994,0.1140458000000007,0.0122724,0,sub_19
-0.0019746000000002,-0.0004579999999987,0.0842359999999999,-0.0807717999999994,0.1142754000000007,0.00906,0,sub_19
-0.0019388000000002,-0.0011575999999987,0.0835829999999999,-0.0811859999999994,0.1128026000000007,0.004786,0,sub_19
-0.0024656000000002,-0.0020635999999987,0.0825363999999999,-0.0816097999999994,0.1098360000000007,0.0011548,0,sub_19
-0.0035726000000002,-0.0029009999999986,0.0828801999999999,-0.0820373999999994,0.1064414000000007,-0.0020483999999999,0,sub_19
-0.0071670000000002,-0.0032397999999986,0.0834703999999999,-0.0805591999999994,0.1013298000000007,-0.0037405999999999,0,sub_19
-0.0112512000000002,-0.0024969999999986,0.0846727999999999,-0.0773835999999994,0.0953548000000007,-0.0041379999999999,0,sub_19
-0.0148194000000002,-0.0024741999999986,0.0862681999999999,-0.0716609999999993,0.0876612000000007,-0.0032335999999999,0,sub_19
-0.0181636000000002,-0.0019783999999986,0.0881439999999999,-0.0640265999999993,0.0788922000000007,-0.0014597999999999,0,sub_19
-0.0209860000000002,-0.0009767999999987,0.0892073999999999,-0.0555501999999993,0.0682004000000007,0.0009632,0,sub_19
-0.0221994000000002,-0.0004273999999987,0.0901281999999999,-0.0487749999999993,0.0592172000000007,0.0037994,0,sub_19
-0.0218700000000002,0.0005534000000012,0.0907361999999999,-0.0430589999999993,0.0525788000000007,0.0072661999999999,0,sub_19
-0.0191566000000002,0.0016106000000012,0.0912205999999999,-0.0398861999999994,0.0487234000000007,0.0096434,0,sub_19
-0.0168446000000002,0.0022320000000012,0.0910659999999999,-0.0384145999999993,0.0440302000000007,0.0098734,0,sub_19
-0.0155126000000002,0.0020852000000012,0.0905353999999999,-0.0380031999999994,0.0378612000000007,0.0071068,0,sub_19
-0.0147114000000002,0.0013444000000012,0.0893539999999999,-0.0371679999999994,0.0272320000000007,0.0005032,0,sub_19
-0.0142034000000002,-0.0001463999999987,0.0877533999999999,-0.0346353999999994,0.0117076000000007,-0.0088595999999999,0,sub_19
-0.0160864000000002,-0.0005189999999987,0.0857003999999999,-0.0308319999999994,-0.0061639999999992,-0.0184239999999999,0,sub_19
-0.0162562000000002,-0.0006809999999987,0.0841375999999999,-0.0251083999999994,-0.0219201999999992,-0.0258413999999999,0,sub_19
-0.0151986000000002,-0.0008015999999987,0.0829425999999999,-0.0189513999999994,-0.0338521999999992,-0.0309105999999999,0,sub_19
-0.0129818000000002,-0.0012149999999987,0.0822925999999999,-0.0138581999999994,-0.0428079999999992,-0.0329895999999999,0,sub_19
-0.0113736000000002,-0.0027217999999987,0.0818215999999999,-0.0098405999999994,-0.0515553999999992,-0.0329399999999999,0,sub_19
-0.0101226000000002,-0.0046869999999987,0.0816307999999999,-0.0052009999999994,-0.0630799999999991,-0.0316005999999999,0,sub_19
-0.0099998000000002,-0.0056061999999987,0.0815675999999999,0.0011302000000005,-0.0771705999999991,-0.0293915999999999,0,sub_19
-0.0095854000000002,-0.0055267999999987,0.0823095999999999,0.0085264000000005,-0.0910543999999991,-0.0265343999999999,0,sub_19
-0.0090776000000002,-0.0036231999999987,0.0831745999999999,0.0178476000000005,-0.1017567999999991,-0.0221825999999999,0,sub_19
-0.0073458000000002,-0.0004393999999987,0.0835163999999999,0.0276158000000005,-0.1065013999999991,-0.0163397999999999,0,sub_19
-0.0052470000000002,0.0022472000000012,0.0837081999999999,0.0357038000000005,-0.1044255999999992,-0.0096629999999999,0,sub_19
-0.0032500000000002,0.0040128000000012,0.0837833999999999,0.0395494000000005,-0.0970075999999992,-0.0032361999999999,0,sub_19
-0.0010026000000002,0.0055814000000012,0.0832145999999999,0.0400582000000005,-0.0877927999999992,0.0031686,0,sub_19
0.0013577999999997,0.0051142000000012,0.0824175999999999,0.0369416000000005,-0.0794123999999992,0.0082672,0,sub_19
0.0025991999999997,0.0049008000000012,0.0822685999999999,0.0306128000000005,-0.0756993999999992,0.0112128,0,sub_19
0.0026391999999997,0.0049194000000012,0.0824175999999999,0.0214996000000005,-0.0766543999999992,0.0117948,0,sub_19
0.0027403999999997,0.0047292000000012,0.0828759999999999,0.0121672000000005,-0.0812213999999991,0.0100298,0,sub_19
0.0023603999999997,0.0046010000000012,0.0827119999999999,0.0036216000000005,-0.0873547999999991,0.0061322,0,sub_19
0.0014351999999997,0.0047604000000012,0.0826513999999999,-0.0040675999999994,-0.0939129999999991,0.001173,0,sub_19
0.0003825999999997,0.0050502000000012,0.0822373999999999,-0.0106775999999994,-0.0986661999999991,-0.0040055999999999,0,sub_19
-0.0005648000000002,0.0052918000000012,0.0817689999999999,-0.0149319999999994,-0.1008735999999991,-0.0085299999999999,0,sub_19
-0.0011832000000002,0.0053110000000012,0.0807591999999999,-0.0161885999999994,-0.0992623999999992,-0.0115427999999999,0,sub_19
-0.0011652000000002,0.0055522000000012,0.0802039999999999,-0.0146655999999994,-0.0940481999999992,-0.0121907999999999,0,sub_19
-0.0013254000000002,0.0066842000000012,0.0797097999999999,-0.0118593999999994,-0.0862895999999992,-0.0109101999999999,0,sub_19
-0.0006280000000002,0.0063698000000012,0.0795663999999999,-0.0086233999999994,-0.0762957999999991,-0.0087637999999999,0,sub_19
-7.76000000002483e-05,0.0063254000000012,0.0796931999999999,-0.0047423999999994,-0.0648145999999992,-0.0061875999999999,0,sub_19
5.079999999977164e-05,0.0064730000000012,0.0798571999999999,-3.999999999442644e-06,-0.0533329999999991,-0.0044601999999999,0,sub_19
-0.0011642000000002,0.0046920000000012,0.0793319999999999,0.0077140000000005,-0.0444151999999991,-0.0035629999999999,0,sub_19
-0.0025374000000002,0.0015576000000012,0.0788093999999999,0.0198944000000005,-0.0399853999999991,-0.0030563999999999,0,sub_19
-0.0043290000000002,-0.0008305999999987,0.0778689999999999,0.0363164000000005,-0.0398373999999992,-0.0010191999999999,0,sub_19
-0.0064052000000002,-0.0038913999999987,0.0758019999999999,0.0568448000000005,-0.0429883999999992,0.0008378,0,sub_19
-0.0086694000000002,-0.0065817999999987,0.0733249999999999,0.0788658000000005,-0.0469941999999991,0.0020654,0,sub_19
-0.0100720000000002,-0.0088013999999987,0.0708735999999999,0.1006888000000005,-0.0488635999999991,0.002007,0,sub_19
-0.0101626000000002,-0.0099169999999987,0.0695735999999999,0.1197630000000005,-0.0460327999999991,0.0010688,0,sub_19
-0.0088996000000002,-0.0095509999999987,0.0724247999999999,0.1322812000000005,-0.0338327999999991,0.0026446,0,sub_19
-0.0062124000000002,-0.0051523999999987,0.0783205999999999,0.1304530000000005,-0.0112937999999991,0.010943,0,sub_19
-0.0008860000000002,0.0020382000000012,0.0870701999999999,0.1094300000000005,0.0225666000000007,0.0284934,0,sub_19
0.0057513999999997,0.0127948000000012,0.0974151999999999,0.0664316000000005,0.0683888000000007,0.0574116,0,sub_19
0.0108373999999997,0.0231514000000012,0.1062661999999999,0.0050734000000005,0.1210570000000007,0.0951658,0,sub_19
0.0119673999999997,0.0306730000000012,0.1101381999999999,-0.0654981999999994,0.1705828000000007,0.1319972,0,sub_19
0.0088235999999997,0.0320386000000012,0.1094997999999999,-0.1307161999999994,0.2139534000000008,0.1584054,0,sub_19
0.0012779999999997,0.0282518000000012,0.1063277999999999,-0.1756513999999994,0.2426224000000008,0.167455,0,sub_19
-0.0110288000000002,0.0180860000000012,0.1010265999999999,-0.1935529999999994,0.2518834000000008,0.156694,0,sub_19
-0.0205180000000002,0.0060524000000012,0.0966863999999999,-0.1894615999999994,0.2455908000000007,0.1270924,0,sub_19
-0.0268864000000002,-0.0050523999999987,0.0933207999999999,-0.1706437999999994,0.2284278000000008,0.085857,0,sub_19
