userAcceleration.x,userAcceleration.y,userAcceleration.z,rotationRate.x,rotationRate.y,rotationRate.z,label,subject
0.0194853999999996,0.0082262000000012,0.0116691999999999,0.1009714000000004,0.3275848000000009,-0.0877496,0,sub_3
0.0196437999999996,0.0106222000000012,0.0142333999999999,0.1030342000000004,0.3228460000000009,-0.0766196,0,sub_3
0.0184919999999996,0.0086192000000012,0.0147009999999999,0.1046606000000004,0.3164024000000009,-0.0650632,0,sub_3
0.0171333999999996,0.0070180000000011,0.0120841999999999,0.1099278000000004,0.3127166000000009,-0.0536986,0,sub_3
0.0139543999999997,0.0074852000000011,0.0092367999999999,0.1246190000000004,0.3173054000000009,-0.0418514,0,sub_3
0.0092851999999997,0.0090602000000012,0.0067333999999999,0.1521420000000004,0.3271810000000009,-0.0312032,0,sub_3
0.0017283999999997,0.0129124000000012,0.0086959999999999,0.1946290000000004,0.3416974000000009,-0.0219519999999999,0,sub_3
-0.0052530000000003,0.0164500000000012,0.0096699999999999,0.2433652000000004,0.3706766000000009,-0.0118211999999999,0,sub_3
-0.0096412000000003,0.0206194000000012,0.0124383999999999,0.2900032000000004,0.4079706000000008,-0.0012881999999999,0,sub_3
-0.0109020000000003,0.0209496000000012,0.0128309999999999,0.3253246000000004,0.4438118000000008,0.0093811999999999,0,sub_3
-0.0104384000000003,0.0205306000000012,0.0108793999999999,0.3512654000000005,0.4826634000000009,0.0212629999999999,0,sub_3
-0.0068428000000003,0.0162210000000012,0.0057341999999999,0.3648344000000004,0.5236836000000009,0.0343373999999999,0,sub_3
-0.0010038000000003,0.0124120000000012,0.0021637999999999,0.3717486000000004,0.5530200000000008,0.0446029999999999,0,sub_3
0.0083483999999996,0.0062170000000012,-0.000885,0.3764744000000004,0.5678856000000009,0.0525217999999999,0,sub_3
0.0152051999999996,0.0029144000000012,-0.0008672,0.3798558000000004,0.568269200000001,0.0602361999999999,0,sub_3
0.0199855999999996,-0.0013481999999987,0.0014735999999999,0.3786932000000004,0.5546068000000008,0.0679367999999999,0,sub_3
0.0242229999999997,-0.0063403999999987,0.0030533999999999,0.3732420000000004,0.5371210000000008,0.0764669999999999,0,sub_3
0.0262715999999996,-0.0092519999999987,0.0037055999999999,0.3637222000000004,0.516241400000001,0.0847593999999999,0,sub_3
0.0260765999999996,-0.0076937999999987,0.0037789999999999,0.3486634000000004,0.4934792000000009,0.0891697999999999,0,sub_3
0.0300671999999996,-0.0055331999999987,0.0008485999999999,0.3293908000000004,0.475235600000001,0.0860673999999999,0,sub_3
0.0344439999999996,-0.0025055999999987,-0.002293,0.3061006000000004,0.4591606000000009,0.0769523999999999,0,sub_3
0.0387841999999996,-0.0001491999999987,-0.0051578,0.2789572000000004,0.4377830000000009,0.0652533999999999,0,sub_3
0.0438505999999996,-0.0003423999999987,-0.006545,0.2485816000000004,0.4079004000000009,0.0520471999999999,0,sub_3
0.0479553999999996,-0.0037703999999987,-0.006751,0.2156110000000004,0.3703568000000009,0.0388327999999999,0,sub_3
0.0485127999999996,-0.0077669999999987,-0.0045992,0.1832326000000004,0.3240682000000009,0.0275565999999999,0,sub_3
0.0476579999999996,-0.0073055999999987,-0.002682,0.1516770000000004,0.2728688000000009,0.018215,0,sub_3
0.0460407999999996,-0.0028377999999987,-0.0002562,0.1209902000000004,0.2223166000000009,0.0061014,0,sub_3
0.0438541999999996,0.0014880000000012,0.0011839999999999,0.0916202000000004,0.1796438000000009,-0.0062267999999999,0,sub_3
0.0405047999999996,0.0042646000000012,-8.100000000006922e-05,0.0688934000000004,0.1456736000000009,-0.0161697999999999,0,sub_3
0.0371331999999996,0.0084520000000012,-0.0011516,0.0538854000000004,0.1227442000000009,-0.0232956,0,sub_3
0.0342789999999996,0.0077786000000012,-0.00331,0.0421018000000004,0.1070398000000009,-0.0284851999999999,0,sub_3
0.0319535999999996,0.0046938000000012,-0.0048872,0.0360690000000004,0.0904570000000009,-0.0321381999999999,0,sub_3
0.0319229999999997,0.0039124000000012,-0.0053754,0.0349130000000004,0.0700102000000009,-0.032761,0,sub_3
0.0323529999999997,0.0057864000000012,-0.003341,0.0356524000000004,0.0465636000000009,-0.0308029999999999,0,sub_3
0.0318987999999997,0.0050424000000012,-0.0005796,0.0363824000000004,0.0271404000000009,-0.0226545999999999,0,sub_3
0.0316173999999997,0.0058184000000012,0.0014613999999999,0.0394852000000004,0.0149468000000009,-0.0130034,0,sub_3
0.0293267999999996,0.0104430000000012,-0.0025412,0.0492838000000004,0.0114512000000009,-0.0039368,0,sub_3
0.0263751999999997,0.0168570000000012,-0.00522,0.0768470000000004,0.0132472000000009,-0.0015896,0,sub_3
0.0234591999999996,0.0233278000000012,-0.0038712,0.1110746000000004,0.0180354000000009,-0.0073181999999999,0,sub_3
0.0212123999999997,0.0272656000000012,0.0016871999999999,0.1410444000000004,0.0164810000000009,-0.0216139999999999,0,sub_3
0.0193639999999996,0.0291540000000012,0.0051425999999999,0.1620354000000004,0.0092130000000009,-0.0378882,0,sub_3
0.0204873999999997,0.0309850000000012,0.0075525999999999,0.1759478000000004,0.0047466000000009,-0.0518858,0,sub_3
0.0214239999999997,0.0303368000000012,0.0024055999999999,0.1923794000000004,-0.001462799999999,-0.0583859999999999,0,sub_3
0.0229269999999997,0.0303566000000012,-0.0043748,0.2381952000000004,-0.015681199999999,-0.0589022,0,sub_3
0.0248299999999996,0.0298222000000012,-0.0054178,0.3038150000000004,-0.030852799999999,-0.0513742,0,sub_3
0.0262123999999996,0.0247734000000012,-0.001325,0.3655704000000004,-0.038817199999999,-0.0312774,0,sub_3
0.0244951999999996,0.0172280000000012,0.0037547999999999,0.4093842000000004,-0.045886399999999,-0.0063932,0,sub_3
0.0235527999999996,0.0106460000000012,0.0081119999999999,0.4268118000000004,-0.044523599999999,0.0106045999999999,0,sub_3
0.0227521999999996,0.0046296000000012,0.0131687999999999,0.4065394000000004,-0.038088399999999,0.0172913999999999,0,sub_3
0.0236435999999996,0.0015128000000012,0.0125603999999999,0.3596522000000004,-0.030448799999999,0.0122537999999999,0,sub_3
0.0258629999999996,0.0017826000000012,0.0130709999999999,0.3075014000000005,-0.019544599999999,-0.0054296,0,sub_3
0.0300661999999996,-0.0001931999999987,0.0153313999999999,0.2547586000000004,-0.001380599999999,-0.0265448,0,sub_3
0.0313517999999996,-0.0034607999999987,0.0175945999999999,0.1975234000000004,0.0174254000000009,-0.0444874,0,sub_3
0.0321485999999996,-0.0064143999999987,0.0159477999999999,0.1394596000000004,0.0458056000000009,-0.058389,0,sub_3
0.0314195999999996,-0.0084211999999987,0.0105511999999999,0.0876066000000004,0.0803386000000009,-0.0711868,0,sub_3
0.0325081999999996,-0.0092997999999987,0.0037251999999999,0.0481198000000004,0.1124856000000009,-0.0841087999999999,0,sub_3
0.0343283999999996,-0.0106709999999987,0.0007563999999999,0.0190468000000004,0.1354346000000009,-0.0969463999999999,0,sub_3
0.0386711999999996,-0.0111783999999987,0.0028077999999999,-0.0094291999999995,0.1538870000000008,-0.1046465999999999,0,sub_3
0.0419183999999996,-0.0128147999999987,0.0014783999999999,-0.0464945999999995,0.1699864000000009,-0.1025759999999999,0,sub_3
0.0428465999999996,-0.0132255999999987,-0.0034048,-0.0827437999999995,0.1854128000000009,-0.0928075999999999,0,sub_3
0.0430763999999996,-0.0145599999999987,-0.0066856,-0.1141153999999995,0.1935810000000009,-0.0836368,0,sub_3
0.0438387999999996,-0.0166563999999987,-0.009677,-0.1444409999999995,0.1970584000000009,-0.0744526,0,sub_3
0.0427211999999996,-0.0193513999999987,-0.0107502,-0.1720139999999995,0.1985974000000009,-0.0624693999999999,0,sub_3
0.0415975999999996,-0.0226253999999987,-0.008194,-0.1953501999999995,0.1941526000000009,-0.0495944,0,sub_3
0.0404581999999996,-0.0183779999999987,-2.4000000000069105e-05,-0.2231825999999995,0.1873756000000009,-0.0356796,0,sub_3
0.0422737999999996,-0.0233159999999987,0.0077237999999999,-0.2589087999999995,0.1778684000000009,-0.0248074,0,sub_3
0.0455609999999996,-0.0120149999999987,0.0171431999999999,-0.2959057999999995,0.1728304000000009,-0.0115998,0,sub_3
0.0471445999999996,0.0042674000000012,0.0233309999999999,-0.3354553999999995,0.1642008000000009,-0.0037464,0,sub_3
0.0459003999999997,0.0213850000000012,0.0263459999999999,-0.3691989999999995,0.1583496000000009,-0.00312,0,sub_3
0.0440923999999997,0.0227374000000012,0.0213069999999999,-0.3896673999999995,0.1544030000000009,-0.0107354,0,sub_3
0.0392267999999997,0.0249554000000012,0.0095267999999999,-0.3900337999999995,0.1606120000000009,-0.01801,0,sub_3
0.0337733999999997,0.0153618000000012,-0.0051032,-0.3680103999999995,0.1639712000000009,-0.0246972,0,sub_3
0.0342207999999996,0.0002784000000012,-0.016109,-0.3223313999999995,0.1695564000000009,-0.0224626,0,sub_3
0.0381175999999996,-0.0140773999999987,-0.0218782,-0.2692465999999995,0.1725138000000009,-0.0088498,0,sub_3
0.0430899999999996,-0.0181683999999987,-0.0232614,-0.2198535999999995,0.1671510000000009,0.0107299999999999,0,sub_3
0.0481741999999996,-0.0103693999999987,-0.019619,-0.1863361999999995,0.1435172000000009,0.0310769999999999,0,sub_3
0.0532103999999996,-0.0049397999999987,-0.0128562,-0.1716291999999994,0.1029432000000009,0.0417003999999999,0,sub_3
0.0548721999999996,0.0015510000000012,-0.0070152,-0.1694977999999995,0.0545736000000009,0.0413499999999999,0,sub_3
0.0542111999999996,0.0085772000000012,-0.0031134,-0.1705295999999995,0.0092192000000009,0.0356325999999999,0,sub_3
0.0518937999999996,0.0129102000000012,-0.0005566,-0.1702427999999995,-0.024858999999999,0.0326871999999999,0,sub_3
0.0452019999999997,0.0143066000000012,0.0006337999999999,-0.1613559999999995,-0.044479199999999,0.0297833999999999,0,sub_3
0.0367561999999997,0.0128922000000012,0.0002363999999999,-0.1511427999999995,-0.055362799999999,0.0253819999999999,0,sub_3
0.0313467999999996,0.0101688000000012,-0.0018698,-0.1469127999999995,-0.067930799999999,0.0211547999999999,0,sub_3
0.0299739999999997,0.0057982000000012,-0.0049148,-0.1454795999999995,-0.083480399999999,0.0190481999999999,0,sub_3
0.0308413999999996,0.0012748000000012,-0.0051588,-0.1445065999999995,-0.104363199999999,0.0190817999999999,0,sub_3
0.0339883999999997,-0.0011773999999987,-0.0042674,-0.1474079999999995,-0.127172399999999,0.0246455999999999,0,sub_3
0.0377937999999997,-0.0004817999999987,-0.005085,-0.1490195999999995,-0.143186999999999,0.0349097999999999,0,sub_3
0.0379283999999997,0.0043234000000012,-0.0065012,-0.1465007999999995,-0.151132199999999,0.0445703999999999,0,sub_3
0.0364415999999997,0.0141326000000012,-0.005894,-0.1373455999999995,-0.1624759999999991,0.0459495999999999,0,sub_3
0.0356173999999997,0.0259762000000012,-0.0062784,-0.1241265999999995,-0.178706199999999,0.0403131999999999,0,sub_3
0.0363269999999996,0.0330680000000012,-0.0018528,-0.1094139999999995,-0.198124599999999,0.0314865999999999,0,sub_3
0.0368649999999996,0.0384574000000012,0.0037047999999999,-0.0968379999999995,-0.217325799999999,0.0234993999999999,0,sub_3
0.0369389999999996,0.0396640000000012,0.0108175999999999,-0.0874821999999995,-0.231817199999999,0.0163193999999999,0,sub_3
0.0344901999999996,0.0311380000000012,0.0150997999999999,-0.0878991999999995,-0.237536599999999,0.0084189999999999,0,sub_3
0.0314639999999996,0.0190582000000012,0.0186133999999999,-0.0961719999999995,-0.239373799999999,-0.0044552,0,sub_3
0.0275929999999996,0.0104992000000012,0.0180801999999999,-0.1063465999999995,-0.241612599999999,-0.0218286,0,sub_3
0.0245587999999996,0.0039550000000012,0.0205277999999999,-0.1114127999999995,-0.247063399999999,-0.0395894,0,sub_3
0.0234193999999996,0.0004644000000012,0.0244939999999999,-0.1120183999999995,-0.252971999999999,-0.0532594,0,sub_3
0.0247959999999996,0.0023368000000012,0.0286991999999999,-0.1105143999999995,-0.256150799999999,-0.0587996,0,sub_3
0.0283483999999996,0.0074348000000012,0.0331691999999999,-0.1062257999999995,-0.248719999999999,-0.0560018,0,sub_3
0.0336863999999996,0.0121962000000012,0.0358423999999999,-0.0963609999999995,-0.229823999999999,-0.0480522,0,sub_3
0.0374255999999996,0.0158534000000012,0.0342105999999998,-0.0866711999999995,-0.200707599999999,-0.0384077999999999,0,sub_3
0.0401481999999997,0.0144466000000012,0.0314985999999998,-0.0801789999999995,-0.172426399999999,-0.0302801999999999,0,sub_3
0.0435217999999997,0.0110468000000012,0.0295037999999998,-0.0730483999999995,-0.149454199999999,-0.0270551999999999,0,sub_3
0.0449235999999996,0.0047552000000012,0.0275695999999998,-0.0683013999999995,-0.138813599999999,-0.0281037999999999,0,sub_3
0.0440435999999997,0.0008288000000012,0.0271337999999999,-0.0665713999999995,-0.134979599999999,-0.0293785999999999,0,sub_3
0.0441209999999997,-0.0028519999999987,0.0288101999999999,-0.0638069999999995,-0.136907599999999,-0.0291432,0,sub_3
0.0445537999999997,-0.0029637999999987,0.0307069999999999,-0.0572163999999995,-0.139922799999999,-0.0267432,0,sub_3
0.0439067999999997,-0.0004767999999987,0.0338577999999999,-0.0495637999999995,-0.143158199999999,-0.0234808,0,sub_3
0.0425891999999997,0.0036002000000012,0.0362991999999999,-0.0421139999999995,-0.1419273999999991,-0.0180891999999999,0,sub_3
0.0419297999999997,0.0055584000000012,0.0382677999999999,-0.0357155999999994,-0.1374959999999991,-0.0129225999999999,0,sub_3
0.0412479999999997,0.0080990000000012,0.0392047999999999,-0.0293009999999994,-0.130928399999999,-0.0092541999999999,0,sub_3
0.0403767999999997,0.0084418000000012,0.0389671999999999,-0.0220155999999994,-0.121377399999999,-0.0064381999999999,0,sub_3
0.0398985999999997,0.0100714000000012,0.0371449999999999,-0.0140853999999994,-0.108641399999999,-0.0014853999999999,0,sub_3
0.0396939999999997,0.0078970000000012,0.0363719999999999,-0.0042433999999995,-0.098253999999999,0.0030565999999999,0,sub_3
0.0395013999999996,0.0058632000000012,0.0359973999999999,0.0060158000000004,-0.089361999999999,0.0082441999999999,0,sub_3
0.0387437999999996,0.0031900000000012,0.0359725999999999,0.0154242000000004,-0.080039999999999,0.0132117999999999,0,sub_3
0.0382237999999996,0.0025312000000012,0.0366639999999999,0.0203500000000004,-0.072401799999999,0.0168683999999999,0,sub_3
0.0378593999999996,5.860000000124065e-05,0.0378967999999999,0.0222972000000004,-0.065381999999999,0.0179411999999999,0,sub_3
0.0376989999999996,0.0010274000000012,0.0387435999999999,0.0227690000000004,-0.054945599999999,0.0183583999999999,0,sub_3
0.0376509999999997,0.0020910000000012,0.0393895999999999,0.0213252000000004,-0.045134999999999,0.0170539999999999,0,sub_3
0.0378351999999997,0.0024608000000012,0.0402433999999999,0.0181706000000004,-0.037443599999999,0.0144581999999999,0,sub_3
0.0385409999999997,0.0020814000000012,0.0409023999999999,0.0160800000000004,-0.030182999999999,0.0120841999999999,0,sub_3
0.0392273999999997,0.0014134000000012,0.0412969999999999,0.0139790000000004,-0.024204999999999,0.0107799999999999,0,sub_3
0.0403227999999997,0.0007812000000012,0.0405409999999999,0.0125046000000004,-0.019514399999999,0.0111909999999999,0,sub_3
0.0410397999999997,0.0003976000000012,0.0396945999999999,0.0118788000000004,-0.014618599999999,0.0128893999999999,0,sub_3
0.0424319999999997,0.0009400000000012,0.0380143999999999,0.0135974000000004,-0.009309399999999,0.0156719999999999,0,sub_3
0.0429995999999997,0.0011164000000012,0.0373195999999999,0.0165912000000004,-0.004645399999999,0.0188915999999999,0,sub_3
0.0424119999999997,0.0002704000000012,0.0363889999999999,0.0197984000000004,0.0002300000000009,0.0223261999999999,0,sub_3
0.0422643999999996,0.0022656000000012,0.0365129999999999,0.0221522000000004,0.0040474000000009,0.0246877999999999,0,sub_3
0.0426743999999996,0.0030164000000012,0.0371735999999999,0.0249300000000004,0.0057386000000008,0.0255595999999999,0,sub_3
0.0423347999999996,0.0026990000000012,0.0370705999999999,0.0238688000000004,0.0074450000000009,0.0259773999999999,0,sub_3
0.0414703999999996,0.0018788000000012,0.0346485999999999,0.0196072000000004,0.0087382000000009,0.0259459999999999,0,sub_3
0.0422295999999996,0.0025768000000012,0.0325333999999999,0.0164142000000004,0.0096050000000009,0.0250679999999999,0,sub_3
0.0426007999999997,0.0005282000000012,0.0292681999999999,0.0136490000000004,0.0111078000000009,0.0246193999999999,0,sub_3
0.0424661999999997,-0.0001217999999987,0.0252653999999999,0.0117296000000004,0.0126008000000009,0.0258859999999999,0,sub_3
0.0435447999999997,-0.0004431999999987,0.0234817999999999,0.0132166000000004,0.0128018000000009,0.0276051999999999,0,sub_3
0.0449515999999997,0.0003134000000012,0.0228005999999999,0.0164076000000004,0.0119332000000009,0.0289105999999999,0,sub_3
0.0457495999999997,0.0014478000000012,0.0223623999999999,0.0183448000000004,0.0093500000000009,0.0304405999999999,0,sub_3
0.0454271999999997,0.0018262000000012,0.0228715999999999,0.0198522000000004,0.0052804000000009,0.0311149999999999,0,sub_3
0.0454167999999997,0.0017186000000012,0.0220119999999999,0.0198726000000004,0.0020708000000009,0.0311367999999999,0,sub_3
0.0440987999999997,0.0024032000000012,0.0191417999999999,0.0181948000000004,0.0007846000000009,0.0311443999999999,0,sub_3
0.0430047999999997,0.0024076000000012,0.0170677999999999,0.0190898000000004,0.0024714000000009,0.0313795999999999,0,sub_3
0.0422033999999996,0.0012696000000012,0.0140357999999999,0.0201748000000004,0.0063036000000009,0.0311685999999999,0,sub_3
0.0418187999999996,0.0013584000000012,0.0107247999999999,0.0227544000000004,0.0101314000000009,0.0307543999999999,0,sub_3
0.0414525999999996,0.0011222000000012,0.0090427999999999,0.0246988000000004,0.0139656000000009,0.0292675999999999,0,sub_3
0.0406919999999996,0.0011918000000012,0.0088917999999999,0.0251408000000004,0.0152510000000009,0.0271325999999999,0,sub_3
0.0399083999999996,0.0014240000000012,0.0088767999999999,0.0221584000000004,0.0137804000000009,0.0245499999999999,0,sub_3
0.0388365999999996,0.0016330000000012,0.0098471999999999,0.0181034000000004,0.0103984000000009,0.0213213999999999,0,sub_3
0.0379697999999997,0.0017412000000012,0.0116081999999999,0.0117022000000004,0.0072376000000009,0.0180759999999999,0,sub_3
0.0364071999999996,0.0027442000000012,0.0126857999999999,0.0057220000000004,0.0038582000000009,0.0159021999999999,0,sub_3
0.0350337999999996,0.0036240000000012,0.0131805999999999,0.0018822000000004,0.0025992000000009,0.0143815999999999,0,sub_3
0.0339251999999996,0.0048162000000012,0.0127203999999999,0.0001858000000004,0.0038876000000009,0.0132997999999999,0,sub_3
0.0326839999999996,0.0055886000000012,0.0116719999999999,0.0004174000000004,0.0079350000000009,0.0132961999999999,0,sub_3
0.0316807999999996,0.0061178000000012,0.0097619999999999,0.0038564000000004,0.0134626000000009,0.0133131999999999,0,sub_3
0.0309903999999996,0.0064252000000012,0.0090735999999999,0.0077250000000004,0.0200520000000009,0.0137589999999999,0,sub_3
0.0311137999999997,0.0060550000000012,0.0083485999999999,0.0118128000000004,0.0283436000000009,0.0146313999999999,0,sub_3
0.0313653999999996,0.0048406000000012,0.0080667999999999,0.0165416000000004,0.0366338000000009,0.0152947999999999,0,sub_3
0.0311609999999997,0.0034922000000012,0.0079135999999999,0.0197718000000004,0.0442882000000009,0.0163757999999999,0,sub_3
0.0314557999999996,0.0035866000000012,0.0079969999999999,0.0202186000000004,0.0506706000000008,0.0182935999999999,0,sub_3
0.0325119999999996,0.0026180000000012,0.0077369999999999,0.0206702000000004,0.0566330000000008,0.0187163999999999,0,sub_3
0.0330671999999996,0.0031452000000012,0.0074931999999999,0.0189842000000004,0.0611140000000008,0.0184851999999999,0,sub_3
0.0330901999999996,0.0038620000000012,0.0061039999999999,0.0145138000000004,0.0636854000000008,0.0186643999999999,0,sub_3
0.0337815999999996,0.0047188000000012,0.0055211999999999,0.0117496000000004,0.0654012000000009,0.0182155999999999,0,sub_3
0.0342143999999997,0.0038878000000012,0.0056619999999999,0.0098360000000004,0.0662626000000009,0.0175601999999999,0,sub_3
0.0340971999999997,0.0048600000000012,0.0048047999999999,0.0087604000000004,0.0645610000000009,0.0177685999999999,0,sub_3
0.0330795999999996,0.0048894000000012,0.0047841999999999,0.0104482000000004,0.0605060000000009,0.0179991999999999,0,sub_3
0.0329609999999996,0.0054466000000012,0.0058825999999999,0.0138422000000004,0.0564444000000009,0.0184553999999999,0,sub_3
0.0330809999999996,0.0057946000000012,0.0071537999999999,0.0172390000000004,0.0532342000000009,0.0191239999999999,0,sub_3
0.0323211999999996,0.0072902000000012,0.0068297999999999,0.0202176000000004,0.0523674000000009,0.0202139999999999,0,sub_3
0.0315171999999996,0.0073740000000012,0.0078767999999999,0.0206454000000004,0.0527912000000008,0.0204299999999999,0,sub_3
0.0323097999999996,0.0075288000000012,0.0076609999999999,0.0206560000000004,0.0547104000000008,0.0200003999999999,0,sub_3
0.0324757999999996,0.0068778000000012,0.0075181999999999,0.0215218000000004,0.0562038000000008,0.0187225999999999,0,sub_3
0.0323041999999996,0.0058032000000012,0.0071577999999999,0.0210930000000004,0.0549302000000008,0.0178667999999999,0,sub_3
0.0324265999999996,0.0046812000000012,0.0083175999999999,0.0204414000000004,0.0508904000000008,0.0163719999999999,0,sub_3
0.0328495999999996,0.0034668000000012,0.0085355999999999,0.0197860000000004,0.0470594000000009,0.0159449999999999,0,sub_3
0.0329629999999996,0.0029154000000012,0.0081305999999999,0.0182704000000004,0.0425888000000009,0.0163673999999999,0,sub_3
0.0336333999999996,0.0035830000000012,0.0078699999999999,0.0167596000000004,0.0396080000000009,0.0172151999999999,0,sub_3
0.0346533999999996,0.0057624000000012,0.0074667999999999,0.0171826000000004,0.0387544000000009,0.0172191999999999,0,sub_3
0.0362445999999996,0.0067148000000012,0.0064521999999999,0.0193192000000004,0.0395982000000009,0.0174465999999999,0,sub_3
0.0367435999999996,0.0054990000000012,0.0063863999999999,0.0231646000000004,0.0402256000000009,0.0170453999999999,0,sub_3
0.0372771999999996,0.0049254000000012,0.0076827999999999,0.0267966000000004,0.0414904000000009,0.0172827999999999,0,sub_3
0.0368233999999996,0.0040552000000012,0.0081903999999999,0.0274348000000004,0.0406376000000009,0.0168611999999999,0,sub_3
0.0357885999999997,0.0032726000000012,0.0086289999999999,0.0248666000000004,0.0380934000000009,0.0159919999999999,0,sub_3
0.0350309999999997,0.0029978000000012,0.0088411999999999,0.0216554000000004,0.0349122000000009,0.0151191999999999,0,sub_3
0.0354307999999996,0.0060430000000011,0.0080875999999999,0.0184482000000004,0.0330076000000009,0.0146719999999999,0,sub_3
0.0351765999999997,0.0051750000000011,0.0073013999999999,0.0160992000000004,0.0306800000000009,0.0127357999999999,0,sub_3
0.0361247999999996,0.0052902000000012,0.0070461999999999,0.0152458000000004,0.0296220000000009,0.0116627999999999,0,sub_3
0.0369349999999997,0.0049220000000011,0.0075431999999999,0.0146028000000004,0.0281362000000009,0.0108055999999999,0,sub_3
0.0376861999999997,0.0051002000000012,0.0078583999999999,0.0124960000000004,0.0255768000000009,0.0097435999999999,0,sub_3
0.0376345999999996,0.0034444000000012,0.0086807999999999,0.0108054000000004,0.0204602000000009,0.0084741999999999,0,sub_3
0.0378817999999996,0.0037078000000012,0.0088673999999999,0.0084710000000004,0.0159790000000009,0.0086949999999999,0,sub_3
0.0377523999999996,0.0043476000000012,0.0090873999999999,0.0069946000000004,0.0117112000000009,0.0080669999999999,0,sub_3
0.0377373999999996,0.0049198000000012,0.0089911999999999,0.0089372000000004,0.0082846000000009,0.0072479999999999,0,sub_3
0.0368089999999996,0.0034424000000012,0.0085839999999999,0.0104250000000004,0.0070012000000009,0.0072599999999999,0,sub_3
0.0360813999999996,0.0033222000000012,0.0078237999999999,0.0089276000000004,0.0065786000000009,0.0076773999999999,0,sub_3
0.0362021999999997,0.0041816000000012,0.0072313999999999,0.0087142000000004,0.0057306000000009,0.0068223999999999,0,sub_3
0.0354157999999996,0.0037506000000012,0.0068145999999999,0.0089258000000004,0.0046672000000009,0.0061841999999999,0,sub_3
0.0346019999999996,0.0035040000000012,0.0059317999999999,0.0084942000000004,0.0036034000000009,0.0061825999999999,0,sub_3
0.0339259999999996,0.0036524000000012,0.0068451999999999,0.0101898000000004,0.0001920000000009,0.0053441999999999,0,sub_3
