userAcceleration.x,userAcceleration.y,userAcceleration.z,rotationRate.x,rotationRate.y,rotationRate.z,label,subject
-0.0116576000000003,0.0035894000000012,0.0404133999999999,-0.0023251999999994,-0.0978897999999992,-0.0043236,0,sub_5
-0.0085712000000003,0.0027382000000012,0.0406011999999999,-0.0023103999999994,-0.1006643999999992,-0.003891,0,sub_5
-0.0033730000000003,0.0020702000000012,0.0392123999999999,-0.0008071999999994,-0.0983269999999992,-0.0036698,0,sub_5
0.0019053999999996,0.0032756000000012,0.0362885999999999,0.0003038000000005,-0.0889547999999992,-0.0041014,0,sub_5
0.0061117999999996,0.0038274000000012,0.0336877999999999,0.0012330000000005,-0.0727631999999992,-0.0047566,0,sub_5
0.0077249999999996,0.0049558000000012,0.0329267999999999,0.0015422000000005,-0.0514585999999992,-0.0047818,0,sub_5
0.0097537999999996,0.0059686000000012,0.0313595999999999,0.0014208000000005,-0.0307923999999992,-0.0045954,0,sub_5
0.0110631999999996,0.0063022000000012,0.0314559999999999,-0.0012781999999994,-0.0120425999999992,-0.0025018,0,sub_5
0.0087003999999997,0.0045418000000012,0.0327383999999999,-0.0020943999999994,-0.0001231999999992,0.0011091999999999,0,sub_5
0.0040087999999997,0.0030554000000012,0.0342601999999999,-0.0005749999999994,0.0085948000000007,0.0040995999999999,0,sub_5
-0.0005350000000002,0.0024214000000012,0.0377389999999999,0.0009216000000005,0.0100774000000007,0.0049627999999999,0,sub_5
-0.0045062000000002,0.0017234000000012,0.0397961999999999,0.0009044000000005,0.0064546000000007,0.0051809999999999,0,sub_5
-0.0064316000000002,0.0011500000000012,0.0393885999999999,0.0036334000000005,-0.0080665999999992,0.0047919999999999,0,sub_5
-0.0055700000000003,0.0024800000000012,0.0414757999999999,0.0052774000000005,-0.0270563999999992,0.0039739999999999,0,sub_5
-0.0020430000000003,0.0043646000000012,0.0430817999999999,0.0035246000000005,-0.0426237999999992,0.0027005999999999,0,sub_5
0.0038231999999996,0.0042682000000012,0.0410551999999999,0.0007250000000005,-0.0526521999999992,0.0024807999999999,0,sub_5
0.0082865999999996,0.0044808000000012,0.0405005999999999,0.0019996000000005,-0.0567353999999992,0.0037773999999999,0,sub_5
0.0110937999999996,0.0046326000000012,0.0426339999999999,0.0033220000000005,-0.0475775999999992,0.0035611999999999,0,sub_5
0.0134579999999996,0.0039722000000012,0.0419071999999999,0.0012630000000005,-0.0315885999999992,0.0028853999999999,0,sub_5
0.0152511999999996,0.0028886000000012,0.0401983999999999,0.0023788000000005,-0.0186045999999992,0.0050129999999999,0,sub_5
0.0139741999999996,0.0030976000000012,0.0408997999999999,0.0063116000000005,-0.0046301999999992,0.0073879999999999,0,sub_5
0.0117651999999996,0.0038504000000012,0.0432403999999998,0.0055646000000005,0.0095856000000007,0.0067387999999999,0,sub_5
0.0085403999999996,0.0034950000000012,0.0441479999999998,0.0007396000000005,0.0178526000000007,0.0054277999999999,0,sub_5
0.0050567999999997,0.0028098000000012,0.0448813999999998,-0.0006895999999994,0.0226964000000007,0.0047857999999999,0,sub_5
0.0003403999999997,0.0035676000000012,0.0477813999999999,-0.0012825999999994,0.0230656000000007,0.0035145999999999,0,sub_5
-0.0022800000000002,0.0034942000000012,0.0477799999999999,-0.0042841999999994,0.0179704000000007,0.0015773999999999,0,sub_5
-0.0035300000000002,0.0024004000000012,0.0468237999999999,-0.0051893999999994,0.0058318000000007,0.0009457999999999,0,sub_5
-0.0026026000000002,0.0031526000000012,0.0451273999999999,-0.0026633999999994,-0.0046725999999992,0.0007829999999999,0,sub_5
-0.0016488000000003,0.0042644000000012,0.0438417999999999,8.080000000055516e-05,-0.0143247999999992,0.0004069999999999,0,sub_5
0.0014389999999996,0.0030012000000012,0.0410313999999999,0.0002790000000005,-0.0209843999999991,-0.0002044,0,sub_5
0.0027287999999996,0.0024188000000012,0.0400363999999998,0.0013288000000005,-0.0261631999999991,0.0011109999999999,0,sub_5
0.0033921999999996,0.0033936000000012,0.0392661999999999,0.0036990000000005,-0.0223981999999991,0.0024241999999999,0,sub_5
0.0031551999999996,0.0028086000000012,0.0398627999999998,0.0050168000000005,-0.0147301999999991,0.0017825999999999,0,sub_5
0.0035263999999996,0.0021560000000012,0.0403999999999998,0.0054780000000005,-0.0076983999999992,0.0011357999999999,0,sub_5
0.0035999999999996,0.0041398000000012,0.0409355999999998,0.0065660000000005,-0.0030149999999992,0.0011373999999999,0,sub_5
0.0029991999999996,0.0059038000000012,0.0413637999999999,0.0070100000000005,-3.039999999920641e-05,0.0002821999999999,0,sub_5
0.0048351999999996,0.0050728000000012,0.0396519999999999,0.0036256000000005,0.0030492000000007,-0.0020736,0,sub_5
0.0058367999999996,0.0049674000000012,0.0387485999999999,0.0004304000000005,0.0018626000000007,-0.0033544,0,sub_5
0.0055131999999996,0.0046266000000012,0.0387637999999999,-0.0021273999999994,0.0002470000000007,-0.0044166,0,sub_5
0.0044799999999996,0.0036742000000012,0.0403719999999999,-0.0025295999999994,0.0020388000000007,-0.0069636,0,sub_5
0.0039881999999996,0.0023168000000012,0.0413839999999999,-0.0033555999999994,0.0038346000000007,-0.0101546,0,sub_5
0.0018015999999996,0.0019654000000012,0.0418427999999999,-0.0031623999999994,-0.0010645999999992,-0.0105742,0,sub_5
0.0007219999999996,0.0025974000000012,0.0422647999999998,-0.0010593999999994,-0.0061921999999992,-0.0088438,0,sub_5
0.0018401999999996,0.0038348000000012,0.0419339999999998,0.0023398000000004,-0.0078985999999992,-0.0070978,0,sub_5
0.0028369999999996,0.0041302000000012,0.0405209999999998,0.0018992000000005,-0.0095905999999992,-0.0055924,0,sub_5
0.0033625999999996,0.0044292000000012,0.0403381999999999,0.0008406000000005,-0.0074411999999992,-0.0051644,0,sub_5
0.0036199999999996,0.0055060000000012,0.0415217999999999,0.0002326000000005,-0.0020889999999992,-0.0068738,0,sub_5
0.0034765999999996,0.0056388000000012,0.0412177999999999,-0.0025137999999994,0.0022056000000007,-0.0085968,0,sub_5
0.0021987999999996,0.0048214000000012,0.0420233999999999,-0.0076213999999994,0.0037210000000007,-0.01013,0,sub_5
0.0008631999999996,0.0033508000000012,0.0406525999999999,-0.0099683999999994,0.0037292000000007,-0.0101464,0,sub_5
0.0004717999999996,0.0033670000000012,0.0397035999999999,-0.0095521999999994,0.0022330000000007,-0.009287,0,sub_5
0.0004821999999996,0.0029658000000012,0.0387893999999999,-0.0087167999999994,-0.0005447999999992,-0.0079958,0,sub_5
1.0599999999702903e-05,0.0027392000000012,0.0395319999999999,-0.0066097999999994,-0.0035433999999992,-0.0064844,0,sub_5
0.0001107999999997,0.0032336000000012,0.0383031999999999,-0.0038511999999994,-0.0041997999999992,-0.005185,0,sub_5
0.0008393999999996,0.0039484000000012,0.0374553999999999,-0.0025841999999994,-0.0048493999999992,-0.0043234,0,sub_5
0.0012155999999996,0.0035980000000012,0.0374613999999999,-0.0017419999999994,-0.0059201999999992,-0.0043188,0,sub_5
0.0015235999999996,0.0035708000000012,0.0373749999999999,-0.0013151999999994,-0.0046449999999992,-0.0045338,0,sub_5
0.0022851999999996,0.0043064000000012,0.0365197999999999,-0.0034277999999994,-0.0010113999999992,-0.0056214,0,sub_5
0.0018809999999996,0.0028572000000012,0.0363213999999999,-0.0049289999999994,-0.0018617999999992,-0.0047762,0,sub_5
0.0011557999999996,0.0021562000000012,0.0375889999999999,-0.0030181999999994,-0.0033623999999992,-0.00412,0,sub_5
0.0002723999999996,0.0018614000000012,0.0374901999999999,-0.0023869999999994,-0.0040903999999992,-0.003481,0,sub_5
-0.0001168000000003,0.0012802000000012,0.0373991999999999,-0.0006945999999994,-0.0058881999999992,-0.0026196,0,sub_5
-0.0008620000000003,0.0004126000000012,0.0389501999999999,0.0018456000000005,-0.0085429999999992,-0.001324,0,sub_5
-3.8800000000317056e-05,0.0027252000000012,0.0389539999999999,0.0043926000000005,-0.0103429999999992,-0.0006704,0,sub_5
0.0005353999999996,0.0043878000000012,0.0380399999999999,0.0035370000000005,-0.0099987999999992,-0.0004706,0,sub_5
0.0011297999999996,0.0048786000000012,0.0382631999999999,0.0031190000000005,-0.0082919999999992,-0.0006894,0,sub_5
0.0016119999999997,0.0048658000000012,0.0395669999999999,0.0007920000000005,-0.0040217999999992,-0.0009248,0,sub_5
0.0020819999999996,0.0045814000000012,0.0370335999999999,-0.0017551999999994,-0.0008177999999992,-0.000733,0,sub_5
0.0002581999999996,0.0036170000000012,0.0369237999999999,-0.0021791999999994,0.0018396000000007,-0.000745,0,sub_5
-0.0002098000000003,0.0032104000000012,0.0386737999999999,-0.0008933999999994,0.0040692000000007,-0.0018126,0,sub_5
-0.0001492000000003,0.0038104000000012,0.0386333999999999,-0.0019641999999994,0.0046010000000007,-0.0024674,0,sub_5
-0.0002286000000003,0.0048652000000012,0.0377967999999999,-0.0034769999999994,0.0023620000000007,-0.0024806,0,sub_5
0.0002551999999996,0.0047362000000012,0.0386959999999999,-0.0041305999999994,0.0011860000000007,-0.0027028,0,sub_5
0.0012621999999996,0.0037066000000012,0.0397895999999999,-0.0056203999999994,0.0011946000000007,-0.0035678,0,sub_5
0.0013453999999997,0.0034796000000012,0.0394767999999998,-0.0075407999999994,0.0005648000000007,-0.0042214,0,sub_5
0.0017929999999997,0.0033286000000012,0.0395273999999998,-0.0064845999999994,-0.0010751999999992,-0.0046276,0,sub_5
0.0014957999999997,0.0027590000000012,0.0401815999999998,-0.0035041999999994,-0.0016575999999992,-0.0048082,0,sub_5
0.0014075999999997,0.0030768000000012,0.0415289999999998,-0.0013685999999994,-0.0007437999999992,-0.0054238,0,sub_5
0.0002191999999997,0.0036964000000012,0.0420779999999998,-0.0007333999999994,-0.0004673999999992,-0.0051944,0,sub_5
-0.0012572000000003,0.0032358000000012,0.0435015999999999,0.0001134000000005,-0.0004055999999992,-0.0047496,0,sub_5
-0.0024058000000003,0.0025768000000012,0.0450631999999999,-9.039999999946506e-05,0.0017256000000007,-0.0047538,0,sub_5
-0.0024958000000003,0.0024096000000012,0.0442891999999999,-0.0009667999999994,-0.0023237999999992,-0.0036866,0,sub_5
-0.0036678000000003,0.0030306000000012,0.0435531999999999,0.0002770000000005,-0.0093631999999992,-0.0026008,0,sub_5
-0.0029340000000003,0.0033704000000012,0.0435487999999999,0.0017648000000005,-0.0119199999999992,-0.003869,0,sub_5
-0.0005732000000003,0.0029282000000012,0.0419167999999999,0.0009158000000005,-0.0131507999999992,-0.004276,0,sub_5
0.0001291999999996,0.0037718000000012,0.0399043999999999,0.0011068000000005,-0.0178041999999992,-0.0021076,0,sub_5
0.0010703999999996,0.0045944000000012,0.0399195999999999,0.0032632000000005,-0.0149971999999992,-0.0024986,0,sub_5
0.0024369999999996,0.0038048000000012,0.0407681999999999,0.0028668000000005,-0.0106891999999992,-0.0031232,0,sub_5
0.0037405999999996,0.0031530000000012,0.0389755999999999,0.0013768000000005,-0.0104329999999992,-0.0018274,0,sub_5
0.0035559999999996,0.0047182000000012,0.0384451999999999,0.0030838000000005,-0.0085289999999992,0.0001047999999999,0,sub_5
0.0062977999999996,0.0042482000000012,0.0391759999999999,0.0046168000000005,0.0004132000000007,0.0003177999999999,0,sub_5
0.0070529999999996,0.0039220000000012,0.0394187999999999,0.0038128000000005,0.0104588000000007,0.0018209999999999,0,sub_5
0.0073889999999996,0.0054072000000012,0.0383097999999999,0.0038672000000005,0.0226276000000007,0.0043957999999999,0,sub_5
0.0075393999999996,0.0071990000000012,0.0377099999999999,0.0043684000000005,0.0392692000000007,0.0069679999999999,0,sub_5
0.0057039999999996,0.0051014000000012,0.0388789999999999,0.0029378000000005,0.0533606000000007,0.0095299999999999,0,sub_5
0.0017179999999996,0.0038236000000012,0.0392467999999999,0.0025424000000005,0.0612664000000007,0.0129615999999999,0,sub_5
-0.0069912000000003,0.0018030000000012,0.0431171999999999,0.0044848000000005,0.0680698000000007,0.0148891999999999,0,sub_5
-0.0162310000000003,-0.0002667999999987,0.0455169999999999,0.0055516000000005,0.0667930000000007,0.0136163999999999,0,sub_5
-0.0251210000000003,-0.0023999999999987,0.0489013999999999,0.0071934000000005,0.0469944000000007,0.0083119999999999,0,sub_5
-0.0292594000000003,-0.0017831999999987,0.0477013999999999,0.0075172000000005,0.0125506000000008,-0.0018764,0,sub_5
-0.0315862000000003,-0.0004683999999987,0.0446075999999999,0.0026664000000005,-0.0350795999999991,-0.0133658,0,sub_5
-0.0238382000000003,0.0038504000000012,0.0359437999999999,-0.0048157999999994,-0.0937983999999991,-0.0201592,0,sub_5
-0.0106420000000003,0.0065222000000012,0.0275639999999999,-0.0097087999999994,-0.1423149999999991,-0.023102,0,sub_5
0.0060271999999996,0.0074638000000012,0.0193107999999999,-0.0123587999999994,-0.1625191999999991,-0.0220062,0,sub_5
0.0212659999999996,0.0075598000000012,0.0152287999999999,-0.0116861999999994,-0.1493361999999992,-0.0160364,0,sub_5
0.0327425999999996,0.0075382000000012,0.0137737999999999,-0.0038475999999994,-0.1063587999999992,-0.0079182,0,sub_5
0.0337655999999996,0.0067508000000011,0.0167221999999999,0.0075142000000005,-0.0418639999999992,-0.0025804,0,sub_5
0.0294033999999996,0.0068016000000012,0.0208035999999999,0.0165300000000005,0.0224278000000007,0.0023139999999999,0,sub_5
0.0183277999999996,0.0075970000000012,0.0266245999999999,0.0212260000000005,0.0724766000000007,0.0074311999999999,0,sub_5
0.0017157999999996,0.0067532000000012,0.0358025999999999,0.0213492000000005,0.0997538000000007,0.0101955999999999,0,sub_5
-0.0129238000000003,0.0053458000000012,0.0441451999999999,0.0164650000000005,0.1023442000000007,0.0103927999999999,0,sub_5
-0.0201542000000003,0.0025318000000012,0.0499763999999999,0.0086978000000005,0.0798076000000007,0.0097475999999999,0,sub_5
-0.0223196000000003,-0.0005111999999987,0.0551491999999999,0.0017304000000005,0.0438516000000007,0.0076295999999999,0,sub_5
-0.0207164000000003,-0.0019975999999987,0.0571087999999999,-0.0022473999999994,0.0080934000000007,0.0023065999999999,0,sub_5
-0.0118966000000003,0.0001568000000012,0.0534495999999999,-0.0045057999999994,-0.0234155999999992,-0.0015144,0,sub_5
-0.0026586000000003,0.0019924000000012,0.0486017999999998,-0.0062905999999994,-0.0438333999999992,-0.0027606,0,sub_5
0.0054431999999996,0.0031166000000012,0.0444159999999998,-0.0060735999999994,-0.0459361999999992,-0.0038026,0,sub_5
0.0096103999999996,0.0032578000000012,0.0399469999999998,-0.0062345999999994,-0.0363229999999992,-0.0040076,0,sub_5
0.0126879999999996,0.0029972000000012,0.0369577999999998,-0.0044625999999994,-0.0216125999999992,-0.0018556,0,sub_5
0.0123769999999996,0.0035310000000012,0.0358753999999998,-0.0013825999999994,-0.0017891999999992,-0.0007692,0,sub_5
0.0117119999999996,0.0037904000000012,0.0347619999999999,-1.9999999999444246e-05,0.0163166000000007,-0.0009964,0,sub_5
0.0099075999999996,0.0039922000000012,0.0338629999999999,-0.0001883999999994,0.0273918000000007,5.639999999995276e-05,0,sub_5
0.0064077999999996,0.0044386000000012,0.0340153999999999,0.0007102000000005,0.0376144000000007,0.0002631999999999,0,sub_5
0.0032787999999996,0.0050558000000012,0.0356745999999999,-0.0018235999999994,0.0435958000000007,3.679999999997274e-05,0,sub_5
0.0004427999999996,0.0039252000000012,0.0351749999999999,-0.0056959999999994,0.0387076000000007,0.0019513999999999,0,sub_5
-0.0026500000000003,0.0038792000000012,0.0356079999999999,-0.0059399999999994,0.0331710000000007,0.0030375999999999,0,sub_5
-0.0032232000000003,0.0035120000000012,0.0365323999999999,-0.0059505999999994,0.0291368000000007,0.0011325999999999,0,sub_5
-0.0019024000000003,0.0034066000000012,0.0359833999999999,-0.0074863999999994,0.0191382000000007,0.0002927999999999,0,sub_5
-0.0018762000000003,0.0035700000000012,0.0355181999999999,-0.0060453999999994,0.0084762000000007,0.0013847999999999,0,sub_5
-0.0005012000000003,0.0033518000000012,0.0361189999999999,-0.0026351999999994,0.0071876000000007,0.0009829999999999,0,sub_5
0.0017745999999996,0.0023732000000012,0.0361867999999999,-0.0013655999999994,0.0054762000000007,0.0016349999999999,0,sub_5
0.0019597999999996,0.0021644000000012,0.0348759999999999,-0.0007359999999994,0.0044036000000007,0.0029225999999999,0,sub_5
0.0019933999999996,0.0033014000000012,0.0370527999999999,0.0016274000000005,0.0096954000000007,0.0031487999999999,0,sub_5
0.0037167999999996,0.0041390000000012,0.0365755999999999,-0.0004823999999994,0.0156462000000007,0.0022745999999999,0,sub_5
0.0034689999999996,0.0045890000000011,0.0348765999999999,-0.0038877999999994,0.0181928000000007,0.0013957999999999,0,sub_5
0.0009657999999996,0.0049898000000012,0.0377211999999999,-0.0051535999999994,0.0211614000000007,-0.0003232,0,sub_5
-0.0005840000000003,0.0051456000000012,0.0389345999999999,-0.0066395999999994,0.0237004000000007,-0.000975,0,sub_5
-0.0024052000000003,0.0041118000000012,0.0387369999999999,-0.0096287999999994,0.0232846000000007,-0.0009954,0,sub_5
-0.0033252000000003,0.0028734000000012,0.0392565999999999,-0.0087695999999994,0.0232868000000007,-0.0022712,0,sub_5
-0.0033816000000003,0.0024184000000012,0.0406035999999999,-0.0072977999999994,0.0212286000000007,-0.0022436,0,sub_5
-0.0024988000000003,0.0026014000000012,0.0391373999999999,-0.0064641999999994,0.0206598000000007,-0.001154,0,sub_5
-0.0023408000000003,0.0025252000000012,0.0397319999999998,-0.0043385999999994,0.0213700000000007,-0.0013388,0,sub_5
-0.0018278000000003,0.0033120000000012,0.0401933999999998,-0.0022245999999994,0.0195236000000007,-0.0015206,0,sub_5
-0.0028684000000003,0.0038394000000012,0.0398271999999998,-0.0026825999999994,0.0155538000000007,-0.0012904,0,sub_5
-0.0033284000000003,0.0039426000000012,0.0407345999999999,-0.0035273999999994,0.0159888000000007,-0.0027922,0,sub_5
-0.0027432000000003,0.0026992000000012,0.0410809999999999,-0.0031101999999994,0.0127958000000007,-0.0038534,0,sub_5
-0.0025836000000003,0.0022278000000012,0.0407313999999999,-0.0033523999999994,0.0068292000000007,-0.0034202,0,sub_5
-0.0026078000000003,0.0021562000000012,0.0395027999999999,-0.0023047999999994,0.0055666000000007,-0.0031936,0,sub_5
-0.0013010000000003,0.0023684000000012,0.0391557999999999,-0.0008275999999994,0.0053662000000007,-0.002538,0,sub_5
-0.0011156000000003,0.0027610000000012,0.0394667999999999,0.0008486000000005,0.0026058000000007,-0.001237,0,sub_5
-0.0012830000000003,0.0038464000000012,0.0382563999999999,0.0006276000000005,0.0028432000000007,-0.0020896,0,sub_5
-0.0018148000000003,0.0042964000000012,0.0377361999999999,0.0001940000000005,0.0028702000000007,-0.0033706,0,sub_5
-0.0017066000000003,0.0046818000000012,0.0369883999999999,-0.0012985999999994,0.0018154000000007,-0.0046616,0,sub_5
-0.0033976000000002,0.0048472000000012,0.0364711999999999,-0.0013033999999994,-0.0003109999999992,-0.0057272,0,sub_5
-0.0036098000000002,0.0032966000000012,0.0347725999999999,-0.0032207999999994,-0.0019991999999992,-0.0080886,0,sub_5
-0.0032990000000003,0.0016872000000012,0.0349335999999999,-0.0038677999999994,-0.0053979999999992,-0.0100114,0,sub_5
-0.0037470000000003,0.0016978000000012,0.0347103999999999,-0.0036753999999994,-0.0105273999999992,-0.011069,0,sub_5
-0.0037890000000002,0.0010334000000012,0.0349447999999999,-0.0037089999999994,-0.0180015999999992,-0.0116978,0,sub_5
-0.0027830000000003,0.0004118000000012,0.0356575999999999,-0.0039769999999994,-0.0284643999999991,-0.0106154,0,sub_5
-0.0022216000000003,0.0006148000000012,0.0360529999999999,0.0010950000000005,-0.0363943999999992,-0.008217,0,sub_5
-0.0011218000000002,0.0015474000000012,0.0372927999999999,0.0053406000000005,-0.0379315999999992,-0.0054054,0,sub_5
0.0020683999999997,0.0013242000000012,0.0367439999999999,0.0064008000000005,-0.0368803999999992,-0.0028356,0,sub_5
0.0041291999999996,0.0025768000000012,0.0359923999999999,0.0076714000000005,-0.0362567999999992,-5.0200000000027824e-05,0,sub_5
0.0058569999999996,0.0042474000000012,0.0356457999999999,0.0068668000000005,-0.0264491999999992,-0.0011366,0,sub_5
0.0080029999999996,0.0054172000000012,0.0337887999999999,-0.0003119999999994,-0.0132521999999992,-0.0035554,0,sub_5
0.0088043999999996,0.0056876000000012,0.0320389999999999,-0.0081377999999994,-0.0002709999999992,-0.0046966,0,sub_5
0.0089553999999996,0.0058458000000012,0.0329459999999999,-0.0108185999999994,0.0192918000000007,-0.0045284,0,sub_5
0.0068477999999996,0.0043472000000012,0.0353809999999999,-0.0117673999999994,0.0448126000000007,-0.0039284,0,sub_5
0.0027993999999996,0.0020260000000012,0.0379373999999999,-0.0106131999999994,0.0662668000000007,-0.0005312,0,sub_5
-0.0009774000000003,0.0020386000000012,0.0384779999999999,-0.0056805999999994,0.0775184000000007,0.0052573999999999,0,sub_5
-0.0081340000000003,0.0022614000000012,0.0402999999999999,0.0019682000000005,0.0772504000000007,0.0123613999999999,0,sub_5
-0.0160388000000002,0.0018056000000012,0.0424571999999999,0.0059800000000005,0.0684072000000007,0.0166735999999999,0,sub_5
-0.0204206000000002,0.0008568000000012,0.0427915999999999,0.0048410000000005,0.0504308000000007,0.0183977999999999,0,sub_5
-0.0218044000000002,0.0006534000000012,0.0414455999999999,0.0030140000000005,0.0198942000000007,0.0182103999999999,0,sub_5
-0.0235036000000002,-0.0006437999999987,0.0463681999999999,0.0031304000000005,-0.0089309999999992,0.0146159999999999,0,sub_5
-0.0206798000000002,-0.0014905999999987,0.0483977999999999,0.0018060000000005,-0.0302771999999992,0.0067291999999999,0,sub_5
-0.0162476000000002,-0.0020235999999987,0.0482447999999999,-0.0004045999999994,-0.0530433999999992,0.0009743999999999,0,sub_5
-0.0109740000000002,-0.0012497999999987,0.0475491999999999,0.0033432000000005,-0.0762693999999992,-0.0015334,0,sub_5
-0.0041720000000002,0.0008978000000012,0.0462421999999999,0.0084344000000005,-0.0856505999999991,-0.0042632,0,sub_5
0.0028237999999997,0.0034190000000012,0.0412003999999999,0.0054442000000005,-0.0888255999999991,-0.0068438,0,sub_5
0.0131979999999997,0.0045710000000012,0.0325097999999999,-0.0047741999999994,-0.0886477999999991,-0.0081922,0,sub_5
0.0244079999999996,0.0064358000000012,0.0262177999999999,-0.0121735999999994,-0.0776173999999991,-0.0086802,0,sub_5
0.0332299999999996,0.0082554000000012,0.0221297999999999,-0.0183949999999994,-0.0429375999999992,-0.0102586,0,sub_5
0.0356365999999996,0.0065332000000012,0.0219069999999999,-0.0243549999999994,0.0038796000000007,-0.010355,0,sub_5
0.0316891999999996,0.0029852000000012,0.0227341999999999,-0.0228441999999994,0.0549170000000007,-0.0067728,0,sub_5
0.0234387999999996,0.0006900000000012,0.0272981999999999,-0.0115819999999994,0.0987398000000007,8.639999999995284e-05,0,sub_5
0.0103897999999996,0.0017630000000012,0.0324411999999999,3.4200000000536576e-05,0.1261570000000007,0.0067553999999999,0,sub_5
-0.0005494000000003,0.0014098000000012,0.0361167999999999,0.0064566000000005,0.1326768000000007,0.0121509999999999,0,sub_5
-0.0070084000000003,0.0022238000000012,0.0391047999999999,0.0089798000000005,0.1251526000000007,0.0164691999999999,0,sub_5
-0.0083194000000002,0.0040252000000012,0.0415763999999999,0.0078566000000005,0.1121070000000007,0.0194871999999999,0,sub_5
-0.0106676000000002,0.0069154000000012,0.0427435999999999,0.0054570000000005,0.0990694000000007,0.0216415999999999,0,sub_5
-0.0111684000000002,0.0059084000000012,0.0437999999999999,0.0035368000000005,0.0949894000000007,0.0210105999999999,0,sub_5
-0.0132354000000002,0.0043270000000012,0.0442589999999999,0.0001258000000005,0.0939428000000007,0.0192789999999999,0,sub_5
-0.0171200000000002,0.0039454000000012,0.0418617999999999,-0.0018221999999994,0.0875588000000007,0.0190597999999999,0,sub_5
-0.0210998000000003,0.0044794000000012,0.0410225999999999,-0.0029427999999994,0.0752072000000007,0.0186403999999999,0,sub_5
-0.0222036000000003,0.0035480000000012,0.0398669999999999,-0.0062027999999994,0.0598870000000007,0.0165007999999999,0,sub_5
-0.0215080000000002,0.0019420000000012,0.0388793999999999,-0.0098947999999994,0.0418200000000007,0.0145985999999999,0,sub_5
-0.0217822000000003,0.0020346000000012,0.0416613999999999,-0.0084495999999994,0.0262960000000007,0.0116607999999999,0,sub_5
-0.0198430000000003,0.0022302000000012,0.0439357999999999,-0.0080309999999994,0.0169652000000007,0.0059305999999999,0,sub_5
-0.0162016000000003,0.0009306000000012,0.0407201999999998,-0.0082963999999994,-0.0004661999999992,0.0019151999999999,0,sub_5
