userAcceleration.x,userAcceleration.y,userAcceleration.z,rotationRate.x,rotationRate.y,rotationRate.z,label,subject
-0.0084690000000002,0.0060012000000012,0.0254606,-0.0051487999999995,0.0749464000000007,-0.0252273999999999,0,sub_11
-0.0045718000000002,0.0061356000000011,0.0255168,-0.0017281999999995,0.0781234000000007,-0.0234984,0,sub_11
-0.0026464000000002,0.0057558000000011,0.0242496,0.0006218000000005,0.0829984000000007,-0.0192154,0,sub_11
-0.0025938000000002,0.0058236000000011,0.0227454,0.0021126000000005,0.0880834000000007,-0.0134432,0,sub_11
-0.0063754000000002,0.0067136000000011,0.0209344,0.0038160000000004,0.0905818000000007,-0.0078936,0,sub_11
-0.0121770000000002,0.0066290000000011,0.0193182,0.0035942000000004,0.0901118000000007,-0.0042764,0,sub_11
-0.0185368000000002,0.0064436000000012,0.0183726,0.0031370000000004,0.0828326000000007,-0.002575,0,sub_11
-0.0228544000000002,0.0063792000000012,0.0200154,0.0030950000000004,0.0710854000000007,-0.0027878,0,sub_11
-0.0257794000000002,0.0058996000000012,0.0220512,0.0011182000000004,0.0567856000000007,-0.00237,0,sub_11
-0.0263290000000002,0.0058720000000012,0.024068,-0.0008749999999995,0.0416612000000007,-0.0012964,0,sub_11
-0.0263604000000002,0.0059408000000011,0.0247232,-0.0009603999999995,0.0243972000000007,0.0004341999999999,0,sub_11
-0.0278396000000002,0.0060022000000011,0.0238294,0.0006592000000004,0.0067010000000007,0.0021773999999999,0,sub_11
-0.0281424000000002,0.0066408000000011,0.0221124,0.0018530000000004,-0.0107805999999992,0.0039171999999999,0,sub_11
-0.0250908000000002,0.0068996000000011,0.0188608,0.0034436000000004,-0.0252511999999992,0.0045027999999999,0,sub_11
-0.0213940000000002,0.0062530000000011,0.0154676,0.0033530000000004,-0.0348121999999992,0.0042157999999999,0,sub_11
-0.0179014000000002,0.0067616000000011,0.0124988,0.0013556000000004,-0.0415959999999992,0.0036981999999999,0,sub_11
-0.0150990000000002,0.0069646000000012,0.010569,-0.0008397999999995,-0.0445457999999992,0.0036015999999999,0,sub_11
-0.0135542000000002,0.0057676000000011,0.0099836,-0.0021817999999995,-0.0460131999999992,0.0050045999999999,0,sub_11
-0.0135206000000002,0.0049608000000011,0.012067,-0.0039165999999995,-0.0498515999999992,0.0073475999999999,0,sub_11
-0.0136548000000002,0.0063260000000011,0.014296,-0.0060809999999995,-0.0545397999999992,0.0094749999999999,0,sub_11
-0.0139368000000002,0.0064264000000011,0.0149394,-0.0089083999999995,-0.0584499999999992,0.0100335999999999,0,sub_11
-0.0131356000000002,0.0078250000000011,0.017101,-0.0140791999999995,-0.0623485999999992,0.0097211999999999,0,sub_11
-0.0118994000000002,0.0093324000000011,0.0196332,-0.0203061999999995,-0.0645363999999992,0.0087583999999999,0,sub_11
-0.0112736000000001,0.0092162000000011,0.020796,-0.0237325999999995,-0.0616171999999992,0.0069539999999999,0,sub_11
-0.0121072000000001,0.0079676000000011,0.0204636,-0.0241801999999995,-0.0608381999999992,0.0049593999999999,0,sub_11
-0.0141894000000001,0.0078140000000011,0.022331,-0.0207537999999995,-0.0597779999999992,0.0032727999999999,0,sub_11
-0.0147226000000001,0.0057826000000011,0.024423,-0.0145523999999995,-0.0589389999999992,0.0011785999999999,0,sub_11
-0.0130116000000001,0.0040764000000011,0.0257544,-0.0077033999999995,-0.0574587999999992,-0.0019801999999999,0,sub_11
-0.0096642000000002,0.0046278000000011,0.0281728,-0.0025639999999995,-0.0557379999999992,-0.0049593999999999,0,sub_11
-0.0027168000000002,0.0051644000000011,0.0324065999999999,-0.0001677999999995,-0.0450675999999992,-0.0058325999999999,0,sub_11
0.0056487999999997,0.0047046000000012,0.036087,-0.0026619999999995,-0.0290597999999992,-0.0052512,0,sub_11
0.0126561999999997,0.0044450000000012,0.0376492,-0.0042825999999995,-0.0077319999999992,-0.003816,0,sub_11
0.0133379999999997,0.0053336000000012,0.0360028,-0.0033549999999995,0.0114538000000007,-0.0017194,0,sub_11
0.0101363999999997,0.0050524000000011,0.0331526,-0.0020277999999995,0.0261330000000007,0.0025439999999999,0,sub_11
0.0015831999999998,0.0045234000000011,0.0299432,0.0003182000000004,0.0303680000000007,0.0070413999999999,0,sub_11
-0.0106214000000001,0.0040924000000011,0.025439,0.0051664000000004,0.0220222000000007,0.0119997999999999,0,sub_11
-0.0241088000000001,0.0036890000000011,0.0210558,0.0071756000000004,-0.0003769999999992,0.0173835999999999,0,sub_11
-0.0355244000000001,0.0037194000000011,0.0176302,0.0059400000000004,-0.0335027999999992,0.0221369999999999,0,sub_11
-0.0457174000000001,0.0045178000000012,0.0136316,0.0036040000000004,-0.0766279999999992,0.0243317999999999,0,sub_11
-0.0522380000000001,0.0046308000000012,0.0094372,0.0027436000000004,-0.1248675999999992,0.0254751999999999,0,sub_11
-0.0519946000000001,0.0046942000000011,0.008333,0.0027366000000004,-0.1735345999999992,0.0261975999999999,0,sub_11
-0.0478314000000001,0.0052714000000011,0.0086148,0.0046786000000004,-0.2149677999999992,0.0277789999999999,0,sub_11
-0.0409044000000002,0.0053724000000011,0.0109592,0.0079556000000004,-0.2433241999999992,0.0299745999999999,0,sub_11
-0.0321436000000002,0.0056674000000011,0.0152982,0.0130144000000004,-0.2563417999999992,0.0308811999999999,0,sub_11
-0.0205242000000002,0.0066796000000011,0.0198064,0.0181486000000004,-0.2551155999999992,0.0290061999999999,0,sub_11
-0.0075734000000002,0.0083164000000011,0.0245866,0.0212324000000004,-0.2370437999999992,0.0253861999999999,0,sub_11
0.0045399999999997,0.0100198000000012,0.028723,0.0190472000000004,-0.2061635999999992,0.0200037999999999,0,sub_11
0.0142075999999997,0.0111922000000012,0.03146,0.0134844000000004,-0.1669631999999992,0.0148007999999999,0,sub_11
0.0212593999999997,0.0118372000000012,0.0329886,0.0055870000000004,-0.1230749999999992,0.0114981999999999,0,sub_11
0.0231029999999997,0.0107532000000012,0.0326338,-0.0031637999999995,-0.0776573999999992,0.0098833999999999,0,sub_11
0.0203949999999997,0.0104138000000011,0.0315742,-0.0102247999999995,-0.0354441999999992,0.0089253999999999,0,sub_11
0.0161163999999997,0.0107480000000011,0.0300216,-0.0132499999999995,0.0027068000000007,0.0080007999999999,0,sub_11
0.0137441999999997,0.0107202000000011,0.0288246,-0.0169131999999995,0.0378158000000007,0.0064301999999999,0,sub_11
0.0113513999999997,0.0107252000000011,0.0289342,-0.0265719999999995,0.0671974000000007,0.0037567999999999,0,sub_11
0.0084767999999998,0.0129106000000011,0.030342,-0.0415841999999995,0.0914878000000007,0.0001979999999999,0,sub_11
0.0045695999999998,0.0141340000000011,0.0284426,-0.0576621999999995,0.1123876000000007,-0.0069958,0,sub_11
0.0003691999999998,0.0115436000000011,0.0273036,-0.0694919999999995,0.1268896000000007,-0.0162882,0,sub_11
-0.0063334000000001,0.0082672000000012,0.026955,-0.0724341999999995,0.1290620000000007,-0.0242164,0,sub_11
-0.0113774000000001,0.0047818000000011,0.024571,-0.0632697999999995,0.1218058000000007,-0.0290568,0,sub_11
-0.0129396000000001,0.0011380000000012,0.0222372,-0.0449715999999995,0.1100246000000007,-0.0291276,0,sub_11
-0.0122124000000001,-0.0028689999999987,0.0227532,-0.0222461999999995,0.0954214000000006,-0.0199772,0,sub_11
-0.0108530000000001,-0.0041539999999987,0.0217684,-0.0007919999999995,0.0810868000000007,-0.0046464,0,sub_11
-0.0102004000000001,-0.0023611999999987,0.0204324,0.0181132000000004,0.0695302000000007,0.0108765999999999,0,sub_11
-0.0106314000000001,0.0001434000000012,0.0224804,0.0315196000000004,0.0656756000000007,0.0231465999999999,0,sub_11
-0.0117954000000001,0.0010266000000012,0.025827,0.0394196000000004,0.0688798000000007,0.0332327999999999,0,sub_11
-0.0147636000000001,0.0032606000000012,0.0277336,0.0409212000000004,0.0689258000000007,0.0394327999999999,0,sub_11
-0.0198506000000001,0.0067488000000012,0.028056,0.0391634000000004,0.0593376000000007,0.0411417999999999,0,sub_11
-0.0248700000000001,0.0087724000000012,0.0283938,0.0320732000000004,0.0453134000000007,0.0379055999999999,0,sub_11
-0.0301692000000001,0.0101956000000011,0.0265182,0.0233002000000004,0.0277762000000007,0.0305811999999999,0,sub_11
-0.0346710000000001,0.0126426000000011,0.0236208,0.0132584000000004,0.0070706000000007,0.0174835999999999,0,sub_11
-0.0338542000000002,0.0150112000000011,0.0220154,0.0021862000000004,-0.0089303999999992,0.0009543999999999,0,sub_11
-0.0294252000000002,0.0133452000000011,0.0220088,-0.0107393999999995,-0.0104351999999992,-0.0160333999999999,0,sub_11
-0.0241978000000002,0.0091570000000011,0.0225998,-0.0204623999999995,-0.0053711999999992,-0.0268115999999999,0,sub_11
-0.0194682000000002,0.0047622000000011,0.022606,-0.0234111999999995,-0.0006581999999992,-0.0306838,0,sub_11
-0.0157018000000002,0.0023658000000012,0.0217098,-0.0198251999999995,-0.0060123999999992,-0.0268063999999999,0,sub_11
-0.0161228000000002,-0.0014515999999987,0.0210698,-0.0128923999999995,-0.0190773999999992,-0.0156317999999999,0,sub_11
-0.0191484000000002,-0.0022713999999987,0.0203546,-0.0036735999999995,-0.0423909999999992,-0.0010098,0,sub_11
-0.0200952000000002,0.0001528000000012,0.0180246,0.0070564000000004,-0.0650807999999992,0.0105985999999999,0,sub_11
-0.0169100000000001,0.0025906000000012,0.0191628,0.0141858000000004,-0.0845509999999992,0.0194003999999999,0,sub_11
-0.0149140000000001,0.0031412000000012,0.0225118,0.0143316000000004,-0.0937597999999992,0.0255767999999999,0,sub_11
-0.0152262000000001,0.0044058000000011,0.0259736,0.0126068000000004,-0.0964909999999992,0.0270219999999999,0,sub_11
-0.0157228000000001,0.0052330000000011,0.029575,0.0109106000000004,-0.0945281999999992,0.0267521999999999,0,sub_11
-0.0171254000000001,0.0044378000000011,0.0334012,0.0085614000000004,-0.0948855999999992,0.0267267999999999,0,sub_11
-0.0169984000000002,0.0057606000000011,0.0347946,0.0077000000000004,-0.0961019999999992,0.0271401999999999,0,sub_11
-0.0164360000000002,0.0071378000000011,0.0337592,0.0085408000000004,-0.0983897999999992,0.0275665999999999,0,sub_11
-0.0136042000000002,0.0077574000000011,0.0313258,0.0095980000000004,-0.0998875999999992,0.0282167999999999,0,sub_11
-0.0096482000000002,0.0081298000000012,0.0283696,0.0113040000000004,-0.0988333999999992,0.0295091999999999,0,sub_11
-0.0054932000000001,0.0088524000000012,0.0262732,0.0134502000000004,-0.0954345999999992,0.0301607999999999,0,sub_11
-0.0039314000000001,0.0082024000000011,0.0251772,0.0152578000000004,-0.0879575999999992,0.0309725999999999,0,sub_11
-0.0039196000000001,0.0057576000000012,0.0279436,0.0179246000000004,-0.0787807999999992,0.0322155999999999,0,sub_11
-0.0039900000000001,0.0036610000000012,0.0311874,0.0261304000000004,-0.0702675999999992,0.0347801999999999,0,sub_11
-0.0041478000000001,0.0035522000000012,0.0350934,0.0360394000000004,-0.0628247999999992,0.0371443999999999,0,sub_11
-0.0029904000000001,0.0038926000000012,0.0374054,0.0429584000000004,-0.0553739999999992,0.0401283999999999,0,sub_11
-0.0039542000000001,0.0048178000000012,0.0384478,0.0463838000000004,-0.0502827999999992,0.0427095999999999,0,sub_11
-0.0028512000000001,0.0078946000000012,0.0370582,0.0491836000000004,-0.0439033999999992,0.0433619999999999,0,sub_11
-0.0044332000000001,0.0087020000000011,0.032846,0.0470902000000004,-0.0360085999999992,0.0422689999999999,0,sub_11
-0.0062036000000001,0.0075560000000011,0.0300436,0.0426410000000004,-0.0291743999999992,0.0420153999999999,0,sub_11
-0.0111758000000001,0.0068770000000011,0.0269944,0.0388184000000004,-0.0234153999999992,0.0436905999999999,0,sub_11
-0.0163768000000001,0.0063698000000012,0.0223774,0.0377458000000004,-0.0217191999999992,0.0466719999999999,0,sub_11
-0.0202332000000001,0.0063972000000011,0.0172136,0.0396488000000004,-0.0225899999999992,0.0496773999999999,0,sub_11
-0.0181324000000002,0.0076130000000011,0.0153818,0.0424360000000004,-0.0183437999999992,0.0509731999999999,0,sub_11
-0.0121898000000002,0.0097162000000011,0.0152142,0.0433576000000004,-0.0051297999999992,0.0490399999999999,0,sub_11
-0.0042182000000002,0.0119318000000011,0.0164824,0.0402902000000004,0.0185542000000007,0.0430061999999999,0,sub_11
0.0024095999999997,0.0132040000000011,0.0196636,0.0340876000000004,0.0539782000000007,0.0341579999999999,0,sub_11
0.0060139999999997,0.0131464000000012,0.022667,0.0244892000000004,0.0924012000000007,0.0242141999999999,0,sub_11
0.0040785999999997,0.0131416000000012,0.0251634,0.0144438000000004,0.1267760000000007,0.0146995999999999,0,sub_11
-0.0030592000000002,0.0121050000000012,0.0244632,0.0071234000000004,0.1513364000000007,0.0062847999999999,0,sub_11
-0.0097432000000002,0.0106004000000012,0.024535,0.0031470000000004,0.1637272000000007,0.0013271999999999,0,sub_11
-0.0155722000000001,0.0098872000000012,0.0236636,-0.0015203999999995,0.1661018000000007,-0.0023404,0,sub_11
-0.0182902000000001,0.0095766000000012,0.0217058,-0.0057791999999995,0.1633658000000007,-0.007067,0,sub_11
-0.0182642000000001,0.0101700000000012,0.0205472,-0.0089835999999995,0.1572198000000007,-0.0124226,0,sub_11
-0.0167332000000001,0.0105062000000012,0.021382,-0.0138921999999995,0.1527800000000007,-0.016724,0,sub_11
-0.0166638000000001,0.0100466000000012,0.020353,-0.0190139999999995,0.1485530000000007,-0.0208136,0,sub_11
-0.0149728000000001,0.0084122000000012,0.0187076,-0.0215975999999995,0.1411144000000007,-0.0231722,0,sub_11
-0.0139684000000001,0.0071746000000012,0.018391,-0.0212139999999994,0.1330108000000007,-0.0216636,0,sub_11
-0.0118222000000002,0.0062736000000011,0.0165322,-0.0212589999999994,0.1272414000000007,-0.0173836,0,sub_11
-0.0095828000000002,0.0065182000000011,0.0123524,-0.0206783999999994,0.1195470000000007,-0.011815,0,sub_11
-0.0063928000000002,0.0061868000000011,0.0087964,-0.0175247999999994,0.1150378000000007,-0.0058052,0,sub_11
-0.0034268000000002,0.0057016000000011,0.0069228,-0.0130707999999994,0.1158472000000007,0.0010613999999999,0,sub_11
-0.0031664000000001,0.0054078000000011,0.0061618,-0.0096789999999995,0.1189988000000007,0.0091995999999999,0,sub_11
-0.0055366000000001,0.0063654000000011,0.0045594,-0.0069443999999995,0.1187418000000007,0.0177647999999999,0,sub_11
-0.0082318000000001,0.0059558000000011,0.0043982,-0.0057013999999995,0.1180674000000007,0.0254655999999999,0,sub_11
-0.0118200000000001,0.0065570000000011,0.006067,-0.0053225999999995,0.1148404000000007,0.0329499999999999,0,sub_11
-0.0175656000000001,0.0080716000000011,0.0059184,-0.0058029999999995,0.1092768000000007,0.0393631999999999,0,sub_11
-0.0231090000000001,0.0090294000000011,0.004597,-0.0054289999999995,0.1018014000000007,0.0436481999999999,0,sub_11
-0.0246368000000001,0.0079648000000011,0.0062186,-0.0033335999999995,0.0960306000000007,0.0464475999999999,0,sub_11
-0.0249530000000001,0.0076952000000011,0.0068152,0.0006820000000004,0.0885554000000007,0.0475533999999999,0,sub_11
-0.0245668000000001,0.0067290000000012,0.00762,0.0053350000000004,0.0789532000000007,0.0471709999999999,0,sub_11
-0.0243102000000002,0.0049420000000012,0.0087568,0.0093938000000004,0.0663830000000007,0.0472055999999999,0,sub_11
-0.0235762000000002,0.0042380000000012,0.0108004,0.0112948000000004,0.0491304000000007,0.0478719999999999,0,sub_11
-0.0251586000000002,0.0045810000000012,0.0124226,0.0118752000000004,0.0231462000000007,0.0487539999999999,0,sub_11
-0.0296276000000002,0.0038510000000012,0.0155444,0.0135064000000004,-0.0062513999999992,0.0498613999999999,0,sub_11
-0.0337138000000002,0.0044268000000012,0.0186058,0.0132104000000004,-0.0377701999999992,0.0503169999999999,0,sub_11
-0.0350308000000002,0.0056924000000012,0.0221914,0.0113586000000004,-0.0716327999999992,0.0486381999999999,0,sub_11
-0.0331918000000001,0.0050986000000012,0.0247694,0.0082362000000004,-0.1035725999999992,0.0467345999999999,0,sub_11
-0.0319004000000001,0.0043474000000012,0.0267688,0.0036414000000004,-0.1295467999999992,0.0460949999999999,0,sub_11
-0.0290844000000001,0.0049544000000012,0.0274644,-0.0002981999999995,-0.1512655999999992,0.0463089999999999,0,sub_11
-0.0251868000000001,0.0054954000000012,0.0269302,-0.0012447999999995,-0.1708677999999992,0.0473957999999999,0,sub_11
-0.0213322000000001,0.0054946000000012,0.0269592,-0.0011099999999995,-0.1860047999999992,0.0497661999999999,0,sub_11
-0.0193596000000002,0.0069038000000012,0.0280024,0.0007442000000004,-0.1975291999999992,0.0529985999999999,0,sub_11
-0.0170430000000002,0.0091550000000012,0.028057,0.0028500000000004,-0.2030785999999992,0.0536611999999999,0,sub_11
-0.0144106000000002,0.0112904000000011,0.0285516,0.0051962000000004,-0.2045729999999992,0.0523975999999999,0,sub_11
-0.0118670000000002,0.0109112000000011,0.0283296,0.0045648000000004,-0.2045629999999992,0.0504703999999999,0,sub_11
-0.0099926000000002,0.0100272000000011,0.0282155999999999,0.0037238000000004,-0.2039123999999992,0.0483273999999999,0,sub_11
-0.0094520000000001,0.0089068000000011,0.0279099999999999,0.0037584000000004,-0.2006987999999992,0.0438369999999999,0,sub_11
-0.0071918000000001,0.0045574000000011,0.0267542,0.0050444000000004,-0.2011225999999992,0.0421373999999999,0,sub_11
-0.0051678000000001,0.0023402000000012,0.0262796,0.0028828000000004,-0.2068693999999992,0.0425569999999999,0,sub_11
-0.0042494000000001,0.0017266000000012,0.0263554,0.0030674000000004,-0.2119885999999992,0.0438465999999999,0,sub_11
-0.0021264000000001,0.0037628000000012,0.0249534,0.0060238000000004,-0.2177555999999992,0.0449427999999999,0,sub_11
0.0022029999999998,0.0031506000000012,0.0234166,0.0091726000000004,-0.2260885999999992,0.0481801999999999,0,sub_11
0.0058131999999998,0.0058216000000012,0.0235394,0.0108364000000004,-0.2339843999999992,0.0499111999999999,0,sub_11
0.0110593999999998,0.0075696000000012,0.0232718,0.0121090000000004,-0.2365419999999992,0.0490685999999999,0,sub_11
0.0165973999999997,0.0099108000000012,0.0244726,0.0112958000000004,-0.2326835999999992,0.0439305999999999,0,sub_11
0.0207881999999997,0.0098852000000012,0.0273696,0.0081930000000004,-0.2198533999999992,0.0349193999999999,0,sub_11
0.0234961999999997,0.0109936000000012,0.0302912,0.0034196000000004,-0.2014675999999992,0.0233255999999999,0,sub_11
0.0246733999999997,0.0112958000000012,0.0312286,-0.0006991999999995,-0.1801003999999992,0.0115189999999999,0,sub_11
0.0245551999999997,0.0098926000000012,0.0317554,-0.0024871999999995,-0.1598169999999992,0.0022939999999999,0,sub_11
0.0233695999999997,0.0083184000000012,0.0314446,-0.0030303999999995,-0.1438135999999992,-0.003285,0,sub_11
0.0220187999999997,0.0087404000000011,0.03013,-0.0019001999999995,-0.1323023999999992,-0.0058556,0,sub_11
0.0211143999999997,0.0098750000000011,0.0266408,0.0002940000000004,-0.1214339999999992,-0.008418,0,sub_11
0.0208677999999997,0.0097586000000011,0.0264334,0.0020672000000004,-0.1105589999999992,-0.0122652,0,sub_11
0.0211059999999997,0.0099112000000011,0.0266613999999999,0.0015306000000004,-0.0932765999999992,-0.0180596,0,sub_11
0.0216539999999997,0.0103292000000011,0.0273089999999999,0.0005950000000004,-0.0691773999999992,-0.0232246,0,sub_11
0.0218437999999997,0.0088990000000012,0.026747,-0.0011919999999995,-0.0427391999999992,-0.0264756,0,sub_11
0.0203245999999997,0.0080300000000012,0.0258533999999999,-0.0038583999999995,-0.0190797999999992,-0.0267379999999999,0,sub_11
0.0170821999999997,0.0078322000000012,0.0230787999999999,-0.0046303999999995,0.0013668000000007,-0.0244195999999999,0,sub_11
0.0123111999999997,0.0060064000000012,0.0207174,-0.0041603999999995,0.0143480000000007,-0.0210145999999999,0,sub_11
0.0061325999999997,0.0057828000000012,0.0171976,-0.0058549999999995,0.0190334000000007,-0.0191095999999999,0,sub_11
0.0001475999999997,0.0066632000000012,0.0144858,-0.0081963999999995,0.0184100000000007,-0.0210479999999999,0,sub_11
-0.0031234000000002,0.0079272000000012,0.0130178,-0.0081723999999995,0.0184314000000007,-0.0263889999999999,0,sub_11
-0.0032060000000002,0.0085652000000012,0.0123158,-0.0083513999999995,0.0199482000000007,-0.0325877999999999,0,sub_11
-0.0032288000000002,0.0102064000000012,0.0111932,-0.0089541999999995,0.0227422000000007,-0.0381503999999999,0,sub_11
-0.0002532000000002,0.0111600000000012,0.0101164,-0.0080593999999995,0.0274442000000007,-0.0426367999999999,0,sub_11
0.0028401999999997,0.0110846000000012,0.0092946,-0.0060939999999995,0.0357534000000007,-0.0443427999999999,0,sub_11
0.0045915999999997,0.0092938000000012,0.0097198,-0.0051935999999995,0.0470388000000007,-0.0434964,0,sub_11
0.0048103999999997,0.0087684000000012,0.0124054,-0.0053445999999995,0.0623734000000007,-0.0420215999999999,0,sub_11
0.0045973999999997,0.0095296000000012,0.012902,-0.0052783999999995,0.0779230000000007,-0.0411863999999999,0,sub_11
0.0023559999999997,0.0091572000000012,0.012896,-0.0024421999999995,0.0911252000000007,-0.0418243999999999,0,sub_11
0.0005331999999997,0.0079402000000011,0.0144372,-0.0002585999999995,0.1011354000000007,-0.0428901999999999,0,sub_11
-0.0016158000000002,0.0088248000000011,0.0175766,-0.0012691999999995,0.1049858000000007,-0.0445956,0,sub_11
-0.0035110000000002,0.0092694000000011,0.0186988,-0.0035847999999995,0.1028770000000007,-0.0467296,0,sub_11
-0.0050670000000002,0.0082234000000011,0.020524,-0.0061321999999995,0.0975696000000007,-0.0480066,0,sub_11
-0.0080844000000002,0.0073360000000011,0.0240008,-0.0110477999999995,0.0901298000000007,-0.0467336,0,sub_11
-0.0110524000000002,0.0074680000000012,0.0262962,-0.0153423999999995,0.0803366000000007,-0.0435306,0,sub_11
-0.0132324000000002,0.0079634000000012,0.0258274,-0.0175315999999995,0.0701090000000007,-0.0413962,0,sub_11
-0.0133958000000002,0.0081124000000012,0.0237742,-0.0167193999999995,0.0613692000000006,-0.040952,0,sub_11
-0.0115084000000002,0.0085532000000012,0.0235324,-0.0135331999999995,0.0581622000000007,-0.0409258,0,sub_11
-0.0090200000000002,0.0080758000000012,0.0224436,-0.0107515999999995,0.0598570000000006,-0.0409086,0,sub_11
-0.0079080000000002,0.0081230000000012,0.0202728,-0.0077517999999995,0.0624040000000007,-0.0411046,0,sub_11
-0.0083864000000001,0.0080866000000011,0.0178482,-0.0013391999999995,0.0653628000000007,-0.0406364,0,sub_11
-0.0108254000000001,0.0078636000000011,0.016456,0.0057030000000004,0.0657634000000007,-0.0403742,0,sub_11
-0.0128596000000001,0.0077326000000011,0.0155828,0.0090968000000004,0.0627628000000007,-0.038851,0,sub_11
-0.0130958000000001,0.0078726000000011,0.0140892,0.0097062000000004,0.0574282000000007,-0.0373444,0,sub_11
-0.0111394000000001,0.0087546000000011,0.0134808,0.0090478000000004,0.0561410000000007,-0.0345698,0,sub_11
-0.0103878000000002,0.0066466000000012,0.014252,0.0017558000000004,0.0546476000000007,-0.0277822,0,sub_11
-0.0144194000000002,0.0055452000000012,0.0151192,-0.0093959999999995,0.0512410000000007,-0.018669,0,sub_11
-0.0210362000000002,0.0084716000000011,0.0126758,-0.0156373999999995,0.0452734000000007,-0.012723,0,sub_11
-0.0276954000000002,0.0103188000000011,0.009464,-0.0127105999999995,0.0331138000000007,-0.0114052,0,sub_11
-0.0330840000000002,0.0096386000000011,0.008504,-0.0087427999999995,0.0111664000000007,-0.0141268,0,sub_11
-0.0304280000000001,0.0103934000000011,0.0112846,-0.0028441999999995,-0.0118393999999992,-0.0202518,0,sub_11
