userAcceleration.x,userAcceleration.y,userAcceleration.z,rotationRate.x,rotationRate.y,rotationRate.z,label,subject
0.0587047999999997,-0.0016357999999987,0.043708,-0.0120469999999995,0.0788114000000006,-0.0514114,0,sub_11
0.0608421999999997,0.0053780000000012,0.0462518,-0.0003307999999995,0.1302148000000006,-0.047542,0,sub_11
0.0512217999999997,0.0045554000000012,0.0469543999999999,0.0090648000000004,0.1494172000000006,-0.0342472,0,sub_11
0.0381213999999997,0.0048486000000012,0.0468095999999999,0.0121058000000004,0.1379362000000006,-0.0145482,0,sub_11
0.0239471999999997,0.0055010000000012,0.0457256,0.0079636000000004,0.0977066000000006,0.0079147999999999,0,sub_11
0.0150105999999998,0.0044180000000012,0.0466987999999999,0.0005734000000004,0.0407636000000006,0.0286597999999999,0,sub_11
0.0117441999999998,0.0018498000000012,0.0489165999999999,-0.0073801999999995,-0.0044379999999993,0.0440445999999999,0,sub_11
0.0166157999999998,0.0022470000000012,0.051031,-0.0119895999999995,-0.0219369999999993,0.0551443999999999,0,sub_11
0.0223255999999998,-0.0018957999999987,0.0542768,-0.0096049999999995,-0.0186839999999993,0.0615773999999999,0,sub_11
0.0251493999999998,-0.0092763999999987,0.0576676,-0.0013941999999995,-0.0073295999999993,0.0616313999999999,0,sub_11
0.0238805999999998,-0.0156465999999987,0.0602004,0.0055670000000004,0.0046932000000006,0.0554799999999999,0,sub_11
0.0200383999999998,-0.0186897999999987,0.061008,0.0080714000000004,0.0146310000000006,0.0418225999999999,0,sub_11
0.0167635999999998,-0.0177333999999987,0.0592792,0.0052590000000004,0.0229052000000006,0.0225753999999999,0,sub_11
0.0127775999999998,-0.0147207999999987,0.0571986,-0.0031521999999995,0.0306842000000006,0.0026375999999999,0,sub_11
0.0081859999999998,-0.0102697999999987,0.0555732,-0.0152271999999995,0.0358972000000006,-0.0117676,0,sub_11
0.0057671999999998,-0.0072645999999987,0.0546356,-0.0256593999999995,0.0340444000000006,-0.0188884,0,sub_11
0.0024633999999998,-0.0071729999999987,0.0533747999999999,-0.0301823999999995,0.0218678000000006,-0.0165114,0,sub_11
-0.0053970000000001,-0.0100183999999987,0.0522306,-0.0258359999999995,-0.0027295999999993,-0.005938,0,sub_11
-0.0124500000000001,-0.0120621999999987,0.0501959999999999,-0.0153659999999995,-0.0392887999999993,0.0070435999999999,0,sub_11
-0.0065550000000001,-0.0135355999999987,0.0498797999999999,-0.0006101999999995,-0.0771199999999993,0.0147155999999998,0,sub_11
0.0019385999999998,-0.0140191999999987,0.0506699999999999,0.0142492000000004,-0.1006417999999993,0.0136105999999998,0,sub_11
0.0147081999999998,-0.0136397999999987,0.0514084,0.0232588000000004,-0.1021159999999993,0.0014977999999998,0,sub_11
0.0303377999999998,-0.0110759999999987,0.0525873999999999,0.0211006000000004,-0.0836905999999993,-0.0222554,0,sub_11
0.0471093999999998,-0.0076625999999987,0.0537914,0.0092232000000004,-0.0485939999999993,-0.050798,0,sub_11
0.0550365999999997,-0.0011227999999987,0.0534727999999999,-0.0066837999999995,-0.0059017999999993,-0.0738154,0,sub_11
0.0582501999999997,0.0054180000000012,0.0499597999999999,-0.0214017999999995,0.0307636000000006,-0.0825026,0,sub_11
0.0564345999999997,0.0122062000000012,0.0472741999999999,-0.0279505999999995,0.0507128000000006,-0.0738062,0,sub_11
0.0516385999999997,0.0145202000000012,0.0445924,-0.0225115999999995,0.0494564000000006,-0.0472664,0,sub_11
0.0426927999999997,0.0112436000000012,0.0428806,-0.0088949999999995,0.0276718000000006,-0.0091062,0,sub_11
0.0326983999999997,0.0033116000000012,0.0415548,0.0061322000000004,-0.0076931999999993,0.0305681999999999,0,sub_11
0.0250303999999997,-0.0038147999999987,0.0438448,0.0190430000000004,-0.0464307999999992,0.0629683999999999,0,sub_11
0.0197253999999998,-0.0083435999999987,0.0482692,0.0237368000000004,-0.0778289999999992,0.0822983999999999,0,sub_11
0.0179857999999998,-0.0095135999999987,0.0539766,0.0189756000000004,-0.0912381999999992,0.0867979999999999,0,sub_11
0.0213631999999997,-0.0085521999999987,0.0594028,0.0092594000000004,-0.0813523999999993,0.0775597999999999,0,sub_11
0.0248931999999998,-0.0105887999999987,0.0618308,-0.0024581999999995,-0.0516067999999993,0.0586681999999999,0,sub_11
0.0278091999999998,-0.0129397999999987,0.062247,-0.0143115999999995,-0.0107567999999993,0.0335655999999999,0,sub_11
0.0286843999999997,-0.0144227999999987,0.0592254,-0.0229711999999995,0.0304978000000006,0.0073877999999999,0,sub_11
0.0247733999999997,-0.0148033999999987,0.0536176,-0.0291297999999995,0.0617170000000006,-0.0155552,0,sub_11
0.0187293999999997,-0.0138193999999987,0.0471608,-0.0317685999999995,0.0756400000000006,-0.0318284,0,sub_11
0.0134265999999997,-0.0081919999999987,0.0432754,-0.0293879999999995,0.0736502000000006,-0.0390924,0,sub_11
0.0111403999999997,-0.0016457999999987,0.0406794,-0.0236873999999995,0.0603182000000006,-0.0367046,0,sub_11
0.0106215999999997,0.0014916000000012,0.039769,-0.0156981999999995,0.0416210000000006,-0.0266028,0,sub_11
0.0143471999999998,-0.0002935999999987,0.0427736,-0.0043189999999995,0.0218296000000006,-0.012203,0,sub_11
0.0173731999999998,-0.0031083999999987,0.0484658,0.0066326000000004,0.0037364000000006,0.0041143999999999,0,sub_11
0.0191973999999998,-0.0061363999999987,0.054232,0.0122546000000004,-0.0142321999999993,0.0172091999999999,0,sub_11
0.0193985999999998,-0.0083235999999987,0.0576716,0.0119348000000004,-0.0306655999999992,0.0244919999999999,0,sub_11
0.0203915999999997,-0.0101203999999987,0.0596468,0.0069670000000004,-0.0421609999999992,0.0263947999999999,0,sub_11
0.0214313999999998,-0.0097095999999987,0.060133,0.0003572000000004,-0.0434067999999992,0.0239999999999999,0,sub_11
0.0227431999999998,-0.0081371999999987,0.0587516,-0.0063785999999995,-0.0340745999999993,0.0181251999999999,0,sub_11
0.0244617999999998,-0.0074069999999987,0.05682,-0.0103001999999995,-0.0164405999999993,0.0116183999999999,0,sub_11
0.0254135999999998,-0.0088209999999987,0.0559674,-0.0110125999999995,0.0047974000000006,0.0068385999999999,0,sub_11
0.0241107999999997,-0.0111857999999987,0.0534982,-0.0106899999999995,0.0221840000000006,0.0052757999999999,0,sub_11
0.0238497999999997,-0.0125317999999987,0.0500142,-0.0125671999999995,0.0280604000000006,0.0069169999999999,0,sub_11
0.0248527999999997,-0.0139625999999987,0.0476048,-0.0145075999999995,0.0263516000000006,0.0096829999999999,0,sub_11
0.0251535999999997,-0.0144987999999987,0.047617,-0.0166959999999995,0.0188836000000006,0.0143775999999999,0,sub_11
0.0240375999999997,-0.0134605999999987,0.0478214,-0.0199837999999995,0.0069340000000006,0.0218475999999999,0,sub_11
0.0245891999999997,-0.0081737999999987,0.0506927999999999,-0.0221867999999995,-0.0047721999999993,0.0295533999999999,0,sub_11
0.0261319999999997,-0.0004793999999987,0.0570654,-0.0207363999999995,-0.0126483999999993,0.0353571999999999,0,sub_11
0.0275631999999997,0.0052662000000012,0.0633082,-0.0162729999999995,-0.0147825999999993,0.0411745999999999,0,sub_11
0.0294621999999997,0.0084154000000012,0.0673692,-0.0107025999999995,-0.0100943999999993,0.0448545999999999,0,sub_11
0.0270049999999997,0.0063984000000012,0.0687544,-0.0033877999999995,-0.0013469999999993,0.0442685999999999,0,sub_11
0.0233503999999997,0.0024522000000012,0.0686522,0.0037034000000004,0.0060998000000006,0.0406765999999999,0,sub_11
0.0204027999999997,-0.0033323999999987,0.064716,0.0099296000000004,0.0103562000000006,0.0364417999999999,0,sub_11
0.0191839999999997,-0.0105459999999987,0.0605992,0.0140228000000004,0.0104314000000006,0.0300407999999999,0,sub_11
0.0158507999999997,-0.0140177999999987,0.0567486,0.0149156000000004,0.0096690000000006,0.0227637999999999,0,sub_11
0.0172559999999997,-0.0115253999999987,0.0550408,0.0100626000000004,0.0110624000000006,0.0141621999999999,0,sub_11
0.0207681999999997,-0.0073995999999987,0.0536256,0.0007614000000004,0.0178054000000006,0.0035997999999999,0,sub_11
0.0234525999999997,-0.0038453999999987,0.050507,-0.0117135999999995,0.0298886000000006,-0.0076326,0,sub_11
0.0248601999999997,0.0003448000000012,0.0451008,-0.0239933999999995,0.0442346000000006,-0.014787,0,sub_11
0.0280749999999997,0.0017508000000012,0.0398446,-0.0294931999999995,0.0540580000000006,-0.0156926,0,sub_11
0.0305555999999997,-0.0004953999999987,0.0404882,-0.0252505999999995,0.0561430000000006,-0.0079744,0,sub_11
0.0298185999999997,-0.0049597999999987,0.0438374,-0.0131793999999995,0.0502902000000006,0.0066453999999999,0,sub_11
0.0243631999999997,-0.0099429999999987,0.0496196,0.0014516000000004,0.0384526000000006,0.0244711999999999,0,sub_11
0.0169861999999997,-0.0117667999999987,0.0575652,0.0145796000000004,0.0223676000000006,0.0401553999999999,0,sub_11
0.0098951999999998,-0.0130887999999987,0.0651234,0.0204720000000004,0.0048396000000006,0.0500225999999999,0,sub_11
0.0040059999999998,-0.0131381999999987,0.0684828,0.0183042000000004,-0.0104953999999993,0.0512847999999999,0,sub_11
0.0010933999999998,-0.0138663999999987,0.0710592,0.0106452000000004,-0.0208799999999993,0.0448111999999999,0,sub_11
0.0006655999999998,-0.0140051999999987,0.0722296,0.0006378000000004,-0.0276165999999993,0.0332131999999999,0,sub_11
0.0030571999999998,-0.0135571999999987,0.0694018,-0.0112793999999995,-0.0339125999999993,0.0196785999999999,0,sub_11
0.0083687999999998,-0.0121495999999987,0.0625796,-0.0201763999999995,-0.0380731999999993,0.0071967999999999,0,sub_11
0.0138993999999998,-0.0099053999999987,0.054569,-0.0226769999999995,-0.0401383999999993,-0.0020382,0,sub_11
0.0174735999999998,-0.0078001999999987,0.0477264,-0.0177247999999995,-0.0407581999999993,-0.0063094,0,sub_11
0.0213277999999998,-0.0057659999999987,0.0442848,-0.0080927999999995,-0.0403459999999993,-0.0062762,0,sub_11
0.0235151999999998,-0.0054547999999987,0.044451,0.0040900000000004,-0.0393147999999993,-0.0034486,0,sub_11
0.0223613999999998,-0.0054441999999987,0.0491858,0.0149452000000004,-0.0402255999999993,0.0017559999999999,0,sub_11
0.0207929999999998,-0.0056761999999987,0.0542172,0.0210860000000004,-0.0443207999999993,0.0082133999999999,0,sub_11
0.0199775999999998,-0.0060579999999987,0.0574504,0.0201644000000004,-0.0530783999999993,0.0146275999999998,0,sub_11
0.0189415999999998,-0.0065557999999987,0.059953,0.0156562000000004,-0.0643785999999993,0.0203191999999998,0,sub_11
0.0178247999999997,-0.0071967999999987,0.0621652,0.0100840000000004,-0.0763089999999993,0.0247221999999999,0,sub_11
0.0159041999999997,-0.0085925999999987,0.0628252,0.0055894000000004,-0.0884457999999993,0.0265693999999999,0,sub_11
0.0139943999999997,-0.0100243999999987,0.060601,0.0038790000000004,-0.1018563999999993,0.0248057999999999,0,sub_11
0.0119951999999997,-0.0104673999999987,0.0579948,0.0040880000000004,-0.1186697999999993,0.0198551999999999,0,sub_11
0.0114027999999997,-0.0103233999999987,0.053183,0.0048860000000004,-0.1382445999999992,0.0126217999999999,0,sub_11
0.0116141999999998,-0.0096577999999987,0.048759,0.0080436000000004,-0.1559067999999993,0.0045479999999999,0,sub_11
0.0131687999999998,-0.0088835999999987,0.0452974,0.0139920000000004,-0.1686827999999993,-0.0024444,0,sub_11
0.0156113999999998,-0.0074277999999987,0.0447254,0.0203894000000004,-0.1748623999999992,-0.007733,0,sub_11
0.0204153999999998,-0.0065549999999987,0.0455788,0.0272898000000004,-0.1697677999999993,-0.0112206,0,sub_11
0.0248243999999998,-0.0075491999999987,0.0481478,0.0338026000000004,-0.1538145999999993,-0.0125882,0,sub_11
0.0280249999999998,-0.0091529999999987,0.0503088,0.0352022000000004,-0.1344413999999993,-0.012287,0,sub_11
0.0301657999999998,-0.0098645999999987,0.0514072,0.0295644000000004,-0.1146157999999993,-0.0124628,0,sub_11
0.0321589999999998,-0.0103915999999987,0.0541014,0.0194438000000004,-0.0947761999999993,-0.0122426,0,sub_11
0.0317699999999998,-0.0093847999999987,0.0563214,0.0090642000000004,-0.0759985999999993,-0.0104164,0,sub_11
0.0292179999999998,-0.0083149999999987,0.0560132,-0.0009115999999995,-0.0610625999999993,-0.0073006,0,sub_11
0.0265309999999997,-0.0074523999999987,0.0549516,-0.0066419999999995,-0.0504051999999993,-0.0035086,0,sub_11
0.0247769999999998,-0.0070583999999987,0.0552182,-0.0064227999999995,-0.0448835999999993,0.0007587999999999,0,sub_11
0.0227217999999998,-0.0069811999999987,0.0543198,-0.0019533999999995,-0.0436361999999993,0.0046339999999999,0,sub_11
0.0209699999999997,-0.0084793999999987,0.053365,0.0031398000000004,-0.0468617999999993,0.0076647999999998,0,sub_11
0.0206783999999997,-0.0087133999999987,0.0540514,0.0086636000000004,-0.0507219999999993,0.0092037999999998,0,sub_11
0.0215719999999997,-0.0086507999999987,0.0557368,0.0129272000000004,-0.0513767999999993,0.0094479999999999,0,sub_11
0.0231819999999997,-0.0078493999999987,0.0579006,0.0144390000000004,-0.0481827999999993,0.0085997999999999,0,sub_11
0.0252343999999997,-0.0075101999999987,0.0597688,0.0123464000000004,-0.0402873999999993,0.0072931999999999,0,sub_11
0.0261441999999998,-0.0066183999999987,0.0601944,0.0077108000000004,-0.0291845999999993,0.0053237999999999,0,sub_11
0.0253711999999998,-0.0053425999999987,0.0593844,0.0028616000000004,-0.0182933999999993,0.0031395999999999,0,sub_11
0.0243271999999998,-0.0037127999999987,0.0582644,-6.719999999955313e-05,-0.0078331999999993,0.0005419999999999,0,sub_11
0.0236329999999998,-0.0038289999999987,0.055856,-0.0002325999999995,0.0006982000000006,-0.0016064,0,sub_11
0.0206801999999997,-0.0049541999999987,0.0526676,0.0034072000000004,0.0026064000000006,-0.002438,0,sub_11
0.0178661999999997,-0.0064191999999987,0.0506122,0.0106454000000004,-0.0012529999999993,-0.0025962,0,sub_11
0.0166307999999998,-0.0077587999999987,0.0504322,0.0197850000000004,-0.0095923999999993,-0.002949,0,sub_11
0.0152915999999998,-0.0093009999999987,0.0511122,0.0286824000000004,-0.0236859999999993,-0.002655,0,sub_11
0.0130693999999998,-0.0095511999999987,0.0530658,0.0360584000000004,-0.0431041999999993,-0.0015104,0,sub_11
0.0120457999999998,-0.0080651999999987,0.0559027999999999,0.0410854000000004,-0.0625157999999993,4.519999999993054e-05,0,sub_11
0.0145595999999998,-0.0036071999999987,0.0563741999999999,0.0423006000000004,-0.0761591999999993,0.0009257999999999,0,sub_11
0.0193451999999998,-0.0014713999999987,0.0560751999999999,0.0418566000000004,-0.0797803999999993,0.0011409999999999,0,sub_11
0.0275879999999998,-0.0041453999999987,0.0539811999999999,0.0446564000000004,-0.0738255999999993,0.0013663999999999,0,sub_11
0.0305631999999997,-0.0092581999999987,0.0539424,0.0496196000000004,-0.0612735999999993,0.0015985999999999,0,sub_11
0.0316333999999997,-0.0138773999999987,0.0538096,0.0524500000000004,-0.0489253999999993,0.0013887999999999,0,sub_11
0.0274725999999997,-0.0184361999999987,0.0561826,0.0535714000000004,-0.0430447999999992,0.0026161999999999,0,sub_11
0.0208031999999997,-0.0210733999999987,0.0577748,0.0512146000000004,-0.0499413999999993,0.0053311999999999,0,sub_11
0.0103957999999997,-0.0181259999999987,0.0606804,0.0421896000000004,-0.0693823999999993,0.0073749999999999,0,sub_11
0.0047385999999997,-0.0138979999999987,0.0612124,0.0288634000000004,-0.0973263999999993,0.0083311999999999,0,sub_11
0.0014371999999998,-0.0106841999999987,0.061275,0.0174578000000004,-0.1271869999999993,0.0073805999999999,0,sub_11
0.0021761999999998,-0.0089891999999987,0.0605938,0.0079754000000004,-0.1529139999999993,0.0024335999999999,0,sub_11
0.0091453999999998,-0.0064251999999987,0.0599478,0.0037100000000004,-0.1632951999999993,-0.0084788,0,sub_11
0.0207927999999998,-0.0058841999999987,0.05779,0.0044488000000004,-0.1549337999999993,-0.0221576,0,sub_11
0.0338993999999998,-0.0056695999999987,0.052726,0.0082468000000004,-0.1295427999999993,-0.0347686,0,sub_11
0.0454969999999998,-0.0064611999999987,0.0476738,0.0129424000000004,-0.0911713999999993,-0.0441852,0,sub_11
0.0527299999999998,-0.0108481999999987,0.045524,0.0199812000000004,-0.0487797999999993,-0.048677,0,sub_11
0.0527643999999998,-0.0163559999999987,0.0459066,0.0256620000000004,-0.0162141999999993,-0.045688,0,sub_11
0.0438737999999997,-0.0173205999999987,0.0499722,0.0265520000000004,-0.0011185999999993,-0.0386508,0,sub_11
0.0332353999999997,-0.0168343999999987,0.0568892,0.0233132000000004,-0.0022025999999993,-0.0311944,0,sub_11
0.0237521999999997,-0.0129573999999987,0.0638108,0.0180924000000004,-0.0177639999999993,-0.024588,0,sub_11
0.0178449999999997,-0.0049413999999987,0.0682142,0.0117876000000004,-0.0405517999999993,-0.021398,0,sub_11
0.0170631999999997,0.0016816000000012,0.0702784,0.0072262000000004,-0.0590691999999993,-0.022047,0,sub_11
0.0225551999999997,0.0032248000000012,0.0684748,0.0065544000000004,-0.0682197999999993,-0.0241766,0,sub_11
0.0299505999999997,0.0035638000000012,0.064353,0.0078690000000004,-0.0652227999999993,-0.0288714,0,sub_11
0.0399737999999997,0.0001202000000012,0.0598846,0.0101160000000004,-0.0470925999999993,-0.0359292,0,sub_11
0.0494393999999997,-0.0036943999999987,0.0560563999999999,0.0130538000000004,-0.0163997999999993,-0.0417164,0,sub_11
0.0510943999999998,-0.0051835999999987,0.0526686,0.0132294000000004,0.0196182000000006,-0.0447524,0,sub_11
0.0487635999999997,-0.0077253999999987,0.0506806,0.0112624000000004,0.0566968000000006,-0.0448136,0,sub_11
0.0448037999999998,-0.0104139999999987,0.0511088,0.0105308000000004,0.0880016000000006,-0.040586,0,sub_11
0.0370701999999997,-0.0112791999999987,0.0528386,0.0086718000000004,0.1082218000000006,-0.034002,0,sub_11
0.0283219999999998,-0.0129263999999987,0.0540858,0.0027060000000004,0.1165262000000006,-0.027645,0,sub_11
0.0238237999999997,-0.0153163999999987,0.0554286,-0.0062911999999995,0.1129186000000006,-0.0234302,0,sub_11
0.0226769999999997,-0.0122785999999987,0.0549912,-0.0172017999999995,0.1063530000000006,-0.0237116,0,sub_11
0.0265249999999997,-0.0066001999999987,0.0562118,-0.0269815999999995,0.1115116000000006,-0.026564,0,sub_11
0.0316699999999997,-0.0014439999999987,0.0573514,-0.0320153999999995,0.1292198000000006,-0.028331,0,sub_11
0.0308205999999997,0.0003078000000012,0.0558806,-0.0316887999999995,0.1547838000000006,-0.0279342,0,sub_11
0.0300817999999997,0.0008100000000012,0.0538484,-0.0273023999999995,0.1845826000000006,-0.0245236,0,sub_11
0.0285305999999997,-0.0020707999999987,0.0524154,-0.0197701999999995,0.2058336000000006,-0.017448,0,sub_11
0.0225445999999997,-0.0071785999999987,0.048766,-0.0112811999999995,0.2040652000000006,-0.0088406,0,sub_11
0.0141269999999997,-0.0115913999999987,0.0473428,-0.0035129999999995,0.1833416000000006,-0.0012822,0,sub_11
0.0113995999999997,-0.0130201999999987,0.0496514,0.0027232000000004,0.1524034000000006,0.0045693999999999,0,sub_11
0.0085109999999997,-0.0124207999999987,0.0537766,0.0078848000000004,0.1180670000000006,0.0087087999999999,0,sub_11
0.0069889999999997,-0.0114927999999987,0.0600208,0.0135194000000004,0.0909848000000006,0.0098511999999999,0,sub_11
0.0060383999999997,-0.0100801999999987,0.0657098,0.0173016000000004,0.0747922000000006,0.0066937999999999,0,sub_11
0.0081609999999997,-0.0103951999999987,0.067754,0.0185694000000004,0.0656520000000006,0.0003049999999999,0,sub_11
0.0138215999999997,-0.0112973999999987,0.0663724,0.0179370000000004,0.0586586000000006,-0.00845,0,sub_11
0.0196529999999997,-0.0127975999999987,0.0638202,0.0164598000000004,0.0521002000000006,-0.0187068,0,sub_11
0.0235083999999997,-0.0127941999999987,0.060698,0.0126314000000004,0.0446978000000006,-0.028979,0,sub_11
0.0269751999999997,-0.0111191999999987,0.0576201999999999,0.0071000000000004,0.0400632000000006,-0.0373438,0,sub_11
0.0304097999999997,-0.0052287999999987,0.0547255999999999,0.0013620000000004,0.0401038000000006,-0.0425114,0,sub_11
0.0314435999999997,-0.0024373999999987,0.0518531999999999,-0.0003295999999995,0.0433064000000006,-0.0427408,0,sub_11
0.0315049999999998,-0.0001515999999987,0.0493389999999999,0.0043444000000004,0.0441208000000006,-0.0373682,0,sub_11
0.0291117999999998,-0.0007469999999987,0.0481857999999999,0.0134542000000004,0.0406356000000006,-0.0261906,0,sub_11
0.0275951999999998,-0.0033981999999987,0.0486499999999999,0.0242150000000004,0.0303494000000006,-0.0134764,0,sub_11
0.0258853999999997,-0.0097987999999987,0.0501753999999999,0.0334794000000004,0.0164584000000006,-0.0037588,0,sub_11
0.0246921999999997,-0.0120141999999987,0.0537011999999999,0.0363828000000004,0.0049598000000006,-0.0007118,0,sub_11
0.0248595999999997,-0.0140957999999987,0.0569481999999999,0.0286838000000004,0.0007722000000006,-0.0052258,0,sub_11
0.0281413999999997,-0.0140791999999987,0.0585092,0.0135772000000004,0.0028180000000006,-0.0170634,0,sub_11
0.0294579999999997,-0.0102183999999987,0.0608872,-0.0040069999999995,0.0161480000000006,-0.0319448,0,sub_11
0.0326241999999997,-0.0022673999999987,0.0628356,-0.0155757999999995,0.0396794000000006,-0.045729,0,sub_11
0.0352819999999998,0.0037876000000012,0.064444,-0.0171447999999995,0.0603914000000006,-0.0558078,0,sub_11
0.0363533999999997,0.0088114000000011,0.0663666,-0.0080843999999995,0.0744530000000006,-0.0636672,0,sub_11
0.0341997999999997,0.0086072000000012,0.0677302,0.0090554000000004,0.0882486000000006,-0.0652744,0,sub_11
0.0341033999999998,0.0041484000000012,0.0661858,0.0218462000000004,0.0939230000000006,-0.0568602,0,sub_11
0.0347555999999997,-0.0019349999999987,0.063284,0.0323874000000004,0.0812526000000006,-0.0409608,0,sub_11
0.0345447999999997,-0.0064895999999987,0.060773,0.0420118000000004,0.0596166000000006,-0.0199288,0,sub_11
0.0349013999999997,-0.0106841999999987,0.0586262,0.0447986000000004,0.0392690000000006,0.0044721999999999,0,sub_11
0.0383271999999997,-0.0094909999999987,0.0596032,0.0394908000000004,0.0193862000000006,0.0262523999999998,0,sub_11
0.0413775999999997,-0.0061029999999987,0.0623164,0.0376534000000004,0.0039978000000006,0.0399325999999998,0,sub_11
0.0418551999999997,-0.0043159999999987,0.0662864,0.0322596000000004,-0.0011291999999993,0.0480199999999998,0,sub_11
0.0413943999999997,-0.0035381999999987,0.0674662,0.0216466000000004,0.0152968000000006,0.0519839999999999,0,sub_11
0.0397519999999997,-0.0034493999999987,0.065936,0.0102472000000004,0.0460030000000006,0.0552831999999999,0,sub_11
0.0352643999999997,-0.0054087999999987,0.0613822,0.0005038000000004,0.0658358000000006,0.0590351999999999,0,sub_11
0.0292041999999997,-0.0086703999999987,0.0555444,-0.0029063999999995,0.0711562000000006,0.0634911999999999,0,sub_11
0.0225945999999997,-0.0104983999999987,0.049386,-0.0016203999999995,0.0747642000000006,0.0658455999999999,0,sub_11
0.0195211999999997,-0.0122425999999987,0.0481166,-0.0007773999999995,0.0711444000000006,0.0645743999999999,0,sub_11
0.0184445999999997,-0.0123089999999987,0.049123,0.0017620000000004,0.0598702000000006,0.0579835999999999,0,sub_11
0.0191625999999997,-0.0068077999999987,0.0507168,0.0099202000000004,0.0598862000000006,0.0469311999999999,0,sub_11
0.0186591999999997,-0.0021285999999987,0.0525526,0.0164240000000004,0.0701406000000006,0.0343583999999999,0,sub_11
