userAcceleration.x,userAcceleration.y,userAcceleration.z,rotationRate.x,rotationRate.y,rotationRate.z,label,subject
-0.0136878000000002,-0.0099335999999987,0.0075369999999999,-0.0181901999999995,0.0756114000000005,0.0100551999999999,0,sub_12
-0.0069084000000002,-0.0108567999999987,0.0101165999999999,-0.0185645999999995,0.0385460000000006,0.0088181999999999,0,sub_12
0.0015675999999997,-0.0091549999999987,0.0120551999999999,-0.0182691999999995,0.0070220000000006,0.0065105999999999,0,sub_12
0.0097177999999997,-0.0013681999999987,0.00921,-0.0179803999999995,-0.0255689999999993,0.0046315999999999,0,sub_12
0.0219867999999997,0.0107158000000012,-0.0003199999999999,-0.0140393999999995,-0.0498745999999993,0.0055449999999999,0,sub_12
0.0301801999999997,0.0227568000000012,-0.0126251999999999,0.0012802000000004,-0.0508155999999993,0.0144125999999999,0,sub_12
0.0392513999999997,0.0287300000000011,-0.0214655999999999,0.0302270000000004,-0.0541639999999993,0.0274377999999999,0,sub_12
0.0468829999999997,0.0310104000000011,-0.0253595999999999,0.0627848000000004,-0.0598735999999993,0.0417731999999999,0,sub_12
0.0523405999999997,0.0297880000000012,-0.0234125999999999,0.0887492000000004,-0.0589631999999993,0.0579767999999998,0,sub_12
0.0525667999999997,0.0255352000000012,-0.0179887999999999,0.1044774000000004,-0.0584361999999993,0.0723999999999998,0,sub_12
0.0510129999999997,0.0214256000000012,-0.0106871999999999,0.1116622000000004,-0.0646773999999993,0.0818583999999999,0,sub_12
0.0452929999999997,0.0188904000000012,-0.0061455999999999,0.1101370000000004,-0.0659733999999993,0.0876177999999998,0,sub_12
0.0371797999999997,0.0150764000000012,-0.0048987999999999,0.1043818000000004,-0.0612797999999993,0.0909897999999999,0,sub_12
0.0283387999999997,0.0111500000000012,-0.0044489999999999,0.1022500000000004,-0.0646657999999993,0.0871335999999999,0,sub_12
0.0226239999999997,0.0083742000000012,-0.0025104,0.1005776000000004,-0.0620827999999993,0.0819911999999999,0,sub_12
0.0172711999999997,0.0045612000000012,-0.0012302,0.0963330000000004,-0.0648061999999993,0.0740601999999999,0,sub_12
0.0136487999999997,0.0026326000000012,-0.0013538,0.0922942000000004,-0.0698711999999993,0.0654927999999999,0,sub_12
0.0111153999999997,0.0032506000000012,-0.0009986,0.0884726000000004,-0.0745091999999993,0.0564989999999999,0,sub_12
0.0089637999999997,0.0041876000000012,-0.0032776,0.0827604000000004,-0.0708381999999993,0.0491905999999999,0,sub_12
0.0060297999999997,0.0053716000000012,-0.0070848,0.0789436000000004,-0.0735621999999993,0.0410489999999999,0,sub_12
0.0061769999999997,0.0089284000000012,-0.0135791999999999,0.0770550000000004,-0.0722539999999993,0.0352657999999999,0,sub_12
0.0076701999999997,0.0107346000000012,-0.0189237999999999,0.0773192000000004,-0.0652069999999993,0.0309855999999999,0,sub_12
0.0077357999999997,0.0113668000000012,-0.0232733999999999,0.0786378000000004,-0.0592355999999993,0.0284233999999998,0,sub_12
0.0114927999999997,0.0125098000000012,-0.0262057999999999,0.0805658000000004,-0.0575379999999993,0.0284345999999999,0,sub_12
0.0132875999999997,0.0110904000000011,-0.0273801999999999,0.0826812000000004,-0.0609567999999993,0.0290945999999999,0,sub_12
0.0129013999999997,0.0070480000000011,-0.0243887999999999,0.0787408000000004,-0.0837375999999993,0.0284553999999998,0,sub_12
0.0105897999999997,0.0071384000000011,-0.0238633999999999,0.0681408000000004,-0.1182061999999993,0.0260753999999998,0,sub_12
0.0093809999999997,0.0081824000000011,-0.0246165999999999,0.0591140000000004,-0.1337235999999994,0.0249639999999998,0,sub_12
0.0049063999999997,0.0062502000000011,-0.0200149999999999,0.0565930000000004,-0.1388279999999993,0.0232425999999998,0,sub_12
0.0037671999999997,0.0056708000000012,-0.0168263999999999,0.0508600000000004,-0.1473265999999993,0.0206485999999999,0,sub_12
0.0044007999999997,0.0065236000000012,-0.0145167999999999,0.0522546000000004,-0.1341285999999993,0.0206401999999999,0,sub_12
0.0057799999999997,0.0031522000000012,-0.0077995999999999,0.0590266000000004,-0.1090277999999993,0.0230043999999999,0,sub_12
0.0031219999999997,-0.0025189999999987,0.0004494,0.0605924000000004,-0.1071147999999993,0.0210889999999999,0,sub_12
-0.0004732000000002,-0.0051353999999987,0.0018064,0.0526900000000004,-0.1138843999999993,0.0159149999999999,0,sub_12
-0.0045072000000002,-0.0071863999999987,0.0028978,0.0478430000000004,-0.1076597999999993,0.0086093999999999,0,sub_12
-0.0050738000000002,-0.0093939999999987,0.0099056,0.0419414000000004,-0.1018447999999993,-0.0019078,0,sub_12
-0.0074170000000002,-0.0097845999999987,0.0148293999999999,0.0236000000000005,-0.1096243999999993,-0.0118536,0,sub_12
-0.0048906000000002,-0.0067871999999987,0.0140357999999999,0.0014082000000005,-0.1148525999999993,-0.0171294,0,sub_12
-0.0002422000000002,-0.0008271999999987,0.0107978,-0.0151963999999994,-0.1047869999999993,-0.0157628,0,sub_12
0.0035869999999997,0.0067594000000012,0.004341,-0.0262985999999994,-0.0994491999999993,-0.0090106,0,sub_12
0.0028507999999997,0.0138576000000011,-0.0081345999999999,-0.0292963999999994,-0.0922333999999993,0.0005731999999999,0,sub_12
0.0049757999999997,0.0182798000000011,-0.0181145999999999,-0.0174813999999995,-0.0671639999999993,0.0081011999999999,0,sub_12
0.0064735999999997,0.0203266000000012,-0.0226255999999999,0.0035394000000004,-0.0353089999999993,0.0156847999999999,0,sub_12
0.0105617999999997,0.0193186000000012,-0.0214105999999999,0.0232136000000004,-0.0223939999999993,0.0190103999999999,0,sub_12
0.0130129999999997,0.0155896000000012,-0.0144421999999999,0.0355930000000004,-0.0200995999999993,0.0205893999999999,0,sub_12
0.0134351999999997,0.0097662000000012,-0.0076679999999999,0.0394136000000004,-0.0243747999999993,0.0208351999999999,0,sub_12
0.0095373999999997,0.0054158000000012,-0.0025763999999999,0.0384920000000004,-0.0403473999999993,0.0199945999999999,0,sub_12
0.0061515999999997,0.0022596000000012,0.0014768,0.0352176000000004,-0.0611975999999993,0.0155119999999999,0,sub_12
-0.0024402000000002,0.0003008000000012,0.002552,0.0308850000000004,-0.0811875999999993,0.0099525999999999,0,sub_12
-0.0077374000000002,-0.0009271999999987,0.0010962,0.0298306000000004,-0.0864777999999993,0.0018335999999999,0,sub_12
-0.0097180000000002,-0.0002963999999987,0.0003292,0.0296652000000004,-0.0857977999999993,-0.0082096,0,sub_12
-0.0085508000000002,-0.0004675999999987,0.0001572,0.0261252000000004,-0.0778561999999993,-0.0197812,0,sub_12
-0.0070860000000002,-0.0017669999999987,-0.0031489999999999,0.0160070000000004,-0.0641295999999993,-0.0337564,0,sub_12
-0.0023104000000002,-0.0023107999999987,-0.0057983999999999,0.0048708000000004,-0.0395335999999993,-0.0477526,0,sub_12
0.0040945999999997,0.0011316000000012,-0.0073687999999999,-0.0056663999999995,-0.0219789999999993,-0.0595992,0,sub_12
0.0075967999999997,0.0044686000000012,-0.0098453999999999,-0.0156153999999995,-0.0138095999999993,-0.0692932,0,sub_12
0.0094147999999997,0.0078878000000012,-0.0143735999999999,-0.0219657999999995,-0.0075881999999993,-0.074473,0,sub_12
0.0094821999999997,0.0120968000000012,-0.0159521999999999,-0.0204377999999995,0.0007132000000006,-0.073832,0,sub_12
0.0061325999999998,0.0129414000000012,-0.0152607999999999,-0.0142461999999995,0.0055756000000006,-0.0697356,0,sub_12
0.0001117999999998,0.0096648000000012,-0.0135587999999999,-0.0084947999999995,0.0078810000000006,-0.0652118,0,sub_12
-0.0015934000000001,0.0067502000000012,-0.0106169999999999,-0.0019079999999995,0.0071964000000006,-0.0596102,0,sub_12
-9.220000000018796e-05,0.0049244000000012,-0.0052405999999999,0.0061110000000004,-0.0062797999999993,-0.0531276,0,sub_12
0.0018821999999997,0.0036298000000012,0.0005998,0.0125608000000004,-0.0365819999999993,-0.0466344,0,sub_12
0.0057187999999997,0.0036370000000012,0.0038116,0.0138790000000004,-0.0702707999999993,-0.041241,0,sub_12
0.0096877999999997,0.0044736000000012,0.0040754,0.0122474000000004,-0.0969133999999993,-0.037159,0,sub_12
0.0127117999999997,0.0058752000000012,0.003091,0.0087654000000004,-0.1109671999999993,-0.036097,0,sub_12
0.0151521999999997,0.0076616000000012,0.0006382,0.0025968000000005,-0.1090187999999993,-0.0384928,0,sub_12
0.0192919999999997,0.0102174000000012,-0.0035409999999999,-0.0049915999999994,-0.0917211999999993,-0.0419864,0,sub_12
0.0214807999999997,0.0125214000000012,-0.0083841999999999,-0.0114803999999994,-0.0676077999999993,-0.0459082,0,sub_12
0.0214713999999997,0.0135406000000012,-0.0122573999999999,-0.0164641999999994,-0.0417915999999993,-0.0506764,0,sub_12
0.0176353999999997,0.0121854000000012,-0.0158125999999999,-0.0201581999999995,-0.0151225999999993,-0.0567186,0,sub_12
0.0150173999999997,0.0108646000000012,-0.0177555999999999,-0.0240771999999995,0.0085660000000005,-0.0631856,0,sub_12
0.0116949999999997,0.0088568000000012,-0.0181857999999999,-0.0271657999999995,0.0256530000000005,-0.0711338,0,sub_12
0.0102515999999997,0.0074048000000012,-0.0175835999999999,-0.0292439999999995,0.0293172000000005,-0.0799124,0,sub_12
0.0112849999999997,0.0070324000000012,-0.0147225999999999,-0.0287941999999995,0.0276384000000006,-0.0867436,0,sub_12
0.0155219999999997,0.0085678000000012,-0.0105049999999999,-0.0279627999999995,0.0216742000000006,-0.0877982,0,sub_12
0.0182887999999997,0.0105020000000012,-0.0065028,-0.0241555999999995,0.0207822000000006,-0.0811474,0,sub_12
0.0156431999999997,0.0099580000000012,-0.0008652,-0.0209931999999995,0.0254054000000006,-0.0678854,0,sub_12
0.0117361999999997,0.0093178000000012,0.0038459999999999,-0.0180049999999995,0.0440696000000006,-0.0493014,0,sub_12
0.0061629999999997,0.0082964000000012,0.0049743999999999,-0.0141431999999995,0.0689024000000006,-0.0290102,0,sub_12
-0.0013144000000001,0.0054954000000012,0.0039888,-0.0080797999999995,0.0937338000000006,-0.0121222,0,sub_12
-0.0081810000000001,0.0020624000000012,0.002501,-0.0007495999999995,0.1089998000000006,-0.001836,0,sub_12
-0.0089938000000001,0.0014966000000012,-0.0008123999999999,0.0095342000000004,0.1112814000000006,0.0029327999999999,0,sub_12
-0.0071032000000001,0.0006206000000012,-0.0032655999999999,0.0217134000000004,0.1035606000000006,0.0032409999999999,0,sub_12
-0.0058392000000001,-5.119999999877601e-05,-0.0043703999999999,0.0317320000000004,0.0892454000000006,0.0029017999999999,0,sub_12
-0.0045656000000002,0.0004368000000012,-0.0037593999999999,0.0389252000000004,0.0762214000000005,0.0036095999999999,0,sub_12
-0.0075018000000002,-0.0005039999999987,-0.0028095999999999,0.0425114000000004,0.0685328000000005,0.0051399999999999,0,sub_12
-0.0119794000000002,-0.0022447999999987,-0.0012683999999999,0.0437888000000004,0.0691624000000005,0.0064299999999999,0,sub_12
-0.0181334000000002,-0.0035497999999987,0.0005408,0.0429468000000004,0.0727830000000006,0.0074875999999999,0,sub_12
-0.0233958000000002,-0.0066713999999987,0.0036078,0.0391128000000004,0.0734388000000006,0.0066053999999999,0,sub_12
-0.0273078000000002,-0.0096155999999987,0.0055848,0.0333172000000004,0.0630304000000006,0.0038009999999999,0,sub_12
-0.0282020000000002,-0.0113667999999987,0.0072552,0.0268336000000004,0.0409108000000006,-6.160000000007757e-05,0,sub_12
-0.0314072000000002,-0.0123979999999987,0.0069862,0.0136222000000004,-0.0054773999999993,-0.0030856,0,sub_12
-0.0366176000000002,-0.0104049999999987,0.0057056,-0.0054239999999995,-0.0688869999999993,-0.0067692,0,sub_12
-0.0412016000000002,-0.0099649999999987,0.0050032,-0.0104973999999995,-0.1089109999999993,-0.009958,0,sub_12
-0.0488062000000002,-0.0092283999999987,0.0041578,-0.0108745999999995,-0.1485253999999993,-0.0131146,0,sub_12
-0.0554554000000001,-0.0076223999999987,0.0057924,0.0043318000000004,-0.1879751999999993,-0.017658,0,sub_12
-0.0544248000000001,-0.0069869999999987,0.0118016,0.0349770000000004,-0.2089497999999993,-0.020408,0,sub_12
-0.0561084000000001,-0.0121291999999987,0.0133855999999999,0.0615356000000004,-0.2346077999999993,-0.020617,0,sub_12
-0.0614768000000001,-0.0156247999999987,0.0155247999999999,0.0722862000000005,-0.2657437999999993,-0.0224248,0,sub_12
-0.0617964000000001,-0.0180919999999987,0.0201858,0.0795360000000004,-0.2661977999999993,-0.0217326,0,sub_12
-0.0657008000000002,-0.0209499999999987,0.0223822,0.0623944000000004,-0.2751145999999993,-0.0147906,0,sub_12
-0.0751994000000002,-0.0234009999999987,0.021012,0.0322178000000004,-0.2893079999999993,-0.0090012,0,sub_12
-0.0807540000000002,-0.0233341999999987,0.0195564,0.0136630000000005,-0.2832937999999993,-0.0050792,0,sub_12
-0.0825620000000002,-0.0215915999999987,0.0148572,-0.0029895999999994,-0.2809099999999993,-0.0007122,0,sub_12
-0.0854766000000002,-0.0214639999999987,0.0069246,-0.0183197999999994,-0.2683073999999993,0.0045055999999999,0,sub_12
-0.0792234000000002,-0.0171431999999987,-0.0005677999999999,-0.0174045999999994,-0.2031315999999993,0.0084875999999999,0,sub_12
-0.0705290000000001,-0.0123917999999987,-0.0079841999999999,-0.0136435999999994,-0.1183789999999993,0.0160965999999999,0,sub_12
-0.0593812000000001,-0.0086071999999987,-0.0105839999999999,-0.0100891999999995,-0.0295879999999993,0.0262625999999999,0,sub_12
-0.0470696000000001,-0.0059149999999987,-0.0113875999999999,7.300000000048309e-05,0.0604472000000006,0.0392505999999999,0,sub_12
-0.0347804000000001,-0.0017197999999987,-0.0105109999999999,0.0077424000000004,0.1174698000000006,0.0516223999999999,0,sub_12
-0.0267122000000001,-0.0052011999999987,-0.0077817999999999,0.0088400000000004,0.1344694000000006,0.0618631999999998,0,sub_12
-0.0211244000000002,-0.0092769999999987,0.0004572,0.0071138000000004,0.1329728000000006,0.0646303999999999,0,sub_12
-0.0167078000000002,-0.0119589999999987,0.008876,-0.0036065999999995,0.1206564000000006,0.0637165999999999,0,sub_12
-0.0120334000000002,-0.0115011999999987,0.0141752,-0.0278375999999995,0.0883796000000005,0.0578201999999999,0,sub_12
-0.0090910000000002,-0.0123241999999987,0.015365,-0.0524617999999994,0.0654710000000005,0.0538319999999999,0,sub_12
-0.0078028000000002,-0.0078705999999987,0.00959,-0.0727071999999994,0.0681104000000005,0.0506961999999999,0,sub_12
-0.0015736000000002,-0.0018969999999987,-0.0011953999999999,-0.0783627999999995,0.0930518000000006,0.0521201999999999,0,sub_12
0.0053809999999997,0.0031434000000012,-0.0081005999999999,-0.0728905999999995,0.1298666000000006,0.0583069999999999,0,sub_12
0.0114165999999997,0.0076752000000012,-0.0122289999999999,-0.0603537999999994,0.1787726000000006,0.0715779999999998,0,sub_12
0.0156573999999997,0.0116516000000012,-0.0133525999999999,-0.0438157999999995,0.2121270000000006,0.0810511999999998,0,sub_12
0.0229599999999997,0.0130332000000012,-0.0101831999999999,-0.0296719999999995,0.2331402000000006,0.0886005999999998,0,sub_12
0.0261025999999997,0.0120910000000012,-0.0063125999999999,-0.0259861999999995,0.2524898000000006,0.0950107999999998,0,sub_12
0.0274103999999997,0.0124834000000012,-0.0055183999999999,-0.0271867999999995,0.2744218000000006,0.0992471999999998,0,sub_12
0.0245801999999997,0.0090804000000011,-0.0048287999999999,-0.0286727999999995,0.2757070000000006,0.0988077999999999,0,sub_12
0.0221053999999997,0.0050634000000011,-0.0026861999999999,-0.0381579999999995,0.2493408000000006,0.0938613999999998,0,sub_12
0.0208439999999997,0.0023948000000011,-0.0016063999999999,-0.0483023999999995,0.2157450000000006,0.0859287999999998,0,sub_12
0.0205665999999997,0.0006414000000012,0.0003186,-0.0563361999999995,0.1761796000000006,0.0771639999999998,0,sub_12
0.0194515999999997,-0.0005089999999987,0.0046728,-0.0688545999999995,0.1345044000000006,0.0670885999999998,0,sub_12
0.0191115999999997,-0.0001599999999987,0.0046258,-0.0763379999999994,0.1217850000000006,0.0576521999999998,0,sub_12
0.0187853999999997,0.0009916000000012,0.0041643999999999,-0.0740939999999995,0.1392760000000006,0.0505951999999999,0,sub_12
0.0119441999999997,0.0012198000000012,0.0047145999999999,-0.0748325999999995,0.1480304000000006,0.0448097999999999,0,sub_12
0.0055807999999997,0.0030922000000012,0.0034045999999999,-0.0781611999999994,0.1508256000000006,0.0396549999999999,0,sub_12
0.0020925999999997,0.0046318000000012,-0.0016594,-0.0751307999999994,0.1471950000000006,0.0375439999999999,0,sub_12
-0.0012298000000002,0.0078994000000012,-0.004313,-0.0740763999999994,0.1320626000000006,0.0362883999999999,0,sub_12
-0.0025984000000002,0.0108082000000012,-0.0088675999999999,-0.0738705999999994,0.1199084000000006,0.0369457999999999,0,sub_12
-0.0015222000000002,0.0128914000000012,-0.0137101999999999,-0.0717817999999994,0.1137070000000006,0.0408139999999999,0,sub_12
0.0002699999999997,0.0146706000000012,-0.0191833999999999,-0.0679717999999995,0.1113322000000006,0.0453301999999999,0,sub_12
0.0006023999999997,0.0148382000000012,-0.0231977999999999,-0.0615619999999994,0.1155616000000006,0.0477195999999999,0,sub_12
0.0025043999999997,0.0138774000000012,-0.0258711999999999,-0.0560641999999994,0.1067978000000006,0.0501193999999999,0,sub_12
0.0082351999999997,0.0143742000000012,-0.0249233999999999,-0.0469385999999995,0.0957572000000006,0.0476371999999999,0,sub_12
0.0129195999999997,0.0154508000000012,-0.0239669999999999,-0.0392605999999994,0.0970704000000006,0.0472653999999999,0,sub_12
0.0131689999999997,0.0147920000000012,-0.0221991999999999,-0.0345965999999995,0.0917918000000006,0.0462399999999999,0,sub_12
0.0098527999999997,0.0129336000000012,-0.0205033999999999,-0.0335839999999995,0.0778042000000005,0.0417819999999999,0,sub_12
0.0078591999999997,0.0109764000000012,-0.0186221999999999,-0.0322983999999994,0.0755398000000005,0.0358153999999999,0,sub_12
0.0024067999999997,0.0085220000000012,-0.0177783999999999,-0.0361343999999995,0.0778916000000005,0.0370673999999999,0,sub_12
-0.0027160000000002,0.0050802000000012,-0.0129237999999999,-0.0372279999999995,0.0704444000000005,0.0355737999999999,0,sub_12
-0.0053704000000002,0.0025998000000012,-0.0080269999999999,-0.0363839999999994,0.0659768000000006,0.0332353999999999,0,sub_12
-0.0020904000000002,0.0027300000000012,-0.0042881999999999,-0.0353353999999994,0.0646838000000006,0.0360215999999999,0,sub_12
0.0001407999999997,0.0040056000000012,-0.0008211999999999,-0.0336791999999995,0.0597522000000006,0.0424487999999999,0,sub_12
0.0005871999999997,0.0056398000000012,0.0001334,-0.0341777999999995,0.0497164000000006,0.0484401999999999,0,sub_12
0.0005469999999997,0.0084534000000012,-0.0039609999999999,-0.0355367999999995,0.0377678000000006,0.0540007999999999,0,sub_12
-0.0005924000000002,0.0105052000000012,-0.0093675999999999,-0.0340787999999995,0.0345480000000006,0.0587151999999999,0,sub_12
-0.0036444000000002,0.0090012000000012,-0.0118779999999999,-0.0309269999999995,0.0234588000000006,0.0585377999999999,0,sub_12
-0.0025254000000002,0.0087172000000012,-0.0145221999999999,-0.0311931999999994,0.0068610000000006,0.0536433999999998,0,sub_12
0.0030973999999997,0.0056988000000012,-0.0112279999999999,-0.0232839999999994,0.0053608000000006,0.0490003999999998,0,sub_12
0.0075095999999997,0.0007444000000012,-0.0056437999999999,-0.0177677999999994,-0.0067821999999993,0.0439269999999999,0,sub_12
0.0089843999999997,-0.0021087999999987,0.0005404,-0.0182863999999995,-0.0319021999999993,0.0392553999999999,0,sub_12
0.0082323999999997,-0.0019893999999987,0.0010408,-0.0210947999999995,-0.0401989999999993,0.0386055999999999,0,sub_12
0.0055415999999997,-0.0028881999999987,0.002961,-0.0219289999999995,-0.0338129999999993,0.0407279999999999,0,sub_12
0.0017359999999997,0.0007352000000012,-0.0067849999999999,-0.0263723999999995,-0.0244273999999993,0.0417531999999999,0,sub_12
0.0013365999999997,0.0050716000000012,-0.0165687999999999,-0.0207077999999995,0.0026066000000006,0.0428263999999999,0,sub_12
0.0045569999999997,0.0064972000000011,-0.0202337999999999,-0.0131601999999995,0.0198394000000006,0.0424297999999999,0,sub_12
0.0109349999999997,0.0076696000000011,-0.0217191999999999,-0.0071233999999995,0.0296352000000006,0.0384001999999999,0,sub_12
0.0163145999999997,0.0080742000000012,-0.0246691999999999,0.0017302000000004,0.0487964000000005,0.0341645999999999,0,sub_12
0.0161787999999997,0.0044912000000012,-0.0183095999999999,0.0054140000000004,0.0564734000000006,0.0292665999999999,0,sub_12
0.0121781999999997,0.0025012000000012,-0.0140805999999999,-0.0009477999999995,0.0582284000000006,0.0221695999999999,0,sub_12
0.0106485999999997,0.0026880000000012,-0.0160063999999999,0.0002734000000004,0.0861602000000006,0.0157329999999999,0,sub_12
0.0081593999999997,0.0001732000000012,-0.0135481999999999,0.0046588000000004,0.1066214000000006,0.0099689999999999,0,sub_12
0.0037335999999997,-0.0010697999999987,-0.0078031999999999,0.0010680000000004,0.1064542000000006,0.0016119999999999,0,sub_12
0.0029157999999997,-0.0014435999999987,-0.0049431999999999,0.0003038000000004,0.1169342000000006,-0.007807,0,sub_12
0.0012829999999997,-0.0013869999999987,-0.0015845999999999,0.0012070000000004,0.1195218000000006,-0.0163498,0,sub_12
-0.0034370000000002,0.0036566000000012,-0.0042061999999999,-0.0220155999999995,0.0727596000000006,-0.023716,0,sub_12
0.0037277999999997,0.0112760000000012,-0.0074017999999999,-0.0293287999999995,0.0621230000000005,-0.0214034,0,sub_12
0.0033067999999997,0.0103128000000012,-0.0114343999999999,-0.0274209999999995,0.0642272000000006,-0.016479,0,sub_12
0.0007441999999997,0.0139348000000012,-0.0159745999999999,-0.0283693999999995,0.0475942000000006,-0.0119778,0,sub_12
0.0093409999999997,0.0181072000000012,-0.0194109999999999,-0.0250281999999995,0.0430614000000006,-0.0001982,0,sub_12
0.0178393999999997,0.0147296000000012,-0.0140951999999999,-0.0021541999999995,0.0665744000000006,0.0140319999999999,0,sub_12
0.0085051999999997,0.0090300000000012,-0.0129021999999999,0.0022586000000004,0.0554638000000006,0.0181361999999999,0,sub_12
0.0103177999999997,0.0098660000000012,-0.0119343999999999,0.0054026000000004,0.0469144000000006,0.0222283999999999,0,sub_12
0.0120453999999998,0.0058336000000012,-0.0079909999999999,0.0085706000000004,0.0443278000000006,0.0269539999999999,0,sub_12
0.0034427999999998,0.0009048000000012,-0.0028955999999999,0.0064194000000004,0.0398200000000006,0.0250105999999999,0,sub_12
-0.0045736000000001,-0.0030275999999987,-0.0022183999999999,0.0011616000000005,0.0523828000000006,0.0191779999999999,0,sub_12
-0.0060634000000001,-0.0034365999999987,-0.0012755999999999,-0.0036655999999994,0.0679184000000006,0.0154809999999999,0,sub_12
-0.0098818000000001,-0.0022763999999987,-0.0030543999999999,-0.0100485999999994,0.0691864000000006,0.0113641999999999,0,sub_12
-0.0109134000000001,-0.0001783999999987,-0.0062573999999999,-0.0117307999999994,0.0738392000000006,0.0091985999999999,0,sub_12
-0.0100688000000001,0.0006808000000012,-0.0110673999999999,-0.0110723999999995,0.0766116000000006,0.0079177999999999,0,sub_12
-0.0086268000000001,0.0029824000000012,-0.0134261999999999,-0.0070461999999995,0.0712678000000006,0.0088071999999999,0,sub_12
-0.0069824000000001,0.0031400000000012,-0.0139699999999999,-0.0008785999999995,0.0671964000000006,0.0092827999999999,0,sub_12
-0.0057108000000001,0.0016090000000012,-0.0133449999999999,0.0038118000000004,0.0648424000000006,0.0078229999999999,0,sub_12
-0.0043932000000001,0.0003806000000012,-0.0129323999999999,0.0050642000000004,0.0548398000000006,0.0039989999999999,0,sub_12
-0.0014514000000001,4.68000000012432e-05,-0.0117117999999999,0.0054420000000004,0.0395164000000006,-0.0004654,0,sub_12
0.0006203999999998,-0.0015481999999987,-0.0104123999999999,0.0034566000000004,0.0193060000000006,-0.0062216,0,sub_12
0.0016497999999998,-0.0021423999999987,-0.0091577999999999,-2.3599999999517064e-05,-0.0019609999999993,-0.0128416,0,sub_12
7.599999999834822e-06,-0.0024987999999987,-0.0091489999999999,-0.0041237999999994,-0.0187515999999993,-0.0194718,0,sub_12
-0.0013118000000001,-0.0027721999999987,-0.0090623999999999,-0.0079999999999994,-0.0321383999999993,-0.0250364,0,sub_12
-0.0016430000000001,-0.0013895999999987,-0.0102279999999999,-0.0110217999999994,-0.0440417999999993,-0.029315,0,sub_12
-0.0014660000000001,0.0013138000000012,-0.0118573999999999,-0.0125403999999994,-0.0525467999999993,-0.0323058,0,sub_12
-0.0020060000000001,0.0039196000000012,-0.0141947999999999,-0.0119135999999994,-0.0580781999999993,-0.034858,0,sub_12
0.0006679999999997,0.0060950000000012,-0.0157505999999999,-0.0078873999999994,-0.0646953999999993,-0.0352486,0,sub_12
