userAcceleration.x,userAcceleration.y,userAcceleration.z,rotationRate.x,rotationRate.y,rotationRate.z,label,subject
-0.0034898000000002,0.0061440000000012,0.0037545999999999,0.0078696000000004,-0.0006615999999989,-0.0014704,0,sub_4
-0.0029976000000002,0.0061400000000012,0.0017287999999999,0.0095990000000004,0.000468400000001,-0.0025678,0,sub_4
-0.0016276000000002,0.0054022000000012,0.0026373999999999,0.0102364000000004,0.000675800000001,-0.0017092,0,sub_4
-0.0016660000000003,0.0051614000000012,0.0034363999999999,0.0091696000000004,0.002589200000001,0.0002035999999999,0,sub_4
-0.0025358000000003,0.0049480000000012,0.0035661999999999,0.0078866000000004,0.004076400000001,0.0023291999999999,0,sub_4
-0.0043018000000003,0.0053468000000012,0.0024773999999999,0.0074590000000004,0.004971800000001,0.0037785999999999,0,sub_4
-0.0049380000000003,0.0058210000000012,0.0016263999999999,0.0083124000000004,0.005014800000001,0.0041697999999999,0,sub_4
-0.0065010000000002,0.0062104000000012,0.0009087999999999,0.0098136000000004,0.005486800000001,0.0032831999999999,0,sub_4
-0.0061268000000002,0.0048396000000012,0.0015549999999999,0.0100404000000004,0.007029400000001,0.0021725999999999,0,sub_4
-0.0044254000000002,0.0040264000000012,0.0027249999999999,0.0094106000000004,0.007087000000001,0.0002031999999999,0,sub_4
-0.0017444000000003,0.0034100000000012,0.0050279999999999,0.0074786000000004,0.003264000000001,-0.0010872,0,sub_4
-0.0013452000000003,0.0039456000000012,0.0054695999999998,0.0044800000000004,0.000930000000001,-0.0008916,0,sub_4
-0.0016282000000003,0.0047900000000012,0.0051481999999998,0.0025414000000004,-0.0033235999999989,-0.0011134,0,sub_4
-0.0024036000000003,0.0064072000000012,0.0035373999999998,0.0033672000000004,-0.0098735999999989,-0.0026336,0,sub_4
-0.0041350000000003,0.0063714000000012,0.0039067999999998,0.0044198000000004,-0.0123805999999989,-0.0030892,0,sub_4
-0.0065402000000003,0.0059296000000012,0.0040805999999999,0.0059202000000004,-0.0095653999999989,-0.0029076,0,sub_4
-0.0077186000000003,0.0054736000000012,0.0044605999999999,0.0076310000000004,-0.008238799999999,-0.003577,0,sub_4
-0.0076638000000003,0.0049920000000012,0.0043231999999999,0.0089112000000004,-0.007975199999999,-0.0044618,0,sub_4
-0.0071992000000002,0.0036212000000012,0.0057929999999999,0.0093408000000004,-0.007761999999999,-0.0048864,0,sub_4
-0.0050464000000002,0.0024746000000012,0.0064981999999999,0.0084892000000004,-0.007120799999999,-0.0046794,0,sub_4
-0.0028862000000002,0.0019006000000012,0.0073615999999999,0.0065544000000004,-0.006419999999999,-0.0036582,0,sub_4
-0.0023286000000002,0.0022100000000012,0.0085481999999999,0.0037640000000004,-0.004869199999999,-0.0013624,0,sub_4
-0.0039996000000002,0.0024186000000012,0.0076033999999999,0.0003356000000004,-0.002889999999999,0.0009283999999999,0,sub_4
-0.0054370000000003,0.0039972000000012,0.0049647999999999,-0.0020299999999995,-0.003676599999999,0.0013073999999999,0,sub_4
-0.0062684000000003,0.0056950000000012,0.0024421999999999,-0.0016215999999995,-0.0059581999999989,0.0002121999999999,0,sub_4
-0.0060572000000003,0.0053820000000012,0.0022287999999999,8.920000000045749e-05,-0.0065973999999989,-0.0012706,0,sub_4
-0.0046366000000003,0.0039004000000012,0.0036307999999999,0.0011676000000004,-0.0053177999999989,-0.0025466,0,sub_4
-0.0023628000000003,0.0032938000000012,0.0067825999999999,0.0009504000000004,-0.0068057999999989,-0.003187,0,sub_4
-0.0013666000000003,0.0025962000000012,0.0087539999999999,-0.0011975999999995,-0.0089329999999989,-0.002131,0,sub_4
-0.0031236000000003,0.0022784000000012,0.0081391999999999,-0.0037913999999995,-0.009737399999999,-0.0011078,0,sub_4
-0.0045060000000003,0.0033086000000012,0.0066557999999999,-0.0053173999999994,-0.010969199999999,-0.0007176,0,sub_4
-0.0053642000000003,0.0031826000000012,0.0057335999999999,-0.0064107999999994,-0.0115605999999989,-0.000966,0,sub_4
-0.0057894000000003,0.0025870000000012,0.0068721999999999,-0.0079203999999994,-0.0089581999999989,-0.000367,0,sub_4
-0.0065870000000003,0.0033478000000012,0.0060393999999999,-0.0094329999999994,-0.0065705999999989,0.0006597999999999,0,sub_4
-0.0067252000000003,0.0043332000000012,0.0052489999999999,-0.0113581999999994,-0.0065681999999989,0.0017145999999999,0,sub_4
-0.0080734000000003,0.0055756000000012,0.0019265999999999,-0.0120049999999994,-0.0076327999999989,0.0021387999999999,0,sub_4
-0.0071698000000003,0.0060862000000012,0.0004259999999999,-0.0107547999999995,-0.0067603999999989,0.0021271999999999,0,sub_4
-0.0056664000000003,0.0055824000000012,-0.0013682,-0.0073613999999995,-0.0046137999999989,0.0012745999999999,0,sub_4
-0.0024626000000003,0.0044878000000012,0.0010279999999999,-0.0052443999999995,-0.0016103999999989,0.0004117999999999,0,sub_4
-0.0014896000000003,0.0032626000000012,0.0030405999999999,-0.0050571999999995,-9.419999999899664e-05,0.0001783999999999,0,sub_4
-0.0010274000000003,0.0023828000000012,0.0055171999999999,-0.0078775999999994,-0.0026173999999989,0.0003563999999999,0,sub_4
-0.0035916000000003,0.0027998000000012,0.0046909999999999,-0.0108839999999994,-0.0066557999999989,0.0005541999999999,0,sub_4
-0.0053904000000003,0.0036554000000012,0.0050217999999999,-0.0138769999999994,-0.0072869999999989,0.0011749999999998,0,sub_4
-0.0065518000000003,0.0039494000000012,0.0048709999999999,-0.0145103999999994,-0.005793399999999,0.0011685999999999,0,sub_4
-0.0050898000000003,0.0044120000000012,0.0069805999999999,-0.0153513999999994,-0.002596399999999,0.0015857999999999,0,sub_4
-0.0055858000000003,0.0051744000000012,0.0067869999999999,-0.0153723999999995,0.0018864000000009,0.0026361999999999,0,sub_4
-0.0059392000000003,0.0054854000000012,0.0064307999999999,-0.0147611999999995,0.0038136000000009,0.0028397999999999,0,sub_4
-0.0058524000000003,0.0048944000000012,0.0051709999999998,-0.0124525999999995,0.0014824000000009,0.0009239999999999,0,sub_4
-0.0046540000000003,0.0040334000000012,0.0049741999999998,-0.0107801999999994,0.000217800000001,-0.0007838,0,sub_4
-0.0036840000000003,0.0036152000000012,0.0048085999999998,-0.0088945999999994,1.3600000001003262e-05,-0.0014232,0,sub_4
-0.0024920000000003,0.0032006000000012,0.0065631999999998,-0.0080343999999994,0.001077600000001,-0.0018458,0,sub_4
-0.0020188000000003,0.0031980000000012,0.0077653999999998,-0.0073913999999994,0.001714600000001,-0.0018422,0,sub_4
-0.0032544000000003,0.0040936000000012,0.0078761999999999,-0.0076191999999994,-0.0010559999999989,-0.0014128,0,sub_4
-0.0049896000000003,0.0041898000000012,0.0083705999999999,-0.0083093999999995,-0.0040145999999989,-0.0012004,0,sub_4
-0.0055140000000003,0.0037166000000012,0.0090719999999999,-0.0087735999999995,-0.0054775999999989,-0.0022702,0,sub_4
-0.0043518000000003,0.0032164000000012,0.0102249999999999,-0.0096657999999995,-0.0063031999999989,-0.0024892,0,sub_4
-0.0039588000000003,0.0041590000000012,0.0094987999999999,-0.0097033999999995,-0.0064943999999989,-0.0022758,0,sub_4
-0.0036656000000002,0.0044394000000012,0.0088635999999999,-0.0090911999999995,-0.0049817999999989,-0.0024874,0,sub_4
-0.0042690000000002,0.0049980000000012,0.0064249999999999,-0.0078099999999995,-0.0064707999999989,-0.0041858,0,sub_4
-0.0036010000000002,0.0036552000000012,0.0061667999999999,-0.0071833999999995,-0.0111533999999989,-0.0058846,0,sub_4
-0.0032750000000002,0.0028334000000012,0.0057841999999999,-0.0071871999999995,-0.0126421999999989,-0.0065236,0,sub_4
-0.0036004000000002,0.0018776000000012,0.0068333999999999,-0.0091339999999995,-0.0134573999999989,-0.0063182,0,sub_4
-0.0043454000000002,0.0017962000000012,0.0065813999999999,-0.0113019999999995,-0.0153397999999989,-0.0054722,0,sub_4
-0.0059154000000002,0.0022772000000012,0.0072357999999999,-0.0117619999999995,-0.0161661999999989,-0.003761,0,sub_4
-0.0088568000000002,0.0036700000000012,0.0070109999999998,-0.0109195999999994,-0.0123089999999989,-0.0022604,0,sub_4
-0.0093242000000002,0.0039004000000012,0.0083721999999999,-0.0079329999999994,-0.0076011999999989,-0.0022416,0,sub_4
-0.0079032000000002,0.0037490000000012,0.0108083999999998,-0.0055715999999994,-0.0039891999999989,-0.0018026,0,sub_4
-0.0067660000000002,0.0035298000000012,0.0121031999999998,-0.0044911999999994,0.000687400000001,-9.180000000007116e-05,0,sub_4
-0.0064838000000002,0.0032150000000012,0.0117285999999998,-0.0048993999999994,0.005615600000001,0.0016109999999999,0,sub_4
-0.0052732000000002,0.0035584000000012,0.0101079999999999,-0.0042543999999995,0.006496400000001,0.0022581999999999,0,sub_4
-0.0036390000000003,0.0033862000000012,0.0085129999999999,-0.0036131999999995,0.006100600000001,0.0024797999999999,0,sub_4
-0.0027156000000003,0.0028994000000012,0.0068469999999998,-0.0027537999999995,0.006557000000001,0.0024881999999999,0,sub_4
-0.0031234000000003,0.0036914000000012,0.0068375999999998,-0.0023221999999994,0.007014200000001,0.0027069999999999,0,sub_4
-0.0031052000000003,0.0042308000000012,0.0060535999999998,-0.0012573999999994,0.005947800000001,0.0020749999999999,0,sub_4
-0.0034670000000003,0.0044040000000012,0.0059275999999998,1.3400000000516645e-05,0.002751800000001,0.0010197999999999,0,sub_4
-0.0043240000000002,0.0038822000000012,0.0066539999999998,0.0008622000000005,0.000834600000001,0.0001735999999999,0,sub_4
-0.0034136000000002,0.0033400000000012,0.0086243999999999,0.0015072000000005,0.001685400000001,-3.6800000000050856e-05,0,sub_4
-0.0031318000000002,0.0025572000000012,0.0104195999999999,0.0013228000000005,0.0017164000000009,-3.860000000005092e-05,0,sub_4
-0.0035764000000002,0.0024104000000012,0.0110767999999999,-0.0007895999999994,0.0013228000000009,0.0012283999999999,0,sub_4
-0.0053424000000002,0.0038782000000012,0.0085873999999999,-0.0020457999999994,0.0017776000000009,0.0027139999999999,0,sub_4
-0.0070648000000002,0.0054996000000012,0.0057651999999999,-0.0009577999999994,9.980000000098184e-05,0.0027231999999999,0,sub_4
-0.0073188000000002,0.0053128000000012,0.0044625999999999,0.0014192000000005,-0.000513799999999,0.0018855999999999,0,sub_4
-0.0050508000000003,0.0044890000000012,0.0047721999999999,0.0037768000000004,0.0009728000000009,0.0010455999999999,0,sub_4
-0.0033190000000003,0.0042128000000012,0.0065597999999999,0.0054876000000004,0.001607000000001,0.0008431999999999,0,sub_4
-0.0024914000000003,0.0034514000000012,0.0079055999999999,0.0055224000000004,0.000137400000001,0.0006333999999999,0,sub_4
-0.0030902000000003,0.0041788000000012,0.0068793999999999,0.0042646000000004,-0.0038851999999989,0.0006313999999999,0,sub_4
-0.0050548000000003,0.0054180000000012,0.0052969999999999,0.0030096000000004,-0.0081173999999989,-0.0002248,0,sub_4
-0.0065588000000003,0.0060484000000012,0.0045949999999999,0.0034750000000004,-0.0093727999999989,-0.0010728,0,sub_4
-0.0064664000000003,0.0058330000000012,0.0063151999999999,0.0058694000000004,-0.0089297999999989,-0.0021232,0,sub_4
-0.0062214000000003,0.0052948000000012,0.0096859999999999,0.0090872000000004,-0.0046815999999989,-0.001679,0,sub_4
-0.0066520000000003,0.0038954000000011,0.0113455999999999,0.0112334000000004,-0.0012827999999989,-0.0010274,0,sub_4
-0.0063738000000002,0.0028910000000011,0.0114499999999999,0.0114410000000004,-0.0025619999999989,-0.0010244,0,sub_4
-0.0041906000000002,0.0019128000000011,0.0101651999999999,0.0088720000000004,-0.0053193999999989,-0.0018934,0,sub_4
-0.0022802000000002,0.0021386000000012,0.0080417999999999,0.0059352000000004,-0.004638399999999,-0.0019056,0,sub_4
-0.0003838000000002,0.0028666000000012,0.0069609999999999,0.0025650000000004,-0.004810599999999,-0.0012788,0,sub_4
-0.0004538000000002,0.0057218000000012,0.0077937999999999,0.0011210000000004,-0.003711199999999,-0.0006402,0,sub_4
-0.0020452000000003,0.0096542000000012,0.0086005999999999,0.0020384000000005,0.0003636000000009,-0.0002024,0,sub_4
-0.0047182000000003,0.0102706000000012,0.0088365999999999,0.0081016000000005,0.0088988000000009,-0.0008028,0,sub_4
-0.0063174000000003,0.0090680000000012,0.0093959999999999,0.0196918000000005,0.0203780000000009,-0.0043686,0,sub_4
-0.0074876000000003,0.0088922000000012,0.0123325999999999,0.0325718000000005,0.0318612000000009,-0.0100616,0,sub_4
-0.0051878000000003,0.0054566000000012,0.0172497999999999,0.0446468000000005,0.0435906000000009,-0.0159646,0,sub_4
-0.0023568000000003,0.0012998000000012,0.0208063999999999,0.0558712000000004,0.0574476000000009,-0.020381,0,sub_4
-0.0010636000000003,0.0019162000000012,0.0250723999999999,0.0644748000000004,0.0578912000000009,-0.0247984,0,sub_4
-0.0011532000000002,0.0038560000000012,0.0283211999999999,0.0681266000000004,0.049188000000001,-0.0285978,0,sub_4
-0.0010884000000002,0.0028182000000012,0.0265047999999999,0.0720024000000004,0.043039800000001,-0.0321854,0,sub_4
-0.0013388000000002,0.0027698000000012,0.0225349999999998,0.0781806000000004,0.036007000000001,-0.0370472,0,sub_4
-0.0009846000000002,0.0027208000000012,0.0192065999999998,0.0873612000000004,0.030675000000001,-0.0435992,0,sub_4
0.0010201999999997,0.0007870000000012,0.0160585999999998,0.0987140000000004,0.034282000000001,-0.0497202,0,sub_4
0.0045803999999996,-2.559999999875006e-05,0.0143233999999998,0.1128648000000004,0.0432056000000009,-0.0558284,0,sub_4
0.0095445999999996,-0.0018341999999987,0.0153641999999998,0.1249242000000004,0.0559750000000009,-0.0600296,0,sub_4
0.0160595999999997,-0.0046011999999987,0.0177609999999999,0.1295250000000005,0.0745086000000009,-0.0606584,0,sub_4
0.0232639999999997,-0.0072007999999987,0.0204753999999999,0.1270378000000004,0.0849614000000009,-0.0589764,0,sub_4
0.0276467999999997,-0.0070923999999987,0.0228291999999999,0.1182994000000004,0.0843452000000009,-0.0543328,0,sub_4
0.0272019999999997,-0.0064179999999987,0.0238723999999999,0.1028984000000005,0.077131200000001,-0.045668,0,sub_4
0.0218249999999997,-0.0016061999999987,0.0216257999999999,0.0827330000000005,0.063736400000001,-0.0351096,0,sub_4
0.0111389999999996,0.0057888000000012,0.0163329999999999,0.0642468000000004,0.041398400000001,-0.0273052,0,sub_4
-0.0017072000000003,0.0120186000000012,0.0108073999999999,0.0536726000000004,0.016077400000001,-0.0262784,0,sub_4
-0.0118054000000003,0.0148838000000012,0.0034167999999999,0.0553798000000004,0.005032000000001,-0.0339414,0,sub_4
-0.0155766000000002,0.0151402000000012,-0.0041538,0.0682696000000004,0.006757600000001,-0.0481656,0,sub_4
-0.0146648000000002,0.0138612000000012,-0.0082218,0.0914598000000004,0.017199600000001,-0.0666018,0,sub_4
-0.0091664000000002,0.0110982000000012,-0.009772,0.1215240000000004,0.039541600000001,-0.0832962,0,sub_4
-0.0021228000000002,0.0083608000000012,-0.0111022,0.1481732000000005,0.066987600000001,-0.0946798,0,sub_4
0.0053109999999997,0.0108728000000012,-0.0135796,0.1670286000000005,0.076965400000001,-0.1020384,0,sub_4
0.0100423999999996,0.0256676000000012,-0.016072,0.1798042000000005,0.063315800000001,-0.1096228,0,sub_4
0.0143053999999997,0.0327696000000012,-0.0205522,0.1886518000000005,0.029655200000001,-0.11785,0,sub_4
0.0177761999999996,0.0334568000000012,-0.0273974,0.2043072000000005,-0.0097763999999989,-0.1273042,0,sub_4
0.0215519999999996,0.0326642000000012,-0.0283564,0.2470182000000004,-0.0168957999999989,-0.1421654,0,sub_4
0.0261635999999996,0.0270252000000012,-0.0199126,0.2875334000000005,0.017506800000001,-0.1491904,0,sub_4
0.0335283999999996,0.0081930000000012,-0.0046046,0.3127760000000005,0.0838734000000009,-0.144399,0,sub_4
0.0373791999999996,-0.0025583999999987,0.0140495999999999,0.3326824000000005,0.1549254000000009,-0.1345234,0,sub_4
0.0401801999999996,-0.0079047999999987,0.0355091999999999,0.3335904000000004,0.1793742000000009,-0.122157,0,sub_4
0.0405335999999996,-0.0112531999999987,0.0512747999999999,0.2915038000000004,0.1393906000000009,-0.1033854,0,sub_4
0.0351937999999996,-0.0046693999999987,0.0494309999999999,0.2295290000000004,0.039617800000001,-0.0872398,0,sub_4
0.0265809999999996,0.0065950000000012,0.0389669999999999,0.1605230000000004,-0.1108153999999989,-0.0766332,0,sub_4
0.0192099999999996,0.0170164000000012,0.0237275999999999,0.0784774000000005,-0.2673783999999989,-0.0669644,0,sub_4
0.0014055999999996,0.0271860000000012,-0.0249,0.0340558000000005,-0.3639789999999989,-0.0601006,0,sub_4
-0.0148216000000003,0.0326802000000012,-0.0659344,0.1063804000000004,-0.3822765999999989,-0.075809,0,sub_4
-0.0140428000000003,0.0218678000000012,-0.0636560000000001,0.1835066000000004,-0.2901943999999989,-0.0999574,0,sub_4
-0.0065678000000003,0.0074372000000012,-0.0485310000000001,0.2390120000000005,-0.1083819999999989,-0.1139032,0,sub_4
0.0024217999999996,-0.0050867999999987,-0.0317166,0.3090306000000004,0.077839400000001,-0.1241212,0,sub_4
0.0164375999999996,-0.0119109999999987,0.0149737999999999,0.3403258000000005,0.193887600000001,-0.1345198,0,sub_4
0.0236037999999996,-0.0106565999999987,0.0517131999999999,0.2422842000000004,0.187559600000001,-0.1187458,0,sub_4
0.0150335999999996,-0.0018965999999987,0.0531913999999999,0.1259230000000004,0.056614200000001,-0.0920442,0,sub_4
-0.0074858000000003,0.0078152000000012,0.0146995999999999,0.0624682000000004,-0.137102399999999,-0.077925,0,sub_4
-0.0280814000000002,0.0122848000000012,-0.0150176,0.0785004000000005,-0.284333999999999,-0.0891612,0,sub_4
-0.0398124000000002,0.0124046000000012,-0.0328994,0.0910376000000004,-0.305007399999999,-0.098234,0,sub_4
-0.0382148000000002,0.0094618000000012,-0.0334490000000001,0.1100718000000004,-0.201524199999999,-0.099302,0,sub_4
-0.0309996000000002,0.0040864000000012,-0.0309230000000001,0.1646764000000004,-0.064927799999999,-0.1003776,0,sub_4
-0.0144110000000002,-0.0014485999999987,0.0024145999999999,0.2022184000000004,0.025921000000001,-0.1015136,0,sub_4
-0.0018704000000002,-0.0013217999999987,0.0237435999999999,0.1524950000000005,0.044973800000001,-0.0811618,0,sub_4
0.0018665999999996,0.0018716000000012,0.0290613999999999,0.1154938000000005,-0.0007887999999989,-0.0602108,0,sub_4
-0.0044406000000003,0.0043628000000012,0.0193139999999999,0.1023012000000005,-0.0787563999999989,-0.0514436,0,sub_4
-0.0145312000000003,0.0050988000000012,0.0112149999999999,0.0888198000000004,-0.1311355999999989,-0.0478386,0,sub_4
-0.0235332000000003,0.0031300000000012,0.0053695999999999,0.0800628000000005,-0.130051599999999,-0.0449102,0,sub_4
-0.0290498000000003,-0.0004529999999987,0.0069399999999999,0.0763400000000004,-0.102347199999999,-0.0434762,0,sub_4
-0.0297852000000003,-0.0057481999999987,0.0169577999999999,0.0653242000000004,-0.0827151999999989,-0.0416554,0,sub_4
-0.0294434000000002,-0.0101187999999987,0.0239445999999999,0.0433652000000005,-0.0758317999999989,-0.0390402,0,sub_4
-0.0303788000000002,-0.0078349999999987,0.0243851999999999,0.0176974000000005,-0.0874695999999989,-0.0368546,0,sub_4
-0.0337478000000002,-0.0029685999999987,0.0178307999999999,-0.0034839999999995,-0.0993301999999989,-0.0361328,0,sub_4
-0.0372812000000002,-0.0005593999999987,0.0096145999999999,-0.0151695999999995,-0.0852397999999989,-0.0332414,0,sub_4
-0.0374120000000002,0.0008482000000012,0.0005721999999999,-0.0216235999999995,-0.0515349999999989,-0.0324712,0,sub_4
-0.0328802000000002,-0.0009343999999987,-0.0004768,-0.0223329999999994,-0.0229577999999989,-0.0331498,0,sub_4
-0.0272996000000002,-0.0028667999999987,0.0036063999999999,-0.0230337999999994,0.009234400000001,-0.0321236,0,sub_4
-0.0235364000000002,-0.0024785999999987,0.0095785999999999,-0.0297635999999994,0.034184200000001,-0.0262166,0,sub_4
-0.0263128000000002,0.0011756000000012,0.0076065999999999,-0.0393351999999994,0.041895000000001,-0.0224438,0,sub_4
-0.0303466000000003,0.0025446000000012,0.0020609999999999,-0.0419185999999994,0.0391248000000009,-0.0201082,0,sub_4
-0.0332882000000003,0.0055604000000012,-0.0058358,-0.0390987999999994,0.0512514000000009,-0.0181812,0,sub_4
-0.0321556000000003,0.0065880000000012,-0.0117504,-0.0321529999999994,0.077645200000001,-0.017953,0,sub_4
-0.0261592000000003,0.0053280000000012,-0.0144572,-0.0249735999999994,0.1066026000000009,-0.019649,0,sub_4
-0.0127094000000003,0.0017296000000012,-0.0096488,-0.0236253999999994,0.1221492000000009,-0.0192322,0,sub_4
-0.0001516000000003,0.0008474000000012,-0.004705,-0.0328005999999995,0.126213000000001,-0.0152422,0,sub_4
0.0074221999999996,0.0054612000000012,-0.0042068,-0.0473787999999995,0.1175022000000009,-0.0087098,0,sub_4
0.0123601999999996,0.0093728000000012,-0.0077588,-0.0594559999999994,0.0959976000000009,-0.0017162,0,sub_4
0.0153507999999996,0.0095108000000012,-0.012066,-0.0642325999999995,0.0829964000000009,0.0036081999999999,0,sub_4
0.0171861999999996,0.0113144000000012,-0.0157552,-0.0617055999999994,0.0774404000000009,0.0055557999999999,0,sub_4
0.0184633999999996,0.0151338000000012,-0.0140004,-0.0532051999999994,0.0697408000000009,0.0056249999999999,0,sub_4
0.0197153999999996,0.0144224000000012,-0.0101504,-0.0436351999999994,0.0635252000000009,0.0065543999999999,0,sub_4
0.0165829999999997,0.0114846000000012,-0.0053506,-0.0346975999999994,0.061138400000001,0.0096107999999999,0,sub_4
0.0123047999999997,0.0110108000000012,-0.0023042,-0.0244979999999994,0.055548000000001,0.0135347999999999,0,sub_4
0.0067377999999996,0.0093952000000012,-0.0007652,-0.0151421999999994,0.050181200000001,0.0155297999999999,0,sub_4
0.0029363999999997,0.0054432000000012,0.0006171999999999,-0.0081123999999995,0.044841200000001,0.0128083999999999,0,sub_4
-0.0004976000000002,0.0027246000000012,0.0049391999999999,-0.0021897999999995,0.027374000000001,0.0068899999999999,0,sub_4
-0.0027842000000003,0.0020576000000012,0.0068869999999999,0.0029274000000004,0.020137800000001,0.0005257999999999,0,sub_4
-0.0015178000000003,0.0036552000000012,0.0098639999999999,-0.0001037999999995,0.002072000000001,-0.0078044,0,sub_4
0.0015701999999996,0.0046276000000012,0.0137799999999999,-0.0067729999999995,-0.0151415999999989,-0.0129564,0,sub_4
-0.0009296000000003,0.0060910000000012,0.0157095999999999,-0.0176797999999995,-0.0157621999999989,-0.008118,0,sub_4
-0.0047296000000003,0.0038562000000012,0.0129667999999999,-0.0255399999999994,0.001696400000001,0.0016323999999999,0,sub_4
-0.0064508000000003,0.0036710000000012,0.0129133999999999,-0.0345437999999995,-0.0010683999999989,0.0081959999999999,0,sub_4
-0.0118704000000002,0.0023128000000012,0.0106217999999999,-0.0426721999999995,0.001700600000001,0.0153995999999999,0,sub_4
-0.0197392000000002,0.0043424000000012,0.0048387999999999,-0.0484073999999995,0.013414800000001,0.0213265999999999,0,sub_4
-0.0228678000000003,0.0044282000000012,-0.0016002,-0.0432385999999995,0.021503000000001,0.0187885999999999,0,sub_4
-0.0206082000000003,0.0073596000000012,-0.0045286,-0.0342145999999995,0.025983400000001,0.0094455999999999,0,sub_4
-0.0143936000000003,0.0085362000000012,-0.0052782,-0.0243305999999995,0.031739800000001,-0.0001068,0,sub_4
-0.0038956000000003,0.0089124000000012,-0.0027982,-0.0123279999999995,0.035141000000001,-0.0085732,0,sub_4
0.0092777999999996,0.0086034000000012,0.0013625999999999,-0.0042227999999995,0.028319600000001,-0.0147036,0,sub_4
0.0228495999999996,0.0073442000000012,0.0052257999999999,-0.0038975999999995,0.004249200000001,-0.016166,0,sub_4
0.0309881999999996,0.0058118000000012,0.0074117999999999,-0.0087681999999995,-0.0289945999999989,-0.0101754,0,sub_4
0.0329859999999996,0.0046334000000012,0.0050715999999999,-0.0176765999999994,-0.0532971999999989,0.0011165999999999,0,sub_4
0.0276051999999997,0.0074986000000012,0.0002409999999999,-0.0274345999999994,-0.0746225999999989,0.0145353999999999,0,sub_4
0.0186109999999997,0.0114968000000012,-0.0023786,-0.0314171999999994,-0.0948943999999989,0.0258565999999999,0,sub_4
