userAcceleration.x,userAcceleration.y,userAcceleration.z,rotationRate.x,rotationRate.y,rotationRate.z,label,subject
-0.0201264000000003,0.0035800000000012,0.0017677999999999,0.0068894000000004,-0.004604399999999,-0.0002308,0,sub_4
-0.0188468000000003,0.0032102000000012,0.0017849999999999,0.0069010000000004,-0.003108799999999,-0.0013008,0,sub_4
-0.0178152000000002,0.0028166000000012,0.0019573999999999,0.0045538000000004,-0.003100599999999,-0.0013172,0,sub_4
-0.0166784000000002,0.0027584000000012,0.0018921999999999,0.0004998000000004,-0.003298599999999,-0.0015588,0,sub_4
-0.0157286000000002,0.0030574000000012,0.0012813999999999,-0.0039281999999995,-0.004207199999999,-0.0013906,0,sub_4
-0.0159030000000002,0.0039976000000012,0.0003189999999999,-0.0079351999999995,-0.006183399999999,-0.0010044,0,sub_4
-0.0165214000000002,0.0045940000000012,-0.0012034,-0.0095951999999995,-0.007955599999999,-0.0003886,0,sub_4
-0.0172670000000002,0.0054662000000012,-0.0025724,-0.0089001999999995,-0.0086681999999989,-0.0003986,0,sub_4
-0.0175818000000002,0.0059228000000012,-0.0035068,-0.0069183999999995,-0.0078939999999989,-0.0004016,0,sub_4
-0.0177534000000002,0.0064404000000012,-0.0031958,-0.0047749999999995,-0.0059831999999989,-0.0006026,0,sub_4
-0.0182240000000003,0.0063002000000012,-0.0029454,-0.0043289999999994,-0.0008747999999989,0.0002483999999999,0,sub_4
-0.0182358000000003,0.0061438000000012,-0.0032418,-0.0051641999999994,0.0036006000000009,0.0006641999999999,0,sub_4
-0.0174712000000003,0.0068932000000012,-0.004231,-0.0055871999999994,0.0048786000000009,0.0010869999999999,0,sub_4
-0.0173602000000002,0.0073310000000012,-0.003963,-0.0060093999999994,0.0069984000000009,0.0027831999999999,0,sub_4
-0.0179456000000003,0.0078396000000012,-0.0037022,-0.0064297999999994,0.0095444000000009,0.0044787999999999,0,sub_4
-0.0176342000000003,0.0084384000000012,-0.0037024,-0.0057975999999995,0.0076176000000009,0.0049057999999999,0,sub_4
-0.0172792000000003,0.0085126000000012,-0.0021746,-0.0047377999999995,0.0061146000000009,0.0055487999999999,0,sub_4
-0.0176754000000003,0.0080386000000012,-4.640000000007702e-05,-0.0032367999999995,0.0086548000000009,0.0070441999999999,0,sub_4
-0.0184498000000003,0.0075756000000012,0.0009805999999999,-0.0013125999999995,0.0097126000000009,0.0072699999999999,0,sub_4
-0.0187030000000002,0.0062362000000012,0.0017311999999999,0.0001792000000004,0.0090690000000009,0.0070675999999999,0,sub_4
-0.0185174000000002,0.0052830000000012,0.0025091999999999,0.0010510000000004,0.0093246000000009,0.0057865999999999,0,sub_4
-0.0182308000000002,0.0046128000000012,0.0030301999999999,0.0014952000000004,0.0097930000000009,0.0049295999999999,0,sub_4
-0.0179440000000002,0.0044288000000012,0.0032565999999999,-0.0004087999999995,0.0102688000000009,0.0042699999999999,0,sub_4
-0.0173606000000002,0.0046892000000012,0.0015027999999999,-0.0027423999999995,0.0105314000000009,0.0040347999999999,0,sub_4
-0.0168568000000002,0.0054824000000012,-0.0005038,-0.0042233999999994,0.0103658000000009,0.0035925999999999,0,sub_4
-0.0163052000000002,0.0065604000000012,-0.0022928,-0.0052891999999994,0.0105826000000009,0.0035849999999999,0,sub_4
-0.0160984000000002,0.0079424000000012,-0.003852,-0.0055073999999994,0.0099426000000009,0.0040115999999999,0,sub_4
-0.0165204000000002,0.0088774000000012,-0.0061486,-0.0033745999999994,0.0101464000000009,0.0044533999999999,0,sub_4
-0.0173934000000002,0.0096294000000012,-0.0066812,-0.0006063999999994,0.0092828000000009,0.0049011999999999,0,sub_4
-0.0180250000000002,0.0093452000000012,-0.0067098,0.0026182000000005,0.0095668000000009,0.0053545999999999,0,sub_4
-0.0188570000000003,0.0080118000000012,-0.004696,0.0058532000000004,0.0126188000000009,0.0062317999999998,0,sub_4
-0.0195262000000003,0.0069262000000012,-0.0024046,0.0088904000000004,0.0184436000000009,0.0064633999999998,0,sub_4
-0.0194404000000003,0.0056116000000012,0.0005187999999999,0.0099928000000004,0.0204428000000009,0.0060453999999998,0,sub_4
-0.0186612000000002,0.0049800000000012,0.0022255999999999,0.0104530000000004,0.0213816000000009,0.0049831999999999,0,sub_4
-0.0180288000000002,0.0041166000000012,0.0023781999999999,0.0087488000000004,0.0209656000000009,0.0039035999999999,0,sub_4
-0.0171132000000002,0.0044518000000012,0.0008237999999999,0.0066104000000004,0.0188468000000009,0.0028231999999999,0,sub_4
-0.0165392000000002,0.0053838000000012,-0.000742,0.0034134000000004,0.0155242000000009,0.0019559999999999,0,sub_4
-0.0155534000000002,0.0061606000000012,-0.0027952,0.0015140000000004,0.0162444000000009,0.0013063999999999,0,sub_4
-0.0140640000000002,0.0059796000000012,-0.0050126,-0.0003881999999995,0.0159008000000009,0.0002307999999999,0,sub_4
-0.0139498000000002,0.0071758000000012,-0.0057162,-0.0010149999999995,0.0157608000000009,0.0004457999999999,0,sub_4
-0.0149198000000002,0.0077240000000012,-0.0069494,-0.0035585999999995,0.0169040000000009,0.0010729999999999,0,sub_4
-0.0153556000000002,0.0073546000000012,-0.008994,-0.0056981999999995,0.0152088000000009,0.0006329999999999,0,sub_4
-0.0145356000000002,0.0077322000000012,-0.0104952,-0.0076435999999995,0.0086152000000009,-0.0004404,0,sub_4
-0.0146702000000002,0.0086048000000012,-0.0109656,-0.0089363999999995,0.0073354000000009,0.0010477999999999,0,sub_4
-0.0148176000000002,0.0085978000000012,-0.0115112,-0.0100129999999995,0.0066940000000009,0.0025365999999999,0,sub_4
-0.0148798000000002,0.0091408000000012,-0.0106088,-0.0085089999999995,0.0043922000000009,0.0031929999999999,0,sub_4
-0.0149048000000002,0.0088128000000012,-0.0091028,-0.0072145999999995,0.0025188000000009,0.0034199999999999,0,sub_4
-0.0160438000000003,0.0082716000000012,-0.0081422,-0.0065535999999995,0.0019268000000009,0.0034273999999999,0,sub_4
-0.0171204000000003,0.0077760000000012,-0.0081882,-0.0073967999999994,-0.002701199999999,0.0017201999999999,0,sub_4
-0.0172124000000002,0.0078948000000012,-0.0084772,-0.0086667999999994,-0.008176399999999,-0.0008434,0,sub_4
-0.0165022000000002,0.0070176000000012,-0.0094914,-0.0108119999999994,-0.012423199999999,-0.0025622,0,sub_4
-0.0161744000000002,0.0072956000000012,-0.010738,-0.0127381999999994,-0.013482599999999,-0.0023606,0,sub_4
-0.0167112000000002,0.0079480000000012,-0.010444,-0.0144461999999994,-0.011779999999999,-0.000452,0,sub_4
-0.0177940000000002,0.0079886000000012,-0.0094666,-0.0139887999999994,-0.007304199999999,0.0018845999999998,0,sub_4
-0.0186190000000002,0.0079996000000012,-0.0089402,-0.0128883999999994,-0.003252599999999,0.0031579999999998,0,sub_4
-0.0189556000000002,0.0089856000000012,-0.0074718,-0.0113681999999994,-0.001542599999999,0.0035827999999998,0,sub_4
-0.0185742000000002,0.0084732000000012,-0.0053916,-0.0102735999999994,-0.000466799999999,0.0031507999999998,0,sub_4
-0.0183726000000002,0.0077806000000012,-0.004334,-0.0106715999999994,0.0006150000000009,0.0024947999999999,0,sub_4
-0.0177340000000002,0.0084406000000012,-0.0042268,-0.0123785999999994,-1.5599999999034182e-05,0.0018427999999999,0,sub_4
-0.0167938000000002,0.0087612000000012,-0.004242,-0.0138779999999995,-0.001288599999999,0.0018339999999999,0,sub_4
-0.0166788000000003,0.0083616000000012,-0.0049926,-0.0153593999999995,-0.001517399999999,0.0026617999999998,0,sub_4
-0.0172956000000002,0.0088428000000012,-0.0062642,-0.0161977999999995,-0.000260599999999,0.0043465999999998,0,sub_4
-0.0180664000000002,0.0090504000000012,-0.0073828,-0.0157541999999994,0.0009936000000009,0.0056131999999998,0,sub_4
-0.0182542000000002,0.0074116000000012,-0.007074,-0.0138149999999994,0.0018198000000009,0.0060361999999998,0,sub_4
-0.0186310000000002,0.0070276000000012,-0.0062874,-0.0125101999999994,0.0037144000000009,0.0062397999999999,0,sub_4
-0.0184276000000002,0.0066616000000012,-0.0046904,-0.0118613999999994,0.0058418000000009,0.0064551999999999,0,sub_4
-0.0175672000000003,0.0063672000000012,-0.0027372,-0.0120709999999994,0.0052094000000009,0.0049591999999999,0,sub_4
-0.0164226000000002,0.0057082000000012,-0.0003132,-0.0127177999999994,0.0028714000000009,0.0041031999999999,0,sub_4
-0.0165766000000002,0.0061228000000012,0.0001715999999999,-0.0144255999999994,0.0032520000000009,0.0042845999999999,0,sub_4
-0.0166352000000002,0.0062422000000012,0.0001455999999999,-0.0163503999999994,0.0029932000000009,0.0046787999999999,0,sub_4
-0.0174080000000002,0.0065264000000012,-0.0013726,-0.0167865999999994,0.0006030000000009,0.0040179999999999,0,sub_4
-0.0182850000000002,0.0070336000000012,-0.003357,-0.0167919999999994,-8.779999999907442e-05,0.0042125999999999,0,sub_4
-0.0185490000000002,0.0072996000000012,-0.0056696,-0.0157219999999995,7.440000000094557e-05,0.0033453999999999,0,sub_4
-0.0178888000000002,0.0078350000000012,-0.0059392,-0.0140177999999995,-0.001207399999999,0.0027179999999999,0,sub_4
-0.0174936000000002,0.0075746000000012,-0.0053474,-0.0118831999999995,-0.000577399999999,0.0031593999999999,0,sub_4
-0.0171640000000002,0.0075056000000012,-0.0040524,-0.0101683999999995,0.0026064000000009,0.0046629999999999,0,sub_4
-0.0176008000000002,0.0068980000000012,-0.003652,-0.0084473999999995,0.0042456000000009,0.0052969999999999,0,sub_4
-0.0181374000000002,0.0069372000000012,-0.002813,-0.0075827999999995,0.0043996000000009,0.0050723999999999,0,sub_4
-0.0184178000000002,0.0069442000000012,-0.0031412,-0.0071449999999995,0.0037064000000009,0.0039913999999999,0,sub_4
-0.0184724000000003,0.0070438000000012,-0.0036582,-0.0064935999999995,0.0028002000000009,0.0026985999999999,0,sub_4
-0.0183042000000003,0.0068010000000012,-0.0050354,-0.0062699999999994,0.0018946000000009,0.0016161999999999,0,sub_4
-0.0178118000000003,0.0071522000000012,-0.0053072,-0.0056317999999994,0.0014662000000009,0.0016211999999999,0,sub_4
-0.0175806000000003,0.0073714000000012,-0.005949,-0.0049877999999994,0.0031650000000009,0.0024779999999998,0,sub_4
-0.0176154000000003,0.0079710000000012,-0.005819,-0.0041293999999994,0.0044394000000009,0.0026959999999998,0,sub_4
-0.0171652000000002,0.0085024000000012,-0.0061956,-0.0034623999999994,0.0037734000000009,0.0022609999999998,0,sub_4
-0.0170944000000002,0.0086088000000012,-0.0064168,-0.0025849999999994,0.0018310000000009,0.0011883999999999,0,sub_4
-0.0169246000000002,0.0084200000000012,-0.0065198,-0.0017075999999994,0.0003130000000009,0.0005423999999999,0,sub_4
-0.0168512000000002,0.0081074000000012,-0.0063118,-0.0006195999999994,-0.001208399999999,0.0005389999999999,0,sub_4
-0.0168870000000002,0.0073866000000012,-0.005514,-0.0001679999999994,-0.001026399999999,0.0013833999999999,0,sub_4
-0.0177226000000002,0.0065038000000012,-0.0046806,0.0006884000000004,0.0006708000000009,0.0024553999999999,0,sub_4
-0.0182332000000002,0.0061690000000012,-0.003754,0.0002654000000004,0.0021610000000009,0.0030913999999999,0,sub_4
-0.0185320000000002,0.0061064000000012,-0.0034362,-0.0003755999999995,0.0013136000000009,0.0024471999999999,0,sub_4
-0.0183668000000002,0.0064540000000012,-0.0039444,-0.0020401999999995,-0.000821999999999,0.0013547999999999,0,sub_4
-0.0178198000000002,0.0066694000000012,-0.0049344,-0.0030663999999995,-0.003385999999999,0.0002673999999999,0,sub_4
-0.0169430000000002,0.0067496000000012,-0.0059686,-0.0055845999999995,-0.005306399999999,-0.0006174,0,sub_4
-0.0169120000000002,0.0075232000000012,-0.0063016,-0.0061793999999995,-0.005533199999999,-0.0004228,0,sub_4
-0.0174154000000002,0.0078430000000012,-0.0065182,-0.0071885999999995,-0.002140199999999,0.0006187999999999,0,sub_4
-0.0179476000000002,0.0085090000000012,-0.00754,-0.0071865999999995,-0.001077399999999,0.0012583999999999,0,sub_4
-0.0181762000000002,0.0088064000000012,-0.0091302,-0.0067599999999995,-0.001290999999999,0.0010479999999999,0,sub_4
-0.0184256000000002,0.0099648000000012,-0.0103392,-0.0050557999999995,-0.001723799999999,0.0012739999999998,0,sub_4
-0.0184266000000002,0.0100924000000012,-0.0111172,-0.0037175999999995,-0.002807599999999,0.0010499999999999,0,sub_4
-0.0178698000000002,0.0101636000000012,-0.011406,-0.0017411999999995,-0.004531999999999,0.0006175999999998,0,sub_4
-0.0174860000000002,0.0097848000000012,-0.0101398,3.0400000000471283e-05,-0.003913799999999,0.0006079999999998,0,sub_4
-0.0179366000000002,0.0096276000000012,-0.0083202,0.0005190000000004,-0.003293599999999,0.0012303999999998,0,sub_4
-0.0184542000000002,0.0094344000000012,-0.0070764,-0.0004879999999995,-0.004155399999999,0.0007761999999999,0,sub_4
-0.0182262000000003,0.0092584000000012,-0.0071616,-0.0028427999999995,-0.006700399999999,-9.160000000008736e-05,0,sub_4
-0.0180024000000003,0.0098222000000012,-0.007721,-0.0056319999999995,-0.011372799999999,-0.001387,0,sub_4
-0.0178712000000003,0.0104792000000012,-0.0077908,-0.0086335999999995,-0.015406999999999,-0.0022574,0,sub_4
-0.0181046000000002,0.0116786000000012,-0.008544,-0.0111363999999995,-0.017327199999999,-0.0022952,0,sub_4
-0.0184492000000002,0.0121744000000012,-0.008924,-0.0119293999999994,-0.0177653999999989,-0.0014686,0,sub_4
-0.0186492000000002,0.0126344000000012,-0.008862,-0.0099397999999994,-0.0158715999999989,-0.0001982,0,sub_4
-0.0192374000000002,0.0121648000000012,-0.0069244,-0.0066689999999994,-0.0129201999999989,0.0019343999999999,0,sub_4
-0.0197484000000002,0.0116516000000012,-0.0052794,-0.0003975999999994,-0.006996599999999,0.0040841999999999,0,sub_4
-0.0197558000000003,0.0097590000000012,-0.002304,0.0062352000000005,-0.001698599999999,0.0054055999999999,0,sub_4
-0.0197222000000002,0.0072352000000012,-0.0003074,0.0107304000000004,0.0008450000000009,0.0047927999999999,0,sub_4
-0.0196676000000002,0.0047336000000012,0.0007805999999999,0.0103114000000004,0.0012778000000009,0.0035073999999999,0,sub_4
-0.0180476000000002,0.0040768000000012,-0.0005962,0.0062688000000004,0.0019388000000009,0.0015553999999999,0,sub_4
-0.0169566000000002,0.0042718000000012,-0.002794,-0.0024269999999995,-0.000590799999999,-0.0006596,0,sub_4
-0.0161504000000002,0.0056988000000012,-0.0071218,-0.0117745999999995,-0.004613999999999,-0.001809,0,sub_4
-0.0159422000000002,0.0084552000000012,-0.0116122,-0.0185729999999995,-0.009292999999999,-0.001017,0,sub_4
-0.0165104000000002,0.0120026000000012,-0.01564,-0.0198247999999995,-0.013143399999999,0.0008809999999999,0,sub_4
-0.0190230000000002,0.0128786000000012,-0.0165612,-0.0157239999999995,-0.011903399999999,0.0038781999999999,0,sub_4
-0.0206878000000002,0.0118190000000012,-0.0147364,-0.0069633999999995,-0.007042399999999,0.0060695999999998,0,sub_4
-0.0216974000000002,0.0101478000000012,-0.010208,0.0015888000000004,-0.003237199999999,0.0061243999999999,0,sub_4
-0.0213634000000002,0.0081714000000012,-0.0047992,0.0048564000000004,0.0018614000000009,0.0050545999999999,0,sub_4
-0.0200664000000002,0.0059596000000012,-0.0002894,0.0025620000000004,0.0022982000000009,0.0024563999999999,0,sub_4
-0.0176446000000002,0.0057072000000012,-0.0002466,-0.0038141999999995,-0.004065999999999,-0.0008026,0,sub_4
-0.0158922000000002,0.0071060000000012,-0.0031516,-0.0134091999999995,-0.012344999999999,-0.001945,0,sub_4
-0.0156758000000003,0.0086314000000012,-0.0069164,-0.0215095999999995,-0.017869799999999,-0.0005168,0,sub_4
-0.0164774000000002,0.0098258000000012,-0.0096584,-0.0230289999999995,-0.020433999999999,0.0026805999999999,0,sub_4
-0.0177744000000002,0.0085972000000012,-0.0100316,-0.0174889999999995,-0.017489399999999,0.0074157999999999,0,sub_4
-0.0202434000000002,0.0083888000000012,-0.005183,-0.0065887999999995,-0.007537799999999,0.0134611999999999,0,sub_4
-0.0229340000000002,0.0066354000000012,0.0009795999999999,0.0049736000000004,0.0032800000000009,0.0154507999999999,0,sub_4
-0.0234528000000002,0.0054566000000012,0.0060525999999999,0.0129348000000004,0.0068870000000009,0.0122845999999999,0,sub_4
-0.0218084000000002,0.0043036000000012,0.0081093999999999,0.0142718000000004,0.0049912000000009,0.0056609999999999,0,sub_4
-0.0187720000000002,0.0056064000000012,0.0068311999999999,0.0102660000000004,0.0016210000000009,-0.000571,0,sub_4
-0.0154578000000002,0.0052598000000012,0.0021465999999999,0.0026146000000004,-0.005147799999999,-0.006183,0,sub_4
-0.0129208000000002,0.0060116000000012,-0.0045074,-0.0037775999999995,-0.012788799999999,-0.0079394,0,sub_4
-0.0127110000000003,0.0066796000000012,-0.0098392,-0.0067801999999995,-0.012791999999999,-0.004542,0,sub_4
-0.0146306000000002,0.0091250000000012,-0.0124288,-0.0048597999999995,-0.007281399999999,0.0010189999999999,0,sub_4
-0.0174968000000003,0.0107760000000012,-0.0128232,-0.0014015999999995,-0.001533199999999,0.0048753999999999,0,sub_4
-0.0201074000000002,0.0119830000000012,-0.0133418,0.0029082000000004,0.0003906000000009,0.0053241999999999,0,sub_4
-0.0201570000000003,0.0123954000000012,-0.0132588,0.0065798000000004,0.0004086000000009,0.0034207999999999,0,sub_4
-0.0185094000000002,0.0119944000000012,-0.012284,0.0096132000000004,0.0006426000000009,0.0012989999999999,0,sub_4
-0.0173404000000002,0.0098934000000012,-0.0108978,0.0107206000000004,0.0002416000000009,-0.0001944,0,sub_4
-0.0162332000000002,0.0081728000000012,-0.0092128,0.0109264000000004,-0.002100199999999,-0.000831,0,sub_4
-0.0153794000000002,0.0066676000000011,-0.007242,0.0096366000000004,-0.003165199999999,0.0002295999999999,0,sub_4
-0.0168120000000002,0.0065932000000011,-0.0047688,0.0066398000000005,-0.002950999999999,0.0025583999999999,0,sub_4
-0.0186304000000003,0.0066194000000012,-0.0038086,0.0030030000000005,-0.004432199999999,0.0031757999999999,0,sub_4
-0.0189080000000003,0.0062672000000012,-0.0036864,0.0008868000000005,-0.006100999999999,0.0027285999999999,0,sub_4
-0.0192470000000003,0.0061138000000012,-0.003715,-0.0003615999999994,-0.004789199999999,0.0020699999999999,0,sub_4
-0.0190298000000002,0.0065354000000012,-0.0044002,-0.0022441999999994,-0.002621399999999,0.0009783999999999,0,sub_4
-0.0183100000000002,0.0058590000000012,-0.005122,-0.0039191999999995,-0.002156999999999,-0.0005366,0,sub_4
-0.0173068000000002,0.0055416000000012,-0.0059272,-0.0066677999999995,-0.001906999999999,-0.000777,0,sub_4
-0.0172134000000002,0.0053102000000012,-0.007044,-0.0107227999999995,-0.000620599999999,0.0006883999999999,0,sub_4
-0.0180260000000002,0.0059944000000012,-0.0080984,-0.0156263999999995,0.0021584000000009,0.0025733999999999,0,sub_4
-0.0187322000000003,0.0070248000000012,-0.0093614,-0.0188019999999995,0.0017708000000009,0.0036109999999999,0,sub_4
-0.0186478000000003,0.0080912000000012,-0.0106252,-0.0202705999999995,0.0005286000000009,0.0038067999999999,0,sub_4
-0.0185758000000003,0.0096610000000012,-0.0118734,-0.0185423999999995,-0.003062599999999,0.0025323999999999,0,sub_4
-0.0185956000000003,0.0111916000000012,-0.0130392,-0.0155387999999994,-0.008572199999999,0.0004149999999999,0,sub_4
-0.0183898000000003,0.0111452000000012,-0.014051,-0.0118931999999994,-0.0134455999999989,-0.0014852,0,sub_4
-0.0177484000000003,0.0101338000000012,-0.0134954,-0.0086887999999994,-0.013877799999999,-0.0027442,0,sub_4
-0.0174154000000003,0.0103210000000012,-0.012455,-0.0048413999999994,-0.012612199999999,-0.0029326,0,sub_4
-0.0171882000000003,0.0099588000000012,-0.011202,-0.0022731999999994,-0.009855599999999,-0.0018498,0,sub_4
-0.0184000000000002,0.0101108000000012,-0.0105784,-0.0009617999999995,-0.008552799999999,-0.0001506,0,sub_4
-0.0194314000000003,0.0104658000000012,-0.0109888,-0.0005133999999995,-0.010438799999999,0.0004783999999999,0,sub_4
-0.0207634000000003,0.0105818000000012,-0.0114804,-0.0002813999999995,-0.012962999999999,0.0011067999999999,0,sub_4
-0.0212636000000003,0.0097686000000012,-0.0116054,-0.0013121999999995,-0.011435599999999,0.0019347999999998,0,sub_4
-0.0214014000000003,0.0085782000000012,-0.010913,-0.0023277999999995,-0.006923799999999,0.0023317999999998,0,sub_4
-0.0203410000000003,0.0080030000000012,-0.0091384,-0.0029505999999995,-0.002874399999999,0.0025359999999998,0,sub_4
-0.0194344000000003,0.0079818000000012,-0.0078296,-0.0040135999999995,-0.001806199999999,0.0027407999999998,0,sub_4
-0.0190706000000003,0.0082032000000012,-0.0082698,-0.0055099999999995,-0.002652399999999,0.0025177999999999,0,sub_4
-0.0186372000000003,0.0077020000000012,-0.0088066,-0.0069967999999995,-0.005169799999999,0.0020713999999999,0,sub_4
-0.0184156000000003,0.0075468000000012,-0.0090188,-0.0086941999999995,-0.006622799999999,0.0020493999999999,0,sub_4
-0.0175616000000002,0.0070084000000012,-0.0087416,-0.0105963999999995,-0.006157599999999,0.0020233999999999,0,sub_4
-0.0176474000000002,0.0078394000000012,-0.0078264,-0.0120669999999995,-0.004416399999999,0.0022125999999999,0,sub_4
-0.0178128000000002,0.0082278000000012,-0.0077228,-0.0131163999999995,-0.004591599999999,0.0017661999999999,0,sub_4
-0.0182514000000002,0.0089006000000012,-0.007724,-0.0133335999999995,-0.006716199999999,0.0004855999999999,0,sub_4
-0.0193340000000002,0.0087258000000012,-0.0079468,-0.0137697999999995,-0.009694199999999,-0.0003682,0,sub_4
-0.0200976000000003,0.0086888000000012,-0.007796,-0.0133457999999995,-0.011183799999999,-0.0012178,0,sub_4
-0.0192720000000003,0.0076664000000012,-0.0079178,-0.0127035999999995,-0.010094399999999,-0.0012262,0,sub_4
-0.0191578000000003,0.0076084000000012,-0.0072354,-0.0120595999999995,-0.006881199999999,0.0004719999999999,0,sub_4
-0.0197158000000003,0.0073380000000012,-0.0070018,-0.0122737999999995,-0.004730399999999,0.0021653999999999,0,sub_4
-0.0189612000000003,0.0077408000000012,-0.0071148,-0.0114191999999995,-0.003642599999999,0.0023721999999999,0,sub_4
-0.0183276000000002,0.0073740000000012,-0.007523,-0.0105711999999995,-0.004470399999999,0.0021539999999999,0,sub_4
-0.0183736000000002,0.0068972000000012,-0.0072064,-0.0095051999999995,-0.0046871999999989,0.0021617999999999,0,sub_4
-0.0180892000000002,0.0064898000000012,-0.006482,-0.0090755999999995,-0.0044739999999989,0.0017371999999999,0,sub_4
-0.0181960000000002,0.0061558000000012,-0.0054218,-0.0097147999999995,-0.004258599999999,0.0017325999999999,0,sub_4
-0.0185588000000002,0.0060242000000012,-0.0045246,-0.0116155999999995,-0.004230599999999,0.0017079999999999,0,sub_4
-0.0187864000000002,0.0066602000000012,-0.0040634,-0.0128723999999995,-0.003776999999999,0.0012601999999999,0,sub_4
-0.0186898000000002,0.0071336000000012,-0.0046578,-0.0130641999999995,-0.004389799999999,0.0001801999999999,0,sub_4
-0.0190232000000002,0.0076354000000012,-0.0055642,-0.0119785999999995,-0.005009599999999,-0.0002498,0,sub_4
-0.0189168000000002,0.0083488000000012,-0.0064796,-0.0102499999999994,-0.005204799999999,-0.0008896,0,sub_4
-0.0188648000000002,0.0090870000000012,-0.0075582,-0.0081151999999994,-0.004999199999999,-0.0008748,0,sub_4
-0.0186970000000002,0.0095632000000012,-0.0085238,-0.0061823999999994,-0.002024199999999,-0.0006514,0,sub_4
-0.0190068000000002,0.0100436000000012,-0.0091318,-0.0044629999999994,0.0015882000000009,0.0002105999999999,0,sub_4
-0.0191842000000002,0.0107316000000012,-0.009301,-0.0022893999999994,0.0037480000000009,-0.0002116,0,sub_4
-0.0189424000000002,0.0115832000000012,-0.0106208,0.0005136000000004,0.0029254000000009,-0.0012664,0,sub_4
-0.0187250000000003,0.0113708000000012,-0.012104,0.0043806000000004,0.0012478000000009,-0.0025264,0,sub_4
-0.0182346000000002,0.0102914000000012,-0.0124438,0.0078228000000004,-2.199999999054174e-06,-0.0037898,0,sub_4
