userAcceleration.x,userAcceleration.y,userAcceleration.z,rotationRate.x,rotationRate.y,rotationRate.z,label,subject
0.0004177999999996,0.0058686000000012,0.0152577999999998,0.0507414000000005,0.1706572000000006,-0.0314204,0,sub_8
-0.0010060000000003,0.0076266000000012,0.0137449999999998,0.0494572000000005,0.1693852000000006,-0.0318552,0,sub_8
-0.0028886000000003,0.0073036000000012,0.0123325999999998,0.0507270000000005,0.1678860000000007,-0.03099,0,sub_8
-0.0045554000000003,0.0076304000000012,0.0126503999999998,0.0554146000000005,0.1687124000000007,-0.0286082,0,sub_8
-0.0034948000000003,0.0075960000000012,0.0121139999999998,0.0598838000000005,0.1691108000000006,-0.0255864,0,sub_8
-0.0021328000000003,0.0070714000000012,0.0119907999999998,0.0604874000000005,0.1641956000000006,-0.0223714,0,sub_8
-0.0013888000000003,0.0061136000000012,0.0132827999999998,0.0604376000000005,0.1562998000000006,-0.0191568,0,sub_8
-0.0003438000000003,0.0053330000000012,0.0126461999999999,0.0591094000000005,0.1481980000000006,-0.0165918,0,sub_8
0.0007515999999996,0.0050134000000012,0.0121179999999999,0.0547796000000005,0.1356376000000006,-0.0153242,0,sub_8
0.0005593999999996,0.0054840000000012,0.0118485999999999,0.0493792000000005,0.1228654000000006,-0.0134228,0,sub_8
-0.0004270000000003,0.0054354000000012,0.0108909999999998,0.0461326000000005,0.1143476000000006,-0.0117254,0,sub_8
-0.0017038000000003,0.0051142000000012,0.0117115999999998,0.0415904000000005,0.1068566000000006,-0.0100532,0,sub_8
-0.0046904000000003,0.0058942000000012,0.0137431999999998,0.0362072000000004,0.1019262000000006,-0.0086037999999999,0,sub_8
-0.0074910000000003,0.0071224000000012,0.0166677999999998,0.0317090000000004,0.1027504000000006,-0.0084373999999999,0,sub_8
-0.0116880000000003,0.0082328000000012,0.0208365999999998,0.0293828000000004,0.1093306000000006,-0.0110405999999999,0,sub_8
-0.0157916000000003,0.0092556000000012,0.0254071999999999,0.0283782000000004,0.1231578000000006,-0.0155666,0,sub_8
-0.0194376000000003,0.0100580000000012,0.0266809999999999,0.0293486000000004,0.1434180000000006,-0.0213542,0,sub_8
-0.0197608000000003,0.0094424000000012,0.0273547999999999,0.0320480000000005,0.1679356000000006,-0.027776,0,sub_8
-0.0197062000000003,0.0090850000000012,0.0267935999999999,0.0360382000000005,0.1947924000000006,-0.0341918,0,sub_8
-0.0173058000000003,0.0097310000000012,0.0252943999999999,0.0376796000000005,0.2216556000000006,-0.0401968,0,sub_8
-0.0137816000000003,0.0081794000000012,0.0216165999999999,0.0373776000000005,0.2451100000000006,-0.0445018,0,sub_8
-0.0085346000000003,0.0047264000000012,0.0160019999999999,0.0336376000000005,0.2640986000000006,-0.0479706,0,sub_8
-0.0052422000000003,0.0022972000000012,0.0086447999999999,0.0260090000000005,0.2728726000000007,-0.0510262,0,sub_8
0.0001091999999996,0.0008796000000012,-0.000442,0.0136152000000005,0.2669580000000006,-0.053028,0,sub_8
0.0079595999999996,0.0003446000000012,-0.0099724,0.0043356000000005,0.2435552000000006,-0.0532764,0,sub_8
0.0157797999999996,0.0021320000000012,-0.0151202,7.440000000052162e-05,0.2005208000000006,-0.05026,0,sub_8
0.0210419999999996,0.0047464000000012,-0.0154642,0.0014708000000005,0.1403982000000006,-0.0412002,0,sub_8
0.0257373999999996,0.0061092000000012,-0.0137828,0.0038602000000005,0.0702328000000006,-0.0257112,0,sub_8
0.0306599999999996,0.0030580000000012,-0.0103086,0.0049396000000005,-0.0016521999999993,-0.0053154,0,sub_8
0.0332303999999996,-0.0029829999999987,-0.0062898,-0.0035701999999994,-0.0690363999999992,0.0167167999999999,0,sub_8
0.0352791999999996,-0.0059963999999987,-0.0028212,-0.0216329999999995,-0.1323117999999992,0.0318403999999999,0,sub_8
0.0372133999999996,-0.0072311999999987,0.0004907999999999,-0.0483875999999994,-0.1916865999999993,0.0381389999999999,0,sub_8
0.0385217999999996,-0.0073931999999987,0.0050043999999999,-0.0782871999999994,-0.2420885999999992,0.0409857999999999,0,sub_8
0.0359021999999996,-0.0048005999999987,0.0093975999999998,-0.1036605999999994,-0.2863121999999993,0.0400107999999999,0,sub_8
0.0322287999999996,0.0001272000000012,0.0164857999999998,-0.1213345999999994,-0.3286365999999993,0.0369505999999999,0,sub_8
0.0268259999999996,0.0029420000000012,0.0240869999999998,-0.1340855999999994,-0.3629009999999993,0.0386145999999999,0,sub_8
0.0177587999999996,0.0070030000000012,0.0316603999999998,-0.1384765999999994,-0.3850649999999992,0.0439533999999999,0,sub_8
0.0041315999999996,0.0124404000000012,0.0391053999999998,-0.1332073999999994,-0.3970247999999993,0.0465691999999999,0,sub_8
-0.0115074000000003,0.0179832000000012,0.0477803999999999,-0.1233789999999994,-0.3923787999999993,0.0483409999999999,0,sub_8
-0.0262628000000003,0.0208448000000012,0.0524715999999999,-0.1091889999999995,-0.3683539999999993,0.0486229999999999,0,sub_8
-0.0380986000000003,0.0209350000000012,0.0546437999999999,-0.0925675999999994,-0.3281349999999993,0.0463375999999999,0,sub_8
-0.0461542000000003,0.0181068000000012,0.0554355999999999,-0.0775889999999994,-0.2768185999999993,0.0408217999999999,0,sub_8
-0.0489250000000003,0.0177970000000012,0.0550549999999999,-0.0659819999999994,-0.2186621999999993,0.0327097999999999,0,sub_8
-0.0477970000000003,0.0175986000000012,0.0537011999999999,-0.0543653999999994,-0.1602851999999993,0.0226747999999999,0,sub_8
-0.0447652000000003,0.0181620000000012,0.0510489999999999,-0.0421259999999994,-0.1034109999999993,0.0149961999999999,0,sub_8
-0.0411946000000003,0.0185986000000012,0.0465715999999999,-0.0279969999999994,-0.0520881999999993,0.0086197999999999,0,sub_8
-0.0363406000000003,0.0185110000000012,0.0419201999999999,-0.0136937999999994,-0.0084401999999993,0.0033225999999999,0,sub_8
-0.0307634000000003,0.0147794000000012,0.0355701999999999,-0.0011457999999994,0.0262586000000006,-0.0002662,0,sub_8
-0.0253594000000003,0.0111496000000012,0.0294141999999999,0.0066536000000005,0.0511642000000006,-0.0015254,0,sub_8
-0.0190550000000003,0.0094960000000012,0.0242509999999998,0.0107872000000005,0.0671358000000006,-0.0032262,0,sub_8
-0.0122900000000003,0.0073210000000012,0.0203787999999998,0.0127392000000005,0.0722500000000006,-0.005142,0,sub_8
-0.0065562000000003,0.0074016000000012,0.0169007999999998,0.0142232000000005,0.0692654000000006,-0.0059824,0,sub_8
-0.0011326000000003,0.0088502000000012,0.0171133999999998,0.0139466000000005,0.0575388000000006,-0.0036192,0,sub_8
0.0012547999999996,0.0079890000000012,0.0184713999999998,0.0168360000000005,0.0396164000000006,0.0002693999999999,0,sub_8
-0.0016232000000003,0.0064488000000012,0.0218873999999999,0.0201406000000005,0.0199848000000006,0.0050179999999999,0,sub_8
-0.0075246000000003,0.0086396000000012,0.0273725999999999,0.0245516000000005,0.0090848000000006,0.0097629999999999,0,sub_8
-0.0093300000000003,0.0091186000000012,0.0331231999999999,0.0283750000000005,0.0099050000000006,0.0144887999999999,0,sub_8
-0.0123232000000003,0.0073846000000012,0.0379169999999999,0.0298954000000005,0.0167142000000006,0.0153453999999999,0,sub_8
-0.0126980000000003,0.0084202000000012,0.0412167999999999,0.0263408000000005,0.0288872000000006,0.0112457999999999,0,sub_8
-0.0094100000000003,0.0099200000000012,0.0441371999999999,0.0225902000000005,0.0421372000000006,0.0043659999999999,0,sub_8
-0.0052560000000003,0.0093000000000012,0.0441273999999998,0.0166838000000005,0.0513432000000006,-0.0016692,0,sub_8
-0.0055630000000003,0.0089302000000012,0.0442463999999998,0.0107410000000005,0.0530898000000006,-0.007054,0,sub_8
-0.0055092000000003,0.0099270000000012,0.0415505999999998,0.0105260000000005,0.0541244000000007,-0.0098472,0,sub_8
-0.0046106000000003,0.0103994000000012,0.0388883999999998,0.0134800000000005,0.0513002000000007,-0.0094086,0,sub_8
-0.0036460000000003,0.0113036000000012,0.0366727999999998,0.0161918000000005,0.0444194000000006,-0.0066164,0,sub_8
-0.0031316000000003,0.0115032000000012,0.0357963999999999,0.0171822000000005,0.0341366000000006,-0.0040454,0,sub_8
-0.0033794000000003,0.0113124000000012,0.0350491999999999,0.0186060000000005,0.0236460000000006,-0.0031804,0,sub_8
-0.0051672000000003,0.0102776000000012,0.0366365999999998,0.0174970000000005,0.0138510000000006,-0.003603,0,sub_8
-0.0084234000000003,0.0107678000000012,0.0378869999999998,0.0151278000000005,0.0085346000000006,-0.00404,0,sub_8
-0.0129460000000003,0.0116754000000012,0.0389165999999998,0.0147030000000005,0.0081134000000006,-0.0048972,0,sub_8
-0.0166478000000003,0.0131446000000012,0.0413199999999999,0.0185714000000005,0.0132174000000006,-0.005945,0,sub_8
-0.0192554000000003,0.0147726000000012,0.0423591999999998,0.0241508000000005,0.0204410000000006,-0.0057016,0,sub_8
-0.0207718000000003,0.0171024000000012,0.0440187999999999,0.0316562000000005,0.0299972000000006,-0.0043794,0,sub_8
-0.0223488000000003,0.0180512000000012,0.0456037999999998,0.0398142000000005,0.0421086000000006,-0.0032698,0,sub_8
-0.0226066000000003,0.0142064000000012,0.0449443999999999,0.0460730000000005,0.0570040000000006,-0.0040996,0,sub_8
-0.0220236000000003,0.0092568000000012,0.0385307999999998,0.0476492000000005,0.0723506000000006,-0.0070992,0,sub_8
-0.0192336000000003,0.0060934000000012,0.0294427999999999,0.0428306000000005,0.0837226000000006,-0.0112154,0,sub_8
-0.0142778000000003,0.0023712000000013,0.0166141999999999,0.0339224000000005,0.0874382000000006,-0.0151368,0,sub_8
-0.0074824000000003,0.0005696000000013,0.0043727999999999,0.0245424000000005,0.0822026000000006,-0.0179818,0,sub_8
-0.0020184000000003,0.0032296000000013,-0.0041406,0.0170214000000005,0.0658714000000006,-0.018236,0,sub_8
0.0013923999999996,0.0069462000000012,-0.0064702,0.0149990000000005,0.0422624000000006,-0.0148104,0,sub_8
0.0018603999999996,0.0073028000000012,-0.0018266,0.0187178000000004,0.0200718000000007,-0.0098422,0,sub_8
0.0012273999999996,0.0075754000000012,0.0066803999999999,0.0284438000000004,0.0055286000000007,-0.0044146,0,sub_8
-0.0016754000000003,0.0068608000000012,0.0170753999999998,0.0390702000000004,0.0009976000000007,0.0005791999999999,0,sub_8
-0.0074460000000003,0.0052570000000012,0.0276909999999998,0.0475492000000004,0.0108290000000007,0.0044307999999999,0,sub_8
-0.0132796000000003,0.0064524000000012,0.0359083999999998,0.0520568000000004,0.0351776000000007,0.0043901999999999,0,sub_8
-0.0181976000000003,0.0082442000000012,0.0398993999999999,0.0551312000000004,0.0695586000000006,0.0009085999999999,0,sub_8
-0.0225980000000003,0.0096096000000012,0.0420083999999998,0.0544022000000005,0.1092910000000007,-0.0055974,0,sub_8
-0.0255410000000003,0.0111348000000012,0.0421967999999999,0.0519758000000004,0.1496746000000007,-0.0136116,0,sub_8
-0.0250994000000003,0.0117844000000012,0.0409605999999999,0.0481136000000004,0.1829626000000006,-0.0230816,0,sub_8
-0.0247294000000003,0.0104398000000012,0.0412299999999999,0.0446290000000004,0.2060200000000006,-0.0318948,0,sub_8
-0.0244294000000003,0.0112402000000012,0.0415311999999999,0.0406774000000004,0.2218282000000006,-0.038993,0,sub_8
-0.0246064000000003,0.0125624000000012,0.0418739999999999,0.0390872000000005,0.2324196000000006,-0.0446096,0,sub_8
-0.0257300000000003,0.0115990000000012,0.0412047999999999,0.0404700000000005,0.2410780000000007,-0.048921,0,sub_8
-0.0267344000000003,0.0108140000000012,0.0383905999999999,0.0418488000000005,0.2512184000000007,-0.0508844,0,sub_8
-0.0245864000000003,0.0103424000000012,0.0354087999999999,0.0423782000000005,0.2622140000000007,-0.0528548,0,sub_8
-0.0214084000000003,0.0098076000000012,0.0333171999999998,0.0433142000000005,0.2695828000000007,-0.053963,0,sub_8
-0.0160856000000003,0.0100392000000012,0.0306499999999998,0.0420484000000005,0.2710856000000007,-0.055683,0,sub_8
-0.0113202000000003,0.0098948000000012,0.0281719999999998,0.0394562000000005,0.2638518000000006,-0.0559056,0,sub_8
-0.0068248000000003,0.0103982000000012,0.0277591999999998,0.0383222000000005,0.2497906000000006,-0.0550408,0,sub_8
-0.0041394000000003,0.0107398000000012,0.0267997999999998,0.0390600000000005,0.2301878000000007,-0.0501102,0,sub_8
-0.0015194000000003,0.0097764000000012,0.0258037999999999,0.0391222000000005,0.2048262000000006,-0.0430406,0,sub_8
6.3999999996417615e-06,0.0079960000000012,0.0248047999999999,0.0408694000000005,0.1773172000000006,-0.033179,0,sub_8
0.0030149999999996,0.0084280000000012,0.0246799999999999,0.0413298000000005,0.1474724000000006,-0.0241779999999999,0,sub_8
0.0051065999999996,0.0085100000000012,0.0256821999999998,0.0402812000000005,0.1137996000000006,-0.01561,0,sub_8
0.0039685999999996,0.0074902000000012,0.0270451999999998,0.0371032000000005,0.0790518000000006,-0.0078964,0,sub_8
0.0018389999999996,0.0086242000000012,0.0288135999999998,0.0335252000000005,0.0483612000000007,-0.0021138,0,sub_8
-0.0043792000000003,0.0102304000000012,0.0316401999999998,0.0308238000000005,0.0215076000000007,0.0023881999999999,0,sub_8
-0.0118884000000003,0.0227888000000012,0.0378915999999998,0.0319688000000005,-0.0013225999999992,0.0096893999999999,0,sub_8
-0.0162410000000003,0.0342866000000012,0.0486159999999999,0.0511930000000005,-0.0314819999999992,0.0226809999999999,0,sub_8
-0.0179426000000003,0.0352130000000012,0.0610261999999999,0.0979682000000004,-0.0559851999999992,0.0358575999999999,0,sub_8
-0.0197728000000003,0.0335698000000012,0.0719753999999999,0.1411946000000005,-0.0623687999999993,0.0496273999999999,0,sub_8
-0.0174254000000003,0.0338160000000012,0.0802387999999999,0.1742108000000005,-0.0610493999999993,0.0639567999999999,0,sub_8
-0.0098200000000003,0.0184710000000012,0.0816209999999999,0.1944682000000005,-0.0477653999999993,0.0741197999999999,0,sub_8
-0.0051826000000003,0.0018166000000013,0.0744773999999999,0.1826454000000005,-0.0170571999999993,0.0703631999999999,0,sub_8
-0.0005212000000003,-0.0019539999999986,0.0643235999999999,0.1294810000000005,0.0144792000000006,0.0552073999999999,0,sub_8
0.0038233999999996,-0.0044303999999986,0.0506251999999999,0.0745888000000005,0.0336952000000006,0.0323639999999999,0,sub_8
0.0068463999999996,-0.0084911999999986,0.0385765999999999,0.0250144000000005,0.0454512000000006,0.0057217999999999,0,sub_8
0.0041351999999996,-0.0070997999999987,0.0289489999999999,-0.0130603999999994,0.0467512000000006,-0.0199696,0,sub_8
0.0013741999999996,-0.0005627999999987,0.0215001999999999,-0.0343209999999994,0.0471062000000006,-0.0369966,0,sub_8
-0.0021290000000003,0.0051368000000012,0.0157709999999999,-0.0362095999999994,0.0477776000000006,-0.04342,0,sub_8
-0.0058078000000003,0.0115422000000012,0.0139743999999999,-0.0263905999999995,0.0505052000000006,-0.0414322,0,sub_8
-0.0109198000000003,0.0165230000000012,0.0116761999999999,-0.0099503999999994,0.0585206000000006,-0.0355592,0,sub_8
-0.0134618000000003,0.0187016000000012,0.0091567999999999,0.0097106000000004,0.0716358000000007,-0.0290291999999999,0,sub_8
-0.0158386000000003,0.0166172000000012,0.0067325999999999,0.0315236000000004,0.0879426000000006,-0.0233429999999999,0,sub_8
-0.0176408000000003,0.0130796000000012,0.0020111999999999,0.0490842000000004,0.1061878000000006,-0.0191845999999999,0,sub_8
-0.0192590000000003,0.0089848000000012,-0.0012298,0.0604628000000005,0.1236110000000006,-0.0172045999999999,0,sub_8
-0.0193980000000003,0.0062808000000012,-0.0007848,0.0699384000000005,0.1427538000000006,-0.0173765999999999,0,sub_8
-0.0188966000000003,0.0035652000000012,0.0012781999999999,0.0753704000000005,0.1627690000000006,-0.0190735999999999,0,sub_8
-0.0176060000000003,0.0026696000000012,0.0039975999999998,0.0737516000000005,0.1785562000000006,-0.0229505999999999,0,sub_8
-0.0176242000000003,0.0041204000000012,0.0090919999999998,0.0695572000000005,0.1913680000000007,-0.0264146,0,sub_8
-0.0197602000000003,0.0041774000000012,0.0127135999999998,0.0674868000000004,0.2056492000000006,-0.0262338,0,sub_8
-0.0210622000000003,0.0015772000000012,0.0136853999999998,0.0611164000000004,0.2135504000000006,-0.0252201999999999,0,sub_8
-0.0218046000000003,0.0022900000000012,0.0115241999999998,0.0511042000000005,0.2140242000000007,-0.0284954,0,sub_8
-0.0244368000000003,0.0063410000000012,0.0088849999999999,0.0449374000000005,0.2161866000000006,-0.031105,0,sub_8
-0.0260314000000003,0.0079852000000012,0.0049073999999999,0.0445230000000004,0.2178966000000006,-0.0321781999999999,0,sub_8
-0.0233828000000003,0.0068082000000012,0.0011047999999999,0.0438656000000004,0.2125784000000007,-0.0336713999999999,0,sub_8
-0.0207746000000003,0.0056302000000012,-0.0037954,0.0455428000000004,0.2063922000000007,-0.0332245999999999,0,sub_8
-0.0153182000000003,0.0040012000000012,-0.0087752,0.0476028000000004,0.1971946000000006,-0.0259343999999999,0,sub_8
-0.0045918000000003,0.0016536000000012,-0.0117716,0.0453340000000004,0.1777718000000006,-0.0152431999999999,0,sub_8
0.0083243999999996,-0.0004129999999987,-0.0138938,0.0398138000000004,0.1487660000000006,-0.0028532,0,sub_8
0.0163581999999996,-5.4599999998729016e-05,-0.0134926,0.0297714000000005,0.1099778000000006,0.0088767999999999,0,sub_8
0.0199889999999996,0.0014412000000012,-0.0103654,0.0190784000000005,0.0643920000000006,0.0161243999999999,0,sub_8
0.0181349999999996,0.0031434000000012,-0.0049852,0.0077798000000005,0.0222344000000007,0.0190903999999999,0,sub_8
0.0126073999999996,0.0014914000000012,0.0001317999999998,-0.0051951999999994,-0.0154337999999992,0.0196889999999999,0,sub_8
0.0028453999999996,0.0013484000000012,0.0099375999999998,-0.0247329999999994,-0.0447571999999992,0.0170261999999999,0,sub_8
-0.0079084000000003,0.0065346000000012,0.0185975999999998,-0.0409999999999994,-0.0615093999999992,0.0113791999999999,0,sub_8
-0.0163270000000003,0.0114404000000012,0.0258707999999998,-0.0533697999999994,-0.0627341999999993,0.0087307999999999,0,sub_8
-0.0215154000000003,0.0135136000000012,0.0357209999999998,-0.0563339999999994,-0.0580349999999992,0.0082767999999999,0,sub_8
-0.0269680000000003,0.0166020000000012,0.0425821999999998,-0.0479663999999994,-0.0486863999999992,0.0074685999999999,0,sub_8
-0.0268342000000003,0.0173308000000012,0.0408867999999998,-0.0323479999999994,-0.0387297999999992,0.0082059999999999,0,sub_8
-0.0172592000000003,0.0130880000000012,0.0381017999999998,-0.0182605999999994,-0.0347429999999992,0.0112903999999999,0,sub_8
-0.0048996000000003,0.0101428000000012,0.0349357999999998,-0.0106587999999994,-0.0494823999999992,0.0143533999999999,0,sub_8
-0.0019734000000003,0.0088904000000012,0.0293263999999998,-0.0148949999999994,-0.0852797999999993,0.0190699999999999,0,sub_8
3.679999999960312e-05,0.0071642000000012,0.0244503999999999,-0.0305127999999994,-0.1329857999999993,0.0279951999999999,0,sub_8
-0.0003606000000003,0.0074808000000012,0.0250085999999998,-0.0495761999999994,-0.1851641999999993,0.0394655999999999,0,sub_8
-0.0060074000000003,0.0081712000000012,0.0262613999999998,-0.0656303999999994,-0.2326649999999993,0.0507373999999999,0,sub_8
-0.0150862000000003,0.0079826000000012,0.0293661999999998,-0.0792721999999994,-0.2678083999999993,0.0598737999999999,0,sub_8
-0.0200532000000003,0.0079328000000012,0.0332343999999998,-0.0876819999999994,-0.2833483999999993,0.0638941999999999,0,sub_8
-0.0259304000000003,0.0111972000000012,0.0396161999999998,-0.0887469999999994,-0.2839795999999993,0.0628193999999999,0,sub_8
-0.0356526000000003,0.0131742000000012,0.0418401999999999,-0.0835387999999994,-0.2684291999999993,0.0589903999999999,0,sub_8
-0.0455762000000003,0.0144362000000012,0.0419275999999999,-0.0786979999999994,-0.2394559999999993,0.0553551999999999,0,sub_8
-0.0534624000000003,0.0186166000000012,0.0421595999999998,-0.0712525999999994,-0.1992057999999993,0.0532191999999999,0,sub_8
-0.0565870000000003,0.0224608000000012,0.0420535999999998,-0.0601615999999994,-0.1523737999999993,0.0536637999999999,0,sub_8
-0.0550748000000003,0.0187792000000012,0.0376699999999998,-0.0497167999999994,-0.1024007999999993,0.0528103999999999,0,sub_8
-0.0447690000000003,0.0165220000000012,0.0353445999999998,-0.0403647999999994,-0.0619961999999993,0.0481159999999999,0,sub_8
-0.0299700000000003,0.0153392000000012,0.0331843999999998,-0.0336441999999994,-0.0384093999999993,0.0423565999999999,0,sub_8
-0.0141690000000003,0.0112572000000012,0.0290953999999999,-0.0297913999999994,-0.0365409999999993,0.0357503999999999,0,sub_8
-0.0014006000000003,0.0077610000000012,0.0243543999999999,-0.0305123999999994,-0.0532011999999992,0.0312725999999999,0,sub_8
0.0097681999999996,0.0099014000000012,0.0233151999999998,-0.0325775999999994,-0.0853653999999992,0.0312993999999999,0,sub_8
0.0172107999999996,0.0096504000000012,0.0247469999999998,-0.0359765999999994,-0.1254243999999993,0.0353861999999999,0,sub_8
0.0200001999999996,0.0082600000000012,0.0289539999999998,-0.0381239999999994,-0.1691207999999993,0.0422637999999999,0,sub_8
0.0188715999999996,0.0104632000000012,0.0350371999999998,-0.0376995999999994,-0.2062377999999992,0.0532101999999999,0,sub_8
0.0110579999999996,0.0105282000000012,0.0433475999999998,-0.0350953999999994,-0.2320745999999993,0.0652255999999999,0,sub_8
0.0007859999999996,0.0085524000000012,0.0514911999999999,-0.0339031999999994,-0.2423431999999993,0.0746473999999999,0,sub_8
-0.0155904000000003,0.0114438000000012,0.0590723999999999,-0.0340925999999994,-0.2314987999999993,0.0801869999999999,0,sub_8
-0.0315558000000003,0.0153926000000012,0.0646875999999999,-0.0305109999999994,-0.1965605999999993,0.0778171999999999,0,sub_8
-0.0426882000000003,0.0175532000000012,0.0700691999999999,-0.0233953999999994,-0.1441273999999993,0.0662629999999999,0,sub_8
-0.0415856000000003,0.0199444000000012,0.0787041999999999,-0.0151735999999994,-0.0878433999999993,0.0497977999999999,0,sub_8
-0.0408898000000003,0.0220610000000012,0.0836717999999999,-0.0033495999999994,-0.0358381999999993,0.0346449999999999,0,sub_8
-0.0406668000000003,0.0218054000000012,0.0847063999999999,0.0116252000000005,0.0084722000000006,0.0229423999999999,0,sub_8
-0.0416814000000003,0.0229348000000012,0.0852495999999999,0.0237650000000005,0.0499222000000006,0.0159257999999999,0,sub_8
-0.0463258000000003,0.0244568000000012,0.0833597999999999,0.0337720000000005,0.0947758000000006,0.0120943999999999,0,sub_8
-0.0563932000000003,0.0267968000000012,0.0771519999999999,0.0472456000000005,0.1494256000000006,0.0063517999999999,0,sub_8
-0.0617288000000003,0.0292714000000012,0.0738405999999999,0.0643898000000005,0.2106792000000006,-0.0023644,0,sub_8
-0.0595744000000003,0.0309500000000012,0.0723845999999999,0.0817656000000005,0.2727970000000007,-0.0142848,0,sub_8
-0.0538492000000003,0.0287718000000012,0.0720463999999998,0.0993508000000005,0.3273284000000006,-0.0268368,0,sub_8
-0.0467270000000003,0.0232150000000012,0.0710557999999998,0.1113230000000005,0.3684526000000007,-0.0383426,0,sub_8
-0.0398482000000003,0.0161430000000012,0.0660455999999998,0.1125094000000005,0.3952032000000006,-0.049938,0,sub_8
-0.0314466000000003,0.0104580000000012,0.0605875999999998,0.1064268000000005,0.4153882000000006,-0.064994,0,sub_8
-0.0204142000000004,0.0061228000000012,0.0535921999999998,0.0920122000000005,0.4328342000000006,-0.080532,0,sub_8
-0.0080950000000003,0.0053524000000012,0.0463331999999998,0.0700806000000005,0.4411382000000007,-0.0944018,0,sub_8
0.0027015999999996,0.0054034000000012,0.0393751999999998,0.0483012000000004,0.4396256000000006,-0.1044122,0,sub_8
0.0138773999999996,0.0056756000000012,0.0355901999999999,0.0297120000000004,0.4316038000000007,-0.1068818,0,sub_8
0.0213051999999996,0.0047342000000012,0.0303853999999999,0.0131952000000004,0.4173662000000007,-0.1018516,0,sub_8
0.0274035999999996,0.0034038000000012,0.0254863999999999,0.0038428000000004,0.3873204000000007,-0.0924782,0,sub_8
0.0335853999999996,0.0032432000000012,0.0185825999999999,0.0043642000000005,0.3496404000000007,-0.0810254,0,sub_8
0.0436939999999996,0.0031668000000012,0.0124291999999999,0.0084650000000005,0.3027806000000007,-0.0680404,0,sub_8
0.0528085999999996,0.0029752000000012,0.0081691999999998,0.0133494000000004,0.2416380000000006,-0.0537498,0,sub_8
0.0577941999999996,0.0008638000000012,0.0038597999999998,0.0149584000000004,0.1647374000000006,-0.0386071999999999,0,sub_8
