userAcceleration.x,userAcceleration.y,userAcceleration.z,rotationRate.x,rotationRate.y,rotationRate.z,label,subject
0.0238799999999997,0.0129546000000011,-0.0122037999999999,-0.0402055999999994,0.1893080000000008,-0.0100995999999999,0,sub_1
0.0256493999999997,0.0135044000000012,-0.0177197999999999,-0.0442651999999995,0.1403180000000009,-0.0098491999999999,0,sub_1
0.0264457999999997,0.0138212000000012,-0.0194801999999999,-0.0435897999999995,0.0996230000000008,-0.0102171999999999,0,sub_1
0.0233695999999997,0.0170774000000012,-0.0155661999999999,-0.0379871999999995,0.0667804000000008,-0.0071427999999999,0,sub_1
0.0210901999999997,0.0195934000000012,-0.0114473999999999,-0.0315669999999995,0.0328424000000008,0.0027752,0,sub_1
0.0166673999999997,0.0158760000000012,-0.0013943999999999,-0.0214751999999995,0.0059458000000009,0.00693,0,sub_1
0.0083603999999997,0.0147108000000012,0.007355,-0.0137247999999995,-0.017965599999999,0.0125598,0,sub_1
0.0008449999999997,0.0148928000000012,0.0117422,-0.0113057999999995,-0.042066999999999,0.0170836,0,sub_1
-0.0031950000000002,0.0127098000000012,0.013952,-0.0116311999999995,-0.0633735999999991,0.0177384,0,sub_1
-0.0079542000000002,0.0109260000000012,0.016995,-0.0099993999999995,-0.078711999999999,0.0160488,0,sub_1
-0.0127518000000002,0.0112074000000012,0.0133396,-0.0079131999999995,-0.0914919999999991,0.0135152,0,sub_1
-0.0145082000000002,0.0102648000000012,0.0104154,-0.0070915999999995,-0.1021317999999991,0.0096876,0,sub_1
-0.0140644000000002,0.0093178000000012,0.0110656,-0.0034817999999995,-0.110434199999999,0.0050216,0,sub_1
-0.0140978000000002,0.0092666000000012,0.0110524,-0.0001005999999995,-0.122569399999999,-6.819999999999778e-05,0,sub_1
-0.0104892000000002,0.0092990000000012,0.014475,0.0015504000000004,-0.140872799999999,-0.0062299999999999,0,sub_1
-0.0084674000000002,0.0097070000000012,0.0186066,-4.799999999520292e-06,-0.158320199999999,-0.0104923999999999,0,sub_1
-0.0083418000000002,0.0109700000000012,0.0216304,-0.0022097999999995,-0.1751373999999991,-0.0119823999999999,0,sub_1
-0.0053790000000002,0.0123920000000012,0.0215806,-0.0088449999999995,-0.1859521999999991,-0.0188519999999999,0,sub_1
-0.0113840000000002,0.0156178000000012,0.022404,-0.0138043999999995,-0.1959509999999991,-0.0180207999999999,0,sub_1
-0.0201976000000002,0.0183546000000012,0.0189944,-0.0155393999999995,-0.2025455999999991,-0.0188807999999999,0,sub_1
-0.0257426000000002,0.0175480000000012,0.0159886,-0.0129911999999995,-0.2059583999999991,-0.0199295999999999,0,sub_1
-0.0299054000000002,0.0175774000000011,0.013257,-0.0097761999999995,-0.2044689999999991,-0.0220493999999999,0,sub_1
-0.0378970000000002,0.0174014000000011,0.0124148,-0.0033851999999995,-0.2021639999999991,-0.0177391999999999,0,sub_1
-0.0388594000000002,0.0175610000000011,0.0135928,0.0007630000000004,-0.1868137999999991,-0.0237159999999999,0,sub_1
-0.0384054000000002,0.0163614000000011,0.0164064,0.0008390000000004,-0.165735199999999,-0.0201153999999999,0,sub_1
-0.0398854000000002,0.0182096000000011,0.019162,-0.0039723999999994,-0.141863199999999,-0.0182611999999999,0,sub_1
-0.0454792000000002,0.0190254000000011,0.0191044,-0.0076527999999994,-0.110298199999999,-0.0230323999999999,0,sub_1
-0.0494282000000002,0.0174306000000011,0.0168126,-0.0122143999999994,-0.081937799999999,-0.0248155999999999,0,sub_1
-0.0494012000000002,0.0132608000000011,0.011674,-0.0185071999999994,-0.062293999999999,-0.0298041999999999,0,sub_1
-0.0397046000000002,0.0109004000000011,0.0060586,-0.0271031999999994,-0.043876799999999,-0.0457027999999999,0,sub_1
-0.0239330000000002,0.0109056000000011,0.0015536,-0.0359083999999995,-0.0237579999999991,-0.0607493999999999,0,sub_1
-0.0037168000000002,0.0107542000000011,-2.519999999992444e-05,-0.0454373999999995,-0.0130491999999991,-0.0663867999999999,0,sub_1
0.0110619999999997,0.0096610000000012,2.3400000000075616e-05,-0.0564801999999994,-0.0061729999999991,-0.0713869999999999,0,sub_1
0.0234695999999997,0.0096020000000012,-0.0049655999999999,-0.0648525999999994,-0.0142525999999991,-0.0682301999999999,0,sub_1
0.0260625999999997,0.0100040000000012,-0.0137921999999999,-0.0679683999999994,-0.0353641999999991,-0.0607465999999999,0,sub_1
0.0314421999999997,0.0095464000000012,-0.0284471999999999,-0.0696441999999994,-0.0688369999999991,-0.0534507999999999,0,sub_1
0.0389853999999997,0.0108414000000011,-0.0429663999999999,-0.0732767999999994,-0.114855399999999,-0.0506389999999999,0,sub_1
0.0514725999999997,0.0173130000000011,-0.0573703999999999,-0.0767237999999994,-0.170660399999999,-0.0514455999999999,0,sub_1
0.0606333999999997,0.0324872000000011,-0.0478103999999999,-0.0624563999999994,-0.218883999999999,-0.0455143999999999,0,sub_1
0.0537211999999997,0.0427076000000012,-0.0188793999999999,-0.0353607999999994,-0.247394599999999,-0.0254183999999999,0,sub_1
0.0314013999999997,0.0476644000000011,0.01884,-0.0067675999999995,-0.2578691999999991,0.0117562,0,sub_1
-0.0060610000000002,0.0382930000000012,0.0410844,0.0189438000000004,-0.2421387999999991,0.0516544,0,sub_1
-0.0492724000000002,0.0256072000000012,0.0559454,0.0469998000000004,-0.1850615999999991,0.0859611999999999,0,sub_1
-0.0884186000000002,0.0037572000000012,0.051679,0.0526130000000005,-0.1141691999999991,0.0948825999999999,0,sub_1
-0.0992012000000002,-0.0115417999999987,0.031039,0.0376030000000005,-0.0569319999999991,0.0733399999999999,0,sub_1
-0.0906838000000002,-0.0192015999999987,0.0113918,0.0160704000000005,-0.0038337999999991,0.0269743999999999,0,sub_1
-0.0630166000000002,-0.0175679999999987,0.0112042,-0.0007717999999994,0.0471224000000008,-0.0206376,0,sub_1
-0.0320300000000002,-0.0145063999999987,0.0119382,-0.0300805999999994,0.0887042000000008,-0.0574287999999999,0,sub_1
-0.0031164000000002,-0.0061229999999987,0.0086946,-0.0563363999999994,0.1157140000000008,-0.0758065999999999,0,sub_1
0.0132717999999997,0.0039094000000012,0.0057704,-0.0756467999999994,0.1362480000000008,-0.0791723999999999,0,sub_1
0.0211353999999997,0.0143704000000012,0.007754,-0.0797065999999994,0.1409256000000008,-0.0732247999999999,0,sub_1
0.0167679999999997,0.0192548000000012,0.0136306,-0.0719363999999995,0.1233870000000008,-0.0628931999999999,0,sub_1
0.0098109999999997,0.0215714000000012,0.0233916,-0.0459091999999995,0.0851180000000008,-0.0524073999999999,0,sub_1
-0.0008918000000002,0.0171492000000012,0.0310618,-0.0176859999999995,0.0615388000000008,-0.0410703999999999,0,sub_1
-0.0126672000000002,0.0076088000000012,0.0303586,0.0053758000000004,0.0691130000000008,-0.0370745999999999,0,sub_1
-0.0291896000000002,-0.0067529999999987,0.0150296,0.0090860000000004,0.0971844000000008,-0.0272581999999999,0,sub_1
-0.0256674000000002,-0.0137505999999987,-0.0140429999999999,-0.0063163999999995,0.1332640000000008,-0.0323379999999999,0,sub_1
-0.0095436000000002,0.0072084000000012,-0.0262017999999999,-0.0282499999999994,0.1760176000000008,-0.0490077999999999,0,sub_1
0.0124617999999997,0.0294618000000012,-0.0324071999999999,-0.0436285999999994,0.2032044000000008,-0.0679619999999999,0,sub_1
0.0350929999999997,0.0430542000000011,-0.0203691999999999,-0.0524757999999994,0.1836320000000008,-0.0675813999999999,0,sub_1
0.0564241999999997,0.0496524000000011,-0.0024763999999999,-0.0455195999999994,0.1196894000000008,-0.0672455999999999,0,sub_1
0.0607187999999997,0.0555054000000011,0.0220044,-0.0260875999999994,0.0441346000000008,-0.0507733999999999,0,sub_1
0.0438391999999997,0.0338512000000012,0.027092,-0.0092091999999994,-0.0250375999999991,-0.0298418,0,sub_1
0.0220345999999997,0.0122744000000012,0.0267862,-0.0040001999999995,-0.0792557999999991,-0.0087982,0,sub_1
-0.0038702000000002,0.0030602000000012,0.0092398,-0.0020307999999995,-0.1059329999999991,0.0008643999999999,0,sub_1
-0.0254618000000002,0.0045918000000012,-0.0112105999999999,-0.0045453999999995,-0.0944241999999991,0.0021129999999999,0,sub_1
-0.0396690000000002,0.0083838000000012,-0.0274481999999999,-0.0081867999999995,-0.0583711999999991,-0.0062918,0,sub_1
-0.0399792000000002,0.0151320000000012,-0.0358397999999999,-0.0052107999999995,-0.0197925999999991,-0.0127307999999999,0,sub_1
-0.0310382000000002,0.0192292000000012,-0.0327395999999999,0.0033110000000004,0.0206748000000008,-0.0167823999999999,0,sub_1
-0.0167902000000002,0.0187744000000012,-0.0200671999999999,0.0144250000000004,0.0679516000000008,-0.0210381999999999,0,sub_1
-0.0056920000000002,0.0142856000000012,-0.0041731999999999,0.0194446000000005,0.0981754000000008,-0.0176328,0,sub_1
0.0001413999999997,0.0119632000000012,0.0056656,0.0245818000000004,0.1060320000000008,-0.0152662,0,sub_1
0.0002483999999998,0.0120896000000012,0.0102088,0.0191238000000005,0.0843050000000008,-0.0114406,0,sub_1
-0.0018118000000001,0.0121968000000012,0.0078316,0.0065910000000005,0.0496284000000008,-0.0132028,0,sub_1
-0.0022876000000001,0.0135952000000012,0.003716,-0.0079031999999994,0.0079194000000008,-0.0128332,0,sub_1
0.0011941999999998,0.0170192000000012,-0.0023389999999999,-0.0203731999999994,-0.0154635999999991,-0.0152397999999999,0,sub_1
0.0043819999999998,0.0178498000000012,-0.0055165999999999,-0.0351363999999994,-0.0190559999999991,-0.0097823999999999,0,sub_1
0.0081813999999997,0.0146254000000011,-0.0067405999999999,-0.0380975999999994,-0.0077767999999991,-0.0040471999999999,0,sub_1
0.0101937999999997,0.0150628000000011,-0.0088141999999999,-0.0334135999999994,-0.0010057999999991,0.0051636,0,sub_1
0.0097271999999997,0.0148794000000011,-0.0104985999999999,-0.0298161999999994,-0.002312799999999,0.0107452,0,sub_1
0.0075433999999997,0.0129358000000011,-0.0098637999999999,-0.0253873999999994,-0.013615599999999,0.0112172,0,sub_1
0.0061797999999997,0.0120018000000011,-0.0103057999999999,-0.0237429999999995,-0.031920799999999,0.0069786,0,sub_1
0.0084861999999997,0.0120618000000011,-0.0100797999999999,-0.0288931999999994,-0.046776999999999,-0.0013711999999999,0,sub_1
0.0092575999999997,0.0103472000000011,-0.0074571999999999,-0.0374139999999994,-0.053526399999999,-0.0110343999999999,0,sub_1
0.0082551999999997,0.0096722000000012,-0.0059419999999999,-0.0452749999999994,-0.0524085999999991,-0.0172847999999999,0,sub_1
0.0049751999999997,0.0096330000000012,-0.0050201999999999,-0.0503727999999994,-0.0494001999999991,-0.0192457999999999,0,sub_1
0.0012695999999997,0.0101872000000011,-0.0028153999999999,-0.0514545999999994,-0.0508967999999991,-0.0164697999999999,0,sub_1
-0.0037506000000002,0.0120012000000011,-0.0010001999999999,-0.0502279999999994,-0.0577405999999991,-0.0104665999999999,0,sub_1
-0.0072860000000002,0.0142090000000011,0.0010026,-0.0498561999999994,-0.0658555999999991,-0.0055363999999999,0,sub_1
-0.0080688000000002,0.0135490000000011,0.0062298,-0.0490545999999994,-0.0765149999999991,-0.0040185999999999,0,sub_1
-0.0071128000000001,0.0134076000000011,0.0114962,-0.0495189999999994,-0.0869441999999991,-0.0057145999999999,0,sub_1
-0.0051700000000001,0.0126914000000011,0.0157554,-0.0506175999999994,-0.0971523999999991,-0.0093417999999999,0,sub_1
-0.0028070000000001,0.0125116000000012,0.0186796,-0.0521523999999994,-0.1092765999999991,-0.0129693999999999,0,sub_1
-0.0010258000000001,0.0135806000000011,0.0195036,-0.0517909999999994,-0.1233383999999991,-0.0131629999999999,0,sub_1
-0.0015112000000001,0.0174408000000011,0.0172068,-0.0505899999999994,-0.1374161999999991,-0.0101457999999999,0,sub_1
-0.0032992000000001,0.0194404000000012,0.0168544,-0.0485457999999994,-0.1538561999999991,-0.0049715999999999,0,sub_1
-0.0069902000000001,0.0175680000000012,0.0172406,-0.0462839999999994,-0.1692315999999991,0.0002026,0,sub_1
-0.0111904000000002,0.0137140000000012,0.0192796,-0.0435621999999995,-0.1775769999999991,0.005157,0,sub_1
-0.0175820000000002,0.0105386000000011,0.0202346,-0.0401575999999995,-0.1788835999999991,0.0075422,0,sub_1
-0.0213974000000002,0.0085144000000011,0.0210158,-0.0360795999999995,-0.1750695999999991,0.0075748,0,sub_1
-0.0227018000000002,0.0071324000000011,0.0191446,-0.0304939999999995,-0.1676255999999991,0.0061058,0,sub_1
-0.0210628000000001,0.0109242000000011,0.0180142,-0.0238305999999994,-0.1563563999999991,0.006135,0,sub_1
-0.0192168000000002,0.0141394000000011,0.0154818,-0.0162961999999994,-0.1423369999999991,0.0074638,0,sub_1
-0.0155128000000001,0.0157266000000011,0.015448,-0.0096001999999994,-0.1242701999999991,0.0096374,0,sub_1
-0.0137348000000001,0.0151974000000011,0.0144828,-0.0048069999999994,-0.1032105999999991,0.0109394,0,sub_1
-0.0113168000000002,0.0154104000000011,0.013859,-0.0023717999999994,-0.0851231999999991,0.011588,0,sub_1
-0.0101222000000002,0.0134434000000011,0.0119846,-0.0016631999999994,-0.0751113999999991,0.0086032,0,sub_1
-0.0069500000000002,0.0116688000000011,0.011658,-0.0029125999999994,-0.0744419999999991,0.0021836,0,sub_1
-0.0037940000000002,0.0107162000000011,0.0107594,-0.0044321999999994,-0.0861297999999991,-0.0040083999999999,0,sub_1
-0.0009486000000002,0.0109110000000011,0.010457,-0.0053671999999994,-0.1072061999999991,-0.0071925999999999,0,sub_1
-0.0023626000000002,0.0127708000000011,0.009718,-0.0062873999999995,-0.1246897999999991,-0.0069445999999999,0,sub_1
-0.0069286000000001,0.0139414000000012,0.00797,-0.0082457999999995,-0.1317461999999991,-0.0026585999999999,0,sub_1
-0.0139158000000001,0.0154680000000011,0.0058646,-0.0091121999999995,-0.1307205999999991,0.004188,0,sub_1
-0.0208844000000002,0.0156178000000011,0.0031546,-0.0061049999999995,-0.1235255999999991,0.0099852,0,sub_1
-0.0257306000000001,0.0160666000000011,0.0015292,-0.0011533999999995,-0.1154667999999991,0.0113076,0,sub_1
-0.0268570000000001,0.0148448000000011,0.0002688,0.0044442000000005,-0.1073775999999991,0.008343,0,sub_1
-0.0223274000000002,0.0148954000000011,-0.0001071999999999,0.0109010000000004,-0.0997107999999991,0.0036762,0,sub_1
-0.0172832000000002,0.0162984000000011,0.0002488,0.0167256000000005,-0.0886397999999991,0.00071,0,sub_1
-0.0141258000000001,0.0174214000000011,0.0025296,0.0189246000000005,-0.0733103999999991,0.0015588,0,sub_1
-0.0145288000000001,0.0158536000000012,0.0044796,0.0202828000000005,-0.0550325999999991,0.0071228,0,sub_1
-0.0146862000000002,0.0143900000000012,0.005235,0.0224874000000004,-0.0376125999999991,0.0133346,0,sub_1
-0.0168782000000001,0.0133942000000012,0.0061346,0.0249064000000004,-0.0214655999999991,0.018054,0,sub_1
-0.0157282000000002,0.0135434000000012,0.0076914,0.0279538000000004,-0.0102115999999991,0.020434,0,sub_1
-0.0126540000000002,0.0139144000000012,0.0089036,0.0314058000000004,-0.0049203999999991,0.0217564,0,sub_1
-0.0085320000000002,0.0162826000000012,0.0091192,0.0341972000000004,-0.0004573999999991,0.0221966,0,sub_1
-0.0089624000000001,0.0164428000000012,0.0077424,0.0348618000000004,0.0046556000000008,0.0217664,0,sub_1
-0.0096782000000001,0.0148378000000012,0.0053192,0.0348970000000004,0.0095682000000008,0.0187682,0,sub_1
-0.0105284000000001,0.0125370000000012,0.0025514,0.0340970000000004,0.0161974000000008,0.0134118,0,sub_1
-0.0102416000000001,0.0116076000000012,0.0007586,0.0320390000000004,0.0260338000000008,0.0063334,0,sub_1
-0.0084218000000002,0.0099432000000012,0.0010424,0.0289036000000004,0.0335302000000008,-0.0007493999999999,0,sub_1
-0.0030264000000002,0.0104462000000012,0.0026594,0.0261566000000004,0.0354738000000008,-0.0048307999999999,0,sub_1
0.0017559999999997,0.0128048000000012,0.0026008,0.0231636000000005,0.0339938000000008,-0.0050633999999999,0,sub_1
0.0032431999999997,0.0145872000000012,0.0004962,0.0212176000000005,0.0316436000000008,-0.0016553999999999,0,sub_1
0.0036367999999997,0.0163136000000012,-0.0025563999999999,0.0218266000000004,0.0286426000000008,0.0024124,0,sub_1
0.0033249999999997,0.0179444000000012,-0.0054265999999999,0.0247944000000005,0.0281902000000008,0.0064932,0,sub_1
0.0024465999999997,0.0188340000000012,-0.0064915999999999,0.0286426000000005,0.0326392000000008,0.0095058,0,sub_1
0.0024921999999997,0.0183150000000012,-0.0053955999999999,0.0337758000000005,0.0381490000000008,0.0125258,0,sub_1
0.0035063999999997,0.0168002000000012,-0.0037561999999999,0.0386868000000005,0.0402564000000008,0.0140533999999999,0,sub_1
0.0041287999999997,0.0139654000000012,-0.0022597999999999,0.0416706000000005,0.0410916000000008,0.0157828,0,sub_1
0.0042605999999997,0.0123396000000011,-0.0025877999999999,0.0418930000000005,0.0447060000000008,0.0174894,0,sub_1
0.0040297999999997,0.0116770000000011,-0.0024225999999999,0.0404074000000004,0.0479012000000008,0.0189708,0,sub_1
0.0044033999999997,0.0111802000000012,-0.0019791999999999,0.0370042000000005,0.0496202000000008,0.0183044,0,sub_1
0.0056153999999997,0.0108810000000012,-0.0004747999999999,0.0327406000000005,0.0481534000000008,0.0159268,0,sub_1
0.0084121999999997,0.0105674000000012,-0.0008337999999999,0.0284684000000004,0.0445566000000008,0.0133387999999999,0,sub_1
0.0111529999999997,0.0115444000000012,-0.0010949999999999,0.0258774000000005,0.0362624000000008,0.0118371999999999,0,sub_1
0.0132681999999997,0.0113586000000012,-0.0032479999999999,0.0260460000000005,0.0273092000000008,0.0129195999999999,0,sub_1
0.0105855999999997,0.0117650000000012,-0.0031719999999999,0.0294030000000005,0.0204558000000008,0.0189353999999999,0,sub_1
0.0053299999999998,0.0123896000000012,-0.0023225999999999,0.0359682000000004,0.0184786000000008,0.0281715999999999,0,sub_1
-0.0011226000000001,0.0146498000000012,-0.0006487999999999,0.0425496000000004,0.0177892000000008,0.0350551999999999,0,sub_1
-0.0041564000000001,0.0128336000000012,0.001638,0.0478888000000004,0.0207460000000008,0.037011,0,sub_1
-0.0057652000000001,0.0111910000000012,0.0049222,0.0513352000000004,0.0241584000000008,0.0331844,0,sub_1
-0.0031594000000001,0.0091374000000012,0.0054962,0.0496748000000004,0.0237818000000008,0.0222768,0,sub_1
0.0019753999999997,0.0085954000000012,0.0046206,0.0426620000000005,0.0140708000000008,0.0060032,0,sub_1
0.0068135999999997,0.0072620000000012,0.0028484,0.0334876000000004,-0.0013867999999991,-0.0098501999999999,0,sub_1
0.0084481999999997,0.0089000000000012,0.0003052,0.0215234000000004,-0.0164249999999991,-0.0216639999999999,0,sub_1
0.0068543999999997,0.0120226000000012,-0.0024811999999999,0.0099654000000005,-0.0297855999999991,-0.0270677999999999,0,sub_1
0.0040149999999997,0.0153580000000011,-0.0052061999999999,0.0033422000000004,-0.0391605999999991,-0.0255663999999999,0,sub_1
0.0008971999999997,0.0173968000000012,-0.0090879999999999,0.0007860000000004,-0.0398381999999991,-0.0180661999999999,0,sub_1
-0.0001500000000002,0.0190924000000011,-0.0116561999999999,0.0025208000000005,-0.0326589999999991,-0.007769,0,sub_1
0.0004693999999997,0.0199044000000012,-0.0122227999999999,0.0100206000000005,-0.0246475999999991,0.0025673999999999,0,sub_1
0.0041109999999997,0.0194576000000012,-0.0120927999999999,0.0171144000000004,-0.0138573999999991,0.0109747999999999,0,sub_1
0.0089893999999997,0.0167808000000012,-0.0096613999999999,0.0211908000000004,-0.0030303999999991,0.0171857999999999,0,sub_1
0.0125475999999997,0.0134768000000012,-0.0056315999999999,0.0233444000000004,0.0048306000000008,0.0208237999999999,0,sub_1
0.0136271999999997,0.0104942000000012,-0.0024787999999999,0.0233456000000004,0.0063170000000008,0.0221049999999999,0,sub_1
0.0116603999999997,0.0088074000000012,-0.0026337999999999,0.0205568000000004,0.0016448000000008,0.0208107999999999,0,sub_1
0.0089187999999997,0.0065158000000012,-0.0033541999999999,0.0181948000000005,-0.0059997999999991,0.0165321999999999,0,sub_1
0.0042813999999997,0.0069646000000011,-0.0026749999999999,0.0177648000000005,-0.0123675999999991,0.010983,0,sub_1
0.0001439999999997,0.0104824000000011,0.0003324,0.0186478000000004,-0.0189647999999991,0.0050476,0,sub_1
-0.0046388000000002,0.0153358000000011,0.004247,0.0193072000000004,-0.0259941999999991,0.0008196,0,sub_1
-0.0081870000000002,0.0197222000000011,0.0089348,0.0195260000000004,-0.0321851999999991,0.000433,0,sub_1
-0.0103892000000002,0.0219168000000011,0.0111818,0.0203704000000004,-0.0371179999999991,0.0045354,0,sub_1
-0.0098024000000002,0.0223766000000011,0.0119606,0.0216480000000004,-0.0390753999999991,0.0101326,0,sub_1
-0.0086180000000002,0.0196334000000012,0.0118456,0.0218556000000004,-0.0341995999999991,0.016109,0,sub_1
-0.0058552000000002,0.0136294000000012,0.011259,0.0212454000000004,-0.0241963999999991,0.0192962,0,sub_1
-0.0037394000000002,0.0076014000000012,0.0084794,0.0204466000000005,-0.0143825999999991,0.016714,0,sub_1
-0.0021296000000002,0.0059182000000012,0.0059778,0.0164712000000004,-0.0098591999999991,0.0075136,0,sub_1
-2.9400000000218487e-05,0.0059518000000012,0.0021036,0.0105538000000004,-0.0144733999999991,-0.0059615999999999,0,sub_1
0.0048093999999997,0.0050962000000012,-0.0028783999999999,0.0048110000000005,-0.0284599999999991,-0.0200637999999999,0,sub_1
0.0091807999999997,0.0054210000000012,-0.0077047999999999,-0.0003065999999994,-0.0430991999999991,-0.0313831999999999,0,sub_1
0.0130993999999997,0.0059028000000012,-0.0104313999999999,-0.0047769999999994,-0.0534907999999991,-0.0399259999999999,0,sub_1
0.0125833999999997,0.0071776000000012,-0.0098333999999999,-0.0079743999999994,-0.0589951999999991,-0.0459221999999999,0,sub_1
0.0107585999999997,0.0068400000000012,-0.0097581999999999,-0.0111747999999994,-0.0636531999999991,-0.0504239999999999,0,sub_1
0.0065461999999997,0.0074248000000012,-0.0093127999999999,-0.0137371999999994,-0.0670419999999991,-0.0532143999999999,0,sub_1
0.0050537999999997,0.0114212000000012,-0.0065371999999999,-0.0146169999999995,-0.0742915999999991,-0.0521317999999999,0,sub_1
0.0047727999999997,0.0151704000000012,-0.0032963999999999,-0.0163839999999995,-0.0836897999999991,-0.0457117999999999,0,sub_1
0.0065555999999997,0.0155992000000011,-0.0012113999999999,-0.0158245999999995,-0.0941749999999991,-0.0358555999999999,0,sub_1
0.0058925999999997,0.0171482000000011,6.000000000052057e-06,-0.0141829999999995,-0.1004063999999991,-0.0251427999999999,0,sub_1
0.0043757999999997,0.0193856000000011,-0.0004231999999999,-0.0133535999999994,-0.0993833999999991,-0.0163679999999999,0,sub_1
-0.0037724000000002,0.0183394000000011,-0.0046017999999999,-0.0126581999999995,-0.0861803999999991,-0.0153121999999999,0,sub_1
-0.0098994000000002,0.0143108000000012,-0.0083641999999999,-0.0113269999999994,-0.0755303999999991,-0.0157447999999999,0,sub_1
-0.0139422000000002,0.0124352000000011,-0.0117145999999999,-0.0110363999999994,-0.0631561999999991,-0.0202465999999999,0,sub_1
-0.0132244000000002,0.0115148000000011,-0.0121015999999999,-0.0128623999999994,-0.0486415999999991,-0.0256091999999999,0,sub_1
-0.0095504000000002,0.0112292000000011,-0.0097667999999999,-0.0157783999999994,-0.0385997999999991,-0.0303323999999999,0,sub_1
0.0002813999999997,0.0110184000000012,-0.0042505999999999,-0.0198365999999994,-0.0402917999999991,-0.0301339999999999,0,sub_1
0.0055223999999997,0.0135616000000012,-0.0003143999999999,-0.0224067999999994,-0.0428419999999991,-0.0297093999999999,0,sub_1
0.0088749999999997,0.0150824000000012,0.0018702,-0.0250107999999995,-0.0488171999999991,-0.0252211999999999,0,sub_1
0.0083285999999997,0.0162078000000012,0.0014062,-0.0238045999999995,-0.0580115999999991,-0.0179361999999999,0,sub_1
0.0054109999999997,0.0156078000000012,0.00139,-0.0206633999999995,-0.0618949999999991,-0.0085083999999999,0,sub_1
0.0006673999999998,0.0150036000000012,0.0009572,-0.0168503999999995,-0.0589621999999991,0.0007013999999999,0,sub_1
-0.0017428000000001,0.0146234000000011,0.0022528,-0.0142885999999995,-0.0519675999999991,0.0075465999999999,0,sub_1
