userAcceleration.x,userAcceleration.y,userAcceleration.z,rotationRate.x,rotationRate.y,rotationRate.z,label,subject
-0.0015784000000003,0.0064876000000012,0.0055195999999999,0.0056726000000005,0.0116926000000006,0.0031379999999999,0,sub_23
-0.0012696000000003,0.0065648000000012,0.0058753999999999,0.0084436000000005,0.0110172000000006,0.0031621999999999,0,sub_23
-0.0016428000000003,0.0064020000000012,0.0051519999999999,0.0112130000000005,0.0101554000000007,0.0031823999999999,0,sub_23
-0.0020050000000003,0.0060068000000012,0.0047921999999999,0.0131318000000005,0.0101480000000007,0.0034093999999999,0,sub_23
-0.0015116000000003,0.0056708000000012,0.0046233999999999,0.0148374000000005,0.0105658000000007,0.0040615999999999,0,sub_23
-0.0015242000000003,0.0050992000000012,0.0043943999999999,0.0156910000000005,0.0101126000000007,0.0038579999999999,0,sub_23
-0.0013256000000003,0.0046006000000012,0.0035441999999999,0.0152616000000005,0.0086004000000007,0.0032195999999999,0,sub_23
-0.0009320000000003,0.0039494000000013,0.0029568,0.0135492000000005,0.0060290000000007,0.0021463999999999,0,sub_23
-0.0004412000000003,0.0041102000000013,0.0017936,0.0109778000000005,0.0023944000000007,0.0012821999999999,0,sub_23
-1.2400000000370058e-05,0.0035880000000013,0.0002802,0.0064860000000005,-0.0018699999999992,-0.0002354,0,sub_23
0.0005889999999996,0.0030056000000012,-0.0014255999999999,0.0017844000000005,-0.0052555999999992,-0.001973,0,sub_23
0.0001853999999996,0.0026108000000012,-0.0030275999999999,-0.0026997999999994,-0.0082139999999992,-0.004137,0,sub_23
0.0002315999999996,0.0031702000000013,-0.0040771999999999,-0.0071809999999994,-0.0101087999999992,-0.005875,0,sub_23
0.0001635999999996,0.0036360000000012,-0.0046907999999999,-0.0101655999999994,-0.0116073999999992,-0.007386,0,sub_23
0.0001561999999996,0.0050794000000012,-0.0055443999999999,-0.0101665999999994,-0.0129075999999992,-0.0078082,0,sub_23
0.0004133999999996,0.0066102000000012,-0.0056661999999999,-0.0082567999999994,-0.0142229999999992,-0.0060806,0,sub_23
0.0011153999999996,0.0075498000000012,-0.0053057999999999,-0.0035723999999994,-0.0132131999999992,-0.0022,0,sub_23
0.0013307999999996,0.0071240000000012,-0.0045315999999999,0.0030382000000005,-0.0098705999999992,0.0027593999999999,0,sub_23
0.0012401999999996,0.0063748000000012,-0.0034573999999999,0.0092208000000005,-0.0062895999999992,0.0077119999999999,0,sub_23
0.0006679999999996,0.0055016000000012,-0.0014489999999999,0.0130598000000005,-0.0033337999999992,0.0111535999999999,0,sub_23
0.0001727999999996,0.0047290000000012,-0.0002585999999999,0.0151992000000005,-0.0010017999999992,0.0122339999999999,0,sub_23
-0.0003282000000003,0.0039268000000012,0.0013596,0.0145666000000005,-0.0003789999999992,0.0118047999999999,0,sub_23
-0.0013624000000003,0.0035826000000012,0.0028406,0.0122256000000005,-0.0016609999999992,0.0096567999999999,0,sub_23
-0.0020570000000003,0.0040468000000012,0.0036277999999999,0.0090320000000005,-0.0025147999999992,0.0077157999999999,0,sub_23
-0.0028924000000003,0.0043330000000012,0.0038947999999999,0.0075396000000005,-0.0031673999999992,0.0072817999999999,0,sub_23
-0.0031704000000003,0.0045988000000012,0.0046107999999999,0.0066836000000005,-0.0036133999999992,0.0079201999999999,0,sub_23
-0.0036602000000003,0.0060518000000012,0.0050873999999999,0.0077422000000005,-0.0040481999999992,0.0092095999999999,0,sub_23
-0.0031970000000003,0.0070644000000012,0.0053895999999999,0.0100780000000005,-0.0044899999999992,0.0111487999999999,0,sub_23
-0.0025984000000003,0.0070654000000013,0.0060593999999999,0.0139084000000005,-0.0051483999999992,0.0126715999999998,0,sub_23
-0.0019214000000003,0.0072386000000013,0.0065993999999999,0.0173210000000005,-0.0051851999999992,0.0135527999999998,0,sub_23
-0.0015454000000003,0.0074010000000013,0.0066499999999999,0.0211602000000005,-0.0052233999999992,0.0144369999999998,0,sub_23
-0.0005214000000003,0.0061030000000013,0.0062043999999999,0.0232944000000005,-0.0054661999999992,0.0146687999999998,0,sub_23
-1.940000000035017e-05,0.0056736000000012,0.0051899999999999,0.0235124000000005,-0.0056989999999992,0.0140327999999998,0,sub_23
0.0008839999999996,0.0051520000000013,0.0038183999999999,0.0222312000000005,-0.0072047999999992,0.0133879999999999,0,sub_23
0.0017471999999996,0.0043098000000013,0.0025797999999999,0.0198722000000005,-0.0103897999999992,0.0127347999999999,0,sub_23
0.0021263999999996,0.0037666000000012,0.0007209999999999,0.0170830000000005,-0.0144253999999992,0.0120797999999998,0,sub_23
0.0021929999999996,0.0047280000000013,-0.0007068,0.0159972000000005,-0.0188947999999992,0.0118645999999998,0,sub_23
0.0019779999999996,0.0046854000000012,-0.0013336,0.0168278000000005,-0.0235863999999992,0.0123039999999998,0,sub_23
0.0020223999999996,0.0047854000000013,-0.0018883999999999,0.0195802000000005,-0.0280929999999992,0.0131861999999998,0,sub_23
0.0026907999999996,0.0051190000000013,-0.0019015999999999,0.0236188000000005,-0.0309011999999992,0.0145025999999998,0,sub_23
0.0030659999999996,0.0049118000000013,-0.0018847999999999,0.0270160000000005,-0.0337081999999992,0.0160281999999999,0,sub_23
0.0024667999999996,0.0044662000000012,-0.0023553999999999,0.0287064000000005,-0.0371457999999992,0.0169015999999999,0,sub_23
0.0022149999999996,0.0041062000000012,-0.0027039999999999,0.0293340000000005,-0.0401517999999992,0.0173395999999999,0,sub_23
0.0012669999999996,0.0036956000000012,-0.0026567999999999,0.0286912000000004,-0.0418495999999992,0.0162691999999999,0,sub_23
-0.0004536000000003,0.0032408000000012,-0.0031697999999999,0.0265550000000004,-0.0443909999999992,0.0143347999999999,0,sub_23
-0.0017786000000003,0.0033218000000012,-0.0028325999999999,0.0233562000000004,-0.0471537999999992,0.0115401999999999,0,sub_23
-0.0021510000000003,0.0031392000000012,-0.0022665999999999,0.0201638000000004,-0.0480007999999992,0.0091705999999998,0,sub_23
-0.0026252000000003,0.0029550000000012,-0.0019843999999999,0.0173962000000004,-0.0486389999999992,0.0074445999999998,0,sub_23
-0.0033518000000003,0.0033362000000013,-0.0022089999999999,0.0146230000000005,-0.0494943999999992,0.0067867999999998,0,sub_23
-0.0035204000000003,0.0038190000000012,-0.0015785999999999,0.0129164000000005,-0.0492923999999992,0.0072033999999998,0,sub_23
-0.0040170000000003,0.0037894000000012,-0.0008551999999999,0.0129214000000005,-0.0473781999999992,0.0080551999999998,0,sub_23
-0.0044136000000003,0.0042392000000012,0.0001611999999999,0.0142046000000005,-0.0456823999999992,0.0091295999999998,0,sub_23
-0.0049526000000003,0.0050306000000012,0.0015299999999999,0.0159154000000005,-0.0444115999999992,0.0095665999999999,0,sub_23
-0.0055038000000003,0.0054286000000012,0.0032805999999999,0.0176332000000005,-0.0420897999999992,0.0095765999999999,0,sub_23
-0.0058502000000003,0.0059402000000013,0.0043887999999999,0.0189300000000005,-0.0389127999999992,0.0091549999999999,0,sub_23
-0.0058852000000003,0.0061772000000013,0.0052621999999999,0.0200140000000005,-0.0348853999999992,0.0093717999999999,0,sub_23
-0.0052660000000003,0.0058768000000013,0.0054113999999999,0.0211010000000005,-0.0300065999999992,0.0098011999999998,0,sub_23
-0.0044798000000003,0.0062446000000013,0.00476,0.0226098000000005,-0.0253455999999992,0.0110885999999998,0,sub_23
-0.0037258000000003,0.0067246000000013,0.0044712,0.0247480000000005,-0.0217411999999992,0.0136621999999998,0,sub_23
-0.0029832000000003,0.0061994000000013,0.0039558,0.0277434000000005,-0.0174997999999992,0.0160273999999998,0,sub_23
-0.0014592000000003,0.0064458000000012,0.0037154,0.0301074000000005,-0.0119751999999992,0.0177457999999998,0,sub_23
-0.0006296000000003,0.0068414000000012,0.003918,0.0314014000000005,-0.0066753999999992,0.0196709999999998,0,sub_23
0.0004573999999996,0.0065988000000012,0.0041341999999999,0.0312048000000005,-0.0009435999999992,0.0213715999999999,0,sub_23
0.0013293999999996,0.0058894000000012,0.0037487999999999,0.0303698000000005,0.0041556000000007,0.0220003999999999,0,sub_23
0.0020071999999996,0.0060196000000012,0.0027997999999999,0.0284606000000005,0.0067054000000007,0.0217705999999999,0,sub_23
0.0014529999999996,0.0061808000000012,0.0025063999999999,0.0273954000000005,0.0066972000000007,0.0211225999999999,0,sub_23
0.0010363999999996,0.0060008000000013,0.0022907999999999,0.0276048000000005,0.0052078000000006,0.0204851999999999,0,sub_23
0.0011589999999996,0.0051806000000013,0.0014018,0.0282450000000005,0.0045692000000006,0.0198497999999999,0,sub_23
0.0011107999999996,0.0058106000000012,0.0004414,0.0273946000000005,0.0047870000000006,0.0194165999999999,0,sub_23
0.0008481999999996,0.0060198000000013,0.000284,0.0259032000000005,0.0060596000000006,0.0194029999999998,0,sub_23
0.0011989999999996,0.0061106000000012,-0.0012833999999999,0.0265590000000005,0.0107318000000006,0.0198273999999998,0,sub_23
0.0008241999999996,0.0058636000000012,-0.0039225999999999,0.0257360000000005,0.0177562000000007,0.0193837999999998,0,sub_23
0.0001525999999996,0.0070150000000013,-0.0047347999999999,0.0242728000000005,0.0258438000000007,0.0200023999999998,0,sub_23
0.0010741999999996,0.0051482000000013,-0.0030183999999999,0.0204394000000005,0.0315852000000007,0.0233849999999998,0,sub_23
0.0037017999999995,0.0048064000000013,-0.0002657999999999,0.0110288000000005,0.0339328000000007,0.0305805999999998,0,sub_23
0.0051879999999995,0.0039054000000013,0.000298,-0.0056833999999994,0.0277760000000007,0.0396591999999998,0,sub_23
0.0067117999999995,0.0028548000000013,0.000734,-0.0145067999999994,0.0181912000000007,0.0466611999999998,0,sub_23
0.0076103999999995,0.0029190000000013,-0.0007393999999999,-0.0175527999999994,0.0113594000000007,0.0511319999999998,0,sub_23
0.0079485999999995,0.0040866000000013,-0.0019873999999999,-0.0135293999999994,0.0068618000000007,0.0518035999999998,0,sub_23
0.0065061999999995,0.0038318000000012,-0.0035719999999999,-0.0007477999999994,-0.0008407999999992,0.0471991999999999,0,sub_23
0.0059621999999995,0.0027642000000012,-0.0021029999999999,0.0152428000000005,-0.0106687999999992,0.0385605999999999,0,sub_23
0.0059583999999995,0.0025482000000012,-0.0004581999999999,0.0233470000000005,-0.0200371999999992,0.0283707999999998,0,sub_23
0.0047967999999995,0.0015504000000012,0.0007656,0.0244024000000005,-0.0336317999999992,0.0172867999999998,0,sub_23
0.0031137999999996,0.0010516000000012,-8.359999999996643e-05,0.0216084000000005,-0.0491303999999992,0.0061781999999998,0,sub_23
0.0025441999999996,0.0005114000000012,-0.0007639999999999,0.0169210000000005,-0.0554739999999992,-0.0017508000000001,0,sub_23
0.0027761999999996,0.0019178000000012,-0.0038503999999999,0.0129004000000005,-0.0501153999999992,-0.0060640000000001,0,sub_23
0.0023577999999996,0.0035132000000012,-0.0059173999999999,0.0086640000000005,-0.0411511999999992,-0.0061106,0,sub_23
0.0033229999999996,0.0037810000000012,-0.0049637999999999,0.0074050000000005,-0.0328425999999992,-0.0046398,0,sub_23
0.0045945999999996,0.0044028000000012,-0.0056503999999999,0.0065812000000005,-0.0219813999999992,-0.0025284,0,sub_23
0.0049571999999996,0.0056482000000012,-0.0070635999999999,0.0068052000000005,-0.0170825999999992,-0.0021112,0,sub_23
0.0046955999999996,0.0057854000000012,-0.0059515999999999,0.0076544000000005,-0.0185751999999992,-0.0025302,0,sub_23
0.0059459999999996,0.0051544000000012,-0.0051009999999999,0.0093560000000005,-0.0202835999999992,-0.0029428,0,sub_23
0.0064543999999996,0.0049940000000012,-0.0058801999999999,0.0110682000000005,-0.0175263999999992,-0.0012248000000001,0,sub_23
0.0061347999999996,0.0049730000000012,-0.0051647999999999,0.0149182000000005,-0.0115903999999993,0.0028543999999998,0,sub_23
0.0058371999999996,0.0040072000000012,-0.0049607999999999,0.0177128000000005,-0.0011841999999993,0.0088433999999998,0,sub_23
0.0053503999999996,0.0034798000000012,-0.0054033999999999,0.0213858000000005,0.0132730000000006,0.0133375999999998,0,sub_23
0.0046607999999996,0.0038836000000012,-0.0062033999999999,0.0239828000000005,0.0247544000000006,0.0169735999999998,0,sub_23
0.0048227999999996,0.0045544000000012,-0.0070671999999999,0.0244442000000005,0.0341196000000006,0.0188883999999999,0,sub_23
0.0060117999999996,0.0047256000000012,-0.0087347999999999,0.0217040000000005,0.0420098000000007,0.0195005999999998,0,sub_23
0.0054791999999996,0.0050530000000012,-0.0077567999999999,0.0183286000000005,0.0486334000000007,0.0177599999999998,0,sub_23
0.0048059999999996,0.0053454000000012,-0.0063229999999999,0.0149494000000005,0.0533438000000007,0.0149535999999998,0,sub_23
0.0031983999999996,0.0047636000000012,-0.0050395999999999,0.0103066000000005,0.0604082000000007,0.0106395999999999,0,sub_23
0.0014137999999996,0.0045146000000013,-0.0032921999999999,0.0058782000000005,0.0666238000000007,0.0052597999999999,0,sub_23
-0.0014572000000003,0.0048138000000012,-0.0009887999999999,0.0029346000000005,0.0692192000000007,-0.0018144,0,sub_23
-0.0032758000000003,0.0046474000000012,-0.0005929999999999,-0.0008731999999994,0.0688374000000007,-0.009532,0,sub_23
-0.0052790000000003,0.0039846000000013,0.0008404,-0.0055491999999994,0.0650504000000007,-0.0174652,0,sub_23
-0.0069954000000003,0.0036968000000012,0.0025344,-0.0076811999999994,0.0582694000000007,-0.0247362,0,sub_23
-0.0086852000000003,0.0031622000000012,0.0041196,-0.0098549999999994,0.0491490000000007,-0.0303096,0,sub_23
-0.0094596000000003,0.0028234000000012,0.0057908,-0.0124653999999994,0.0402336000000007,-0.0335362,0,sub_23
-0.0093282000000003,0.0026304000000012,0.0076396,-0.0146395999999994,0.0353570000000007,-0.0348422,0,sub_23
-0.0090626000000003,0.0021988000000012,0.0086662,-0.0167995999999994,0.0347374000000007,-0.0350854,0,sub_23
-0.0093036000000003,0.0009500000000012,0.0094339999999999,-0.0191615999999994,0.0354018000000007,-0.0366136,0,sub_23
-0.0103418000000003,0.0002266000000012,0.0078395999999999,-0.0234079999999994,0.0352242000000007,-0.041772,0,sub_23
-0.0099556000000003,0.0028740000000012,0.0064193999999999,-0.0314919999999994,0.0342138000000007,-0.0484516,0,sub_23
-0.0080918000000003,0.0052074000000012,0.0049793999999999,-0.0410867999999994,0.0314958000000007,-0.0530030000000001,0,sub_23
-0.0050926000000003,0.0056174000000012,0.0037631999999999,-0.0519999999999994,0.0291978000000007,-0.0526642,0,sub_23
-0.0027548000000003,0.0063974000000012,0.0023508,-0.0644219999999994,0.0281646000000007,-0.047637,0,sub_23
-0.0006820000000003,0.0068922000000013,0.0027674,-0.0736521999999994,0.0281736000000007,-0.0395974,0,sub_23
-0.0007838000000003,0.0044564000000012,0.0017204,-0.0766925999999994,0.0283750000000007,-0.0317286,0,sub_23
-0.0012914000000003,0.0034972000000012,0.0004758,-0.0750317999999994,0.0277170000000007,-0.026176,0,sub_23
-0.0017248000000003,0.0048936000000012,-0.0013515999999999,-0.0692945999999994,0.0253416000000007,-0.023142,0,sub_23
-0.0007432000000003,0.0065544000000012,-0.0022919999999999,-0.0605651999999994,0.0227478000000007,-0.0213688,0,sub_23
0.0006615999999996,0.0073466000000012,-0.0026059999999999,-0.0520539999999994,0.0203626000000007,-0.0183152,0,sub_23
0.0026141999999996,0.0071138000000012,-0.0020209999999999,-0.0459131999999994,0.0175696000000007,-0.0148562,0,sub_23
0.0034085999999996,0.0064114000000013,-0.0017467999999999,-0.0423321999999994,0.0149988000000007,-0.0114152,0,sub_23
0.0031761999999996,0.0057946000000013,-0.0019199999999999,-0.0415229999999994,0.0118026000000007,-0.0090612,0,sub_23
0.0023273999999996,0.0049952000000012,-0.000971,-0.0419921999999994,0.0079762000000007,-0.0077834,0,sub_23
0.0019307999999996,0.0042546000000012,-0.0002514,-0.0422411999999994,0.0045794000000007,-0.0075732,0,sub_23
0.0011601999999996,0.0040032000000012,-0.0001604,-0.0422487999999994,0.0028752000000006,-0.0075708,0,sub_23
0.0006633999999996,0.0032250000000012,0.0003895999999999,-0.0418239999999994,0.0018110000000006,-0.0082074,0,sub_23
0.0003351999999996,0.0031344000000012,0.0017103999999999,-0.0407533999999994,0.0013864000000006,-0.0094812,0,sub_23
0.0006459999999996,0.0025260000000012,0.0014465999999999,-0.0407793999999994,-0.0005133999999993,-0.0107808,0,sub_23
0.0018153999999996,0.0027302000000012,0.0014129999999999,-0.0412351999999994,-0.0034751999999993,-0.0125092,0,sub_23
0.0034729999999996,0.0025784000000012,0.0021207999999999,-0.0425511999999994,-0.0079253999999992,-0.0142416,0,sub_23
0.0045065999999996,0.0034560000000012,0.0018575999999999,-0.0440833999999994,-0.0128017999999992,-0.015761,0,sub_23
0.0049397999999996,0.0031172000000012,0.0015477999999999,-0.0462567999999994,-0.0174645999999992,-0.0168578,0,sub_23
0.0051167999999996,0.0038480000000012,0.0017642,-0.0471267999999994,-0.0217199999999992,-0.0174988,0,sub_23
0.0050167999999996,0.0034446000000012,0.0014876,-0.0471451999999994,-0.0259801999999992,-0.0177066,0,sub_23
0.0038873999999996,0.0041194000000012,0.0015058,-0.0450307999999994,-0.0298241999999992,-0.0172592,0,sub_23
0.0028327999999996,0.0043424000000012,0.0015152,-0.0416637999999994,-0.0332417999999992,-0.0159708,0,sub_23
0.0024199999999996,0.0048642000000012,0.0015994,-0.0374461999999994,-0.0366649999999992,-0.0140356,0,sub_23
0.0016547999999996,0.0052538000000012,0.0015876,-0.0332209999999994,-0.0383837999999992,-0.0121026,0,sub_23
0.0005335999999996,0.0064820000000012,0.0022138,-0.0292041999999994,-0.0390363999999992,-0.0101724,0,sub_23
3.019999999962983e-05,0.0068154000000012,0.0027661999999999,-0.0262495999999994,-0.0388323999999992,-0.0084644,0,sub_23
-0.0004678000000003,0.0062982000000012,0.0037481999999999,-0.0241181999999994,-0.0382047999999992,-0.007382,0,sub_23
-0.0007802000000003,0.0062474000000012,0.0043279999999999,-0.0215551999999994,-0.0373621999999992,-0.0071516,0,sub_23
-0.0009522000000003,0.0060866000000012,0.0049101999999999,-0.0196353999999994,-0.0377931999999992,-0.0075648,0,sub_23
-0.0014398000000003,0.0058110000000012,0.0053321999999999,-0.0181653999999994,-0.0380099999999992,-0.007571,0,sub_23
-0.0013136000000003,0.0049826000000012,0.0053948,-0.0166877999999994,-0.0371587999999992,-0.0082195999999999,0,sub_23
-0.0011450000000003,0.0045594000000012,0.00498,-0.0166957999999994,-0.0350223999999993,-0.0093076,0,sub_23
-0.0009734000000003,0.0042934000000012,0.0045402,-0.0186213999999994,-0.0320279999999992,-0.0101962,0,sub_23
-0.0006850000000003,0.0038148000000012,0.0039924,-0.0211877999999994,-0.0290321999999992,-0.0108758,0,sub_23
-7.940000000037019e-05,0.0037792000000012,0.0028892,-0.0237323999999994,-0.0268865999999992,-0.0123918,0,sub_23
0.0005127999999996,0.0042638000000012,0.0020438,-0.0264997999999994,-0.0262341999999992,-0.0132664,0,sub_23
0.0009603999999996,0.0051916000000012,0.0014624,-0.0279965999999994,-0.0268679999999992,-0.013276,0,sub_23
0.0008823999999996,0.0061252000000012,0.0009934,-0.0280117999999994,-0.0270849999999992,-0.013287,0,sub_23
0.0005467999999996,0.0068452000000012,0.0011324,-0.0267401999999994,-0.0253907999999992,-0.0128642,0,sub_23
-0.0003360000000003,0.0066522000000012,0.0012677999999999,-0.0252501999999994,-0.0219953999999992,-0.0118014,0,sub_23
-0.0014452000000003,0.0060594000000012,0.0014269999999999,-0.0235431999999994,-0.0179607999999992,-0.0109516,0,sub_23
-0.0031946000000003,0.0057230000000012,0.0020479999999999,-0.0220437999999994,-0.0128593999999992,-0.0103182,0,sub_23
-0.0043706000000003,0.0047804000000012,0.0030473999999999,-0.0207457999999994,-0.0079669999999992,-0.0094614,0,sub_23
-0.0051576000000003,0.0050714000000012,0.0029019999999999,-0.0194495999999994,-0.0035005999999992,-0.0086042,0,sub_23
-0.0057600000000003,0.0053650000000012,0.0029975999999999,-0.0179381999999994,0.0011790000000007,-0.0079594,0,sub_23
-0.0060570000000003,0.0057464000000012,0.0031088,-0.0162145999999994,0.0073412000000007,-0.0071096,0,sub_23
-0.0055664000000003,0.0058886000000012,0.002936,-0.0142757999999994,0.0135044000000007,-0.0066856,0,sub_23
-0.0046510000000003,0.0062056000000012,0.0021161999999999,-0.0127683999999994,0.0181796000000007,-0.0066898,0,sub_23
-0.0035486000000003,0.0057820000000012,0.0016151999999999,-0.0116943999999994,0.0217892000000007,-0.0062682,0,sub_23
-0.0019676000000003,0.0049206000000012,0.0011087999999999,-0.0112671999999994,0.0239096000000006,-0.005849,0,sub_23
-0.0009734000000003,0.0045990000000012,0.0011047999999999,-0.0112663999999994,0.0243350000000006,-0.005636,0,sub_23
-0.0002424000000003,0.0047592000000012,0.0009797999999999,-0.0108465999999994,0.0230546000000006,-0.0054178,0,sub_23
0.0002933999999996,0.0050384000000012,0.0017263999999999,-0.0100037999999994,0.0213446000000006,-0.0047686,0,sub_23
0.0004799999999996,0.0047896000000012,0.0025143999999999,-0.0089407999999994,0.0200596000000006,-0.0047628,0,sub_23
0.0002451999999996,0.0048212000000012,0.0031723999999999,-0.0072367999999994,0.0196220000000007,-0.0041128,0,sub_23
-4.320000000037015e-05,0.0047696000000012,0.0032655999999999,-0.0059547999999994,0.0200390000000007,-0.0036806,0,sub_23
1.3399999999629854e-05,0.0045106000000012,0.0035197999999999,-0.0055241999999994,0.0208850000000007,-0.0032548,0,sub_23
-0.0002640000000003,0.0045592000000012,0.0027553999999999,-0.0053033999999994,0.0217352000000007,-0.0036852,0,sub_23
-0.0004918000000003,0.0046990000000012,0.0024793999999999,-0.0053019999999994,0.0215248000000007,-0.004326,0,sub_23
-0.0002488000000003,0.0048230000000012,0.0021407999999999,-0.0055099999999994,0.0213186000000006,-0.0058228,0,sub_23
0.0002277999999996,0.0048060000000012,0.0017759999999999,-0.0057215999999994,0.0208968000000006,-0.0066782,0,sub_23
0.0011987999999996,0.0048946000000012,0.001211,-0.0057085999999994,0.0208918000000006,-0.0073188,0,sub_23
0.0020813999999996,0.0046868000000012,0.0005198,-0.0059125999999994,0.0208842000000006,-0.0071064,0,sub_23
0.0025639999999996,0.0041214000000012,-0.0003799999999999,-0.0063269999999994,0.0213044000000006,-0.0071094,0,sub_23
0.0029795999999996,0.0042270000000012,-0.0012195999999999,-0.0065307999999994,0.0212968000000007,-0.0068968,0,sub_23
0.0029859999999996,0.0043966000000012,-0.0027347999999999,-0.0061001999999994,0.0200086000000007,-0.006678,0,sub_23
0.0024721999999996,0.0038266000000012,-0.0037355999999999,-0.0052645999999994,0.0165944000000007,-0.0060266,0,sub_23
0.0021251999999996,0.0037188000000012,-0.0039725999999999,-0.0042145999999994,0.0131804000000007,-0.0055872,0,sub_23
0.0021997999999996,0.0041678000000012,-0.0038137999999999,-0.0025253999999994,0.0095510000000007,-0.0051432,0,sub_23
0.0017337999999996,0.0048482000000012,-0.0030999999999999,-0.0008343999999994,0.0063476000000007,-0.0046996,0,sub_23
0.0013075999999996,0.0049630000000012,-0.0013699999999999,0.0006692000000005,0.0044230000000007,-0.004469,0,sub_23
0.0005151999999996,0.0048340000000012,-0.0004303999999999,0.0017586000000005,0.0042086000000007,-0.0053118,0,sub_23
-4.9800000000370205e-05,0.0047450000000012,-0.0003257999999999,0.0022136000000004,0.0048502000000007,-0.0065874,0,sub_23
-0.0005840000000003,0.0041352000000012,-0.0001043999999999,0.0013892000000005,0.0061338000000007,-0.0074456,0,sub_23
-0.0006136000000003,0.0034252000000012,-0.0007367999999999,0.0001334000000005,0.0065660000000007,-0.0080922,0,sub_23
0.0002379999999996,0.0033718000000012,-0.0016437999999999,-0.0011455999999994,0.0061472000000007,-0.0087416,0,sub_23
0.0011635999999996,0.0041138000000012,-0.0022667999999999,-0.0022169999999994,0.0052980000000006,-0.0085342,0,sub_23
0.0016823999999996,0.0047126000000012,-0.0016725999999999,-0.0022079999999994,0.0035904000000006,-0.0076716,0,sub_23
0.0019139999999996,0.0057872000000012,-0.0014627999999999,-0.0011311999999995,0.0016676000000006,-0.0072286,0,sub_23
0.0017253999999996,0.0051276000000012,-0.0008126,0.0003732000000004,-4.3599999999312334e-05,-0.0067828,0,sub_23
0.0013057999999996,0.0046200000000012,-6.660000000000711e-05,0.0018814000000004,-0.0015391999999993,-0.0069782,0,sub_23
0.0011085999999996,0.0045892000000012,0.0007093999999999,0.0033914000000004,-0.0026085999999992,-0.0071742,0,sub_23
