userAcceleration.x,userAcceleration.y,userAcceleration.z,rotationRate.x,rotationRate.y,rotationRate.z,label,subject
-0.0039040000000003,0.0100478000000012,0.0003735999999999,-0.0779583999999995,-0.048106599999999,-0.0702348,0,sub_24
-0.0031186000000003,0.0092094000000012,0.0006637999999999,-0.0815353999999995,-0.046775399999999,-0.0803032,0,sub_24
-0.0015560000000003,0.0073796000000012,0.0001373999999999,-0.0846921999999995,-0.041844199999999,-0.0852458,0,sub_24
0.0014825999999996,0.0051860000000011,-0.0018454,-0.0859187999999995,-0.032030599999999,-0.0874034,0,sub_24
0.0039931999999996,0.0043142000000011,-0.003883,-0.0859109999999995,-0.027355199999999,-0.0844178,0,sub_24
0.0043961999999996,0.0029546000000011,-0.0059924,-0.0857191999999995,-0.026950999999999,-0.0790753999999999,0,sub_24
0.0042811999999996,0.0023854000000011,-0.007578,-0.0834085999999995,-0.031448399999999,-0.0752074,0,sub_24
0.0044171999999996,0.0020794000000012,-0.0080504,-0.0798035999999995,-0.032966799999999,-0.0715478,0,sub_24
0.0062231999999996,0.0020790000000012,-0.0059838,-0.0748769999999995,-0.027450399999999,-0.0700241999999999,0,sub_24
0.0089397999999997,0.0023720000000012,-0.0044984,-0.0707935999999995,-0.0193751999999991,-0.0682958,0,sub_24
0.0123215999999997,0.0029412000000012,-0.003694,-0.0680049999999995,-0.0136421999999991,-0.0657186,0,sub_24
0.0150963999999997,0.0024028000000012,-0.004404,-0.0641457999999995,-0.0055753999999991,-0.061641,0,sub_24
0.0189627999999996,0.0020796000000012,-0.0058556,-0.0596467999999995,0.0031250000000008,-0.0567044,0,sub_24
0.0216909999999996,0.0015892000000012,-0.008747,-0.0543229999999995,0.0100994000000008,-0.0470598,0,sub_24
0.0221729999999996,0.0009896000000012,-0.0090358,-0.0479399999999995,0.0168510000000008,-0.0359118,0,sub_24
0.0198723999999996,0.0034430000000012,-0.0083938,-0.0404843999999995,0.0233918000000008,-0.0262509999999999,0,sub_24
0.0189971999999996,0.0061814000000012,-0.0057642,-0.0383335999999995,0.0342216000000008,-0.0189831999999999,0,sub_24
0.0162715999999997,0.0091044000000011,-0.0028674,-0.0395629999999995,0.0480648000000008,-0.0164435999999999,0,sub_24
0.0139541999999997,0.0102300000000011,0.0002549999999999,-0.0452611999999995,0.0606616000000009,-0.0179925999999999,0,sub_24
0.0120579999999997,0.0108158000000011,0.0007971999999999,-0.0507575999999995,0.0685790000000009,-0.0216711999999999,0,sub_24
0.0112949999999997,0.0104106000000011,0.0008217999999999,-0.0560413999999995,0.0754338000000009,-0.0262018,0,sub_24
0.0100081999999997,0.0103288000000011,0.0012755999999998,-0.0589829999999994,0.0797296000000009,-0.0322084,0,sub_24
0.0087343999999997,0.0090634000000012,0.0008813999999999,-0.0621599999999995,0.0797626000000009,-0.0375706,0,sub_24
0.0064401999999997,0.0104608000000011,0.0001619999999999,-0.0642919999999995,0.0740426000000009,-0.043773,0,sub_24
0.0046113999999997,0.0108758000000011,-0.0007206,-0.0659865999999995,0.0683304000000009,-0.0523226,0,sub_24
0.0054721999999997,0.0098708000000011,-0.0005512,-0.0685183999999995,0.0653942000000009,-0.0617366,0,sub_24
0.0071247999999996,0.0082466000000012,0.0011347999999999,-0.0710657999999995,0.0615958000000009,-0.0685856,0,sub_24
0.0091515999999996,0.0078502000000012,0.0023515999999999,-0.0721223999999995,0.0586384000000009,-0.0739294,0,sub_24
0.0107647999999996,0.0065468000000012,0.0024957999999999,-0.0708233999999995,0.0614100000000009,-0.0754184,0,sub_24
0.0120803999999996,0.0040470000000012,0.0025467999999999,-0.0680305999999995,0.0682082000000009,-0.0728424,0,sub_24
0.0124905999999996,0.0024312000000012,-0.0001272,-0.0603587999999995,0.0722050000000009,-0.0665966,0,sub_24
0.0133251999999996,0.0010024000000012,-0.005039,-0.0480401999999995,0.0699888000000009,-0.055824,0,sub_24
0.0154779999999996,0.0002936000000012,-0.008635,-0.0319253999999995,0.0634752000000009,-0.0392504,0,sub_24
0.0182401999999996,0.0006604000000012,-0.0097496,-0.0154085999999995,0.0539672000000009,-0.0201064,0,sub_24
0.0201649999999996,0.0032418000000012,-0.0094622,-0.0007995999999995,0.0444114000000008,-0.0005278,0,sub_24
0.0196361999999997,0.0055508000000012,-0.0063344,0.0095760000000004,0.0408428000000008,0.0173045999999999,0,sub_24
0.0171333999999996,0.0081050000000012,-0.0010364,0.0138334000000004,0.0479682000000008,0.0301665999999999,0,sub_24
0.0123091999999997,0.0088792000000012,0.0028059999999999,0.0123626000000004,0.0562044000000008,0.0365769999999999,0,sub_24
0.0063037999999997,0.0084092000000012,0.0038767999999999,0.0094056000000004,0.0597842000000008,0.0365733999999999,0,sub_24
-0.0009528000000002,0.0084258000000012,0.0041863999999999,0.0058112000000004,0.0615246000000008,0.0307779999999999,0,sub_24
-0.0061068000000002,0.0085788000000012,0.0051005999999999,0.0011356000000004,0.0558288000000009,0.0207107999999999,0,sub_24
-0.0093352000000002,0.0083914000000012,0.0049473999999999,-0.0018629999999995,0.0416124000000009,0.0087429999999999,0,sub_24
-0.0107294000000002,0.0084452000000012,0.0051851999999999,-0.0042281999999995,0.0265390000000009,-0.0025784,0,sub_24
-0.0106612000000002,0.0081558000000012,0.0046905999999999,-0.0070257999999995,0.0127352000000009,-0.011341,0,sub_24
-0.0085680000000002,0.0069488000000012,0.0035047999999999,-0.0066475999999995,-0.002375199999999,-0.0158068,0,sub_24
-0.0068316000000002,0.0056576000000012,0.0014529999999999,-0.0035019999999995,-0.014742599999999,-0.0159834,0,sub_24
-0.0045802000000002,0.0052544000000012,-0.001169,0.0009156000000004,-0.027334199999999,-0.0144414,0,sub_24
-0.0025098000000002,0.0044360000000012,-0.003903,0.0085254000000004,-0.039520199999999,-0.0105274,0,sub_24
-0.0006928000000003,0.0056214000000012,-0.0043838,0.0172178000000004,-0.045966999999999,-0.0042626,0,sub_24
0.0003947999999996,0.0069388000000012,-0.0028744,0.0210024000000004,-0.049637999999999,0.0047417999999999,0,sub_24
0.0008135999999996,0.0058756000000012,-0.001399,0.0239246000000004,-0.055223399999999,0.0137425999999999,0,sub_24
-0.0007722000000003,0.0056228000000012,-3.880000000006812e-05,0.0270810000000004,-0.057607799999999,0.0212451999999999,0,sub_24
-0.0034474000000003,0.0067022000000012,0.0015947999999999,0.0279094000000004,-0.058481599999999,0.0259519999999999,0,sub_24
-0.0069184000000002,0.0064090000000012,0.0029355999999999,0.0270228000000004,-0.064449199999999,0.0272343999999999,0,sub_24
-0.0111642000000002,0.0067348000000012,0.0037143999999999,0.0274160000000004,-0.075301999999999,0.0236173999999999,0,sub_24
-0.0145140000000002,0.0085050000000012,0.0035495999999999,0.0267636000000004,-0.083585999999999,0.0178529999999999,0,sub_24
-0.0150218000000002,0.0088154000000012,0.0034539999999998,0.0248302000000004,-0.091229799999999,0.0129333999999999,0,sub_24
-0.0136496000000002,0.0084024000000012,0.0037195999999998,0.0231022000000004,-0.098881199999999,0.0097243999999999,0,sub_24
-0.0121630000000002,0.0081286000000012,0.0034471999999998,0.0215982000000004,-0.102067599999999,0.0086479999999999,0,sub_24
-0.0096902000000002,0.0068274000000011,0.0026107999999998,0.0213900000000004,-0.101000799999999,0.0084303999999999,0,sub_24
-0.0081784000000002,0.0060666000000011,0.0012571999999999,0.0224574000000004,-0.100366999999999,0.0088629999999999,0,sub_24
-0.0077746000000002,0.0051596000000011,0.0001055999999999,0.0237402000000004,-0.099307999999999,0.0092967999999999,0,sub_24
-0.0063838000000002,0.0054620000000011,-0.00138,0.0260662000000004,-0.103154599999999,0.0101715999999999,0,sub_24
-0.0041254000000002,0.0061300000000012,-0.0019896,0.0281588000000004,-0.109564599999999,0.0129711999999999,0,sub_24
-0.0014182000000002,0.0059198000000012,-0.0017324,0.0292038000000004,-0.108738999999999,0.0187455999999999,0,sub_24
-7.920000000029137e-05,0.0061686000000012,0.0010539999999999,0.0302588000000004,-0.105145399999999,0.0249443999999999,0,sub_24
-0.0007560000000002,0.0071900000000012,0.0029243999999999,0.0319364000000004,-0.104752399999999,0.0317923999999999,0,sub_24
-0.0056462000000002,0.0084230000000012,0.0037913999999999,0.0312726000000004,-0.1034971999999991,0.0381953999999999,0,sub_24
-0.0098032000000002,0.0079774000000012,0.0036577999999999,0.0299908000000004,-0.1003105999999991,0.0415997999999999,0,sub_24
-0.0129694000000002,0.0079060000000012,0.0025839999999999,0.0289254000000004,-0.100729599999999,0.0407371999999999,0,sub_24
-0.0116142000000002,0.0066722000000012,0.0013347999999999,0.0287138000000004,-0.105183399999999,0.0358263999999999,0,sub_24
-0.0109868000000002,0.0060722000000012,0.0011523999999999,0.0283022000000004,-0.108138999999999,0.0294167999999999,0,sub_24
-0.0100260000000002,0.0061700000000012,0.0016481999999999,0.0260134000000004,-0.101924999999999,0.0225551999999999,0,sub_24
-0.0078636000000002,0.0075540000000012,0.0022573999999999,0.0203514000000004,-0.088023199999999,0.0141647999999999,0,sub_24
-0.0052742000000002,0.0085174000000012,0.0026955999999999,0.0133986000000004,-0.076035999999999,0.0061953999999999,0,sub_24
-0.0068614000000002,0.0093146000000012,0.0014973999999999,0.0061990000000004,-0.068534199999999,0.0012211999999999,0,sub_24
-0.0080682000000002,0.0097296000000012,4.639999999993161e-05,-0.0007955999999995,-0.061889599999999,-0.0026826,0,sub_24
-0.0070200000000002,0.0091754000000012,-0.0007788,-0.0041733999999995,-0.056328199999999,-0.005278,0,sub_24
-0.0072772000000002,0.0089580000000012,-0.0015162,-0.0020501999999995,-0.057405999999999,-0.0039806,0,sub_24
-0.0084836000000002,0.0082986000000012,-0.0004866,0.0019702000000004,-0.059359799999999,0.0016037999999999,0,sub_24
-0.0069086000000003,0.0068714000000012,0.0016481999999999,0.0066562000000004,-0.053865799999999,0.0088921999999999,0,sub_24
-0.0031610000000003,0.0054194000000012,0.0046395999999999,0.0113574000000004,-0.044114199999999,0.0170303999999999,0,sub_24
-0.0013870000000003,0.0054604000000012,0.0069311999999999,0.0156086000000004,-0.038837599999999,0.0258123999999999,0,sub_24
-0.0019308000000003,0.0055418000000012,0.0084043999999999,0.0194576000000004,-0.029717999999999,0.0328773999999999,0,sub_24
-0.0021808000000003,0.0080044000000012,0.0084075999999999,0.0218504000000004,-0.015466999999999,0.0367211999999999,0,sub_24
-0.0046230000000002,0.0112328000000012,0.0072885999999999,0.0202054000000004,-0.0018927999999991,0.0397019999999999,0,sub_24
-0.0089376000000002,0.0129066000000012,0.0054555999999999,0.0159750000000004,0.0046656000000008,0.0411777999999999,0,sub_24
-0.0108086000000002,0.0135210000000012,0.0037315999999999,0.0113390000000004,0.0103954000000008,0.0370963999999999,0,sub_24
-0.0105750000000002,0.0132260000000012,0.0032121999999999,0.0052296000000004,0.0152832000000008,0.0285239999999999,0,sub_24
-0.0082596000000002,0.0079884000000012,0.0039275999999999,0.0001852000000004,0.0152848000000008,0.0154787999999999,0,sub_24
-0.0051210000000002,0.0077894000000012,0.0025267999999999,-0.0029415999999995,0.0138606000000008,-0.0018424,0,sub_24
-0.0012842000000002,0.0099262000000012,0.0006171999999999,-0.0077387999999995,0.0220238000000008,-0.0176916,0,sub_24
-0.0002572000000002,0.0083530000000012,-0.0015106,-0.0155313999999995,0.0331608000000008,-0.0286512,0,sub_24
0.0011145999999997,0.0063544000000012,-0.0038926,-0.0210061999999995,0.0387624000000008,-0.0393784,0,sub_24
0.0001601999999997,0.0090516000000012,-0.0081038,-0.0237247999999995,0.0430650000000008,-0.0473074,0,sub_24
-0.0006096000000002,0.0093716000000012,-0.0097674,-0.0281881999999995,0.0456418000000008,-0.0484102,0,sub_24
0.0005915999999997,0.0058324000000012,-0.0109664,-0.0294849999999995,0.0428486000000008,-0.045202,0,sub_24
0.0034865999999997,0.0066618000000012,-0.0111262,-0.0250139999999995,0.0434364000000008,-0.0400348,0,sub_24
0.0053789999999997,0.0075906000000012,-0.0098102,-0.0207899999999995,0.0446318000000008,-0.0267512,0,sub_24
0.0063839999999997,0.0084454000000012,-0.007211,-0.0189625999999995,0.0406990000000008,-0.0077092,0,sub_24
0.0072997999999997,0.0053962000000012,-0.0053108,-0.0145423999999995,0.0431524000000008,0.0104883999999999,0,sub_24
0.0077407999999997,0.0047536000000012,-0.0027888,-0.0100775999999995,0.0526716000000008,0.0237543999999999,0,sub_24
0.0081045999999997,0.0034870000000012,0.0007675999999999,-0.0066993999999995,0.0543260000000008,0.0333911999999999,0,sub_24
0.0075313999999997,0.0045366000000012,0.0033491999999999,-0.0034985999999995,0.0564266000000009,0.0366249999999999,0,sub_24
0.0064627999999997,0.0057808000000012,0.0035057999999999,-0.0031997999999995,0.0713458000000009,0.0336261999999999,0,sub_24
0.0049553999999997,0.0098512000000012,0.0036277999999999,-0.0084313999999995,0.0858752000000009,0.0263161999999999,0,sub_24
0.0030967999999997,0.0132188000000012,0.0024487999999999,-0.0160293999999995,0.0921198000000009,0.0149409999999999,0,sub_24
0.0014995999999997,0.0157352000000012,-0.000308,-0.0257367999999995,0.1005152000000009,0.0003431999999999,0,sub_24
0.0021215999999997,0.0147038000000012,-0.0035028,-0.0377787999999995,0.1112716000000009,-0.0151316,0,sub_24
0.0038003999999997,0.0126954000000012,-0.004689,-0.0483391999999995,0.1196774000000009,-0.0301656,0,sub_24
0.0062041999999997,0.0086006000000012,-0.0045202,-0.0538085999999995,0.1242194000000009,-0.0423814,0,sub_24
0.0073865999999997,0.0057454000000012,-0.0048254,-0.0558715999999995,0.1329868000000009,-0.0485968,0,sub_24
0.0077611999999997,0.0034666000000011,-0.0059006,-0.0554007999999995,0.1429944000000009,-0.047532,0,sub_24
0.0064729999999997,0.0013612000000011,-0.007421,-0.0509191999999995,0.1499816000000009,-0.0404586,0,sub_24
0.0046265999999997,9.180000000119716e-05,-0.0089846,-0.0424497999999995,0.1473468000000009,-0.0282178,0,sub_24
0.0025331999999997,-0.0006025999999988,-0.0112974,-0.0310291999999995,0.1376664000000008,-0.0148794,0,sub_24
0.0021009999999997,0.0003090000000012,-0.0102164,-0.0194025999999995,0.1228982000000008,-0.004305,0,sub_24
0.0029091999999997,0.0007000000000012,-0.0053124,-0.0092431999999995,0.1098568000000008,0.0019841999999999,0,sub_24
0.0036913999999997,0.0028510000000012,0.0006513999999999,-0.0024573999999995,0.1023812000000009,0.0046107999999999,0,sub_24
0.0028097999999997,0.0053964000000012,0.0068135999999999,-0.0009491999999995,0.1030390000000009,0.0024901999999999,0,sub_24
0.0013509999999997,0.0084104000000012,0.0115881999999999,-0.0053593999999995,0.1135292000000009,-0.002462,0,sub_24
-0.0029618000000002,0.0102578000000012,0.0136895999999999,-0.0135811999999995,0.1291394000000009,-0.0095894,0,sub_24
-0.0085848000000002,0.0118680000000012,0.0122843999999999,-0.0222479999999995,0.1398542000000009,-0.0175692,0,sub_24
-0.0129904000000002,0.0118408000000012,0.0088261999999999,-0.0283921999999995,0.1420380000000009,-0.0255208,0,sub_24
-0.0131676000000002,0.0089792000000012,0.0042167999999999,-0.0302921999999995,0.1403850000000009,-0.0317268,0,sub_24
-0.0110504000000002,0.0070236000000011,0.0021269999999999,-0.0292275999999995,0.1359426000000009,-0.0355584,0,sub_24
-0.0065840000000003,0.0037116000000011,0.0009949999999998,-0.0233041999999995,0.1261346000000009,-0.0337942,0,sub_24
-0.0021136000000003,5.880000000121656e-05,0.0005509999999998,-0.0141961999999995,0.1165132000000009,-0.0281616,0,sub_24
0.0016013999999996,-0.0014459999999987,0.0012707999999998,-0.0057101999999995,0.1122152000000008,-0.021258,0,sub_24
0.0035303999999996,0.0026896000000011,0.0027287999999998,0.0004228000000004,0.1083256000000008,-0.0128778,0,sub_24
0.0026925999999996,0.0071278000000012,0.0029409999999998,0.0052570000000004,0.1035754000000008,-0.0013006,0,sub_24
-0.0014930000000002,0.0090528000000012,0.0031853999999998,0.0062726000000004,0.1031022000000008,0.0096029999999999,0,sub_24
-0.0061556000000002,0.0106904000000012,0.0031689999999998,0.0056242000000004,0.1069174000000009,0.0151479999999999,0,sub_24
-0.0106280000000002,0.0118224000000012,0.0033011999999998,0.0041302000000004,0.1075836000000008,0.0159925999999999,0,sub_24
-0.0138226000000002,0.0098020000000012,0.0039783999999998,0.0030590000000004,0.1037886000000009,0.0132133999999999,0,sub_24
-0.0138542000000002,0.0014942000000012,0.0063575999999999,0.0041544000000004,0.1006518000000008,0.0038251999999999,0,sub_24
-0.0104578000000002,0.0009468000000012,0.0068615999999999,0.0082474000000004,0.0941188000000008,-0.0113056,0,sub_24
-0.0060726000000002,0.0044748000000012,0.0065415999999999,0.0101902000000004,0.0888518000000009,-0.021539,0,sub_24
-0.0021912000000002,0.0071350000000011,0.0058559999999999,0.0089236000000004,0.0892936000000009,-0.0243262,0,sub_24
-0.0003352000000002,0.0084362000000011,0.0045137999999999,0.0050948000000004,0.0922890000000009,-0.024143,0,sub_24
-0.0028158000000002,0.0143020000000011,0.0005487999999999,-0.0004479999999995,0.0938118000000009,-0.0233282,0,sub_24
-0.0045930000000002,0.0131760000000012,-0.0025862,-0.0074781999999995,0.1002256000000009,-0.0188986,0,sub_24
-0.0049156000000002,0.0076446000000012,-0.003975,-0.0128115999999995,0.1028044000000008,-0.0159478,0,sub_24
-0.0036984000000002,0.0050990000000012,-0.003935,-0.0134583999999995,0.0996306000000009,-0.017016,0,sub_24
-0.0018258000000002,0.0029954000000012,-0.004636,-0.0102501999999995,0.0990026000000009,-0.0187012,0,sub_24
0.0022023999999997,0.0011072000000012,-0.0048164,-0.0074633999999995,0.1036726000000008,-0.0167648,0,sub_24
0.0050687999999997,0.0018784000000012,-0.0051364,-0.0036213999999995,0.1064188000000009,-0.0141769999999999,0,sub_24
0.0063333999999997,0.0047436000000012,-0.0069828,0.0006382000000004,0.1072454000000008,-0.0113697999999999,0,sub_24
0.0058747999999997,0.0041622000000012,-0.0101036,0.0057432000000004,0.1076332000000008,-0.0057768,0,sub_24
0.0045325999999996,0.0029516000000012,-0.0126252,0.0104114000000004,0.1078010000000008,0.0019493999999999,0,sub_24
0.0034533999999996,0.0029642000000012,-0.011946,0.0165696000000004,0.1068992000000008,0.0094737999999999,0,sub_24
0.0020427999999996,0.0026818000000012,-0.0099892,0.0216636000000004,0.1053670000000008,0.0157093999999999,0,sub_24
6.139999999968862e-05,0.0020186000000012,-0.006769,0.0265484000000004,0.1032030000000008,0.0202349999999999,0,sub_24
-0.0025250000000003,0.0012346000000012,-0.003719,0.0284694000000004,0.1042574000000008,0.0213147999999999,0,sub_24
-0.0043500000000002,0.0032624000000012,0.0005401999999999,0.0288992000000004,0.1021366000000008,0.0185425999999999,0,sub_24
-0.0075964000000002,0.0051988000000012,0.0034089999999999,0.0293034000000004,0.0938396000000009,0.0151367999999999,0,sub_24
-0.0111944000000002,0.0068996000000012,0.0055397999999999,0.0297046000000004,0.0853278000000009,0.0121583999999999,0,sub_24
-0.0140930000000002,0.0081012000000012,0.0070425999999999,0.0273588000000004,0.0830034000000009,0.0093663999999999,0,sub_24
-0.0135210000000002,0.0114696000000012,0.0080649999999999,0.0243726000000004,0.0798324000000009,0.0057163999999999,0,sub_24
-0.0125602000000002,0.0127578000000012,0.0070419999999999,0.0207328000000004,0.0749540000000009,0.0033459999999999,0,sub_24
-0.0112900000000002,0.0124054000000012,0.0042605999999999,0.0145328000000004,0.0690236000000009,-0.000109,0,sub_24
-0.0095492000000002,0.0138486000000012,-0.001217,0.0061948000000004,0.0616112000000009,-0.0040043999999999,0,sub_24
-0.0059050000000002,0.0129152000000012,-0.0060266,-0.0017255999999995,0.0520668000000009,-0.0078941999999999,0,sub_24
-0.0046486000000002,0.0092592000000012,-0.009517,-0.0066833999999995,0.0399434000000009,-0.0087683999999999,0,sub_24
-0.0042454000000002,0.0060064000000012,-0.0104758,-0.0075779999999995,0.0301480000000009,-0.0091899999999999,0,sub_24
-0.0032734000000002,0.0047140000000012,-0.0097096,-0.0061159999999995,0.0241724000000009,-0.0078907999999999,0,sub_24
-0.0018604000000002,0.0015762000000012,-0.0054494,-0.0019015999999995,0.0162584000000009,-0.0037922,0,sub_24
-0.0030152000000002,0.0023616000000012,-0.0015128,0.0044268000000004,0.0045004000000009,0.0007533999999999,0,sub_24
-0.0039200000000002,0.0052636000000012,0.0025699999999999,0.0084232000000004,-0.005538199999999,0.0035709999999999,0,sub_24
-0.0042814000000002,0.0073716000000012,0.0056059999999999,0.0083736000000004,-0.013433199999999,0.0065713999999999,0,sub_24
-0.0063508000000002,0.0077368000000012,0.0065125999999999,0.0085160000000004,-0.024954999999999,0.0106457999999999,0,sub_24
-0.0106188000000002,0.0080978000000012,0.0045513999999999,0.0105866000000004,-0.035203599999999,0.0143039999999999,0,sub_24
-0.0141722000000002,0.0068598000000012,0.0027915999999999,0.0130774000000004,-0.045671799999999,0.0192471999999999,0,sub_24
-0.0175472000000002,0.0047836000000012,0.0020531999999999,0.0168218000000004,-0.061048999999999,0.0252731999999999,0,sub_24
-0.0195830000000002,0.0038606000000012,0.0013441999999999,0.0220512000000004,-0.0802587999999991,0.0293911999999999,0,sub_24
-0.0174718000000002,0.0041428000000012,0.0014991999999999,0.0262254000000004,-0.100091199999999,0.0302981999999999,0,sub_24
-0.0125212000000002,0.0049222000000012,0.0030965999999999,0.0270008000000004,-0.1190491999999991,0.0286171999999999,0,sub_24
-0.0075692000000003,0.0059000000000012,0.0044161999999999,0.0256846000000004,-0.130535199999999,0.0249893999999999,0,sub_24
-0.0025234000000003,0.0086998000000012,0.0031799999999999,0.0224968000000004,-0.132421999999999,0.0200551999999999,0,sub_24
0.0012295999999996,0.0118700000000011,0.0017203999999999,0.0174118000000004,-0.1296129999999991,0.0146751999999999,0,sub_24
0.0027667999999996,0.0133030000000011,-0.0002934,0.0104344000000004,-0.122104199999999,0.0077805999999999,0,sub_24
0.0037385999999996,0.0128684000000012,-0.0017016,0.0036908000000004,-0.110758399999999,0.0002419999999999,0,sub_24
0.0052013999999996,0.0128500000000012,-0.003722,-0.0030553999999995,-0.098141999999999,-0.0053752,0,sub_24
0.0054489999999996,0.0107076000000012,-0.0045536,-0.0081259999999995,-0.089379199999999,-0.007771,0,sub_24
0.0047213999999996,0.0081274000000012,-0.0051772,-0.0102523999999995,-0.086819199999999,-0.0067202,0,sub_24
0.0038179999999996,0.0059178000000012,-0.0056656,-0.0093991999999995,-0.0840639999999991,-0.0037262,0,sub_24
0.0042081999999996,0.0044270000000012,-0.006002,-0.0066251999999995,-0.082392999999999,0.0007821999999999,0,sub_24
0.0062531999999996,0.0030732000000012,-0.0051552,-0.0019683999999995,-0.088825599999999,0.0055279999999999,0,sub_24
0.0091691999999996,0.0028202000000012,-0.004105,0.0035378000000004,-0.0961131999999991,0.0102811999999999,0,sub_24
0.0097393999999997,0.0027436000000012,-0.0020678,0.0067630000000004,-0.089540599999999,0.0141463999999999,0,sub_24
0.0100495999999997,0.0040892000000012,-0.0001528,0.0083146000000004,-0.075717599999999,0.0177769999999999,0,sub_24
0.0081933999999997,0.0070956000000011,0.0009371999999999,0.0072896000000004,-0.064641599999999,0.0194661999999999,0,sub_24
0.0030547999999997,0.0086164000000011,0.0016457999999999,0.0039308000000004,-0.053545599999999,0.0181473999999999,0,sub_24
-0.0033164000000002,0.0093602000000011,0.0015977999999999,-0.0015537999999995,-0.044133199999999,0.0133967999999999,0,sub_24
-0.0064282000000002,0.0101352000000012,-0.0002148,-0.0055937999999995,-0.047077199999999,0.0071759999999999,0,sub_24
-0.0072746000000002,0.0090718000000012,-0.0004194,-0.0077439999999995,-0.057057799999999,0.0007633999999999,0,sub_24
-0.0063582000000002,0.0067524000000012,0.0004011999999999,-0.0077679999999994,-0.0666281999999991,-0.0034983999999999,0,sub_24
-0.0043098000000002,0.0053370000000012,0.0013821999999999,-0.0058821999999995,-0.0760023999999991,-0.0051831999999999,0,sub_24
-0.0015396000000002,0.0041950000000012,0.0025429999999999,-0.0027115999999995,-0.0851835999999991,-0.00536,0,sub_24
0.0011115999999997,0.0029156000000012,0.0046415999999999,0.0009088000000004,-0.088191999999999,-0.0044732,0,sub_24
