userAcceleration.x,userAcceleration.y,userAcceleration.z,rotationRate.x,rotationRate.y,rotationRate.z,label,subject
-0.0045500000000003,0.0078160000000012,-0.0164025999999999,0.0025916000000005,-0.0041985999999992,0.0053003999999999,0,sub_21
-0.0080954000000003,0.0066634000000012,-0.0151033999999999,0.0036316000000005,-0.0076213999999992,0.0078757999999999,0,sub_21
-0.0137468000000003,0.0049522000000012,-0.0130279999999999,0.0008310000000005,-0.0135771999999992,0.0078639999999998,0,sub_21
-0.0157756000000003,0.0049202000000012,-0.0122607999999999,-0.0042983999999994,-0.0173865999999992,0.0059103999999998,0,sub_21
-0.0164582000000003,0.0065314000000012,-0.0114395999999999,-0.0057597999999994,-0.0207883999999992,0.0056925999999998,0,sub_21
-0.0186380000000003,0.0070196000000012,-0.0113051999999999,-0.0055073999999994,-0.0220679999999992,0.0061249999999998,0,sub_21
-0.0184638000000003,0.0071356000000012,-0.0108559999999999,-0.0039709999999994,-0.0239853999999992,0.0050717999999998,0,sub_21
-0.0169646000000003,0.0064520000000012,-0.0074687999999999,-0.0047835999999994,-0.0246229999999992,0.0057095999999998,0,sub_21
-0.0190712000000003,0.0068480000000012,-0.0032461999999999,-0.0083671999999994,-0.0231263999999992,0.0078207999999998,0,sub_21
-0.0226378000000003,0.0069888000000012,4.580000000001944e-05,-0.0134699999999994,-0.0190603999999992,0.0077799999999998,0,sub_21
-0.0208864000000003,0.0088240000000012,0.00026,-0.0168523999999994,-0.0143519999999992,0.0054003999999998,0,sub_21
-0.0178384000000003,0.0115306000000012,-0.0006697999999999,-0.0183383999999994,-0.0115813999999992,0.0064545999999999,0,sub_21
-0.0151654000000003,0.0144188000000012,-0.0028365999999999,-0.0129219999999994,-0.0107991999999992,0.0079791999999999,0,sub_21
-0.0106488000000003,0.0149590000000012,-0.0052343999999999,0.0003766000000005,-0.0147239999999992,0.0076419999999999,0,sub_21
-0.0052198000000003,0.0124112000000012,-0.0051233999999999,0.0151488000000005,-0.0231281999999992,0.0073207999999999,0,sub_21
-0.0046006000000003,0.0099486000000012,-0.0023041999999999,0.0232614000000005,-0.0385519999999992,0.0099529999999999,0,sub_21
-0.0073382000000003,0.0087010000000012,0.0010634,0.0277610000000005,-0.0518283999999992,0.0114891999999999,0,sub_21
-0.0173524000000003,0.0082830000000012,0.0049712,0.0322628000000005,-0.0480057999999992,0.0106611999999999,0,sub_21
-0.0267872000000003,0.0081362000000012,0.0093666,0.0366214000000005,-0.0275685999999992,0.0108791999999999,0,sub_21
-0.0342918000000003,0.0101538000000012,0.010718,0.0395162000000005,0.0032982000000007,0.0149191999999999,0,sub_21
-0.0387224000000003,0.0079846000000012,0.0104648,0.0421212000000005,0.0379016000000007,0.0187219999999999,0,sub_21
-0.0414296000000003,0.0055484000000012,0.0081808,0.0407126000000005,0.0784966000000007,0.0194979999999999,0,sub_21
-0.0351188000000003,0.0042334000000012,0.0021468,0.0345542000000005,0.1073876000000007,0.0208967999999999,0,sub_21
-0.0252230000000003,0.0026622000000012,-0.0086421999999999,0.0266004000000005,0.1183812000000007,0.0240151999999999,0,sub_21
-0.0183758000000003,-0.0001277999999986,-0.0199429999999999,0.0153788000000005,0.1127746000000007,0.0254227999999999,0,sub_21
-0.0116146000000003,0.0011876000000013,-0.0314033999999999,0.0057502000000005,0.1059940000000007,0.0245097999999999,0,sub_21
-0.0049546000000003,0.0014278000000013,-0.0421147999999999,-0.0026537999999994,0.0889738000000007,0.0257547999999999,0,sub_21
-0.0014116000000003,6.880000000130636e-05,-0.0503971999999999,-0.0121869999999994,0.0600186000000007,0.0289299999999999,0,sub_21
-8.960000000036379e-05,-0.0006419999999986,-0.0532611999999999,-0.0269385999999994,0.0350288000000007,0.0314039999999999,0,sub_21
0.0023855999999996,-5.23999999986936e-05,-0.0509733999999999,-0.0397475999999994,0.0140836000000007,0.0330317999999999,0,sub_21
-0.0028104000000003,0.0008478000000013,-0.0440599999999999,-0.0499837999999994,-0.0028277999999992,0.0359541999999999,0,sub_21
-0.0116336000000003,0.0017620000000013,-0.0357583999999999,-0.0567715999999994,-0.0120809999999992,0.0388909999999999,0,sub_21
-0.0166084000000003,0.0037990000000013,-0.0284115999999999,-0.0617623999999994,-0.0042839999999992,0.0388273999999999,0,sub_21
-0.0138052000000003,0.0050410000000012,-0.0189501999999999,-0.0661587999999994,0.0100240000000007,0.0342917999999999,0,sub_21
-0.0079510000000003,0.0088936000000012,-0.0101629999999999,-0.0622213999999994,0.0243140000000007,0.0270371999999999,0,sub_21
0.0003865999999996,0.0125732000000012,-0.0017081999999999,-0.0531973999999994,0.0321896000000007,0.0211081999999999,0,sub_21
0.0088863999999996,0.0148890000000012,0.0078936,-0.0379245999999995,0.0363834000000007,0.0124259999999999,0,sub_21
0.0188509999999996,0.0159588000000012,0.0152896,-0.0177583999999994,0.0363032000000007,0.0027151999999999,0,sub_21
0.0195771999999996,0.0174910000000012,0.0194625999999999,0.0040716000000005,0.0306616000000007,-0.0029176,0,sub_21
0.0118117999999996,0.0158638000000012,0.0195365999999999,0.0171216000000005,0.0226882000000007,-0.0039086,0,sub_21
0.0006547999999996,0.0122058000000012,0.0148215999999999,0.0216462000000005,0.0160262000000007,-0.0058154,0,sub_21
-0.0071322000000003,0.0094332000000012,0.007017,0.0184638000000005,0.0205096000000007,-0.005416,0,sub_21
-0.0185848000000003,0.0057650000000012,-0.0020151999999999,0.0108150000000005,0.0305388000000007,-0.0027048,0,sub_21
-0.0251968000000003,0.0012792000000012,-0.0107179999999999,-0.0017413999999994,0.0403730000000007,-0.0002414,0,sub_21
-0.0230274000000003,0.0010360000000012,-0.0182643999999999,-0.0165617999999994,0.0532194000000007,-0.000606,0,sub_21
-0.0150724000000003,0.0039284000000012,-0.0212883999999999,-0.0297009999999994,0.0617928000000007,0.0005419999999999,0,sub_21
-0.0154478000000003,0.0042032000000013,-0.0236741999999999,-0.0363041999999994,0.0532972000000007,0.0021847999999999,0,sub_21
-0.0162444000000003,0.0015198000000013,-0.0229025999999999,-0.0425057999999994,0.0379874000000007,0.0025573999999999,0,sub_21
-0.0190650000000003,-0.0001799999999987,-0.0219111999999999,-0.0491177999999994,0.0239668000000007,0.0005753999999999,0,sub_21
-0.0214520000000003,-0.0014361999999987,-0.0200119999999999,-0.0575043999999994,0.0084472000000007,-0.0005316,0,sub_21
-0.0240438000000003,-0.0033773999999987,-0.0201251999999999,-0.0658967999999994,-0.0081383999999992,-0.0014236,0,sub_21
-0.0219974000000003,-0.0008313999999987,-0.0206161999999999,-0.0768545999999994,-0.0272657999999992,-0.0038258,0,sub_21
-0.0158130000000003,0.0056006000000012,-0.0214251999999999,-0.0801381999999994,-0.0412995999999992,-0.0051606,0,sub_21
-0.0065772000000003,0.0107406000000012,-0.0215247999999999,-0.0765881999999994,-0.0515325999999992,-0.0038888,0,sub_21
0.0010175999999996,0.0122354000000012,-0.0198721999999999,-0.0698289999999994,-0.0587981999999992,-0.00153,0,sub_21
0.0045265999999995,0.0128134000000012,-0.0165441999999999,-0.0634985999999994,-0.0664883999999992,0.0008263999999999,0,sub_21
0.0081389999999995,0.0133102000000012,-0.0167591999999999,-0.0549921999999994,-0.0639629999999992,0.0040393999999999,0,sub_21
0.0105153999999995,0.0152238000000012,-0.0147313999999999,-0.0472935999999994,-0.0580327999999992,0.0062219999999999,0,sub_21
0.0082027999999995,0.0181560000000012,-0.0104865999999999,-0.0368077999999994,-0.0510393999999992,0.0064999999999999,0,sub_21
-0.0008728000000004,0.0169176000000012,-0.0008915999999999,-0.0248263999999994,-0.0459593999999992,0.0044407999999999,0,sub_21
-0.0053466000000003,0.0150988000000012,0.007755,-0.0102365999999994,-0.0325699999999992,3.899999999993076e-05,0,sub_21
-0.0094254000000003,0.0158886000000012,0.0193422,0.0037118000000005,-0.0146377999999992,-0.0036084,0,sub_21
-0.0171106000000003,0.0154780000000012,0.0249556,0.0172076000000005,-0.0018199999999992,-0.0066116,0,sub_21
-0.0261254000000003,0.0128206000000012,0.0273276,0.0274836000000005,0.0069602000000007,-0.0094184,0,sub_21
-0.0272368000000003,0.0130442000000012,0.0187418,0.0392744000000005,0.0221200000000007,-0.0105138,0,sub_21
-0.0283926000000003,0.0135074000000012,0.0094402,0.0470178000000005,0.0404830000000007,-0.0099324,0,sub_21
-0.0286116000000003,0.0099032000000012,0.0014254,0.0511266000000005,0.0515520000000007,-0.0109862,0,sub_21
-0.0268818000000003,0.0052770000000012,-0.0050263999999999,0.0473204000000005,0.0581744000000007,-0.0120894,0,sub_21
-0.0193756000000003,0.0039100000000012,-0.0135499999999999,0.0435518000000005,0.0559228000000007,-0.012227,0,sub_21
-0.0113718000000003,0.0039746000000012,-0.0182513999999999,0.0391102000000005,0.0470662000000007,-0.0117198,0,sub_21
-0.0057018000000003,0.0035322000000012,-0.0205837999999999,0.0365518000000005,0.0281962000000007,-0.0128958,0,sub_21
-0.0010590000000003,0.0020728000000012,-0.0246631999999999,0.0326862000000005,0.0027286000000007,-0.0147134,0,sub_21
0.0028709999999996,0.0023002000000013,-0.0276027999999999,0.0294396000000005,-0.0267917999999992,-0.0158806,0,sub_21
0.0018281999999996,0.0031922000000013,-0.0268471999999999,0.0250792000000005,-0.0478673999999992,-0.0163112,0,sub_21
-0.0047372000000003,0.0043032000000013,-0.0272671999999999,0.0207188000000005,-0.0685185999999992,-0.0163152,0,sub_21
-0.0098226000000003,0.0039374000000012,-0.0308591999999999,0.0140238000000005,-0.0834209999999992,-0.0133518,0,sub_21
-0.0126052000000003,0.0020336000000012,-0.0279887999999999,0.0016638000000005,-0.0878273999999992,-0.0070966,0,sub_21
-0.0175870000000003,0.0021216000000012,-0.0224867999999999,-0.0123483999999994,-0.0813569999999992,-0.0021488,0,sub_21
-0.0236720000000003,0.0032744000000012,-0.0197245999999999,-0.0216635999999994,-0.0744759999999992,0.0026175999999999,0,sub_21
-0.0279800000000003,0.0043912000000012,-0.0159311999999999,-0.0273159999999994,-0.0599367999999992,0.0071861999999999,0,sub_21
-0.0288912000000003,0.0049506000000012,-0.0082359999999999,-0.0299467999999994,-0.0379505999999992,0.0115527999999999,0,sub_21
-0.0321618000000003,0.0072152000000012,-0.0018647999999999,-0.0285561999999994,-0.0092099999999992,0.0157985999999999,0,sub_21
-0.0350368000000003,0.0084794000000012,0.0046064,-0.0250223999999994,0.0218660000000007,0.0202699999999998,0,sub_21
-0.0342722000000003,0.0081378000000012,0.00846,-0.0214627999999994,0.0561480000000007,0.0221735999999998,0,sub_21
-0.0268862000000003,0.0067688000000012,0.0050636,-0.0188399999999994,0.0803210000000007,0.0221127999999999,0,sub_21
-0.0175646000000003,0.0079422000000012,0.001911,-0.0175473999999994,0.0934198000000007,0.0220569999999999,0,sub_21
-0.0129940000000003,0.0086910000000012,0.0008981999999999,-0.0171379999999994,0.0977950000000007,0.0198697999999999,0,sub_21
-0.0078618000000003,0.0093320000000012,-0.0027931999999999,-0.0112355999999994,0.0885212000000007,0.0162429999999999,0,sub_21
-0.0045486000000003,0.0088772000000012,-0.0066179999999999,-0.0083595999999994,0.0730690000000007,0.0151665999999999,0,sub_21
-0.0034706000000003,0.0089604000000012,-0.0063989999999999,-0.0067111999999994,0.0619766000000007,0.0171151999999999,0,sub_21
-0.0060642000000003,0.0086506000000012,-0.0091213999999999,-0.0080163999999994,0.0560172000000007,0.0166863999999999,0,sub_21
-0.0036430000000003,0.0076446000000012,-0.0106983999999999,-0.0080297999999994,0.0507002000000007,0.0143429999999999,0,sub_21
-0.0001420000000003,0.0077882000000012,-0.0115749999999999,-0.0114641999999994,0.0496754000000007,0.0136461999999999,0,sub_21
0.0009783999999996,0.0085850000000012,-0.0098617999999999,-0.0129947999999994,0.0469318000000007,0.0148879999999999,0,sub_21
-0.0055974000000003,0.0090452000000012,-0.0075739999999999,-0.0166531999999994,0.0412298000000007,0.0118455999999999,0,sub_21
-0.0064678000000003,0.0083140000000012,-0.0048607999999999,-0.0162247999999994,0.0433942000000007,0.0094625999999998,0,sub_21
-0.0034458000000003,0.0088332000000012,-0.0066955999999999,-0.0164423999999994,0.0461922000000007,0.0089971999999998,0,sub_21
-0.0015788000000003,0.0095878000000012,-0.0072675999999999,-0.0162367999999994,0.0455480000000007,0.0100677999999998,0,sub_21
-0.0019558000000003,0.0109374000000012,-0.0097461999999999,-0.0134685999999994,0.0421380000000007,0.0079549999999999,0,sub_21
0.0036649999999995,0.0108764000000012,-0.0117009999999999,-0.0074951999999994,0.0402066000000007,0.0062901999999999,0,sub_21
0.0059231999999995,0.0097678000000012,-0.0129641999999999,-0.0047019999999995,0.0307910000000007,0.0041867999999999,0,sub_21
0.0045737999999996,0.0102854000000012,-0.0115167999999999,-0.0036281999999994,0.0196728000000007,0.0031415999999999,0,sub_21
0.0019285999999996,0.0098804000000012,-0.0104237999999999,-0.0029655999999994,0.0106916000000007,0.0008089999999999,0,sub_21
4.979999999961612e-05,0.0083238000000012,-0.0071907999999999,-0.0016313999999994,0.0093756000000007,-0.0008878,0,sub_21
-0.0043364000000003,0.0070110000000012,-0.0074681999999999,-0.0007265999999994,0.0082706000000007,-0.0017332,0,sub_21
-0.0118500000000003,0.0080904000000012,-0.0084637999999999,0.0039820000000005,0.0108134000000007,-0.0023446,0,sub_21
-0.0130408000000003,0.0066952000000012,-0.0101037999999999,0.0076286000000005,0.0148496000000007,-0.0025378,0,sub_21
-0.0148840000000003,0.0058732000000012,-0.0123173999999999,0.0069950000000005,0.0150700000000007,-0.0038244,0,sub_21
-0.0160542000000003,0.0055508000000012,-0.0138725999999999,-7.599999999949799e-05,0.0100422000000007,-0.003413,0,sub_21
-0.0163468000000003,0.0061314000000012,-0.0140917999999999,-0.0054189999999994,0.0101200000000007,-0.0025688,0,sub_21
-0.0144634000000003,0.0063278000000012,-0.0158561999999999,-0.0088435999999994,0.0101894000000007,-0.0012838,0,sub_21
-0.0127624000000003,0.0064446000000012,-0.0188789999999999,-0.0114127999999994,0.0096208000000007,-0.0010604,0,sub_21
-0.0075218000000003,0.0055792000000012,-0.0201191999999999,-0.0144181999999994,0.0081966000000007,0.0004429999999999,0,sub_21
-0.0028142000000003,0.0049188000000012,-0.0209595999999999,-0.0152947999999994,0.0035106000000007,0.0008701999999999,0,sub_21
-0.0023570000000003,0.0042980000000012,-0.0211513999999999,-0.0172497999999994,-0.0045769999999992,0.0004395999999999,0,sub_21
-0.0041440000000003,0.0038472000000012,-0.0209253999999999,-0.0202771999999994,-0.0156367999999992,-0.0017038,0,sub_21
-0.0052630000000003,0.0045616000000012,-0.0216293999999999,-0.0192093999999994,-0.0239199999999992,-0.0016972,0,sub_21
-0.0080422000000003,0.0041814000000012,-0.0223293999999999,-0.0195929999999994,-0.0215503999999992,-0.0004324,0,sub_21
-0.0087442000000003,0.0043812000000012,-0.0222321999999999,-0.0220911999999994,-0.0168219999999992,-0.0011082,0,sub_21
-0.0086064000000003,0.0051114000000012,-0.0244707999999999,-0.0267365999999994,-0.0152811999999992,-0.0020086,0,sub_21
-0.0085972000000003,0.0064246000000012,-0.0224615999999999,-0.0313933999999994,-0.0139627999999992,-0.0005588,0,sub_21
-0.0104686000000003,0.0075246000000012,-0.0220637999999999,-0.0350227999999994,-0.0137395999999992,5.659999999993032e-05,0,sub_21
-0.0144746000000003,0.0116468000000012,-0.0120681999999999,-0.0288243999999994,-0.0092957999999992,0.0022305999999999,0,sub_21
-0.0189962000000003,0.0156062000000012,0.0021794,-0.0208585999999994,0.0085644000000007,0.0043997999999999,0,sub_21
-0.0223970000000003,0.0133508000000012,0.0227994,-0.0042689999999994,0.0356498000000007,0.0063593999999999,0,sub_21
-0.0181016000000003,0.0094476000000012,0.0335832,0.0070140000000005,0.0651128000000007,0.0044333999999999,0,sub_21
-0.0127990000000003,0.0088624000000012,0.0392984,0.0069902000000005,0.0920706000000007,-0.0005594,0,sub_21
-0.0032604000000003,0.0074614000000012,0.0309598,-0.0026833999999994,0.1050142000000007,-0.00902,0,sub_21
0.0099129999999996,0.0052274000000012,0.0120654,-0.0099411999999994,0.0838680000000007,-0.0193428,0,sub_21
0.0277693999999996,0.0078282000000012,-0.0094723999999999,-0.0233465999999994,0.0368612000000007,-0.027281,0,sub_21
0.0363621999999996,0.0110430000000012,-0.0260377999999999,-0.0319797999999994,-0.0342615999999992,-0.029173,0,sub_21
0.0341339999999996,0.0109544000000012,-0.0362595999999999,-0.0308399999999994,-0.1131487999999992,-0.0260844,0,sub_21
0.0295695999999996,0.0084932000000012,-0.0427717999999999,-0.0260651999999994,-0.1918295999999992,-0.024466,0,sub_21
0.0221117999999996,0.0073192000000012,-0.0363211999999999,-0.0220423999999994,-0.2464383999999992,-0.0213884,0,sub_21
0.0088983999999996,0.0088236000000012,-0.0261311999999999,-0.0162091999999994,-0.2782557999999993,-0.018541,0,sub_21
-0.0043516000000003,0.0096484000000012,-0.0141535999999999,-0.0102481999999994,-0.2844957999999992,-0.0185026,0,sub_21
-0.0079958000000003,0.0097056000000012,-0.0023527999999999,-0.0059289999999994,-0.2764009999999992,-0.021901,0,sub_21
-0.0105216000000003,0.0103232000000012,0.011216,-0.0043137999999994,-0.2506217999999992,-0.0232046,0,sub_21
-0.0141774000000003,0.0107636000000012,0.0169596,-0.0035423999999994,-0.2203747999999992,-0.0221696,0,sub_21
-0.0237170000000003,0.0094620000000012,0.015897,-0.0055255999999994,-0.1867057999999992,-0.0220128,0,sub_21
-0.0292042000000003,0.0095882000000012,0.012115,-0.0057625999999994,-0.1449441999999992,-0.0224954,0,sub_21
-0.0341624000000003,0.0086068000000012,0.0095642,-0.0038427999999994,-0.0968035999999992,-0.0216892,0,sub_21
-0.0359378000000003,0.0075552000000012,0.0029566,0.0012336000000005,-0.0597477999999992,-0.0221286,0,sub_21
-0.0350686000000003,0.0089966000000012,-0.0032543999999999,0.0073816000000005,-0.0207815999999992,-0.0217084,0,sub_21
-0.0261584000000003,0.0095994000000012,-0.0056195999999999,0.0162804000000005,0.0153958000000007,-0.0189152,0,sub_21
-0.0190712000000003,0.0090408000000012,-0.0043965999999999,0.0240654000000005,0.0411372000000007,-0.0161164,0,sub_21
-0.0144640000000003,0.0091304000000012,-0.0034591999999999,0.0309642000000004,0.0581524000000007,-0.0148082,0,sub_21
-0.0152150000000003,0.0101342000000012,-0.0019605999999999,0.0380822000000004,0.0789916000000007,-0.0109396,0,sub_21
-0.0178762000000003,0.0073988000000012,-5.479999999995653e-05,0.0417576000000004,0.0923900000000007,-0.0081536,0,sub_21
-0.0187984000000003,0.0069902000000012,-0.0005877999999999,0.0415816000000005,0.1015486000000007,-0.007312,0,sub_21
-0.0201676000000003,0.0076606000000012,-0.0019531999999999,0.0411884000000005,0.1113412000000007,-0.0049772,0,sub_21
-0.0204894000000003,0.0075462000000012,-0.0047541999999999,0.0399406000000005,0.1207028000000006,0.0003493999999999,0,sub_21
-0.0190632000000003,0.0070584000000012,-0.0044127999999999,0.0361226000000005,0.1253964000000007,0.0031001999999999,0,sub_21
-0.0171186000000003,0.0066264000000012,-0.0052137999999999,0.0325026000000005,0.1258318000000007,0.0050031999999999,0,sub_21
-0.0163114000000003,0.0060150000000012,-0.0051199999999999,0.0284648000000005,0.1271250000000007,0.0058339999999999,0,sub_21
-0.0141480000000003,0.0045796000000012,-0.0053237999999999,0.0226834000000005,0.1190550000000007,0.0053827999999999,0,sub_21
-0.0133478000000003,0.0054228000000012,-0.0067231999999999,0.0183700000000004,0.1067214000000007,0.0032319999999999,0,sub_21
-0.0114306000000003,0.0056366000000012,-0.0083993999999999,0.0155626000000005,0.0996986000000007,0.0036485999999999,0,sub_21
-0.0106594000000003,0.0060914000000012,-0.0084667999999999,0.0143480000000005,0.0959654000000007,0.0034221999999999,0,sub_21
-0.0092798000000003,0.0056092000000012,-0.0090869999999999,0.0137610000000004,0.0898848000000007,0.0036303999999999,0,sub_21
-0.0060174000000003,0.0057496000000012,-0.0107531999999999,0.0138400000000005,0.0897666000000007,0.0040493999999999,0,sub_21
-0.0023000000000003,0.0063784000000012,-0.0116525999999999,0.0141162000000005,0.0849648000000007,0.0034075999999998,0,sub_21
0.0020035999999996,0.0069186000000012,-0.0145023999999999,0.0175508000000005,0.0695044000000007,0.0015197999999998,0,sub_21
0.0056331999999996,0.0071844000000012,-0.0180785999999999,0.0208882000000005,0.0518118000000007,0.0009247999999999,0,sub_21
0.0086087999999996,0.0067946000000012,-0.0191271999999999,0.0229414000000005,0.0334834000000007,0.0005353999999999,0,sub_21
0.0097707999999996,0.0061452000000012,-0.0197923999999999,0.0222102000000005,0.0113358000000007,-0.0013642,0,sub_21
0.0110711999999996,0.0047018000000012,-0.0218407999999999,0.0211306000000005,-0.0131813999999992,-0.0025826,0,sub_21
0.0108009999999996,0.0042830000000012,-0.0229201999999999,0.0157788000000005,-0.0381123999999992,-0.0031894,0,sub_21
0.0109107999999996,0.0044332000000012,-0.0220935999999999,0.0078732000000005,-0.0621797999999992,-0.0044558,0,sub_21
0.0077777999999996,0.0046214000000012,-0.0189767999999999,-3.419999999947909e-05,-0.0862487999999992,-0.005295,0,sub_21
0.0032073999999996,0.0050770000000012,-0.0161201999999999,-0.0061867999999994,-0.1043953999999992,-0.004182,0,sub_21
5.559999999963412e-05,0.0059286000000012,-0.0113961999999999,-0.0130281999999994,-0.1137761999999991,-0.0039792,0,sub_21
-0.0001108000000003,0.0064278000000012,-0.0025345999999999,-0.0202521999999994,-0.1139917999999992,-0.0044318,0,sub_21
-0.0040378000000003,0.0066482000000012,0.0054938,-0.0266131999999994,-0.1122919999999992,-0.0050946,0,sub_21
-0.0073578000000003,0.0084358000000012,0.0133238,-0.0323149999999994,-0.1063331999999992,-0.0057582,0,sub_21
-0.0124596000000003,0.0114522000000012,0.020804,-0.0322601999999994,-0.0965233999999992,-0.0081204,0,sub_21
-0.0180628000000003,0.0136928000000012,0.026443,-0.0262099999999994,-0.0822595999999992,-0.0106602,0,sub_21
-0.0245814000000003,0.0148902000000012,0.0269496,-0.0148081999999994,-0.0637549999999992,-0.0127408,0,sub_21
-0.0230408000000003,0.0153202000000012,0.0236004,-0.0008137999999994,-0.0413033999999992,-0.0125926,0,sub_21
-0.0195862000000003,0.0124624000000012,0.018972,0.0106240000000005,-0.0177785999999992,-0.01225,0,sub_21
-0.0144158000000003,0.0075638000000012,0.0167092,0.0137018000000004,-0.0035955999999992,-0.0128084,0,sub_21
-0.0111814000000003,0.0065896000000012,0.0114284,0.0133340000000004,0.0033564000000007,-0.0135952,0,sub_21
-0.0109068000000003,0.0064668000000012,0.0027678,0.0156960000000004,7.40000000007554e-05,-0.014777,0,sub_21
-0.0118964000000003,0.0065702000000012,-0.0044923999999999,0.0210158000000004,-0.0048379999999992,-0.0164428,0,sub_21
-0.0107422000000003,0.0069216000000012,-0.0081511999999999,0.0261060000000004,-0.0123101999999992,-0.0170386,0,sub_21
-0.0119162000000003,0.0087176000000012,-0.0107195999999999,0.0305608000000004,-0.0178661999999992,-0.0167868,0,sub_21
-0.0143828000000003,0.0087910000000012,-0.0084901999999999,0.0345404000000005,-0.0200189999999992,-0.0154186,0,sub_21
-0.0154950000000003,0.0083014000000012,-0.0022203999999999,0.0355624000000005,-0.0151323999999992,-0.0136528,0,sub_21
-0.0164912000000003,0.0069092000000012,0.0037792,0.0336070000000005,-0.0093779999999992,-0.0131906,0,sub_21
-0.0185506000000003,0.0084870000000012,0.0044896,0.0353086000000004,0.0021196000000007,-0.0135648,0,sub_21
-0.0195566000000003,0.0112782000000012,0.000247,0.0436440000000005,0.0174308000000007,-0.0143248,0,sub_21
-0.0130800000000003,0.0108472000000012,-0.0086583999999999,0.0573488000000005,0.0276122000000007,-0.014883,0,sub_21
-0.0053244000000003,0.0091464000000012,-0.0164557999999999,0.0689084000000005,0.0382152000000007,-0.0124656,0,sub_21
0.0003989999999996,0.0071122000000012,-0.0223227999999999,0.0746800000000005,0.0443582000000007,-0.0085874,0,sub_21
0.0022579999999996,0.0049986000000012,-0.0242407999999999,0.0741408000000005,0.0394700000000007,-0.0059914,0,sub_21
0.0054617999999996,0.0012350000000012,-0.0231313999999999,0.0663192000000005,0.0299142000000007,-0.0019446,0,sub_21
0.0020339999999996,0.0013276000000012,-0.0175033999999999,0.0525384000000005,0.0233636000000007,0.0016293999999998,0,sub_21
-0.0015524000000003,0.0013038000000012,-0.0117625999999999,0.0393834000000005,0.0104320000000007,0.0020111999999998,0,sub_21
-0.0047648000000003,0.0024996000000012,-0.0063873999999999,0.0285842000000005,-0.0010147999999992,0.0019801999999999,0,sub_21
-0.0029956000000003,0.0046420000000012,-0.0030591999999999,0.0225840000000005,-0.0058973999999992,0.0027991999999999,0,sub_21
