userAcceleration.x,userAcceleration.y,userAcceleration.z,rotationRate.x,rotationRate.y,rotationRate.z,label,subject
-0.0210570000000002,0.0022058000000013,0.0302069999999999,0.0594844000000005,0.1133194000000008,-0.0554153999999999,0,sub_2
-0.0133060000000002,0.0006296000000012,0.0146993999999999,0.0533600000000005,0.1306608000000007,-0.0635379999999999,0,sub_2
-0.0026808000000002,0.0041628000000012,0.0006245999999999,0.0283516000000005,0.1309964000000008,-0.0649339999999999,0,sub_2
0.0084337999999997,0.0079596000000012,-0.0152134,-0.0094849999999994,0.1319904000000007,-0.0600111999999999,0,sub_2
0.0196663999999997,0.0127146000000012,-0.0302334,-0.0445661999999994,0.1361414000000007,-0.0478093999999999,0,sub_2
0.0272407999999997,0.0161188000000012,-0.0438626,-0.0634815999999994,0.1363710000000007,-0.0280121999999999,0,sub_2
0.0302285999999997,0.0177478000000012,-0.051834,-0.0625161999999994,0.1341550000000007,-0.0074927999999999,0,sub_2
0.0272493999999997,0.0163568000000012,-0.0533276,-0.0449089999999994,0.1278480000000008,0.0093023999999999,0,sub_2
0.0213313999999997,0.0135288000000012,-0.0497062,-0.0156953999999994,0.1038682000000007,0.0198123999999999,0,sub_2
0.0157705999999997,0.0112138000000012,-0.0429856,0.0126006000000005,0.0611608000000007,0.0258535999999999,0,sub_2
0.0126281999999997,0.0093152000000012,-0.0317258,0.0291590000000005,0.0161584000000007,0.0298929999999999,0,sub_2
0.0109007999999997,0.0071252000000012,-0.0180426,0.0282688000000005,-0.0179179999999992,0.0340101999999999,0,sub_2
0.0091619999999997,0.0058282000000012,-0.0040134,0.0156894000000005,-0.0408779999999992,0.038886,0,sub_2
0.0078421999999997,0.0049594000000012,0.0073771999999999,-0.0029735999999994,-0.0540581999999992,0.0477455999999999,0,sub_2
0.0040561999999997,0.0048756000000012,0.0166573999999999,-0.0217801999999994,-0.0516847999999992,0.0565842,0,sub_2
0.0007881999999997,0.0066004000000012,0.0230707999999999,-0.0349933999999994,-0.0484333999999992,0.061393,0,sub_2
-0.0026152000000002,0.0082398000000012,0.0264581999999998,-0.0356261999999994,-0.0503265999999992,0.0630914,0,sub_2
-0.0049642000000002,0.0092266000000012,0.0277109999999999,-0.0285689999999994,-0.0526633999999992,0.0624942,0,sub_2
-0.0086430000000002,0.0101324000000012,0.0356163999999999,-0.0161497999999994,-0.0515987999999992,0.0591526,0,sub_2
-0.0110888000000002,0.0116042000000012,0.0457553999999999,0.0039692000000005,-0.0492717999999992,0.0530858,0,sub_2
-0.0169138000000002,0.0106540000000012,0.0542343999999999,0.0298842000000005,-0.0373927999999991,0.0436376,0,sub_2
-0.0227874000000002,0.0072510000000012,0.0611321999999999,0.0537220000000005,-0.0176045999999991,0.0294646,0,sub_2
-0.0258502000000002,0.0032608000000012,0.0674581999999999,0.0728616000000005,-0.0037449999999991,0.0101388,0,sub_2
-0.0234288000000002,-0.0007299999999987,0.0655947999999999,0.0813606000000005,0.0116620000000008,-0.0139633999999999,0,sub_2
-0.0185062000000002,-0.0053977999999987,0.0565267999999999,0.0708674000000005,0.0269216000000008,-0.0379843999999999,0,sub_2
-0.0108138000000002,-0.0086051999999987,0.0452923999999999,0.0406836000000005,0.0345568000000008,-0.0563647999999999,0,sub_2
0.0017383999999997,-0.0060609999999987,0.0270179999999999,-0.0017459999999994,0.0319748000000007,-0.0664853999999999,0,sub_2
0.0144003999999997,-0.0012249999999987,0.0062621999999999,-0.0506743999999994,0.0189304000000007,-0.0653147999999999,0,sub_2
0.0220611999999997,0.0065702000000012,-0.0121484,-0.0945941999999994,-0.0080247999999991,-0.0529819999999999,0,sub_2
0.0231769999999997,0.0156968000000012,-0.0254116,-0.1193141999999994,-0.0297453999999992,-0.0343261999999999,0,sub_2
0.0203817999999997,0.0245386000000012,-0.0346548,-0.1141295999999994,-0.0445387999999992,-0.0156839999999999,0,sub_2
0.0130717999999997,0.0284054000000012,-0.034572,-0.0828997999999994,-0.0598357999999992,-0.0002775999999999,0,sub_2
0.0032403999999997,0.0282204000000012,-0.030894,-0.0324745999999994,-0.0680039999999992,0.0088104,0,sub_2
-0.0053954000000002,0.0244880000000012,-0.0237946,0.0214002000000005,-0.0753037999999991,0.0108714,0,sub_2
-0.0104282000000002,0.0189242000000012,-0.0116862,0.0682030000000005,-0.0938529999999991,0.0084108,0,sub_2
-0.0121590000000002,0.0113814000000012,0.0029101999999999,0.0949420000000005,-0.1146721999999992,0.0049584,0,sub_2
-0.0127632000000002,0.0046592000000012,0.0162199999999999,0.0988884000000005,-0.1245551999999992,0.0036828,0,sub_2
-0.0119808000000002,0.0024294000000012,0.0288671999999999,0.0858756000000005,-0.1219607999999992,0.0055114,0,sub_2
-0.0119302000000002,0.0026662000000012,0.0400299999999999,0.0703550000000005,-0.1050929999999991,0.0098678,0,sub_2
-0.0124392000000002,0.0047516000000012,0.0468515999999998,0.0542412000000005,-0.0777833999999992,0.0142068,0,sub_2
-0.0158550000000002,0.0063222000000012,0.0477479999999998,0.0462684000000005,-0.0466535999999992,0.0151794,0,sub_2
-0.0226214000000002,0.0080902000000012,0.0467843999999999,0.0483776000000005,-0.0106303999999991,0.009166,0,sub_2
-0.0283178000000002,0.0078948000000012,0.0449823999999999,0.0566680000000005,0.0179382000000008,-0.0027767999999999,0,sub_2
-0.0289406000000002,0.0063908000000012,0.0402831999999999,0.0640598000000005,0.0311912000000008,-0.0200473999999999,0,sub_2
-0.0276926000000002,0.0025178000000013,0.0333675999999999,0.0669498000000005,0.0397726000000007,-0.0373433999999999,0,sub_2
-0.0207662000000002,0.0014060000000013,0.0226701999999999,0.0589450000000005,0.0494032000000007,-0.0495941999999999,0,sub_2
-0.0091982000000002,0.0018252000000013,0.0120523999999999,0.0412810000000005,0.0534990000000007,-0.0546413999999999,0,sub_2
0.0022959999999997,0.0022020000000013,0.0026803999999999,0.0191054000000005,0.0588564000000007,-0.0516031999999999,0,sub_2
0.0091885999999997,0.0045534000000012,-0.0037466,-0.0049961999999994,0.0703692000000007,-0.0411087999999999,0,sub_2
0.0137541999999997,0.0077610000000012,-0.0090332,-0.0235625999999994,0.0820638000000008,-0.0275849999999999,0,sub_2
0.0133713999999997,0.0107114000000012,-0.0105876,-0.0297791999999994,0.0875772000000007,-0.0156713999999999,0,sub_2
0.0105291999999997,0.0130266000000012,-0.0115702,-0.0225819999999994,0.0849542000000007,-0.0053627999999999,0,sub_2
0.0069139999999997,0.0146018000000012,-0.012071,-0.0077569999999994,0.0770268000000007,0.0017032,0,sub_2
0.0048741999999997,0.0139952000000012,-0.0126358,0.0098522000000005,0.0686748000000007,0.006012,0,sub_2
0.0034207999999997,0.0129642000000012,-0.011473,0.0274644000000005,0.0586278000000007,0.0079728,0,sub_2
0.0037635999999997,0.0115698000000012,-0.0079744,0.0405996000000005,0.0490240000000008,0.0094743999999999,0,sub_2
0.0050009999999997,0.0098238000000012,-0.0031128,0.0477700000000005,0.0415718000000008,0.0109315999999999,0,sub_2
0.0059739999999997,0.0086510000000012,0.0022845999999999,0.0479516000000005,0.0368746000000007,0.0132889999999999,0,sub_2
0.0049493999999997,0.0072680000000012,0.0093093999999999,0.0447366000000005,0.0362364000000007,0.0158309999999999,0,sub_2
0.0025089999999997,0.0070776000000012,0.0160165999999999,0.0389850000000005,0.0407212000000007,0.0181351999999999,0,sub_2
-0.0014210000000002,0.0068922000000012,0.0212095999999999,0.0362246000000005,0.0450772000000007,0.0187568,0,sub_2
-0.0048074000000002,0.0075798000000012,0.0244037999999999,0.0373144000000005,0.0483674000000007,0.0162018,0,sub_2
-0.0080612000000002,0.0082672000000012,0.0256105999999999,0.0431168000000005,0.0527182000000007,0.0106874,0,sub_2
-0.0106896000000002,0.0087898000000012,0.0260921999999999,0.0506386000000005,0.0572864000000008,0.002621,0,sub_2
-0.0123120000000002,0.0087124000000012,0.0272537999999999,0.0566918000000005,0.0657016000000007,-0.0071697999999999,0,sub_2
-0.0155064000000002,0.0106306000000012,0.0263931999999998,0.0497636000000005,0.0798320000000007,-0.0183457999999999,0,sub_2
-0.0182450000000002,0.0121526000000012,0.0203133999999998,0.0165350000000005,0.0806360000000007,-0.0307565999999999,0,sub_2
-0.0187494000000002,0.0187784000000012,0.0049359999999998,-0.0282285999999994,0.0333212000000007,-0.0410497999999999,0,sub_2
-0.0110876000000002,0.0209102000000012,-0.0111490000000001,-0.0684801999999994,-0.0414019999999992,-0.0493517999999999,0,sub_2
0.0061317999999997,0.0161350000000012,-0.0193742,-0.0924973999999994,-0.1064043999999992,-0.0517843999999999,0,sub_2
0.0236543999999997,0.0115048000000012,-0.020337,-0.0986003999999994,-0.1148415999999991,-0.0428413999999999,0,sub_2
0.0268059999999997,0.0072910000000012,-0.0187716,-0.0766385999999994,-0.0897483999999991,-0.0251993999999999,0,sub_2
0.0263073999999997,0.0012042000000012,-0.0099988,-0.0362605999999994,-0.0495943999999991,-0.0070207999999999,0,sub_2
0.0191567999999997,0.0025212000000012,-0.005129,0.0057070000000005,-0.0027137999999992,0.00774,0,sub_2
0.0051629999999997,0.0088200000000012,-0.007552,0.0397482000000005,0.0327074000000008,0.0179736,0,sub_2
-0.0070708000000002,0.0104376000000012,-0.0093738,0.0665738000000005,0.0221628000000008,0.020952,0,sub_2
-0.0041570000000002,0.0121380000000012,-0.009645,0.0932002000000005,-0.0034025999999991,0.0188514,0,sub_2
0.0020007999999997,0.0125380000000012,-0.0115342,0.1185982000000005,-0.0189439999999992,0.0152338,0,sub_2
0.0075261999999997,0.0100086000000012,-0.0112906,0.1420710000000005,-0.0319365999999992,0.0152316,0,sub_2
0.0101363999999997,0.0075622000000012,-0.0088208,0.1557162000000005,-0.0461791999999992,0.0166578,0,sub_2
0.0111379999999997,0.0084022000000012,-0.0081686,0.1704214000000005,-0.0604315999999992,0.019587,0,sub_2
0.0070733999999997,0.0082948000000012,-0.0006542,0.1814564000000005,-0.0715585999999991,0.0220284,0,sub_2
-0.0006060000000002,0.0060134000000012,0.0080655999999999,0.1823118000000005,-0.0707109999999991,0.0224606,0,sub_2
-0.0044960000000002,0.0037074000000012,0.0180347999999999,0.1715910000000005,-0.0749461999999991,0.0209238,0,sub_2
-0.0050138000000002,0.0022114000000012,0.0258457999999999,0.1553436000000005,-0.0774455999999991,0.0163552,0,sub_2
-0.0043110000000002,-0.0017465999999987,0.0301271999999999,0.1265264000000005,-0.0786107999999991,0.0087058,0,sub_2
-0.0012362000000002,-0.0030057999999987,0.0290779999999999,0.0795746000000005,-0.0782253999999991,0.0019962,0,sub_2
0.0023573999999997,-0.0024073999999987,0.0309773999999999,0.0271000000000005,-0.0690983999999991,-0.0015585999999999,0,sub_2
0.0004429999999997,0.0011706000000012,0.0308127999999999,-0.0199047999999994,-0.0378183999999991,-0.0042771999999999,0,sub_2
-0.0032298000000002,0.0045538000000012,0.0253893999999999,-0.0575393999999994,-0.0116803999999991,-0.0079919999999999,0,sub_2
-0.0086384000000002,0.0085746000000012,0.0152691999999999,-0.0826377999999994,0.0016348000000007,-0.0126707999999999,0,sub_2
-0.0094952000000002,0.0093358000000012,0.0101153999999999,-0.0907727999999994,-0.0091829999999992,-0.0176275999999999,0,sub_2
-0.0075494000000002,0.0085154000000012,0.0082573999999999,-0.0911707999999994,-0.0085191999999992,-0.0233995999999999,0,sub_2
-0.0052362000000002,0.0068816000000012,0.0054549999999999,-0.0917763999999994,-0.0053033999999992,-0.0278943999999999,0,sub_2
-0.0033484000000002,0.0069006000000012,0.0021915999999999,-0.0960447999999994,-0.0048647999999992,-0.0272837999999999,0,sub_2
0.0007945999999997,0.0068144000000012,0.0043441999999999,-0.1010031999999994,-0.0131685999999992,-0.0243167999999999,0,sub_2
0.0010249999999997,0.0081170000000012,0.0056047999999999,-0.0986207999999994,-0.0038083999999992,-0.0228165999999999,0,sub_2
-0.0017258000000002,0.0110058000000012,-0.00112,-0.0935017999999994,-0.0021303999999992,-0.0206465999999999,0,sub_2
-0.0016200000000002,0.0120514000000012,-0.0063718,-0.0880201999999994,-0.0138795999999992,-0.0176021999999999,0,sub_2
-0.0026262000000002,0.0113420000000012,0.0008161999999999,-0.0748389999999994,-0.0224565999999991,-0.0153625999999999,0,sub_2
-0.0047974000000002,0.0108020000000012,0.0062945999999999,-0.0641175999999994,-0.0086539999999992,-0.0131689999999999,0,sub_2
-0.0071496000000002,0.0118644000000012,0.0062919999999999,-0.0617425999999993,0.0009116000000007,-0.0097463999999999,0,sub_2
-0.0071750000000002,0.0120532000000012,0.0073047999999999,-0.0594223999999994,-0.0023035999999992,-0.0069485999999999,0,sub_2
-0.0075138000000002,0.0110240000000012,0.0095765999999999,-0.0536671999999993,-0.0025409999999992,-0.0058399999999999,0,sub_2
-0.0073382000000002,0.0108554000000012,0.0085235999999999,-0.0513029999999993,0.0021346000000007,-0.0049749999999999,0,sub_2
-0.0068164000000002,0.0120414000000012,0.0087485999999999,-0.0496485999999993,-0.0089525999999992,-0.0043083999999999,0,sub_2
-0.0065430000000002,0.0117994000000012,0.0106241999999999,-0.0441181999999994,-0.0115337999999992,-0.0029845999999999,0,sub_2
-0.0083066000000002,0.0120972000000012,0.0151095999999998,-0.0377227999999994,-0.0121977999999992,-0.0022981999999999,0,sub_2
-0.0103040000000002,0.0119652000000012,0.0183669999999998,-0.0283179999999993,-0.0096697999999992,-0.0033039999999999,0,sub_2
-0.0115166000000002,0.0118358000000012,0.0162117999999998,-0.0187199999999994,-0.0139507999999992,-0.0066497999999999,0,sub_2
-0.0111442000000002,0.0106846000000012,0.0141393999999998,-0.0093095999999994,-0.0146005999999992,-0.0121379999999999,0,sub_2
-0.0074330000000002,0.0080592000000012,0.0105373999999999,-0.0067193999999994,-0.0147951999999992,-0.0189563999999999,0,sub_2
-0.0017114000000002,0.0057442000000012,0.0069889999999999,-0.0096537999999994,-0.0081597999999992,-0.0241127999999999,0,sub_2
0.0032417999999997,0.0064550000000012,0.0037295999999999,-0.0190201999999994,-0.0036511999999992,-0.0246111999999999,0,sub_2
0.0060283999999997,0.0060104000000012,0.0018351999999999,-0.0309527999999994,0.0019224000000007,-0.0227787999999999,0,sub_2
0.0070761999999997,0.0063766000000012,0.0005065999999999,-0.0388265999999994,0.0096078000000007,-0.0198525999999999,0,sub_2
0.0046461999999997,0.0079584000000012,0.0021169999999999,-0.0443933999999994,0.0087612000000007,-0.0164719999999999,0,sub_2
0.0028703999999997,0.0087982000000012,0.0016221999999999,-0.0422711999999994,0.0087436000000007,-0.0138935999999999,0,sub_2
0.0013025999999997,0.0087904000000012,0.0015661999999999,-0.0345599999999994,0.0148970000000007,-0.0142749999999999,0,sub_2
0.0005353999999997,0.0093560000000012,0.0007283999999998,-0.0249409999999994,0.0191228000000007,-0.0137859999999999,0,sub_2
0.0013815999999997,0.0092422000000012,0.0005851999999999,-0.0200725999999994,0.0112194000000007,-0.0128871999999999,0,sub_2
0.0038291999999997,0.0081824000000012,-0.0015222,-0.0153815999999994,0.0105804000000007,-0.0109161999999999,0,sub_2
0.0033989999999997,0.0077338000000012,-0.0001344,-0.0172745999999993,0.0174188000000007,-0.0083595999999999,0,sub_2
0.0027127999999997,0.0069632000000012,0.0004061999999999,-0.0202487999999993,0.0221262000000007,-0.0047395999999999,0,sub_2
0.0029877999999997,0.0072702000000012,0.0005413999999999,-0.0227979999999993,0.0244960000000007,-0.0030365999999999,0,sub_2
0.0029197999999997,0.0061398000000012,0.0021891999999999,-0.0272465999999993,0.0309232000000007,-0.0019929999999999,0,sub_2
0.0023535999999997,0.0056260000000012,0.0063505999999999,-0.0344649999999994,0.0381958000000007,-0.0029071999999999,0,sub_2
0.0030115999999997,0.0043816000000012,0.0094933999999999,-0.0408517999999994,0.0401408000000007,-0.0042361999999999,0,sub_2
0.0028735999999997,0.0040166000000012,0.0114251999999999,-0.0517337999999994,0.0395422000000007,-0.0049523999999999,0,sub_2
0.0030783999999997,0.0028354000000012,0.0148467999999999,-0.0668735999999994,0.0421502000000007,-0.0046341999999999,0,sub_2
0.0030043999999997,0.0032790000000012,0.0168861999999999,-0.0816127999999994,0.0497644000000008,-0.0029895999999999,0,sub_2
0.0018927999999997,0.0023820000000012,0.0185329999999999,-0.0954993999999994,0.0577992000000007,-0.0006985999999999,0,sub_2
0.0001957999999997,0.0022798000000012,0.0187071999999999,-0.1134457999999994,0.0647820000000008,0.001779,0,sub_2
-0.0009782000000002,0.0022076000000012,0.0190359999999999,-0.1298861999999994,0.0730438000000008,0.00277,0,sub_2
-0.0029790000000002,0.0030034000000012,0.0149803999999999,-0.1401503999999994,0.0785152000000008,0.003594,0,sub_2
-0.0036610000000002,0.0050660000000012,0.0085965999999999,-0.1386653999999994,0.0774412000000008,0.0044604,0,sub_2
-0.0035950000000002,0.0110150000000012,-0.0022966,-0.1233273999999994,0.0718480000000008,0.0045746,0,sub_2
-0.0020052000000002,0.0169178000000012,-0.0122564,-0.0867763999999994,0.0662682000000008,0.0050986,0,sub_2
-0.0014552000000002,0.0209696000000012,-0.018147,-0.0356843999999994,0.0670318000000008,0.005075,0,sub_2
-0.0016544000000002,0.0212110000000012,-0.0209408,0.0158170000000005,0.0620490000000008,0.003139,0,sub_2
-0.0006862000000002,0.0193086000000012,-0.016757,0.0602254000000005,0.0460106000000008,0.0015948,0,sub_2
-0.0013206000000002,0.0147892000000012,-0.006749,0.0901474000000005,0.0376826000000007,0.0025034,0,sub_2
-0.0035132000000002,0.0096054000000012,0.0043049999999998,0.1012274000000005,0.0340226000000007,0.0023718,0,sub_2
-0.0035612000000002,0.0053728000000012,0.0130689999999998,0.0947858000000005,0.0240358000000007,0.0012714,0,sub_2
-0.0009668000000002,0.0034518000000012,0.0200197999999998,0.0766386000000005,0.0223922000000007,0.0017876,0,sub_2
-0.0005120000000002,0.0018084000000012,0.0207289999999999,0.0493968000000005,0.0386770000000007,0.0022174,0,sub_2
-0.0006826000000002,0.0021478000000012,0.0173231999999999,0.0191582000000005,0.0530540000000007,0.0028422,0,sub_2
-0.0001380000000002,0.0033470000000012,0.0110905999999999,-0.0117461999999994,0.0616810000000008,0.0034698,0,sub_2
0.0021203999999997,0.0060494000000012,0.0033095999999999,-0.0371307999999994,0.0668686000000008,0.0069178,0,sub_2
0.0038389999999997,0.0100634000000012,-0.0041586,-0.0510305999999994,0.0654044000000007,0.0121638,0,sub_2
0.0043537999999997,0.0133014000000012,-0.0099658,-0.0498097999999994,0.0574958000000007,0.0175236,0,sub_2
0.0067301999999997,0.0147744000000012,-0.0128088,-0.0360009999999994,0.0467836000000007,0.0204112,0,sub_2
0.0085403999999997,0.0147366000000012,-0.0131586,-0.0162073999999994,0.0373330000000007,0.0222708,0,sub_2
0.0097771999999997,0.0126904000000012,-0.0120328,0.0027118000000005,0.0229860000000007,0.0239168,0,sub_2
0.0103147999999997,0.0104710000000012,-0.0088736,0.0152164000000005,0.0050422000000007,0.0248816,0,sub_2
0.0120573999999997,0.0092190000000012,-0.0059414,0.0157626000000005,-0.0156269999999991,0.0251254,0,sub_2
0.0130427999999997,0.0066706000000012,-0.0002412,0.0079576000000005,-0.0403253999999991,0.02788,0,sub_2
0.0136639999999997,0.0052276000000012,0.0057413999999999,-0.0026153999999994,-0.0624625999999991,0.0318938,0,sub_2
0.0122081999999997,0.0044666000000012,0.0117017999999999,-0.0116267999999994,-0.0707513999999991,0.034619,0,sub_2
0.0062577999999997,0.0046414000000012,0.0193057999999999,-0.0150177999999994,-0.0649895999999991,0.035229,0,sub_2
-0.0002998000000002,0.0049688000000012,0.0266687999999999,-0.0123921999999994,-0.0526329999999992,0.0330952,0,sub_2
-0.0057302000000002,0.0060384000000012,0.0301719999999999,-0.0073983999999994,-0.0398413999999992,0.0267042,0,sub_2
-0.0093766000000002,0.0055644000000012,0.0318553999999999,-0.0015463999999994,-0.0283215999999992,0.0179708,0,sub_2
-0.0120860000000002,0.0056950000000012,0.0327635999999999,0.0010964000000005,-0.0197691999999992,0.0081506,0,sub_2
-0.0094650000000002,0.0052962000000012,0.0296867999999999,-0.0011969999999994,-0.0169545999999992,-0.0010557999999999,0,sub_2
-0.0063842000000002,0.0050930000000012,0.0256507999999999,-0.0094763999999994,-0.0134927999999992,-0.0071001999999999,0,sub_2
-0.0040570000000002,0.0053312000000012,0.0207785999999999,-0.0211599999999994,-0.0044933999999992,-0.0097569999999999,0,sub_2
-0.0005736000000002,0.0072598000000012,0.0147307999999999,-0.0334933999999994,0.0042876000000007,-0.0104951999999999,0,sub_2
0.0031849999999997,0.0094066000000012,0.0073737999999999,-0.0422165999999994,0.0109186000000007,-0.0094963999999999,0,sub_2
0.0060667999999997,0.0112996000000012,0.0007029999999999,-0.0443397999999994,0.0145428000000007,-0.0082339999999999,0,sub_2
0.0081725999999997,0.0115020000000012,-0.0049052,-0.0398847999999994,0.0104722000000007,-0.0064883999999999,0,sub_2
0.0107067999999997,0.0114812000000012,-0.0093792,-0.0320599999999994,-0.0034105999999992,-0.0047067999999999,0,sub_2
0.0120257999999997,0.0103220000000012,-0.0104594,-0.0236189999999994,-0.0215609999999992,-0.0018471999999999,0,sub_2
0.0127587999999997,0.0085308000000012,-0.0079956,-0.0171003999999994,-0.0397063999999992,0.0014262,0,sub_2
0.0110833999999997,0.0065648000000012,-0.0040916,-0.0146243999999994,-0.0544321999999992,0.0055216,0,sub_2
0.0100497999999997,0.0065360000000012,-0.0001594,-0.0151163999999994,-0.0655229999999991,0.0089506,0,sub_2
0.0095751999999997,0.0073786000000012,0.0042695999999999,-0.0172941999999994,-0.0717085999999992,0.0125752,0,sub_2
0.0073285999999997,0.0072914000000012,0.0083751999999999,-0.0190395999999994,-0.0759807999999992,0.0168412,0,sub_2
0.0025879999999997,0.0080414000000012,0.0110349999999999,-0.0182013999999994,-0.0772705999999992,0.0189852,0,sub_2
-0.0008588000000002,0.0094582000000012,0.0127543999999999,-0.0132927999999994,-0.0770745999999992,0.0190192,0,sub_2
-0.0036332000000002,0.0104568000000012,0.0148585999999999,-0.0040849999999994,-0.0713483999999992,0.0175806,0,sub_2
-0.0071344000000002,0.0095818000000012,0.0170927999999999,0.0075022000000005,-0.0588107999999992,0.0157228,0,sub_2
-0.0095776000000002,0.0092914000000012,0.0197155999999999,0.0169664000000005,-0.0456197999999992,0.0121402,0,sub_2
-0.0109144000000002,0.0081212000000012,0.0218119999999999,0.0202024000000005,-0.0407187999999992,0.0091654,0,sub_2
-0.0130214000000002,0.0062316000000012,0.0246593999999999,0.0195902000000005,-0.0381455999999992,0.005526,0,sub_2
-0.0152634000000002,0.0059454000000012,0.0254613999999999,0.0177868000000005,-0.0378545999999992,0.0006418,0,sub_2
-0.0146436000000002,0.0061582000000012,0.0249801999999999,0.0153136000000005,-0.0448027999999992,-0.0048787999999999,0,sub_2
-0.0126704000000002,0.0065776000000012,0.0241599999999999,0.0113612000000005,-0.0472767999999992,-0.0091335999999999,0,sub_2
-0.0106598000000002,0.0068980000000012,0.0243353999999999,0.0085362000000005,-0.0348467999999992,-0.0119039999999999,0,sub_2
-0.0092758000000002,0.0067808000000012,0.0233527999999999,0.0048844000000006,-0.0158115999999992,-0.0140479999999999,0,sub_2
-0.0082836000000002,0.0054394000000012,0.0219325999999999,-0.0003711999999993,-0.0008691999999992,-0.0166675999999999,0,sub_2
-0.0068704000000002,0.0059052000000012,0.0156061999999999,-0.0045657999999993,0.0083094000000007,-0.0199231999999999,0,sub_2
-0.0046734000000002,0.0070220000000012,0.0082113999999999,-0.0068843999999993,0.0072564000000007,-0.0235797999999999,0,sub_2
-0.0009324000000002,0.0081966000000012,0.0016345999999999,-0.0066837999999994,-0.0021179999999992,-0.0263535999999999,0,sub_2
0.0044161999999997,0.0089104000000012,-0.00518,-0.0052267999999994,-0.0134279999999992,-0.0256975999999999,0,sub_2
0.0092437999999997,0.0097278000000012,-0.0103542,-0.0037611999999994,-0.0187885999999992,-0.0209899999999999,0,sub_2
0.0107549999999997,0.0096736000000012,-0.009742,-0.0029335999999994,-0.0177535999999992,-0.0141487999999999,0,sub_2
0.0092279999999997,0.0097590000000012,-0.007885,-0.0005891999999994,-0.0118227999999992,-0.0075171999999999,0,sub_2
0.0062937999999997,0.0097766000000012,-0.006576,0.0025002000000005,-0.0082971999999992,-0.0015765999999999,0,sub_2
0.0037421999999997,0.0104108000000012,-0.0047982,0.0053742000000005,-0.0073187999999992,0.0022292,0,sub_2
