userAcceleration.x,userAcceleration.y,userAcceleration.z,rotationRate.x,rotationRate.y,rotationRate.z,label,subject
0.0459025999999995,0.0104500000000012,0.0666041999999998,-0.0509251999999994,-0.1319905999999993,0.0073899999999999,0,sub_8
0.0392819999999995,0.0106076000000012,0.0831861999999998,-0.0335047999999994,-0.1891795999999994,0.0148489999999999,0,sub_8
0.0309577999999995,0.0078246000000012,0.0935329999999999,-0.0138901999999994,-0.2234047999999993,0.0319075999999999,0,sub_8
0.0208313999999995,0.0067978000000012,0.0962951999999998,6.580000000050781e-05,-0.2324787999999993,0.0512445999999999,0,sub_8
0.0121753999999996,0.0063560000000012,0.0966679999999998,0.0049608000000005,-0.2204115999999993,0.0662183999999999,0,sub_8
0.0088497999999996,0.0063212000000012,0.0956525999999999,0.0046088000000004,-0.1995479999999994,0.0704621999999999,0,sub_8
0.0066513999999996,0.0071362000000012,0.0934413999999998,-0.0018895999999994,-0.1801115999999993,0.0639825999999999,0,sub_8
0.0047229999999996,0.0064842000000012,0.0922463999999998,-0.0122193999999994,-0.1663825999999993,0.0495787999999999,0,sub_8
0.0054059999999996,0.0073010000000012,0.0933711999999998,-0.0249123999999994,-0.1592381999999993,0.0321757999999999,0,sub_8
0.0009259999999995,0.0130012000000012,0.0966007999999998,-0.0346209999999994,-0.1521065999999993,0.0154345999999999,0,sub_8
-0.0066020000000003,0.0170222000000012,0.1001519999999998,-0.0381187999999994,-0.1362759999999994,0.0023575999999999,0,sub_8
-0.0148232000000003,0.0190000000000012,0.1019743999999999,-0.0360153999999994,-0.1047141999999993,-0.006855,0,sub_8
-0.0183258000000003,0.0207602000000012,0.0966681999999999,-0.0281047999999994,-0.0597629999999993,-0.0128394,0,sub_8
-0.0149214000000003,0.0236828000000012,0.0892265999999999,-0.0161383999999994,-0.0124899999999993,-0.0168756,0,sub_8
-0.0038830000000003,0.0215104000000012,0.0803581999999999,-0.0031683999999995,0.0215664000000006,-0.0200334,0,sub_8
0.0075551999999995,0.0178380000000012,0.0725335999999998,0.0065110000000004,0.0385780000000006,-0.0202012,0,sub_8
0.0185681999999995,0.0153618000000012,0.0672835999999998,0.0135244000000004,0.0368310000000006,-0.0156634,0,sub_8
0.0232315999999995,0.0133992000000012,0.0644537999999999,0.0181188000000004,0.0214476000000006,-0.008775,0,sub_8
0.0237419999999995,0.0086790000000012,0.0612807999999998,0.0214024000000004,-0.0005369999999993,-0.0016736,0,sub_8
0.0223963999999996,0.0049560000000012,0.0608185999999998,0.0238364000000004,-0.0214539999999993,0.0056341999999999,0,sub_8
0.0207301999999995,0.0058330000000012,0.0613149999999999,0.0230850000000004,-0.0406487999999993,0.0112081999999999,0,sub_8
0.0184157999999995,0.0079220000000012,0.0620959999999998,0.0198040000000004,-0.0568363999999993,0.0129151999999999,0,sub_8
0.0172595999999995,0.0087046000000012,0.0661269999999999,0.0169794000000004,-0.0681185999999993,0.0129099999999999,0,sub_8
0.0151555999999995,0.0102482000000012,0.0718179999999999,0.0148160000000005,-0.0742913999999993,0.0133299999999999,0,sub_8
0.0124795999999995,0.0119134000000012,0.0741021999999999,0.0131388000000005,-0.0757587999999993,0.0131143999999999,0,sub_8
0.0118219999999995,0.0129476000000012,0.0802989999999999,0.0116998000000005,-0.0729605999999993,0.0116131999999999,0,sub_8
0.0131183999999995,0.0121846000000012,0.0863325999999999,0.0135008000000005,-0.0637725999999993,0.0077763999999999,0,sub_8
0.0151535999999995,0.0117662000000012,0.0902233999999999,0.0114908000000004,-0.0517861999999993,6.359999999995883e-05,0,sub_8
0.0183167999999995,0.0111956000000012,0.0908133999999999,0.0060774000000004,-0.0393539999999993,-0.0095962,0,sub_8
0.0210883999999995,0.0079782000000012,0.0903273999999999,-0.0034285999999995,-0.0233201999999993,-0.0150242,0,sub_8
0.0229407999999995,0.0053168000000012,0.0849879999999998,-0.0157235999999995,-0.0070781999999993,-0.01684,0,sub_8
0.0222351999999995,0.0068084000000012,0.0786653999999998,-0.0321179999999995,0.0025598000000006,-0.0152578,0,sub_8
0.0194589999999995,0.0110326000000012,0.0714033999999998,-0.0466377999999994,0.0028134000000006,-0.0127958,0,sub_8
0.0146403999999995,0.0135986000000012,0.0662721999999998,-0.0515751999999994,-0.0018643999999993,-0.0109014,0,sub_8
0.0105541999999995,0.0177010000000012,0.0639573999999998,-0.0428451999999994,-0.0078527999999993,-0.0127556,0,sub_8
0.0093531999999995,0.0172460000000012,0.0615847999999998,-0.0221725999999994,-0.0138909999999993,-0.0130356,0,sub_8
0.0097657999999995,0.0136474000000012,0.0596259999999999,0.0029760000000005,-0.0165539999999993,-0.0088022,0,sub_8
0.0123139999999995,0.0099788000000012,0.0610637999999999,0.0266262000000005,-0.0153965999999993,0.0003297999999999,0,sub_8
0.0153799999999995,0.0104936000000012,0.0643425999999999,0.0432208000000005,-0.0161369999999993,0.0106967999999999,0,sub_8
0.0138657999999995,0.0105842000000012,0.0694773999999999,0.0487018000000005,-0.0200377999999993,0.0218447999999999,0,sub_8
0.0074173999999996,0.0139294000000012,0.0733333999999999,0.0465402000000005,-0.0196305999999993,0.0284521999999999,0,sub_8
0.0021105999999996,0.0176272000000012,0.0764335999999999,0.0401516000000005,-0.0181117999999993,0.0271237999999999,0,sub_8
-0.0014488000000003,0.0172986000000012,0.0800945999999999,0.0382570000000004,-0.0155355999999993,0.0239025999999999,0,sub_8
-0.0016192000000003,0.0143604000000012,0.0835151999999999,0.0376608000000004,-0.0081905999999993,0.0193665999999999,0,sub_8
0.0045761999999995,0.0134578000000012,0.0831253999999999,0.0347340000000004,0.0004502000000006,0.0124625999999999,0,sub_8
0.0127783999999995,0.0102778000000012,0.0828883999999999,0.0275138000000004,0.0035656000000006,0.0057491999999999,0,sub_8
0.0193093999999995,0.0049216000000012,0.0811223999999999,0.0183444000000005,0.0043280000000006,0.0030845999999999,0,sub_8
0.0221547999999995,0.0019800000000012,0.0754375999999998,0.0021176000000005,0.0021298000000006,0.0010153999999999,0,sub_8
0.0221683999999995,0.0017632000000012,0.0687279999999998,-0.0139119999999994,-0.0029309999999993,0.0017643999999999,0,sub_8
0.0211341999999995,0.0021538000000012,0.0639033999999998,-0.0250523999999994,-0.0101469999999993,0.0044731999999999,0,sub_8
0.0200403999999995,0.0052534000000012,0.0614285999999998,-0.0278837999999994,-0.0207983999999993,0.0066035999999999,0,sub_8
0.0179771999999995,0.0091194000000012,0.0617213999999999,-0.0269049999999994,-0.0328789999999993,0.0081099999999999,0,sub_8
0.0158539999999995,0.0113888000000012,0.0619911999999999,-0.0203651999999994,-0.0422083999999993,0.0094379999999999,0,sub_8
0.0133113999999995,0.0120498000000012,0.0627399999999999,-0.0142309999999994,-0.0481223999999993,0.0094769999999999,0,sub_8
0.0130479999999995,0.0122538000000012,0.0642663999999999,-0.0061505999999994,-0.0493515999999993,0.0084551999999999,0,sub_8
0.0128441999999995,0.0110814000000012,0.0648947999999999,-0.0008361999999994,-0.0463203999999993,0.0099723999999999,0,sub_8
0.0151177999999995,0.0101544000000012,0.0647835999999999,0.0045068000000005,-0.0422993999999993,0.0121409999999999,0,sub_8
0.0186233999999995,0.0105928000000012,0.0668441999999998,0.0077094000000005,-0.0403989999999993,0.0136563999999999,0,sub_8
0.0226133999999996,0.0113850000000012,0.0697471999999998,0.0096162000000005,-0.0427517999999993,0.0143135999999999,0,sub_8
0.0229379999999996,0.0108698000000012,0.0716527999999998,0.0070222000000005,-0.0510485999999993,0.0134515999999999,0,sub_8
0.0237281999999996,0.0116402000000012,0.0743781999999998,0.0048214000000005,-0.0589607999999993,0.0108647999999999,0,sub_8
0.0226995999999996,0.0113130000000012,0.0787059999999998,0.0045552000000005,-0.0638961999999993,0.0080739999999999,0,sub_8
0.0208261999999996,0.0102102000000012,0.0808177999999999,4.260000000050613e-05,-0.0615831999999993,0.0078079999999999,0,sub_8
0.0217381999999995,0.0101692000000012,0.0808639999999999,-0.0025379999999994,-0.0558713999999993,0.0084057999999999,0,sub_8
0.0264751999999995,0.0088518000000012,0.0796499999999999,-0.0038249999999994,-0.0465445999999993,0.0096487999999999,0,sub_8
0.0258885999999995,0.0074984000000012,0.0739933999999999,-0.0074187999999994,-0.0392871999999993,0.0094007999999999,0,sub_8
0.0295703999999995,0.0039634000000012,0.0671945999999999,-0.0204257999999994,-0.0358387999999993,0.0108009999999999,0,sub_8
0.0322813999999995,0.0045654000000012,0.0608493999999999,-0.0274507999999994,-0.0390715999999993,0.0067063999999999,0,sub_8
0.0325419999999996,0.0043436000000012,0.0565367999999998,-0.0386047999999994,-0.0533909999999993,0.0081517999999999,0,sub_8
0.0282103999999996,0.0070216000000012,0.0580875999999998,-0.0453221999999994,-0.0745559999999993,0.0126279999999999,0,sub_8
0.0278575999999996,0.0081158000000012,0.0642325999999998,-0.0471347999999994,-0.0936185999999993,0.0199129999999999,0,sub_8
0.0195411999999996,0.0133482000000012,0.0703297999999999,-0.0380337999999994,-0.1092959999999993,0.0236379999999999,0,sub_8
0.0091351999999996,0.0206102000000012,0.0770415999999998,-0.0293373999999994,-0.1155263999999993,0.0290477999999999,0,sub_8
-0.0034262000000003,0.0254044000000012,0.0842015999999999,-0.0141293999999994,-0.1038563999999993,0.0278571999999999,0,sub_8
-0.0148408000000003,0.0245108000000012,0.0851745999999999,0.0022404000000005,-0.0717343999999993,0.0260075999999999,0,sub_8
-0.0211906000000004,0.0234762000000012,0.0838201999999999,0.0176074000000005,-0.0268195999999993,0.0226391999999999,0,sub_8
-0.0178800000000004,0.0226242000000012,0.0811505999999999,0.0318580000000005,0.0203468000000006,0.0185945999999999,0,sub_8
-0.0081494000000004,0.0163546000000012,0.0772695999999999,0.0462808000000004,0.0564414000000005,0.0126423999999999,0,sub_8
0.0057725999999996,0.0101578000000012,0.0674801999999999,0.0548946000000004,0.0791448000000005,0.0038893999999999,0,sub_8
0.0198723999999996,0.0072022000000012,0.0601115999999999,0.0548786000000004,0.0824834000000005,-0.0031898,0,sub_8
0.0311997999999996,0.0044900000000012,0.0555183999999999,0.0487760000000004,0.0657964000000005,-0.0053722,0,sub_8
0.0382567999999996,0.0007294000000012,0.0477049999999999,0.0369110000000004,0.0377120000000006,-0.0047782,0,sub_8
0.0402507999999996,0.0006682000000012,0.0424007999999999,0.0249942000000004,0.0013056000000006,-0.0009692,0,sub_8
0.0389781999999995,0.0036396000000012,0.0414261999999999,0.0145422000000004,-0.0353437999999993,0.0090459999999999,0,sub_8
0.0400097999999996,0.0056452000000012,0.0413715999999999,0.0081038000000004,-0.0770009999999993,0.0173557999999999,0,sub_8
0.0366397999999996,0.0077514000000012,0.0434337999999999,0.0065586000000004,-0.1237809999999993,0.0237835999999999,0,sub_8
0.0312927999999996,0.0106906000000012,0.0510261999999999,0.0045464000000004,-0.1754759999999993,0.0342735999999999,0,sub_8
0.0236595999999996,0.0110408000000012,0.0605623999999999,-0.0006249999999994,-0.2192717999999994,0.0434495999999999,0,sub_8
0.0174513999999996,0.0077188000000012,0.0727035999999999,-0.0082945999999994,-0.2530295999999993,0.0487497999999999,0,sub_8
0.0114857999999996,0.0072326000000012,0.0825807999999999,-0.0173031999999994,-0.2638621999999994,0.0482733999999999,0,sub_8
0.0120615999999996,0.0063382000000012,0.0849715999999999,-0.0323711999999994,-0.2522779999999994,0.0415303999999999,0,sub_8
0.0133709999999996,0.0040918000000012,0.0867043999999999,-0.0454313999999994,-0.2240899999999993,0.0274717999999999,0,sub_8
0.0200655999999995,0.0009148000000012,0.0859133999999999,-0.0595537999999994,-0.1933475999999993,0.0148979999999999,0,sub_8
0.0316927999999995,-0.0016405999999987,0.0830051999999999,-0.0736799999999994,-0.1645185999999993,0.0012583999999999,0,sub_8
0.0390891999999995,-0.0020635999999987,0.0802007999999998,-0.0851243999999994,-0.1499985999999993,-0.0061484,0,sub_8
0.0420391999999995,-0.0026005999999987,0.0808153999999999,-0.0906383999999994,-0.1416923999999993,-0.009874,0,sub_8
0.0465631999999996,-0.0027653999999987,0.0788031999999998,-0.0948723999999994,-0.1352817999999993,-0.01098,0,sub_8
0.0511645999999996,-0.0027667999999987,0.0759115999999998,-0.0961267999999994,-0.1307981999999993,-0.0122764,0,sub_8
0.0502351999999995,-0.0011309999999987,0.0731249999999998,-0.0957287999999994,-0.1335837999999993,-0.0086382,0,sub_8
0.0421773999999995,0.0033046000000012,0.0702777999999999,-0.0966369999999995,-0.1385099999999993,-0.0013744,0,sub_8
0.0319127999999995,0.0084782000000012,0.0675463999999999,-0.0930807999999994,-0.1466493999999993,0.0063519999999999,0,sub_8
0.0204263999999995,0.0140358000000012,0.0665403999999999,-0.0813855999999994,-0.1490603999999993,0.0130597999999999,0,sub_8
0.0103769999999995,0.0182108000000012,0.0669045999999999,-0.0651501999999994,-0.1395507999999993,0.0185021999999999,0,sub_8
0.0017127999999995,0.0203188000000012,0.0678653999999999,-0.0462901999999994,-0.1200197999999993,0.0196771999999999,0,sub_8
0.0004539999999995,0.0162648000000012,0.0690879999999999,-0.0292899999999994,-0.0936379999999993,0.0142073999999999,0,sub_8
0.0002285999999995,0.0148468000000012,0.0714409999999999,-0.0195241999999994,-0.0633931999999993,0.0080411999999999,0,sub_8
-0.0010382000000004,0.0145374000000012,0.0753871999999999,-0.0159471999999994,-0.0333399999999993,0.0018319999999999,0,sub_8
-0.0055878000000004,0.0164852000000012,0.0797963999999999,-0.0127987999999994,-0.0032869999999993,-0.003953,0,sub_8
-0.0110802000000004,0.0209224000000012,0.0828907999999999,-0.0057779999999995,0.0335712000000006,-0.0099332,0,sub_8
-0.0110378000000004,0.0208806000000012,0.0840381999999999,0.0055638000000004,0.0817088000000006,-0.0165386,0,sub_8
-0.0034366000000004,0.0172178000000012,0.0833917999999999,0.0192594000000004,0.1306928000000005,-0.0237696,0,sub_8
0.0065853999999995,0.0139804000000012,0.0805899999999999,0.0294922000000004,0.1707330000000006,-0.0290906,0,sub_8
0.0189493999999995,0.0095428000000012,0.0755867999999999,0.0317544000000004,0.1946062000000006,-0.0338056,0,sub_8
0.0305667999999995,0.0033228000000012,0.0693463999999999,0.0281692000000005,0.2010224000000005,-0.03683,0,sub_8
0.0396595999999995,0.0025046000000012,0.0641167999999999,0.0225610000000005,0.1882562000000006,-0.0362118,0,sub_8
0.0424581999999995,0.0029300000000012,0.0583807999999999,0.0145290000000004,0.1618492000000006,-0.0321748,0,sub_8
0.0430643999999995,0.0016940000000012,0.0535751999999999,0.0047526000000004,0.1273512000000006,-0.027926,0,sub_8
0.0400317999999995,0.0021634000000012,0.0500351999999998,-0.0043835999999995,0.0930630000000006,-0.0234592,0,sub_8
0.0370807999999995,0.0039664000000012,0.0512991999999998,-0.0107353999999995,0.0615332000000006,-0.0185492,0,sub_8
0.0329795999999995,0.0045428000000012,0.0525847999999998,-0.0174955999999995,0.0327796000000006,-0.0149276,0,sub_8
0.0304083999999996,0.0042332000000012,0.0546465999999998,-0.0250775999999994,0.0083012000000006,-0.0140946,0,sub_8
0.0291639999999996,0.0039870000000012,0.0558007999999998,-0.0292053999999994,-0.0066041999999993,-0.0126088,0,sub_8
0.0306041999999996,0.0033950000000012,0.0573311999999998,-0.0314195999999994,-0.0191881999999993,-0.0072672,0,sub_8
0.0312859999999995,0.0041050000000012,0.0567909999999998,-0.0355751999999994,-0.0336941999999993,0.0008407999999999,0,sub_8
0.0268441999999995,0.0082450000000012,0.0603179999999998,-0.0360967999999994,-0.0467211999999993,0.0089721999999999,0,sub_8
0.0229193999999995,0.0124324000000012,0.0630413999999998,-0.0323155999999994,-0.0535779999999993,0.0154167999999999,0,sub_8
0.0198803999999995,0.0161674000000012,0.0670525999999998,-0.0254951999999994,-0.0606267999999993,0.0159053999999999,0,sub_8
0.0151919999999995,0.0144746000000012,0.0722135999999998,-0.0175675999999994,-0.0617017999999993,0.0134031999999999,0,sub_8
0.0102345999999996,0.0117192000000012,0.0755843999999998,-0.0149493999999994,-0.0567943999999993,0.0112833999999999,0,sub_8
0.0116545999999995,0.0092240000000012,0.0756987999999998,-0.0183151999999994,-0.0535723999999993,0.0095511999999999,0,sub_8
0.0136811999999995,0.0064174000000012,0.0786681999999999,-0.0216875999999994,-0.0505683999999993,0.0091009999999999,0,sub_8
0.0164117999999995,0.0045604000000013,0.0798131999999999,-0.0257291999999994,-0.0462991999999993,0.0105627999999999,0,sub_8
0.0193585999999995,0.0065988000000013,0.0787629999999999,-0.0302061999999994,-0.0458557999999993,0.0101035999999999,0,sub_8
0.0214219999999995,0.0085480000000012,0.0782493999999999,-0.0308425999999994,-0.0481843999999993,0.0068973999999999,0,sub_8
0.0218249999999996,0.0077150000000012,0.0778713999999999,-0.0329687999999994,-0.0479579999999993,0.0053867999999999,0,sub_8
0.0199103999999996,0.0086660000000012,0.0765239999999999,-0.0368075999999994,-0.0481551999999993,0.0047193999999999,0,sub_8
0.0162543999999996,0.0100664000000012,0.0769715999999999,-0.0402147999999994,-0.0462273999999993,0.0051203999999999,0,sub_8
0.0140069999999996,0.0119258000000012,0.0769133999999998,-0.0406117999999994,-0.0400455999999993,0.0046823999999999,0,sub_8
0.0129543999999995,0.0128526000000012,0.0765661999999998,-0.0362925999999994,-0.0308897999999993,0.0023507999999999,0,sub_8
0.0111427999999995,0.0124684000000012,0.0764357999999998,-0.0274675999999994,-0.0174835999999993,-0.0012366,0,sub_8
0.0106383999999995,0.0119610000000012,0.0754263999999999,-0.0196999999999994,-0.0017307999999993,-0.0046208,0,sub_8
0.0112709999999995,0.0120146000000012,0.0736587999999998,-0.0149165999999994,0.0146714000000006,-0.0080268,0,sub_8
0.0119583999999995,0.0105500000000012,0.0726589999999999,-0.0118441999999994,0.0319250000000006,-0.0097366,0,sub_8
0.0127635999999995,0.0097190000000012,0.0718011999999999,-0.0113339999999994,0.0491858000000006,-0.011037,0,sub_8
0.0170297999999995,0.0099252000000012,0.0701125999999999,-0.0108409999999994,0.0615508000000005,-0.0133996,0,sub_8
0.0217787999999995,0.0095482000000012,0.0681743999999999,-0.0080239999999995,0.0687942000000005,-0.0157394,0,sub_8
0.0260327999999996,0.0074010000000012,0.0662433999999999,-0.0028877999999995,0.0723974000000005,-0.0154944,0,sub_8
0.0304343999999995,0.0061048000000012,0.0642253999999999,0.0005108000000004,0.0702498000000005,-0.014186,0,sub_8
0.0351191999999995,0.0054974000000012,0.0628235999999999,0.0036644000000004,0.0631944000000005,-0.0107366,0,sub_8
0.0366769999999995,0.0054266000000012,0.0622379999999999,0.0053080000000004,0.0535832000000005,-0.0062262,0,sub_8
0.0362997999999995,0.0052584000000012,0.0640639999999999,0.0046346000000005,0.0433344000000006,-0.001078,0,sub_8
0.0335405999999995,0.0052352000000012,0.0666671999999999,0.0037440000000005,0.0303242000000006,0.0021493999999999,0,sub_8
0.0304697999999996,0.0059678000000012,0.0699353999999999,0.0045796000000005,0.0207204000000006,0.0045299999999999,0,sub_8
0.0267023999999996,0.0071066000000012,0.0720641999999999,0.0041628000000005,0.0158140000000006,0.0054001999999999,0,sub_8
0.0227861999999995,0.0078778000000012,0.0746423999999999,0.0048292000000005,0.0138892000000006,0.0056331999999999,0,sub_8
0.0196203999999995,0.0082060000000012,0.0760163999999999,0.0065440000000005,0.0153754000000006,0.0054297999999999,0,sub_8
0.0178269999999995,0.0098452000000012,0.0760833999999999,0.0069938000000005,0.0196384000000006,0.0045729999999999,0,sub_8
0.0165377999999995,0.0115920000000012,0.0766045999999999,0.0078714000000004,0.0234764000000005,0.0030785999999999,0,sub_8
0.0161141999999995,0.0124648000000012,0.0778949999999999,0.0093900000000004,0.0268886000000005,0.0009483999999999,0,sub_8
0.0163663999999995,0.0110178000000012,0.0778401999999999,0.0097712000000004,0.0298014000000006,-0.0022464,0,sub_8
0.0174583999999995,0.0108794000000012,0.0767231999999999,0.0086530000000004,0.0310166000000006,-0.0058768,0,sub_8
0.0191735999999995,0.0104586000000012,0.0759697999999998,0.0068776000000004,0.0298846000000006,-0.0080134,0,sub_8
0.0197125999999995,0.0101844000000012,0.0741301999999998,0.0036018000000005,0.0276908000000006,-0.0097316,0,sub_8
0.0205863999999996,0.0088820000000012,0.0725709999999998,0.0020234000000005,0.0244216000000006,-0.0103684,0,sub_8
0.0219127999999996,0.0088882000000012,0.0719677999999998,0.0017910000000005,0.0210102000000006,-0.009511,0,sub_8
0.0233295999999995,0.0091122000000012,0.0712867999999998,0.0032502000000005,0.0152450000000006,-0.0075708,0,sub_8
0.0236315999999995,0.0081270000000012,0.0708805999999999,0.0044392000000005,0.0090376000000006,-0.0058574,0,sub_8
0.0240571999999996,0.0075056000000012,0.0710825999999999,0.0049860000000005,0.0021940000000006,-0.0043616,0,sub_8
0.0223903999999996,0.0090790000000012,0.0713533999999999,0.0055464000000005,-0.0029399999999993,-0.0041496,0,sub_8
0.0193883999999996,0.0095108000000012,0.0725465999999999,0.0065488000000004,-0.0042421999999993,-0.0035122,0,sub_8
0.0158031999999995,0.0089178000000012,0.0741269999999999,0.0071570000000004,0.0012764000000006,-0.0033134,0,sub_8
0.0144885999999995,0.0104576000000012,0.0738309999999999,0.0069762000000004,0.0093696000000006,-0.0024706,0,sub_8
0.0141211999999995,0.0111646000000012,0.0732525999999998,0.0066022000000004,0.0206646000000006,-0.002915,0,sub_8
0.0170243999999995,0.0103220000000012,0.0729397999999998,0.0042838000000004,0.0270644000000005,-0.0029394,0,sub_8
0.0196305999999995,0.0111910000000012,0.0707919999999998,0.0021674000000004,0.0281482000000005,-0.005733,0,sub_8
0.0226999999999995,0.0111190000000012,0.0680347999999998,0.0016968000000004,0.0274388000000006,-0.0095814,0,sub_8
0.0239027999999995,0.0090626000000012,0.0673467999999999,0.0029370000000005,0.0263024000000006,-0.014699,0,sub_8
0.0235861999999996,0.0065512000000012,0.0675327999999999,0.0050098000000005,0.0232344000000006,-0.0170308,0,sub_8
0.0222367999999996,0.0061452000000012,0.0679171999999999,0.0060262000000004,0.0233624000000006,-0.0185198,0,sub_8
0.0227769999999996,0.0061506000000012,0.0692699999999999,0.0083332000000004,0.0290126000000006,-0.016802,0,sub_8
0.0229115999999995,0.0071370000000012,0.0703485999999999,0.0126228000000004,0.0370808000000006,-0.0135776,0,sub_8
0.0243931999999995,0.0076730000000012,0.0695509999999999,0.0177678000000004,0.0462088000000006,-0.0097078,0,sub_8
0.0270573999999995,0.0089382000000012,0.0675935999999999,0.0231184000000004,0.0523586000000006,-0.0071146,0,sub_8
0.0290355999999995,0.0085240000000012,0.0657951999999999,0.0281276000000005,0.0550686000000006,-0.0036488,0,sub_8
0.0296479999999995,0.0084460000000012,0.0633945999999999,0.0288388000000005,0.0499148000000005,-0.0012712,0,sub_8
0.0300851999999995,0.0082644000000012,0.0622203999999999,0.0269654000000005,0.0383826000000005,2.81999999999383e-05,0,sub_8
0.0290665999999995,0.0074432000000012,0.0628505999999999,0.0253016000000005,0.0255732000000005,0.0009033999999999,0,sub_8
0.0279427999999995,0.0075158000000012,0.0656283999999999,0.0234262000000005,0.0134026000000006,0.0019899999999999,0,sub_8
0.0261429999999995,0.0078134000000012,0.0679593999999999,0.0218788000000005,0.0021136000000006,0.0026345999999999,0,sub_8
0.0226151999999995,0.0087308000000012,0.0706763999999999,0.0218500000000005,-0.0042779999999993,0.0026425999999999,0,sub_8
0.0189723999999995,0.0095700000000012,0.0730555999999999,0.0212108000000005,-0.0044869999999993,0.0022109999999999,0,sub_8
0.0161817999999995,0.0107392000000012,0.0749839999999999,0.0197910000000005,-0.0013529999999993,0.0007083999999999,0,sub_8
0.0144471999999995,0.0110346000000012,0.0760749999999999,0.0173238000000005,0.0060460000000006,-0.000807,0,sub_8
0.0147537999999995,0.0091802000000012,0.0757499999999999,0.0148776000000005,0.0168588000000006,-0.0036086,0,sub_8
0.0168285999999996,0.0059406000000012,0.0748721999999999,0.0103052000000005,0.0283226000000006,-0.0074942,0,sub_8
0.0190505999999995,0.0029820000000012,0.0735075999999999,0.0003862000000005,0.0370354000000006,-0.0114134,0,sub_8
0.0222103999999995,0.0018050000000012,0.0653623999999999,-0.0153571999999994,0.0432854000000006,-0.0155906,0,sub_8
0.0244735999999995,0.0004956000000012,0.0561877999999999,-0.0313361999999994,0.0446358000000006,-0.0197632,0,sub_8
0.0272371999999995,0.0027074000000012,0.0514053999999999,-0.0441363999999994,0.0379944000000006,-0.0217474,0,sub_8
0.0289793999999995,0.0036350000000012,0.0471555999999999,-0.0518711999999994,0.0225854000000006,-0.020053,0,sub_8
