userAcceleration.x,userAcceleration.y,userAcceleration.z,rotationRate.x,rotationRate.y,rotationRate.z,label,subject
0.0143627999999995,0.0025608000000012,0.0185564,0.0029352000000005,-0.0737643999999991,-0.0018512,0,sub_17
0.0136113999999996,0.0038172000000012,0.0151128,0.0029180000000005,-0.0727187999999991,0.0030611999999999,0,sub_17
0.0121729999999996,0.0043586000000012,0.0131623999999999,0.0069856000000005,-0.0648697999999991,0.0079933999999999,0,sub_17
0.0101375999999996,0.0039058000000012,0.0137144,0.0134108000000005,-0.0559583999999991,0.0116587999999999,0,sub_17
0.0078759999999996,0.0025680000000012,0.0163966,0.0193930000000005,-0.0530017999999991,0.0129787999999999,0,sub_17
0.0054213999999996,0.0010106000000012,0.0188018,0.0227810000000005,-0.0608881999999991,0.0108761999999999,0,sub_17
0.0047797999999996,0.0012320000000012,0.0190636,0.0231540000000005,-0.0762157999999991,0.0074801999999999,0,sub_17
0.0053729999999996,0.0020632000000012,0.0165324,0.0194806000000005,-0.0889759999999991,0.0049071999999999,0,sub_17
0.0060113999999996,0.0026996000000012,0.0126292,0.0143442000000005,-0.0921545999999991,0.0050889999999999,0,sub_17
0.0044453999999996,0.0037292000000012,0.0082856,0.0113924000000005,-0.0806537999999991,0.0086853999999999,0,sub_17
0.0011113999999996,0.0041528000000012,0.0059328,0.0119170000000005,-0.0527699999999991,0.0148489999999999,0,sub_17
-0.0021208000000003,0.0027768000000012,0.0079934,0.0167560000000005,-0.0161591999999991,0.0193223999999999,0,sub_17
-0.0048738000000003,0.0004748000000012,0.013397,0.0235192000000005,0.0181142000000008,0.0206075999999999,0,sub_17
-0.0057726000000003,-0.0021317999999987,0.0205436,0.0270512000000005,0.0423978000000008,0.0186783999999999,0,sub_17
-0.0035288000000003,-0.0046087999999987,0.0263116,0.0253988000000005,0.0509404000000007,0.0150239999999998,0,sub_17
0.0004863999999996,-0.0061807999999987,0.0292652,0.0213438000000005,0.0460730000000007,0.0103017999999998,0,sub_17
0.0031493999999996,-0.0052659999999987,0.0274152,0.0148946000000005,0.0324718000000007,0.0072831999999998,0,sub_17
0.0052367999999996,-0.0041937999999987,0.0238256,0.0080130000000005,0.0195036000000007,0.0061835999999998,0,sub_17
0.0049303999999996,-0.0023299999999987,0.0192701999999999,0.0045750000000005,0.0141892000000007,0.0061663999999998,0,sub_17
0.0049795999999996,-0.0014851999999987,0.0164039999999999,0.0050124000000005,0.0156826000000007,0.0053129999999999,0,sub_17
0.0056619999999996,-0.0007255999999987,0.0147907999999999,0.0061022000000005,0.0210044000000008,0.0055273999999999,0,sub_17
0.0069299999999996,-0.0006643999999987,0.0150741999999999,0.0054948000000005,0.0301604000000008,0.0074341999999999,0,sub_17
0.0071517999999996,-0.0002377999999987,0.0151739999999999,0.0044500000000005,0.0380352000000008,0.0104077999999999,0,sub_17
0.0077141999999996,-0.0002551999999987,0.0149718,0.0038128000000005,0.0405864000000008,0.0123227999999999,0,sub_17
0.0066319999999996,0.0001296000000012,0.0144726,0.0040290000000005,0.0414370000000008,0.0125367999999999,0,sub_17
0.0060989999999996,0.0003752000000012,0.0153068,0.0048912000000005,0.0416540000000008,0.0108333999999999,0,sub_17
0.0054921999999996,0.0003556000000012,0.0159086,0.0068164000000005,0.0388928000000008,0.0070047999999999,0,sub_17
0.0065377999999996,5.600000001269423e-06,0.0157362,0.0080822000000005,0.0316606000000008,0.0029635999999999,0,sub_17
0.0080357999999996,0.0005466000000012,0.014258,0.0069924000000005,0.0246414000000008,0.0010421999999999,0,sub_17
0.0085995999999996,0.0011752000000012,0.0127944,0.0033688000000005,0.0274160000000008,0.0029361999999999,0,sub_17
0.0079261999999996,0.0017040000000012,0.0102585999999999,0.0004132000000005,0.0361548000000008,0.0046133999999999,0,sub_17
0.0081329999999996,0.0013458000000012,0.0098061999999999,0.0006466000000005,0.0399916000000008,0.0039691999999999,0,sub_17
0.0095369999999996,0.0014654000000012,0.0112783999999999,0.0013030000000005,0.0404284000000008,0.0007685999999999,0,sub_17
0.0107103999999996,0.0012244000000012,0.0139467999999999,0.0028110000000005,0.0400116000000008,-0.0028522,0,sub_17
0.0125649999999996,0.0012158000000012,0.0146449999999999,0.0051294000000005,0.0287312000000008,-0.0077354,0,sub_17
0.0139833999999996,0.0014550000000012,0.0139987999999999,0.0071998000000005,0.0108426000000008,-0.0115436,0,sub_17
0.0146477999999996,0.0018528000000012,0.0119069999999999,0.0073614000000005,-0.0008751999999991,-0.0117412,0,sub_17
0.0136437999999996,0.0015098000000012,0.009259,0.0090482000000005,-0.0047187999999991,-0.0110836,0,sub_17
0.0124303999999996,0.0015392000000012,0.0072024,0.0120258000000005,-0.0062231999999991,-0.01042,0,sub_17
0.0114771999999996,0.0015030000000012,0.0066496,0.0143720000000005,-0.0058077999999991,-0.0097632,0,sub_17
0.0108731999999996,0.0021070000000012,0.006182,0.0154342000000005,-0.0062401999999991,-0.0091142,0,sub_17
0.0115357999999996,0.0039916000000012,0.0060078,0.0150008000000005,-0.0079421999999991,-0.0093286,0,sub_17
0.0122791999999996,0.0062770000000012,0.0058838,0.0139416000000005,-0.0058095999999991,-0.0089114,0,sub_17
0.0115535999999996,0.0052918000000012,0.008047,0.0126738000000005,-0.0023987999999991,-0.0082836,0,sub_17
0.0102455999999996,0.0032008000000012,0.0103508,0.0111850000000005,-0.0009039999999991,-0.0078686,0,sub_17
0.0096955999999996,0.0013230000000012,0.013744,0.0096866000000005,-0.0021761999999991,-0.0080912,0,sub_17
0.0087535999999996,0.0001916000000012,0.0159752,0.0081900000000005,-0.0023857999999991,-0.0076742,0,sub_17
0.0077205999999996,-0.0008713999999987,0.0166707999999999,0.0050524000000005,-0.0065411999999991,-0.0055584,0,sub_17
0.0077537999999996,0.0013846000000012,0.0144285999999999,0.0014842000000005,-0.0130327999999991,-0.0049382,0,sub_17
0.0091469999999996,0.0054158000000012,0.0133863999999999,-0.0011767999999994,-0.0107793999999991,-0.0075274,0,sub_17
0.0079141999999996,0.0052588000000012,0.0130809999999999,-0.0129783999999994,-0.0001875999999991,-0.0095502,0,sub_17
0.0064007999999996,0.0024950000000012,0.0134197999999999,-0.0235465999999994,0.0003846000000008,-0.0111244,0,sub_17
0.0048617999999996,0.0010184000000012,0.0142271999999999,-0.0331511999999994,-0.0023429999999991,-0.0133244,0,sub_17
0.0064549999999996,3.460000000124943e-05,0.0126904,-0.0410413999999994,-0.0024999999999991,-0.0153012,0,sub_17
0.0080241999999995,-0.0010903999999987,0.0098717999999999,-0.0455713999999994,-0.0109923999999991,-0.013612,0,sub_17
0.0118111999999995,0.0007102000000012,0.0068431999999999,-0.0360263999999994,-0.0214505999999991,-0.0120354,0,sub_17
0.0146155999999996,0.0022250000000012,0.0079031999999999,-0.0270505999999994,-0.0176259999999991,-0.0119766,0,sub_17
0.0168345999999995,0.0007442000000012,0.0112083999999999,-0.0161437999999994,-0.0118889999999991,-0.0123342,0,sub_17
0.0153239999999995,-0.0032815999999987,0.0162861999999999,-0.0069899999999994,-0.0146983999999991,-0.0103438,0,sub_17
0.0124157999999996,-0.0043967999999987,0.0182438,-0.0013037999999994,-0.0294267999999991,-0.0083624,0,sub_17
0.0094425999999996,-0.0049127999999987,0.0186572,7.960000000056762e-05,-0.0518109999999991,-0.0061876,0,sub_17
0.0044063999999996,-0.0035891999999987,0.0140086,0.0027266000000005,-0.0634507999999991,-0.0018706,0,sub_17
0.0006361999999996,-0.0010709999999987,0.0088256,0.0026648000000005,-0.0605931999999991,0.0024087999999999,0,sub_17
-0.0013630000000003,0.0026104000000012,0.0068842,0.0043782000000005,-0.0449489999999991,0.0043339999999999,0,sub_17
-0.0029544000000003,0.0022196000000012,0.0097132,0.0066018000000005,-0.0105585999999991,0.0064525999999999,0,sub_17
-0.0042196000000003,0.0012144000000012,0.013534,0.0075690000000005,0.0283138000000008,0.0077019999999999,0,sub_17
0.0001235999999996,0.0002184000000012,0.0173002,0.0065970000000005,0.0483488000000008,0.0066011999999999,0,sub_17
0.0043277999999996,0.0006704000000012,0.017848,0.0042738000000005,0.0538954000000008,0.0067913999999999,0,sub_17
0.0084989999999996,0.0010194000000012,0.014802,0.0010550000000005,0.0507074000000008,0.0076275999999999,0,sub_17
0.0130977999999996,0.0018242000000012,0.010954,-0.0007315999999994,0.0449964000000008,0.0076421999999999,0,sub_17
0.0162147999999996,0.0027528000000012,0.0087736,-0.0008045999999994,0.0418318000000008,0.0087337999999999,0,sub_17
0.0159283999999996,0.0030424000000012,0.0079801999999999,-0.0002325999999994,0.0401546000000008,0.0102553999999999,0,sub_17
0.0153127999999996,0.0020998000000012,0.0091853999999999,0.0016188000000005,0.0355012000000008,0.0090123999999999,0,sub_17
0.0139981999999996,0.0024880000000012,0.0101363999999999,-0.0001591999999994,0.0304344000000008,0.0077445999999999,0,sub_17
0.0122449999999996,0.0032508000000012,0.0098229999999999,-0.0033855999999994,0.0229956000000008,0.0060223999999998,0,sub_17
0.0112277999999996,0.0041606000000012,0.0073603999999999,-0.0046877999999994,0.0157656000000008,0.0036723999999998,0,sub_17
0.0104727999999996,0.0043092000000012,0.0063455999999999,-0.0036265999999994,0.0127860000000008,0.0019743999999998,0,sub_17
0.0100985999999996,0.0042562000000012,0.0068241999999999,-0.0025415999999994,0.0164060000000008,0.0015499999999998,0,sub_17
0.0102613999999996,0.0023210000000012,0.0094543999999999,0.0014668000000005,0.0202602000000007,0.0020321999999999,0,sub_17
0.0093117999999996,0.0005692000000012,0.0124951999999999,0.0035528000000005,0.0249682000000007,0.0037819999999999,0,sub_17
0.0085555999999996,-0.0011201999999987,0.0159825999999999,0.0037128000000005,0.0288292000000007,0.0059465999999999,0,sub_17
0.0085207999999996,-0.0016021999999987,0.017529,0.0028020000000005,0.0305684000000008,0.0068245999999999,0,sub_17
0.0090819999999996,-0.0012865999999987,0.0174544,0.0016684000000005,0.0301778000000008,0.0077037999999999,0,sub_17
0.0091151999999996,-0.0002871999999987,0.0158716,-0.0004699999999994,0.0289078000000008,0.0074767999999999,0,sub_17
0.0105113999999995,0.0003826000000012,0.0136974,0.0001624000000005,0.0257158000000008,0.0059897999999999,0,sub_17
0.0132035999999995,0.0015200000000012,0.011423,0.0010044000000005,0.0227738000000008,0.0043321999999999,0,sub_17
0.0143613999999996,0.0021286000000012,0.0096202,0.0007768000000005,0.0213186000000008,0.0048015999999999,0,sub_17
0.0138311999999996,0.0028416000000012,0.0088698,0.0011834000000005,0.0198560000000008,0.0065573999999999,0,sub_17
0.0133583999999996,0.0031328000000012,0.0086761999999999,0.0037304000000005,0.0190286000000008,0.0074727999999999,0,sub_17
0.0126929999999996,0.0027492000000012,0.0084759999999999,0.0060612000000005,0.0171384000000008,0.0079605999999999,0,sub_17
0.0116975999999996,0.0018292000000012,0.0085899999999999,0.0077480000000005,0.0128706000000008,0.0081915999999999,0,sub_17
0.0120367999999995,0.0017690000000012,0.0086291999999999,0.0092186000000005,0.0073276000000008,0.0077817999999999,0,sub_17
0.0123113999999995,0.0015506000000012,0.0088757999999999,0.0111140000000005,0.0005082000000008,0.0065217999999999,0,sub_17
0.0123763999999995,0.0018954000000012,0.0092208,0.0115226000000005,-0.0043901999999991,0.0056763999999999,0,sub_17
0.0117913999999995,0.0020608000000012,0.0103761999999999,0.0115232000000005,-0.0092017999999991,0.0052985999999999,0,sub_17
0.0099833999999995,0.0017400000000012,0.0120385999999999,0.0121714000000005,-0.0125231999999991,0.0047095999999999,0,sub_17
0.0082541999999996,0.0011528000000012,0.0136743999999999,0.0128214000000005,-0.0160549999999991,0.0034799999999999,0,sub_17
0.0064201999999996,0.0013054000000012,0.0150449999999999,0.0128324000000005,-0.0193715999999991,0.0022455999999999,0,sub_17
0.0042803999999996,1.3800000001270177e-05,0.0170114,0.0126444000000005,-0.0197037999999991,0.0007923999999999,0,sub_17
0.0041795999999996,0.0012066000000012,0.0176452,0.0117754000000005,-0.0265047999999991,-0.0026234,0,sub_17
0.0061121999999996,0.0021724000000012,0.0173258,0.0083232000000005,-0.0362881999999991,-0.003917,0,sub_17
0.0080973999999996,0.0030520000000012,0.0144262,0.0036130000000005,-0.0411641999999991,-0.0035032,0,sub_17
0.0106365999999996,0.0024324000000012,0.0111564,0.0031788000000005,-0.0439253999999991,-0.0028484,0,sub_17
0.0128369999999996,0.0029846000000012,0.0081732,0.0040294000000005,-0.0441403999999991,-0.0006926,0,sub_17
0.0132727999999996,0.0015394000000012,0.0073058,0.0053328000000005,-0.0371189999999991,0.0029527999999999,0,sub_17
0.0127395999999996,0.0010118000000012,0.0070084,0.0083518000000005,-0.0296715999999991,0.0051141999999999,0,sub_17
0.0107663999999996,0.0001276000000012,0.0089702,0.0128450000000005,-0.0264931999999991,0.0055687999999999,0,sub_17
0.0086095999999996,8.760000000127035e-05,0.0105712,0.0139214000000005,-0.0245785999999991,0.0053601999999999,0,sub_17
0.0073461999999996,0.0006370000000012,0.0114941999999999,0.0151988000000005,-0.0262831999999991,0.0043031999999999,0,sub_17
0.0068911999999996,0.0014548000000012,0.0122387999999999,0.0173522000000005,-0.0248457999999991,0.0034579999999999,0,sub_17
0.0061681999999996,0.0016372000000012,0.013927,0.0199486000000005,-0.0197877999999991,0.0026111999999999,0,sub_17
0.0075969999999996,0.0019276000000012,0.0153431999999999,0.0212562000000005,-0.0162183999999991,0.0021845999999999,0,sub_17
0.0073601999999996,0.0008294000000012,0.0159705999999999,0.0208452000000005,-0.0143507999999991,0.0026027999999999,0,sub_17
0.0075135999999996,-0.0002081999999987,0.0164193999999999,0.0193550000000005,-0.0163103999999991,0.0019501999999999,0,sub_17
0.0080791999999996,-0.0001181999999987,0.0154095999999999,0.0184852000000005,-0.0207779999999991,0.0010951999999999,0,sub_17
0.0085475999999996,0.0003894000000012,0.0130283999999999,0.0165580000000005,-0.0218381999999991,0.0015103999999999,0,sub_17
0.0073279999999996,-0.0001663999999987,0.0114393999999999,0.0150738000000005,-0.0190657999999991,0.0021373999999999,0,sub_17
0.0075561999999996,0.0001694000000012,0.011076,0.0153056000000005,-0.0176583999999991,0.0004125999999999,0,sub_17
0.0073869999999996,0.0005402000000012,0.0111942,0.0149038000000005,-0.0130597999999991,0.0003881999999999,0,sub_17
0.0065287999999996,6.70000000012703e-05,0.0118932,0.0119464000000005,-0.0073869999999991,0.0003447999999999,0,sub_17
0.0068011999999996,-7.599999999872969e-05,0.0120448,0.0100244000000005,-0.0119317999999991,-0.002883,0,sub_17
0.0084803999999996,0.0010456000000012,0.0108902,0.0068096000000005,-0.0198783999999991,-0.0067564,0,sub_17
0.0099589999999996,0.0020932000000012,0.0094294,0.0031736000000005,-0.0226319999999991,-0.0076328,0,sub_17
0.0108985999999996,0.0023236000000012,0.0075886,0.0021068000000005,-0.0230525999999991,-0.008067,0,sub_17
0.0119891999999996,0.0018552000000012,0.0076986,0.0033842000000005,-0.0228473999999991,-0.0072038,0,sub_17
0.0107047999999996,0.0014602000000012,0.008687,0.0044654000000005,-0.0162599999999991,-0.0037864,0,sub_17
0.0089101999999996,0.0012304000000012,0.0099186,0.0061672000000005,-0.0110319999999991,-0.0003878,0,sub_17
0.0080785999999996,0.0011836000000012,0.01115,0.0074422000000005,-0.0072879999999991,0.0015141999999998,0,sub_17
0.0067875999999996,0.0014946000000012,0.0128002,0.0065824000000005,-0.0041739999999991,0.0029749999999998,0,sub_17
0.0058341999999996,0.0010210000000012,0.0134344,0.0046644000000005,1.2400000000815925e-05,0.0035723999999998,0,sub_17
0.0056247999999996,3.2600000001250376e-05,0.0142364,0.0021082000000005,0.0037784000000008,0.0033111999999998,0,sub_17
0.0057351999999996,-0.0003455999999987,0.0144931999999999,-0.0002217999999994,0.0076216000000008,0.0032899999999998,0,sub_17
0.0057445999999996,-0.0001705999999987,0.0145695999999999,-0.0027737999999994,0.0097602000000008,0.0034829999999999,0,sub_17
0.0067513999999996,0.0006812000000012,0.013632,-0.0045025999999994,0.0119000000000008,0.0036639999999999,0,sub_17
0.0072519999999996,0.0023268000000012,0.0124095999999999,-0.0058073999999994,0.0133992000000007,0.0038487999999999,0,sub_17
0.0082711999999996,0.0035016000000012,0.011113,-0.0064731999999994,0.0148952000000007,0.0042517999999999,0,sub_17
0.0087435999999996,0.0029482000000012,0.0109312,-0.0062815999999994,0.0168160000000007,0.0042329999999999,0,sub_17
0.0088901999999996,0.0021370000000012,0.0112802,-0.0048097999999994,0.0189446000000007,0.0044365999999999,0,sub_17
0.0083747999999996,0.0009456000000012,0.012091,-0.0039581999999994,0.0185154000000007,0.0044431999999999,0,sub_17
0.0079947999999996,0.0003148000000012,0.0120081999999999,-0.0044021999999994,0.0151062000000007,0.0048717999999999,0,sub_17
0.0076741999999996,0.0001936000000012,0.0114809999999999,-0.0052651999999994,0.0129786000000007,0.0048685999999999,0,sub_17
0.0071401999999996,0.0008164000000012,0.0113949999999999,-0.0059033999999994,0.0134070000000008,0.0048635999999999,0,sub_17
0.0066643999999996,0.0007954000000012,0.0113389999999999,-0.0065859999999994,0.0143292000000008,0.0044115999999999,0,sub_17
0.0069935999999996,0.0006740000000012,0.0116031999999999,-0.0072723999999994,0.0143992000000008,0.0039605999999999,0,sub_17
0.0072163999999996,0.0004160000000012,0.0123059999999999,-0.0070997999999994,0.0153202000000008,0.0030873999999999,0,sub_17
0.0074721999999996,0.0003690000000012,0.0133084,-0.0062927999999993,0.0151728000000008,0.0024335999999999,0,sub_17
0.0077179999999996,-6.779999999872963e-05,0.0134387999999999,-0.0065563999999993,0.0141768000000008,0.0017733999999999,0,sub_17
0.0083127999999995,0.0001022000000012,0.0131511999999999,-0.0076395999999993,0.0099220000000008,0.0011303999999999,0,sub_17
0.0085957999999996,0.0004016000000012,0.0128382,-0.0080749999999993,0.0077938000000008,0.0009165999999999,0,sub_17
0.0079341999999996,0.0004648000000012,0.0134922,-0.0087845999999994,0.0083050000000008,0.0015353999999999,0,sub_17
0.0069707999999996,-0.0001689999999987,0.0137457999999999,-0.0090693999999994,0.0081764000000007,0.0019443999999999,0,sub_17
0.0059913999999995,-0.0007849999999987,0.015293,-0.0095685999999994,0.0080478000000007,0.0025655999999999,0,sub_17
0.0048967999999996,-0.0013039999999987,0.0156614,-0.0100609999999994,0.0091984000000007,0.0029715999999998,0,sub_17
0.0044775999999996,-0.0016979999999987,0.0151898,-0.0107697999999994,0.0092862000000007,0.0029499999999999,0,sub_17
0.0057207999999996,-0.0009343999999987,0.0126466,-0.0114147999999994,0.0082232000000007,0.0029469999999999,0,sub_17
0.0064147999999995,0.0009430000000012,0.0100792,-0.0116253999999994,0.0099242000000007,0.0040115999999999,0,sub_17
0.0072289999999996,0.0031354000000012,0.0068501999999999,-0.0090561999999994,0.0126814000000008,0.0048805999999999,0,sub_17
0.0082257999999996,0.0039890000000012,0.0068527999999999,-0.0063271999999994,0.0174478000000008,0.0061731999999999,0,sub_17
0.0083875999999996,0.0037350000000012,0.0073497999999999,-0.0044583999999994,0.0207258000000008,0.0074619999999999,0,sub_17
0.0070515999999996,0.0026594000000012,0.0085311999999999,-0.0017455999999994,0.0205972000000008,0.0074789999999999,0,sub_17
0.0067715999999996,0.0012188000000012,0.0105379999999999,0.0007424000000005,0.0162150000000008,0.0057907999999999,0,sub_17
0.0063595999999996,-9.33999999987095e-05,0.0129442,0.0008822000000005,0.0114158000000008,0.0038731999999999,0,sub_17
0.0062827999999996,-0.0006687999999987,0.012937,0.0004392000000005,0.0060978000000008,0.0021677999999999,0,sub_17
0.0057869999999996,-0.0006595999999987,0.013115,0.0012764000000005,0.0009876000000008,0.0006845999999999,0,sub_17
0.0060841999999995,-0.0001539999999987,0.0136302,0.0021336000000005,0.0012002000000008,4.939999999993613e-05,0,sub_17
0.0065921999999995,0.0002504000000012,0.01438,0.0031690000000005,0.0038064000000007,0.0002603999999999,0,sub_17
0.0056257999999995,0.0009802000000012,0.0162078,0.0071850000000005,0.0066086000000007,0.0022009999999999,0,sub_17
0.0028231999999995,0.0010876000000012,0.0203774,0.0125042000000005,0.0147316000000007,0.0043575999999999,0,sub_17
-0.0012074000000004,0.0012578000000012,0.0267104,0.0187200000000005,0.0307414000000007,0.0048011999999999,0,sub_17
-0.0068948000000003,-0.0025919999999987,0.0351804,0.0236692000000005,0.0457066000000008,0.0011779999999999,0,sub_17
-0.0115034000000003,-0.0070869999999987,0.0421906,0.0258538000000005,0.0504128000000008,-0.0054358,0,sub_17
-0.0111214000000003,-0.0146371999999987,0.0453804,0.0184230000000005,0.0494110000000008,-0.0148868,0,sub_17
-0.0055764000000003,-0.0183685999999987,0.038725,0.0019962000000005,0.0390732000000008,-0.0260978,0,sub_17
0.0024411999999996,-0.0187899999999987,0.0273822,-0.0196175999999994,0.0172500000000008,-0.0375574,0,sub_17
0.0132243999999996,-0.0127787999999987,0.0121254,-0.0447125999999994,-0.0150187999999991,-0.0445414,0,sub_17
0.0227169999999996,-0.0045841999999987,-0.0056969999999999,-0.0719393999999994,-0.0413367999999991,-0.0459932,0,sub_17
0.0267545999999996,0.0083036000000012,-0.0246779999999999,-0.0908827999999994,-0.0694155999999991,-0.0405482,0,sub_17
0.0284911999999996,0.0197500000000012,-0.0373591999999999,-0.0923249999999994,-0.0918219999999991,-0.030288,0,sub_17
0.0281845999999996,0.0278976000000012,-0.0446551999999999,-0.0830035999999994,-0.0895803999999991,-0.0129206,0,sub_17
0.0252663999999996,0.0308534000000012,-0.0482183999999999,-0.0607379999999994,-0.0528807999999991,0.0074841999999999,0,sub_17
0.0200249999999996,0.0291140000000012,-0.0419855999999999,-0.0234643999999994,-0.0025885999999992,0.0256261999999999,0,sub_17
0.0162207999999996,0.0243112000000012,-0.0253961999999999,0.0187804000000005,0.0528008000000007,0.0363059999999999,0,sub_17
0.0106797999999996,0.0158548000000012,-0.0013775999999999,0.0479598000000005,0.0931252000000008,0.0428545999999999,0,sub_17
0.0067359999999996,0.0051596000000012,0.0205528,0.0618534000000005,0.0983684000000008,0.0444275999999999,0,sub_17
0.0032621999999996,-0.0037881999999986,0.037944,0.0595974000000005,0.0676752000000008,0.0425153999999999,0,sub_17
0.0013389999999996,-0.0092287999999986,0.045648,0.0412734000000005,0.0212770000000008,0.0392293999999999,0,sub_17
0.0006509999999996,-0.0110123999999986,0.0446358,0.0163306000000005,-0.0220957999999991,0.0382561999999999,0,sub_17
0.0006423999999996,-0.0104227999999986,0.036538,-0.0040271999999994,-0.0395029999999991,0.0400591999999999,0,sub_17
-0.0013188000000003,-0.0072841999999987,0.0282371999999999,-0.0131733999999994,-0.0279865999999991,0.0451081999999999,0,sub_17
-0.0041492000000003,-0.0027351999999987,0.0247283999999999,-0.0102381999999994,0.0070918000000008,0.0497677999999999,0,sub_17
-0.0070078000000003,0.0004576000000012,0.0273181999999999,0.0012720000000005,0.0489666000000008,0.0523419999999999,0,sub_17
-0.0092126000000003,-0.0023239999999987,0.0348641999999999,0.0155426000000005,0.0829684000000008,0.0500317999999999,0,sub_17
-0.0104992000000003,-0.0057539999999987,0.0432527999999999,0.0278288000000005,0.0950632000000008,0.0400443999999999,0,sub_17
-0.0087832000000003,-0.0105877999999987,0.0492043999999999,0.0336458000000005,0.0852632000000008,0.0232031999999999,0,sub_17
-0.0047470000000003,-0.0161885999999987,0.0486203999999999,0.0293334000000005,0.0570154000000008,0.0048357999999999,0,sub_17
-0.0003840000000003,-0.0212457999999987,0.0441103999999999,0.0181758000000005,0.0253810000000008,-0.0131478,0,sub_17
0.0027953999999996,-0.0202553999999987,0.0339853999999999,0.0006506000000005,0.0052574000000008,-0.0271314,0,sub_17
0.0031871999999996,-0.0173137999999987,0.0215676,-0.0189731999999994,-0.0044927999999991,-0.035819,0,sub_17
0.0022497999999996,-0.0119697999999987,0.0104139999999999,-0.0366499999999994,-0.0070107999999991,-0.0432204,0,sub_17
0.0022945999999996,-0.0049233999999987,0.0003122,-0.0489751999999994,-0.0061369999999991,-0.051016,0,sub_17
