userAcceleration.x,userAcceleration.y,userAcceleration.z,rotationRate.x,rotationRate.y,rotationRate.z,label,subject
-0.0001460000000002,0.0033058000000012,0.0028981999999999,0.0005748000000006,0.0030936000000009,-0.0044071999999999,0,sub_23
0.0002619999999997,0.0035788000000012,0.0029239999999999,0.0007888000000006,0.0033060000000009,-0.0044059999999999,0,sub_23
0.0003543999999997,0.0036988000000012,0.0024389999999999,0.0018592000000006,0.0043670000000009,-0.0041861999999999,0,sub_23
0.0004225999999997,0.0039530000000012,0.0023325999999999,0.0029300000000005,0.0056454000000009,-0.0035381999999999,0,sub_23
0.0003891999999997,0.0036492000000012,0.0022429999999999,0.0031482000000005,0.0065030000000009,-0.0035363999999999,0,sub_23
0.0001297999999997,0.0035550000000012,0.0021691999999999,0.0033682000000005,0.0075746000000009,-0.0037483999999999,0,sub_23
-8.46000000002702e-05,0.0030698000000012,0.0022595999999999,0.0029492000000005,0.0082250000000009,-0.0046053999999999,0,sub_23
-0.0003358000000002,0.0032826000000012,0.0025765999999999,0.0023138000000005,0.0082368000000009,-0.0054631999999999,0,sub_23
-0.0004710000000002,0.0033482000000012,0.0021747999999999,0.0018906000000006,0.0082418000000009,-0.0063207999999999,0,sub_23
-0.0006526000000002,0.0036480000000012,0.0018207999999999,0.0021076000000006,0.0090934000000009,-0.0063203999999999,0,sub_23
-0.0002232000000002,0.0037622000000012,0.0010053999999999,0.0025344000000006,0.0095164000000009,-0.0058905999999999,0,sub_23
9.21999999997098e-05,0.0039104000000012,0.0001431999999999,0.0033868000000006,0.0097250000000009,-0.0054575999999999,0,sub_23
0.0010543999999997,0.0034862000000012,-0.0008428,0.0033842000000006,0.0095164000000009,-0.0048145999999999,0,sub_23
0.0020457999999997,0.0029628000000012,-0.0014552,0.0033758000000006,0.0080294000000009,-0.0041697999999999,0,sub_23
0.0021613999999997,0.0028886000000012,-0.001692,0.0033654000000006,0.0059042000000009,-0.0037379999999999,0,sub_23
0.0020571999999997,0.0024756000000012,-0.0021028,0.0031408000000005,0.0031422000000009,-0.0037341999999999,0,sub_23
0.0019103999999997,0.0022576000000012,-0.0019546,0.0029164000000005,0.0001680000000009,-0.0039435999999999,0,sub_23
0.0018309999999997,0.0024534000000012,-0.0018056,0.0033338000000005,-0.002175999999999,-0.0041511999999999,0,sub_23
0.0012497999999997,0.0030998000000012,-0.0014988,0.0037570000000005,-0.003241599999999,-0.0043603999999999,0,sub_23
0.0015091999999996,0.0028458000000012,-0.001834,0.0035416000000005,-0.003874399999999,-0.0043595999999999,0,sub_23
0.0015247999999996,0.0029490000000012,-0.0014262,0.0031154000000005,-0.004079399999999,-0.0045743999999999,0,sub_23
0.0013493999999996,0.0031190000000012,-0.001333,0.0022616000000006,-0.004283999999999,-0.0045787999999999,0,sub_23
0.0011635999999996,0.0026240000000012,-0.001447,0.0011982000000006,-0.004272199999999,-0.0052255999999999,0,sub_23
0.0012721999999996,0.0020886000000012,-0.0014658,0.0003472000000006,-0.004474199999999,-0.0058707999999999,0,sub_23
0.0012431999999996,0.0023526000000012,-0.001063,-7.5599999999388e-05,-0.004256999999999,-0.0065147999999999,0,sub_23
0.0013247999999996,0.0024944000000012,-0.0010244,0.0001398000000005,-0.003619399999999,-0.0063003999999999,0,sub_23
0.0018419999999996,0.0024148000000012,-0.0015026,0.0005694000000005,-0.002557199999999,-0.0058711999999999,0,sub_23
0.0014629999999996,0.0025988000000012,-0.0013686,0.0007822000000005,-0.001703999999999,-0.0048007999999999,0,sub_23
0.0012687999999996,0.0028446000000012,-0.0015264,0.0009940000000005,-0.001488399999999,-0.0041567999999999,0,sub_23
0.0013217999999997,0.0026764000000012,-0.0014928,0.0007760000000005,-0.002122399999999,-0.0037283999999999,0,sub_23
0.0012923999999997,0.0024996000000012,-0.001194,0.0003458000000005,-0.003179399999999,-0.0039419999999999,0,sub_23
0.0008065999999997,0.0022428000000012,-0.0009154,-0.0002977999999993,-0.004447799999999,-0.0043703999999999,0,sub_23
0.0007867999999997,0.0028030000000012,-0.0012498,-0.0003033999999993,-0.005938199999999,-0.0045819999999999,0,sub_23
0.0001333999999997,0.0033506000000012,-0.0008528,-0.0005215999999994,-0.006365799999999,-0.0039419999999999,0,sub_23
-0.0003092000000002,0.0036140000000012,-0.0005364,-9.7599999999408e-05,-0.006157599999999,-0.0030847999999999,0,sub_23
-0.0008146000000002,0.0034012000000012,-0.0009844,-0.0003119999999994,-0.005516199999999,-0.0022305999999999,0,sub_23
-0.0010232000000002,0.0035576000000012,-0.0006512,-9.5799999999408e-05,-0.004236199999999,-0.0015879999999999,0,sub_23
-0.0017740000000002,0.0032438000000012,0.0001779999999999,-0.0007293999999994,-0.002525399999999,-0.0013793999999999,0,sub_23
-0.0014726000000002,0.0028050000000012,0.0002645999999999,-0.0011505999999993,-0.001452999999999,-0.0015957999999999,0,sub_23
-0.0016944000000002,0.0031016000000012,0.0006325999999999,-0.0017831999999993,4.640000000095384e-05,-0.0018141999999999,0,sub_23
-0.0015942000000002,0.0036882000000012,0.0012269999999999,-0.0015613999999993,0.0017512000000009,-0.0020287999999999,0,sub_23
-0.0012870000000002,0.0039066000000012,0.0015911999999999,-0.0013405999999993,0.0036672000000009,-0.0018163999999999,0,sub_23
-0.0003744000000003,0.0036900000000012,0.0016105999999998,-0.0006959999999993,0.0053670000000009,-0.0011733999999999,0,sub_23
-0.0003342000000003,0.0035942000000012,0.0021551999999998,-0.0004765999999993,0.0074982000000009,-0.0005311999999999,0,sub_23
-6.62000000003102e-05,0.0032676000000012,0.0019453999999998,-0.0004717999999993,0.0089926000000009,-0.0003169999999999,0,sub_23
0.0001409999999996,0.0031040000000012,0.0027843999999998,-0.0008935999999993,0.0102762000000009,-0.0003191999999999,0,sub_23
0.0001553999999996,0.0031544000000012,0.0031925999999998,-0.0008935999999993,0.0107054000000009,-0.0001035999999999,0,sub_23
0.0002825999999996,0.0034648000000012,0.0032863999999999,-0.0011029999999993,0.0113508000000009,-0.0005305999999999,0,sub_23
0.0009767999999996,0.0038236000000012,0.0031339999999999,-0.0006717999999993,0.0119902000000009,-0.0009555999999999,0,sub_23
0.0010283999999996,0.0040240000000012,0.0033317999999999,0.0001814000000006,0.0121996000000009,-0.0007361999999999,0,sub_23
0.0007859999999996,0.0038798000000012,0.0026863999999999,0.0012450000000006,0.0119814000000009,-0.0003009999999999,0,sub_23
0.0012497999999996,0.0038982000000012,0.0026235999999999,0.0018810000000006,0.0115552000000009,-7.87999999999989e-05,0,sub_23
0.0012439999999996,0.0041038000000012,0.0030653999999999,0.0029378000000006,0.0102736000000009,0.0005746,0,sub_23
0.0010725999999996,0.0040508000000012,0.0031221999999999,0.0031410000000006,0.0085708000000009,0.0007952,0,sub_23
0.0014637999999996,0.0039706000000012,0.0029999999999999,0.0031320000000006,0.0064450000000009,0.0003742,0,sub_23
0.0026397999999996,0.0039758000000012,0.0029735999999999,0.0033364000000005,0.0043184000000009,-4.539999999997892e-05,0,sub_23
0.0026895999999996,0.0037082000000012,0.0028691999999999,0.0035426000000005,0.0021898000000009,-0.0006819999999999,0,sub_23
0.0028559999999996,0.0035736000000012,0.0027579999999999,0.0031108000000005,6.520000000095373e-05,-0.0017501999999999,0,sub_23
0.0030299999999997,0.0034476000000012,0.0019339999999999,0.0033164000000005,-0.002276399999999,-0.0023863999999999,0,sub_23
0.0029831999999997,0.0031774000000012,0.0015947999999998,0.0033128000000005,-0.003336399999999,-0.0030215999999999,0,sub_23
0.0026449999999997,0.0035408000000012,0.0013049999999999,0.0033072000000006,-0.004398199999999,-0.0032293999999999,0,sub_23
0.0024259999999997,0.0037224000000012,0.0011993999999999,0.0030884000000005,-0.005246999999999,-0.0032251999999999,0,sub_23
0.0025167999999997,0.0040446000000012,0.0008113999999999,0.0035096000000005,-0.005673599999999,-0.0027897999999999,0,sub_23
0.0023509999999997,0.0041286000000012,0.0010345999999999,0.0043586000000005,-0.005888799999999,-0.0023515999999999,0,sub_23
0.0022265999999996,0.0041326000000012,0.0014175999999999,0.0060578000000005,-0.006750199999999,-0.0014835999999999,0,sub_23
0.0020321999999996,0.0037212000000012,0.0012619999999999,0.0077580000000005,-0.007610799999999,-0.0008294,0,sub_23
0.0018939999999996,0.0032838000000012,0.0006743999999999,0.0090306000000006,-0.008470599999999,3.539999999998102e-05,0,sub_23
0.0013157999999996,0.0026316000000012,0.0001509999999999,0.0100910000000006,-0.009537999999999,4.920000000000102e-05,0,sub_23
0.0012177999999996,0.0023504000000012,-0.0002654,0.0103008000000006,-0.010175399999999,-0.0001571999999999,0,sub_23
0.0008811999999997,0.0030414000000012,-0.0005946,0.0098714000000006,-0.010597599999999,-0.0003683999999999,0,sub_23
0.0003377999999997,0.0034962000000012,-0.0002322,0.0090210000000006,-0.009951999999999,-0.0007975999999999,0,sub_23
-0.0001104000000002,0.0040016000000012,0.0003725999999999,0.0086002000000006,-0.009093399999999,-0.0016513999999999,0,sub_23
-0.0004452000000002,0.0037006000000012,0.0007931999999998,0.0086068000000005,-0.007813999999999,-0.0018665999999999,0,sub_23
-0.0010394000000002,0.0036460000000012,0.0012203999999998,0.0086134000000005,-0.006534599999999,-0.0020819999999999,0,sub_23
-0.0010160000000002,0.0029688000000012,0.0008681999999999,0.0086218000000005,-0.004829199999999,-0.0022979999999999,0,sub_23
-0.0012332000000002,0.0028158000000012,0.0004773999999999,0.0084172000000005,-0.002695399999999,-0.0025105999999999,0,sub_23
-0.0011820000000002,0.0029800000000012,-0.0002152,0.0082144000000005,7.680000000097383e-05,-0.0025103999999999,0,sub_23
-0.0009128000000002,0.0035288000000012,-0.000411,0.0075850000000006,0.0032748000000009,-0.0020863999999999,0,sub_23
-0.0010492000000002,0.0038702000000012,-0.0004248,0.0073842000000006,0.0066850000000009,-0.0018731999999999,0,sub_23
-0.0013232000000002,0.0039364000000012,-5.3400000000088014e-05,0.0071806000000006,0.0094562000000009,-0.0016591999999999,0,sub_23
-0.0011870000000002,0.0041436000000012,0.0003637999999999,0.0080426000000006,0.0115830000000009,-0.0014423999999999,0,sub_23
-0.0014386000000002,0.0038744000000012,0.0007187999999999,0.0091190000000006,0.0139220000000009,-0.0012243999999999,0,sub_23
-0.0014708000000002,0.0036538000000012,0.0009159999999999,0.0097754000000006,0.0171174000000009,-0.0016515999999999,0,sub_23
-0.0012948000000002,0.0032774000000012,0.0002595999999999,0.0097900000000006,0.0207400000000009,-0.0016511999999999,0,sub_23
-0.0011262000000002,0.0033534000000012,6.159999999993203e-05,0.0096018000000006,0.0258580000000009,-0.0025087999999999,0,sub_23
-0.0011786000000002,0.0022756000000012,-0.0008738,0.0083458000000006,0.0305546000000009,-0.0035867999999999,0,sub_23
-0.0006916000000002,0.0022082000000012,-0.0011388,0.0064488000000006,0.0350404000000009,-0.0046689999999999,0,sub_23
-0.0002100000000002,0.0027328000000012,-0.0016166,0.0047584000000005,0.0380340000000009,-0.0057475999999999,0,sub_23
0.0005539999999997,0.0023878000000012,-0.0017674,0.0032784000000005,0.0399612000000009,-0.0068285999999999,0,sub_23
0.0011251999999997,0.0018934000000012,-0.0023218,0.0013650000000005,0.0410352000000009,-0.0072703999999999,0,sub_23
0.0022011999999997,0.0023472000000012,-0.0022706,-0.0001281999999994,0.0414648000000009,-0.0068537999999999,0,sub_23
0.0031085999999997,0.0023000000000012,-0.0028142,-0.0009899999999994,0.0406132000000009,-0.0062119999999999,0,sub_23
0.0038729999999997,0.0020274000000012,-0.0028132,-0.0014249999999993,0.0399724000000009,-0.0053535999999999,0,sub_23
0.0043805999999997,0.0026082000000012,-0.0022034,-0.0014323999999994,0.0399674000000009,-0.0040657999999999,0,sub_23
0.0049295999999997,0.0031376000000012,-0.0015536,-0.0014475999999994,0.0378336000000009,-0.0032025999999999,0,sub_23
0.0049755999999997,0.0033618000000012,-0.0008196,-0.0014599999999994,0.0354904000000009,-0.0031937999999999,0,sub_23
0.0049123999999997,0.0033236000000012,-0.0009264,-0.0021085999999994,0.0331510000000009,-0.0036219999999999,0,sub_23
0.0044437999999997,0.0029386000000012,-0.001228,-0.0036077999999994,0.0308170000000009,-0.0046973999999999,0,sub_23
0.0040963999999997,0.0029742000000012,-0.000921,-0.0053223999999993,0.0274212000000009,-0.0064137999999999,0,sub_23
0.0034647999999997,0.0027964000000012,-0.0012722,-0.0063953999999993,0.0252998000000009,-0.0076943999999999,0,sub_23
0.0032173999999997,0.0029546000000012,-0.001613,-0.0081115999999993,0.0231780000000009,-0.0083383999999999,0,sub_23
0.0027011999999996,0.0031508000000012,-0.0012888,-0.0085493999999993,0.0210500000000009,-0.0085463999999999,0,sub_23
0.0023669999999996,0.0032948000000012,-0.001395,-0.0085661999999993,0.0180666000000009,-0.0083229999999999,0,sub_23
0.0022929999999996,0.0030362000000012,-0.0019894,-0.0083743999999993,0.0144416000000009,-0.0076699999999999,0,sub_23
0.0027629999999996,0.0031286000000012,-0.0020966,-0.0083971999999993,0.0101772000000009,-0.0068097999999999,0,sub_23
0.0023867999999996,0.0023656000000012,-0.0027348,-0.0079929999999993,0.0052746000000009,-0.0065867999999999,0,sub_23
0.0025487999999996,0.0021742000000012,-0.0028496,-0.0092949999999993,0.0001668000000009,-0.0068025999999999,0,sub_23
0.0023329999999997,0.0019584000000012,-0.0023412,-0.0101759999999993,-0.005367999999999,-0.0070091999999999,0,sub_23
0.0016217999999997,0.0024382000000012,-0.001614,-0.0110559999999993,-0.010477599999999,-0.0070027999999999,0,sub_23
0.0005851999999997,0.0022802000000012,-0.001398,-0.0115073999999993,-0.015162399999999,-0.0069937999999999,0,sub_23
-7.08000000002703e-05,0.0027752000000012,-0.0006518,-0.0111045999999993,-0.018575999999999,-0.0059123999999999,0,sub_23
-0.0006024000000002,0.0024038000000012,-0.0001098,-0.0092061999999993,-0.020720199999999,-0.0039677999999999,0,sub_23
-0.0014226000000002,0.0021940000000012,0.0001215999999998,-0.0075145999999993,-0.021800599999999,-0.0016045999999999,0,sub_23
-0.0015406000000002,0.0017926000000012,0.0002737999999999,-0.0068849999999993,-0.022872999999999,-0.0003171999999999,0,sub_23
-0.0016594000000002,0.0020756000000012,0.0011709999999999,-0.0066793999999993,-0.023941399999999,0.0003262,0,sub_23
-0.0013462000000002,0.0024112000000012,0.0015995999999999,-0.0069005999999993,-0.025004399999999,-9.59999999999993e-05,0,sub_23
-0.0013620000000002,0.0032474000000012,0.0017737999999999,-0.0073333999999993,-0.025852599999999,-0.0007335999999999,0,sub_23
-0.0012122000000002,0.0039470000000012,0.0018573999999999,-0.0071241999999993,-0.025852399999999,-0.0009403999999999,0,sub_23
-0.0009168000000002,0.0041564000000012,0.0023533999999999,-0.0058509999999993,-0.025434199999999,-7.200000000001945e-05,0,sub_23
-0.0009012000000002,0.0043644000000012,0.0026371999999999,-0.0041491999999993,-0.023954799999999,0.0014389999999999,0,sub_23
-0.0013306000000002,0.0039540000000012,0.0029749999999999,-0.0024473999999993,-0.022903799999999,0.0035857999999999,0,sub_23
-0.0018130000000002,0.0035442000000012,0.0032387999999999,-0.0011703999999993,-0.022273999999999,0.0048755999999999,0,sub_23
-0.0015474000000002,0.0033920000000012,0.0038387999999999,-0.0007449999999993,-0.021639599999999,0.0057321999999999,0,sub_23
-0.0019914000000002,0.0038162000000012,0.0041129999999999,-0.0007453999999993,-0.020362799999999,0.0055234,0,sub_23
-0.0021774000000002,0.0035162000000012,0.0038817999999999,-0.0009621999999993,-0.019936599999999,0.0051004,0,sub_23
-0.0021526000000002,0.0036276000000012,0.0041421999999999,-0.0018131999999993,-0.018654199999999,0.0042446,0,sub_23
-0.0021396000000002,0.0036718000000012,0.0046089999999999,-0.0033025999999993,-0.017155599999999,0.0031704,0,sub_23
-0.0023690000000002,0.0039104000000012,0.0043965999999999,-0.0045775999999993,-0.015869199999999,0.0016706,0,sub_23
-0.0022846000000002,0.0035318000000012,0.0038301999999999,-0.0054221999999993,-0.014584199999999,0.0008082,0,sub_23
-0.0021150000000002,0.0037320000000012,0.0028251999999999,-0.0060491999999993,-0.012235599999999,0.0001596,0,sub_23
-0.0014036000000002,0.0037948000000012,0.0026597999999999,-0.0060389999999993,-0.010316199999999,-0.0002701999999999,0,sub_23
-0.0008064000000002,0.0041234000000012,0.0017357999999999,-0.0049741999999993,-0.008415399999999,0.0008092,0,sub_23
-4.900000000027022e-05,0.0038732000000012,0.0013161999999999,-0.0036977999999993,-0.006941399999999,0.0018905999999999,0,sub_23
0.0006609999999997,0.0038980000000012,0.0012671999999999,-0.0022079999999993,-0.005468199999999,0.0029733999999999,0,sub_23
0.0012561999999997,0.0037136000000012,0.0020687999999999,-0.0009345999999993,-0.004845599999999,0.0038423999999999,0,sub_23
0.0013311999999996,0.0037898000000012,0.0014813999999999,-0.0007271999999993,-0.004642799999999,0.0040635999999999,0,sub_23
0.0016137999999996,0.0035182000000012,0.0016203999999999,-0.0015731999999993,-0.004208399999999,0.0027753999999999,0,sub_23
0.0014645999999996,0.0031604000000012,0.0020731999999999,-0.0028469999999994,-0.003985599999999,0.0014845999999999,0,sub_23
0.0015909999999996,0.0029496000000012,0.0019825999999999,-0.0047589999999994,-0.003758799999999,-0.000238,0,sub_23
0.0015533999999996,0.0031412000000012,0.0017033999999998,-0.0066741999999993,-0.002694399999999,-0.0015271999999999,0,sub_23
0.0014735999999997,0.0033622000000012,0.0015991999999998,-0.0070957999999993,-0.000786399999999,-0.0019525999999999,0,sub_23
0.0014491999999997,0.0033966000000012,0.0008589999999998,-0.0068819999999993,0.0011150000000009,-0.0013053999999999,0,sub_23
0.0015189999999997,0.0037790000000012,0.0001583999999998,-0.0064527999999993,0.0032296000000009,-0.0008705999999999,0,sub_23
0.0013609999999997,0.0036476000000012,-0.0009596000000001,-0.0053891999999993,0.0044880000000009,-2.7999999999992494e-06,0,sub_23
0.0015673999999997,0.0030856000000012,-0.002088,-0.0045365999999993,0.0044842000000009,0.0002168,0,sub_23
0.0019231999999997,0.0024548000000012,-0.0022586,-0.0045391999999993,0.0038452000000009,0.0002178,0,sub_23
0.0021119999999997,0.0026548000000012,-0.0014878,-0.0043313999999993,0.0023542000000009,7.800000000000732e-06,0,sub_23
0.0025871999999997,0.0029350000000012,-0.0019008,-0.0047755999999993,-0.000207999999999,0.0004436,0,sub_23
0.0023453999999997,0.0030912000000012,-0.0014382,-0.0054311999999993,-0.002767599999999,0.0004506,0,sub_23
0.0015919999999997,0.0030980000000012,-0.0007122,-0.0062983999999993,-0.004688199999999,0.000669,0,sub_23
0.0009543999999997,0.0031192000000012,-0.0004102,-0.0065235999999993,-0.006397199999999,0.0006778,0,sub_23
0.0003429999999997,0.0026390000000012,-0.0005884,-0.0069611999999993,-0.007892399999999,0.0006848,0,sub_23
-0.0007116000000002,0.0021118000000012,-0.0002746,-0.0067497999999993,-0.008531199999999,0.0004734,0,sub_23
-0.0006826000000002,0.0018046000000012,0.0005577999999999,-0.0069623999999993,-0.008741599999999,4.4800000000000655e-05,0,sub_23
1.739999999970975e-05,0.0025452000000012,0.0011587999999999,-0.0067529999999993,-0.009169999999999,0.000474,0,sub_23
-0.0001502000000002,0.0027064000000012,0.0012837999999999,-0.0067611999999993,-0.009818599999999,0.0009102,0,sub_23
-0.0003722000000002,0.0029112000000012,0.0013213999999999,-0.0063445999999993,-0.010470399999999,0.0017766,0,sub_23
9.999999997097457e-07,0.0030410000000012,0.0017151999999999,-0.0059269999999993,-0.011121399999999,0.0024294,0,sub_23
-0.0006412000000002,0.0033076000000012,0.0014549999999998,-0.0052997999999993,-0.011776599999999,0.0039382,0,sub_23
-0.0014420000000002,0.0031164000000012,0.0015621999999998,-0.0038161999999993,-0.012219799999999,0.0050253999999999,0,sub_23
-0.0013700000000002,0.0034076000000012,0.0017677999999998,-0.0025409999999993,-0.012016199999999,0.0063157999999999,0,sub_23
-0.0015492000000002,0.0039374000000012,0.0023839999999998,-0.0014751999999994,-0.011383999999999,0.0071767999999999,0,sub_23
-0.0025132000000002,0.0040546000000012,0.0028589999999998,1.7200000000590702e-05,-0.010328799999999,0.0084675999999999,0,sub_23
-0.0020818000000002,0.0039530000000012,0.0028973999999998,0.0023592000000005,-0.009493999999999,0.0099853999999999,0,sub_23
-0.0013608000000002,0.0037522000000012,0.0027037999999998,0.0042812000000005,-0.007590799999999,0.0110717999999999,0,sub_23
-0.0010414000000002,0.0034916000000012,0.0024799999999998,0.0064186000000005,-0.005262199999999,0.0121589999999999,0,sub_23
-0.0001020000000002,0.0029850000000012,0.0019329999999998,0.0083396000000005,-0.003571999999999,0.0132457999999999,0,sub_23
0.0016917999999996,0.0028928000000012,0.0014271999999998,0.0100454000000005,-0.002307199999999,0.0143315999999999,0,sub_23
0.0023203999999996,0.0028974000000012,0.0012397999999998,0.0109016000000005,-0.000821999999999,0.0151905999999999,0,sub_23
0.0024931999999996,0.0028622000000012,0.0009031999999999,0.0108996000000005,-0.001247999999999,0.0151914,0,sub_23
0.0028701999999996,0.0032822000000012,0.0009903999999999,0.0108936000000005,-0.002738399999999,0.01498,0,sub_23
0.0027215999999996,0.0033350000000012,0.0013247999999999,0.0108928000000005,-0.003590999999999,0.0141338,0,sub_23
0.0026305999999996,0.0030764000000012,0.0016751999999999,0.0106806000000006,-0.004228999999999,0.0130723999999999,0,sub_23
0.0022099999999996,0.0033714000000012,0.0023183999999999,0.0100436000000006,-0.004863799999999,0.0115805999999999,0,sub_23
0.0022187999999996,0.0033490000000012,0.0025421999999999,0.0091938000000006,-0.005072399999999,0.0103003999999999,0,sub_23
0.0019681999999996,0.0026510000000012,0.0028867999999999,0.0081338000000006,-0.004853399999999,0.0088043999999999,0,sub_23
0.0019633999999996,0.0024580000000012,0.0028957999999999,0.0070704000000006,-0.005482799999999,0.0073025999999999,0,sub_23
0.0014253999999996,0.0027570000000012,0.0030749999999999,0.0057974000000006,-0.005259199999999,0.0057979999999999,0,sub_23
0.0012923999999997,0.0027024000000012,0.0028541999999999,0.0051616000000005,-0.005464799999999,0.0045121999999999,0,sub_23
0.0007835999999997,0.0026298000000012,0.0031437999999999,0.0053820000000005,-0.005038799999999,0.0034519999999999,0,sub_23
0.0011021999999997,0.0028454000000012,0.0028519999999999,0.0060290000000005,-0.004401999999999,0.0026081999999999,0,sub_23
0.0010795999999997,0.0029048000000012,0.0026807999999999,0.0066772000000005,-0.003339799999999,0.0019774,0,sub_23
0.0013459999999997,0.0030582000000012,0.0024019999999999,0.0073168000000005,-0.004195199999999,0.0013492,0,sub_23
0.0017449999999997,0.0032848000000012,0.0013995999999999,0.0073182000000005,-0.005046599999999,0.000289,0,sub_23
0.0017573999999997,0.0036876000000012,0.0008277999999999,0.0066722000000005,-0.006959199999999,-0.0003537999999999,0,sub_23
0.0010795999999997,0.0041078000000012,0.0003773999999999,0.0058120000000005,-0.009296199999999,-0.0012111999999999,0,sub_23
0.0008111999999997,0.0044110000000012,0.0006017999999999,0.0047374000000005,-0.011633399999999,-0.0018563999999999,0,sub_23
7.99999999729576e-07,0.0044834000000012,0.0007619999999999,0.0038846000000005,-0.013119399999999,-0.0031363999999999,0,sub_23
-0.0007594000000002,0.0045052000000012,0.0014341999999999,0.0036728000000006,-0.013970199999999,-0.0039853999999999,0,sub_23
-0.0014050000000002,0.0043660000000012,0.0014977999999999,0.0043184000000006,-0.013971799999999,-0.0048297999999999,0,sub_23
-0.0017192000000002,0.0042678000000012,0.0019539999999999,0.0047514000000005,-0.013335199999999,-0.0052491999999999,0,sub_23
-0.0021822000000002,0.0041138000000012,0.0018449999999999,0.0051854000000005,-0.012273399999999,-0.0054555999999999,0,sub_23
-0.0022846000000002,0.0037060000000012,0.0015925999999999,0.0054042000000005,-0.010783399999999,-0.0052425999999999,0,sub_23
-0.0018902000000002,0.0033594000000012,0.0013463999999999,0.0047726000000005,-0.009287999999999,-0.0056765999999999,0,sub_23
-0.0015636000000002,0.0031804000000012,0.0010851999999999,0.0037170000000005,-0.007576199999999,-0.0065407999999999,0,sub_23
-0.0020726000000002,0.0030474000000012,0.0004349999999999,0.0013848000000006,-0.006496799999999,-0.0082637999999999,0,sub_23
-0.0021938000000002,0.0027042000000012,-0.0003428,-0.0009425999999993,-0.005200799999999,-0.0108415999999999,0,sub_23
-0.0019850000000002,0.0028690000000012,-0.0011522,-0.0036955999999993,-0.003690399999999,-0.0134228,0,sub_23
-0.0026108000000002,0.0029142000000012,-0.0018442,-0.0062379999999993,-0.002395399999999,-0.0155748,0,sub_23
-0.0025390000000002,0.0029732000000012,-0.00171,-0.0089945999999993,-0.000888399999999,-0.0173016,0,sub_23
