userAcceleration.x,userAcceleration.y,userAcceleration.z,rotationRate.x,rotationRate.y,rotationRate.z,label,subject
-0.0577910000000002,0.0269506000000012,-0.0156697999999999,0.0296326000000004,0.1935832000000006,-0.0566972,0,sub_12
-0.0452172000000002,-0.0234745999999987,-0.0157905999999999,0.0347850000000004,0.1959492000000006,-0.0821508,0,sub_12
-0.0255556000000002,-0.0253751999999987,0.031389,0.0519458000000004,0.3098786000000006,-0.0832452,0,sub_12
-0.0312130000000002,-0.0007207999999987,0.0018336,0.0960916000000005,0.4229760000000006,-0.059581,0,sub_12
-0.0226686000000002,-0.0080563999999987,0.0122078,0.0327072000000004,0.3120584000000006,-0.0256986,0,sub_12
-0.0142506000000002,-0.0504703999999987,0.0332472,0.0103966000000005,0.3088464000000006,-0.0023494,0,sub_12
-0.0371066000000002,0.0075380000000012,0.0116464,0.0327758000000005,0.2945286000000006,-0.0109342,0,sub_12
-0.0393012000000002,0.0209036000000012,-0.0266295999999999,0.0183076000000005,0.0528160000000006,-0.0246124,0,sub_12
0.0080315999999997,0.0106398000000012,0.0081876,-0.0097839999999995,-0.1279595999999993,-0.0338246,0,sub_12
0.0329167999999997,0.0318188000000012,-0.0101971999999999,0.0702976000000004,-0.0624385999999993,-0.0314872,0,sub_12
0.0371553999999998,0.0366934000000012,-0.0336659999999999,0.0887402000000004,-0.1150219999999993,-0.0110558,0,sub_12
0.0610347999999998,0.0339546000000012,-0.0017616,0.0754320000000004,-0.0838719999999993,0.0361793999999999,0,sub_12
0.0622829999999998,0.0245464000000012,-0.0065156,0.0993208000000004,0.0905930000000006,0.0689629999999999,0,sub_12
0.0332581999999997,0.0118068000000012,-0.0137708,0.0960546000000004,0.1389058000000006,0.0844743999999999,0,sub_12
0.0064211999999997,-0.0024271999999987,-0.0080674,0.0683844000000005,0.0586828000000006,0.0837429999999999,0,sub_12
0.0022331999999997,-0.0102385999999987,0.0065033999999999,0.0635196000000005,0.0023144000000006,0.0651941999999999,0,sub_12
-0.0051618000000002,-0.0139989999999987,0.0059266,0.0496864000000005,-0.0514823999999993,0.0506385999999999,0,sub_12
-0.0140404000000002,-0.0130279999999987,0.0057918,0.0086726000000005,-0.1247801999999993,0.0346363999999999,0,sub_12
-0.0175248000000002,-0.0109965999999987,0.010614,-0.0171809999999994,-0.1550661999999993,0.0118481999999999,0,sub_12
-0.0137408000000002,-0.0074309999999987,0.0151924,-0.0109103999999994,-0.1134445999999993,-0.0125168,0,sub_12
-0.0039880000000002,0.0026236000000012,0.005592,-0.0084597999999994,-0.1004165999999993,-0.0225576,0,sub_12
0.0008415999999997,0.0107542000000012,-0.0009051999999999,-0.0164819999999994,-0.1242687999999993,-0.0180964,0,sub_12
-0.0025040000000002,0.0133994000000012,-0.0014265999999999,-0.0073559999999995,-0.1237075999999993,-0.0064966,0,sub_12
-0.0136696000000002,0.0111722000000012,-0.0005898,0.0075306000000004,-0.0756559999999993,0.0052963999999999,0,sub_12
-0.0296548000000002,0.0062802000000012,0.0008167999999999,0.0169962000000004,-0.0037059999999993,0.0127477999999999,0,sub_12
-0.0447050000000002,-0.0023875999999987,0.0014109999999999,0.0162112000000004,0.0563888000000006,0.0101015999999999,0,sub_12
-0.0511978000000001,-0.0098321999999987,0.0024665999999999,0.0144370000000004,0.0843450000000005,0.0001057999999999,0,sub_12
-0.0525698000000001,-0.0112197999999987,0.0025509999999999,0.0055324000000004,0.0914510000000005,-0.0109812,0,sub_12
-0.0488924000000001,-0.0094759999999987,0.00179,-0.0088959999999994,0.1066614000000006,-0.0193398,0,sub_12
-0.0419450000000001,-0.0062683999999987,0.000409,-0.0270557999999994,0.1536002000000006,-0.0202874,0,sub_12
-0.0368210000000001,-0.0030371999999987,-0.0002459999999999,-0.0401843999999994,0.2333106000000006,-0.015901,0,sub_12
-0.0345282000000001,-0.0024209999999987,0.00033,-0.0540671999999994,0.3302792000000006,-0.0109946,0,sub_12
-0.0293702000000002,-0.0062047999999987,0.0013988,-0.0656719999999994,0.4044726000000006,-0.0135208,0,sub_12
-0.0204034000000002,-0.0095107999999987,0.001868,-0.0815127999999995,0.4290756000000006,-0.0251998,0,sub_12
-0.0103402000000002,-0.0110467999999987,0.0021762,-0.0957837999999995,0.4202352000000006,-0.039816,0,sub_12
-0.0002314000000002,-0.0137997999999987,0.000457,-0.1131511999999995,0.3826612000000006,-0.0589034,0,sub_12
0.0101219999999997,-0.0137919999999987,-0.0027059999999999,-0.1260055999999995,0.3314912000000006,-0.079708,0,sub_12
0.0189129999999997,-0.0030745999999987,-0.0054337999999999,-0.1342019999999995,0.2694502000000006,-0.1032434,0,sub_12
0.0271199999999997,0.0075010000000012,-0.0103597999999999,-0.1406619999999995,0.2137954000000007,-0.1269886,0,sub_12
0.0380433999999998,0.0140932000000012,-0.0205769999999999,-0.1468949999999995,0.1594252000000006,-0.152443,0,sub_12
0.0511815999999997,0.0237718000000012,-0.0289977999999999,-0.1389391999999995,0.1333230000000006,-0.1731344,0,sub_12
0.0626067999999997,0.0329284000000012,-0.0295835999999999,-0.1207123999999995,0.1320664000000006,-0.19437,0,sub_12
0.0731901999999997,0.0383808000000012,-0.0217028,-0.0874099999999995,0.1179592000000006,-0.2118518000000001,0,sub_12
0.0884207999999997,0.0475752000000012,-0.006609,-0.0544511999999995,0.0842146000000006,-0.2199104,0,sub_12
0.1004049999999997,0.0564586000000012,0.0130631999999999,-0.0206981999999995,0.1019574000000006,-0.2107244,0,sub_12
0.0944299999999997,0.0540088000000012,0.0329377999999999,0.0166822000000004,0.1738868000000006,-0.1861146,0,sub_12
0.0750269999999997,0.0431640000000012,0.0465553999999999,0.0386010000000004,0.2332622000000006,-0.1521962,0,sub_12
0.0493739999999997,0.0205316000000012,0.0463886,0.0328120000000004,0.3042206000000006,-0.1137862,0,sub_12
0.0148219999999997,-0.0053139999999987,0.034958,0.0191454000000005,0.3705536000000006,-0.083971,0,sub_12
-0.0213250000000002,-0.0266723999999987,0.0224978,-0.0018901999999994,0.3445246000000007,-0.0737442,0,sub_12
-0.0419722000000001,-0.0411909999999987,0.007637,-0.0361159999999994,0.2211100000000006,-0.083439,0,sub_12
-0.0503018000000001,-0.0413517999999987,-0.0052537999999999,-0.0558399999999994,0.0825718000000006,-0.1064728,0,sub_12
-0.0479012000000001,-0.0343891999999987,-0.0141473999999999,-0.0616757999999994,-0.0570587999999993,-0.1347492,0,sub_12
-0.0371398000000001,-0.0277205999999987,-0.0193837999999999,-0.0582931999999995,-0.1831023999999993,-0.1589196,0,sub_12
-0.0238876000000002,-0.0185903999999987,-0.0211739999999999,-0.0426655999999994,-0.2367761999999993,-0.176474,0,sub_12
-0.0117908000000002,-0.0050153999999987,-0.0179519999999999,-0.0208181999999994,-0.2263801999999994,-0.1844532,0,sub_12
-0.0015986000000002,-0.0005051999999987,-0.0102015999999999,-0.0125701999999994,-0.1904221999999993,-0.179528,0,sub_12
-0.0005726000000002,-0.0038219999999987,0.0027926,-0.0106933999999994,-0.1412589999999993,-0.1680412,0,sub_12
-0.0044742000000002,-0.0067893999999987,0.0156066,-0.0053529999999994,-0.0816655999999993,-0.1571844,0,sub_12
-0.0088288000000002,-0.0134529999999987,0.0259706,-0.0009925999999994,-0.0499799999999993,-0.1460852,0,sub_12
-0.0095740000000002,-0.0151373999999987,0.0298959999999999,-0.0054963999999994,-0.0412845999999993,-0.1322410000000001,0,sub_12
-0.0091144000000002,-0.0115151999999987,0.0255827999999999,-0.0065649999999994,-0.0266407999999993,-0.1170984,0,sub_12
-0.0056450000000002,-0.0022441999999987,0.0197965999999999,-0.0015519999999994,0.0146028000000006,-0.09917,0,sub_12
-0.0025922000000002,0.0033706000000012,0.0191313999999999,0.0045480000000005,0.0683804000000006,-0.0731316,0,sub_12
-0.0015526000000002,0.0054812000000012,0.0191491999999999,0.0018930000000005,0.1234558000000006,-0.0443786,0,sub_12
-0.0092708000000002,-0.0016827999999987,0.0150975999999999,0.0016710000000005,0.1383028000000006,-0.0275212,0,sub_12
-0.0184240000000002,-0.0100537999999987,0.0112413999999999,0.0042980000000004,0.1073936000000006,-0.025754,0,sub_12
-0.0253030000000002,-0.0153097999999987,0.004475,0.0044994000000004,0.0462902000000006,-0.0367838,0,sub_12
-0.0338680000000002,-0.0139685999999987,-0.0044289999999999,0.0092152000000004,-0.0196795999999993,-0.0601672000000001,0,sub_12
-0.0396932000000002,-0.0133089999999987,-0.0099347999999999,0.0221092000000004,-0.0735199999999993,-0.0869274,0,sub_12
-0.0392502000000001,-0.0117271999999987,-0.0062925999999999,0.0363946000000004,-0.0956481999999993,-0.1066682,0,sub_12
-0.0412718000000001,-0.0138749999999987,-0.0010819999999999,0.0517882000000004,-0.0975843999999993,-0.1153178000000001,0,sub_12
-0.0457892000000001,-0.0145517999999987,0.0060457999999999,0.0629430000000004,-0.0863237999999993,-0.1171772,0,sub_12
-0.0499162000000001,-0.0183741999999987,0.0128289999999999,0.0642712000000004,-0.0703705999999993,-0.1118474,0,sub_12
-0.0554084000000001,-0.0190237999999987,0.0225237999999999,0.0658750000000004,-0.0467235999999993,-0.112721,0,sub_12
-0.0613636000000001,-0.0184123999999987,0.0301197999999999,0.0668906000000004,-0.0111449999999993,-0.1131868,0,sub_12
-0.0615968000000001,-0.0162389999999987,0.0374019999999999,0.0628656000000004,0.0404382000000006,-0.115631,0,sub_12
-0.0603338000000001,-0.0181533999999987,0.0420055999999999,0.0566898000000004,0.0932866000000006,-0.1129644,0,sub_12
-0.0560216000000001,-0.0173767999999987,0.0461789999999999,0.0486598000000004,0.1608422000000006,-0.1103296,0,sub_12
-0.0570598000000002,-0.0207945999999987,0.0403953999999999,0.0400850000000004,0.2104698000000006,-0.0993436,0,sub_12
-0.0564198000000002,-0.0196949999999987,0.0327041999999999,0.0310260000000004,0.2415864000000006,-0.0941056,0,sub_12
-0.0564644000000002,-0.0191793999999987,0.0242557999999999,0.0181034000000004,0.2682396000000006,-0.088248,0,sub_12
-0.0584708000000002,-0.0144375999999987,0.014203,0.0049548000000004,0.2887288000000006,-0.0858024,0,sub_12
-0.0616730000000002,-0.0131371999999987,0.0021372,-0.0029543999999995,0.2855606000000006,-0.0858536,0,sub_12
-0.0577140000000002,-0.0082259999999987,-0.0046945999999999,-0.0050831999999995,0.2834502000000006,-0.0890704,0,sub_12
-0.0542256000000002,-0.0085661999999987,-0.0082657999999999,-0.0012003999999995,0.2934476000000007,-0.0884152000000001,0,sub_12
-0.0498094000000002,-0.0069033999999987,-0.0099639999999999,0.0063290000000004,0.3089666000000006,-0.0864596000000001,0,sub_12
-0.0442530000000002,-0.0074855999999987,-0.0105143999999999,0.0164236000000004,0.3274518000000006,-0.0825672,0,sub_12
-0.0382356000000002,-0.0066709999999987,-0.0079649999999999,0.0226794000000004,0.3512572000000006,-0.0737946,0,sub_12
-0.0329126000000001,-0.0068381999999987,-0.0055387999999999,0.0201698000000004,0.3757144000000006,-0.0605976000000001,0,sub_12
-0.0307562000000001,-0.0029421999999987,-0.0050995999999999,0.0156458000000004,0.3788748000000006,-0.0478146,0,sub_12
-0.0301230000000001,0.0007328000000012,-0.0078485999999999,0.0123426000000004,0.3673360000000006,-0.0364998,0,sub_12
-0.0301472000000001,0.0024468000000012,-0.0112007999999999,0.0098872000000004,0.3513328000000006,-0.028378,0,sub_12
-0.0326052000000001,0.0027516000000012,-0.0162593999999999,0.0127834000000004,0.3351142000000006,-0.0242778,0,sub_12
-0.0368412000000001,0.0043300000000012,-0.0213955999999999,0.0208148000000004,0.3176172000000006,-0.0246266,0,sub_12
-0.0370290000000001,0.0032652000000012,-0.0233247999999999,0.0293444000000004,0.3109674000000006,-0.024751,0,sub_12
-0.0368982000000001,0.0023018000000012,-0.0216379999999999,0.0414966000000004,0.3030276000000006,-0.025062,0,sub_12
-0.0363864000000002,0.0019976000000011,-0.0180941999999999,0.0523446000000004,0.2916758000000006,-0.023455,0,sub_12
-0.0354858000000002,0.0017626000000011,-0.0141177999999999,0.0586888000000005,0.2756506000000006,-0.021446,0,sub_12
-0.0332326000000002,0.0001644000000011,-0.0095715999999999,0.0620246000000005,0.2549488000000006,-0.0194522,0,sub_12
-0.0319602000000002,-0.0023061999999988,-0.0059069999999999,0.0621354000000004,0.2338490000000005,-0.0177152,0,sub_12
-0.0303890000000001,-0.0056431999999987,-0.0032745999999999,0.0571414000000004,0.2168134000000006,-0.0155918,0,sub_12
-0.0279662000000001,-0.0088239999999987,-0.0015659999999999,0.0508864000000004,0.2036188000000006,-0.0139094,0,sub_12
-0.0254196000000001,-0.0116355999999987,-0.0011987999999999,0.0442066000000004,0.1908520000000006,-0.0122306,0,sub_12
-0.0257734000000001,-0.0109857999999987,-0.0032333999999999,0.0360370000000004,0.1780938000000006,-0.0114166,0,sub_12
-0.0268152000000001,-0.0104985999999987,-0.0061305999999999,0.0265844000000004,0.1634276000000006,-0.0118912,0,sub_12
-0.0279786000000001,-0.0101929999999987,-0.0087441999999999,0.0181910000000004,0.1449312000000006,-0.01449,0,sub_12
-0.0291088000000001,-0.0094899999999987,-0.0089893999999999,0.0121418000000004,0.1236656000000006,-0.0192052,0,sub_12
-0.0320984000000001,-0.0079097999999987,-0.0076011999999999,0.0086702000000004,0.1060138000000006,-0.0241206,0,sub_12
-0.0350328000000001,-0.0066777999999987,-0.0044403999999999,0.0065136000000004,0.0968762000000006,-0.0281832,0,sub_12
-0.0386050000000001,-0.0039587999999987,-0.0022555999999999,0.0041676000000004,0.0947634000000006,-0.0305468,0,sub_12
-0.0418728000000001,-0.0020559999999987,-0.0011231999999999,0.0005604000000004,0.0984014000000006,-0.0314312,0,sub_12
-0.0447264000000001,-0.0013855999999987,-0.0015053999999999,-0.0034609999999995,0.1065082000000006,-0.030615,0,sub_12
-0.0451202000000002,-0.0021445999999987,-0.0010243999999999,-0.0091921999999995,0.1152550000000006,-0.0285298,0,sub_12
-0.0434214000000001,-0.0047463999999987,-0.0006641999999999,-0.0149263999999995,0.1237870000000006,-0.0260172,0,sub_12
-0.0403006000000001,-0.0083457999999987,-0.0002319999999999,-0.0193717999999995,0.1342320000000006,-0.023498,0,sub_12
-0.0375158000000001,-0.0104757999999987,0.0004214,-0.0218851999999995,0.1487124000000006,-0.0194748,0,sub_12
-0.0365624000000001,-0.0099915999999987,0.0011819999999999,-0.0235203999999995,0.1706390000000006,-0.0135324,0,sub_12
-0.0366358000000001,-0.0092347999999987,0.0013961999999999,-0.0232015999999995,0.2000156000000006,-0.0075858,0,sub_12
-0.0381390000000001,-0.0079067999999987,0.0015453999999999,-0.0209471999999995,0.2330066000000006,-0.0014166,0,sub_12
-0.0399896000000002,-0.0060115999999987,0.0032101999999999,-0.0191031999999995,0.2700454000000006,0.0051717999999999,0,sub_12
-0.0403202000000001,-0.0055937999999987,0.0063445999999999,-0.0185297999999995,0.3073094000000006,0.0098281999999999,0,sub_12
-0.0391408000000001,-0.0079783999999987,0.0109741999999999,-0.0186087999999995,0.3401082000000006,0.0127765999999999,0,sub_12
-0.0370912000000001,-0.0098907999999987,0.0165933999999999,-0.0204197999999995,0.3658884000000006,0.0142263999999999,0,sub_12
-0.0329132000000001,-0.0109769999999987,0.0209488,-0.0265289999999995,0.3833804000000006,0.0141613999999998,0,sub_12
-0.0282354000000001,-0.0118865999999987,0.0232338,-0.0356569999999994,0.3921544000000007,0.0123771999999998,0,sub_12
-0.0245966000000001,-0.0111103999999987,0.0225804,-0.0462987999999994,0.3958230000000006,0.0099479999999998,0,sub_12
-0.0209642000000001,-0.0086347999999987,0.0205707999999999,-0.0590849999999994,0.3969434000000006,0.0072935999999998,0,sub_12
-0.0167136000000002,-0.0062433999999987,0.0167605999999999,-0.0703813999999995,0.3984794000000006,0.0059307999999998,0,sub_12
-0.0121916000000002,-0.0037577999999987,0.0120149999999999,-0.0763489999999994,0.3999916000000006,0.0058871999999999,0,sub_12
-0.0083360000000002,-0.0002171999999987,0.0084669999999999,-0.0755031999999995,0.4004062000000006,0.0080289999999999,0,sub_12
-0.0054638000000002,0.0031450000000012,0.0058567999999999,-0.0674121999999995,0.4005748000000007,0.0121445999999999,0,sub_12
-0.0016514000000002,0.0072606000000012,0.0030012,-0.0518551999999995,0.4002910000000006,0.0163127999999999,0,sub_12
0.0011089999999997,0.0110274000000011,0.0016234,-0.0322401999999995,0.4016942000000006,0.0213617999999999,0,sub_12
0.0019007999999997,0.0121628000000012,0.0023771999999999,-0.0109049999999995,0.4058620000000006,0.0262055999999999,0,sub_12
0.0024963999999997,0.0100738000000012,0.0031089999999999,0.0095768000000004,0.4087596000000006,0.0297633999999999,0,sub_12
0.0035291999999997,0.0080796000000012,0.0050193999999999,0.0264014000000004,0.4040040000000006,0.0322371999999999,0,sub_12
0.0031135999999997,0.0048862000000012,0.0066621999999999,0.0378660000000004,0.3933026000000006,0.0344675999999999,0,sub_12
0.0035641999999997,0.0020010000000012,0.0081947999999999,0.0454630000000004,0.3743148000000006,0.0343313999999999,0,sub_12
0.0030061999999997,0.0006144000000012,0.0105457999999999,0.0500412000000004,0.3468214000000006,0.0326893999999999,0,sub_12
0.0018625999999997,0.0002262000000012,0.0120462,0.0518504000000004,0.3197662000000006,0.0303865999999999,0,sub_12
0.0015839999999997,-7.259999999877668e-05,0.0127689999999999,0.0530272000000004,0.2933568000000006,0.0270101999999999,0,sub_12
0.0009489999999997,0.0002962000000012,0.0141497999999999,0.0559080000000004,0.2663022000000006,0.0236465999999999,0,sub_12
-0.0001780000000002,8.900000000122338e-05,0.0150271999999999,0.0602824000000004,0.2390304000000006,0.0200801999999998,0,sub_12
0.0008971999999997,-0.0003871999999987,0.0159655999999999,0.0650894000000004,0.2132474000000006,0.0167285999999998,0,sub_12
0.0021053999999997,-2.2199999998776628e-05,0.0181991999999999,0.0713718000000004,0.1831992000000006,0.0131789999999998,0,sub_12
0.0019603999999997,-0.0006029999999987,0.0201097999999999,0.0776752000000004,0.1524988000000006,0.0092229999999998,0,sub_12
0.0018143999999998,-0.0027389999999987,0.0215015999999999,0.0812058000000004,0.1211724000000006,0.0043935999999998,0,sub_12
0.0009165999999998,-0.0054023999999987,0.0224755999999999,0.0821816000000004,0.0902842000000006,-0.0013088,0,sub_12
-7.820000000019112e-05,-0.0078845999999987,0.0224949999999999,0.0808150000000004,0.0594086000000005,-0.0080958,0,sub_12
-0.0008534000000001,-0.0097771999999987,0.0219233999999999,0.0766804000000004,0.0276990000000005,-0.0170374,0,sub_12
-0.0021092000000001,-0.0099465999999987,0.0214525999999999,0.0718884000000004,-0.0046259999999993,-0.0277118,0,sub_12
-0.0014920000000002,-0.0082205999999987,0.0212957999999999,0.0692388000000004,-0.0373751999999994,-0.0407206,0,sub_12
0.0001715999999997,-0.0044151999999987,0.0211165999999999,0.0684922000000004,-0.0729049999999993,-0.0526442,0,sub_12
0.0013801999999997,0.0008884000000012,0.0200146,0.0694460000000005,-0.1065369999999993,-0.0611402,0,sub_12
0.0020915999999997,0.0065752000000012,0.0181146,0.0736328000000005,-0.1278435999999993,-0.064502,0,sub_12
0.0011309999999997,0.0117440000000012,0.0142596,0.0806376000000005,-0.1338421999999993,-0.062309,0,sub_12
-0.0030634000000002,0.0143754000000012,0.0088782,0.0902480000000004,-0.1247435999999993,-0.0549896,0,sub_12
-0.0096506000000002,0.0147190000000012,0.0033912,0.1022602000000005,-0.1013871999999993,-0.0455354,0,sub_12
-0.0171042000000002,0.0123934000000012,-0.0007259999999999,0.1162204000000004,-0.0714343999999993,-0.0356486,0,sub_12
-0.0231020000000002,0.0084192000000012,-0.0033013999999999,0.1299626000000004,-0.0429705999999993,-0.0261888,0,sub_12
-0.0242654000000002,0.0026174000000012,-0.0033485999999999,0.1413280000000004,-0.0225885999999993,-0.0182306,0,sub_12
-0.0232304000000002,-0.0020311999999987,-0.0022861999999999,0.1481694000000004,-0.0130513999999993,-0.011572,0,sub_12
-0.0211962000000002,-0.0056133999999987,-0.0019543999999999,0.1509298000000004,-0.0122241999999993,-0.0077082,0,sub_12
-0.0190002000000002,-0.0075393999999987,-0.0028457999999999,0.1526148000000005,-0.0160693999999993,-0.0066232,0,sub_12
-0.0186674000000002,-0.0074733999999987,-0.0053499999999999,0.1562182000000004,-0.0241669999999993,-0.009365,0,sub_12
-0.0202460000000002,-0.0062347999999987,-0.0076463999999999,0.1624012000000004,-0.0314077999999993,-0.0155082,0,sub_12
-0.0219220000000002,-0.0047545999999987,-0.0086165999999999,0.1683908000000004,-0.0356591999999993,-0.0231522,0,sub_12
-0.0211754000000002,-0.0046149999999987,-0.0058945999999999,0.1705400000000005,-0.0367139999999993,-0.0276224,0,sub_12
-0.0200936000000002,-0.0043887999999987,-0.0026161999999999,0.1665004000000005,-0.0349893999999993,-0.0291484,0,sub_12
-0.0174300000000002,-0.0048205999999987,0.0015428,0.1545544000000004,-0.0326107999999993,-0.0275256,0,sub_12
-0.0166260000000002,-0.0046161999999987,0.0030982,0.1374616000000004,-0.0327837999999993,-0.022731,0,sub_12
-0.0170090000000002,-0.0041615999999987,0.0034286,0.1192800000000004,-0.0361555999999993,-0.0162306,0,sub_12
-0.0193888000000002,-0.0021959999999987,-7.259999999999142e-05,0.1057896000000004,-0.0418805999999993,-0.0114036,0,sub_12
-0.0246130000000002,-0.0012039999999987,-0.0045111999999999,0.0976498000000004,-0.0461243999999993,-0.0086776,0,sub_12
-0.0307942000000002,-0.0003979999999987,-0.0091475999999999,0.0944328000000004,-0.0463399999999993,-0.0052816,0,sub_12
-0.0347762000000002,-0.0009801999999987,-0.0111361999999999,0.0938060000000004,-0.0395353999999993,-0.001449,0,sub_12
-0.0373918000000001,-0.0022405999999987,-0.0122629999999999,0.0953466000000004,-0.0250691999999993,0.0026023999999999,0,sub_12
-0.0390950000000001,-0.0040877999999987,-0.0117259999999999,0.0960546000000004,-0.0054883999999993,0.0070687999999999,0,sub_12
-0.0370530000000001,-0.0050829999999987,-0.0109915999999999,0.0946174000000004,0.0126042000000006,0.0125901999999999,0,sub_12
-0.0346290000000001,-0.0068411999999987,-0.0086097999999999,0.0914696000000005,0.0273042000000006,0.0155403999999999,0,sub_12
-0.0330624000000001,-0.0077955999999987,-0.0057281999999999,0.0861756000000004,0.0369078000000006,0.0161319999999999,0,sub_12
-0.0319932000000002,-0.0092931999999987,-0.003406,0.0778800000000004,0.0422650000000006,0.0156399999999999,0,sub_12
-0.0308688000000002,-0.0099113999999987,-0.0010476,0.0672278000000004,0.0446510000000006,0.0142805999999999,0,sub_12
-0.0300654000000002,-0.0105253999999987,0.0023809999999999,0.0557230000000004,0.0468286000000006,0.0124883999999999,0,sub_12
-0.0295046000000002,-0.0091369999999987,0.0050151999999999,0.0429428000000004,0.0505002000000006,0.0111125999999999,0,sub_12
-0.0298358000000002,-0.0077651999999987,0.0059215999999999,0.0303950000000004,0.0580078000000006,0.0093061999999999,0,sub_12
-0.0303736000000001,-0.0057907999999987,0.0068366,0.0193656000000004,0.0704130000000006,0.0068629999999999,0,sub_12
-0.0306356000000001,-0.0046455999999987,0.005934,0.0091966000000004,0.0838822000000006,0.0039973999999999,0,sub_12
-0.0292572000000001,-0.0031659999999987,0.0046982,-0.0007675999999994,0.0941600000000006,-0.0001446,0,sub_12
-0.0268378000000001,-0.0032311999999987,0.002612,-0.0099071999999994,0.0980432000000006,-0.0042726,0,sub_12
-0.0201572000000001,-0.0036787999999987,0.00159,-0.0177941999999994,0.0989264000000006,-0.0051834,0,sub_12
-0.0150716000000002,-0.0042901999999987,-0.0015069999999999,-0.0248603999999994,0.0946848000000006,-0.0039454,0,sub_12
-0.0107986000000001,-0.0037647999999987,-0.0041209999999999,-0.0289345999999994,0.0934078000000006,-0.0007676,0,sub_12
-0.0096364000000001,-0.0020137999999987,-0.0061525999999999,-0.0282819999999994,0.1012680000000006,0.0043541999999999,0,sub_12
-0.0092536000000001,-0.0007215999999987,-0.0077165999999999,-0.0243923999999994,0.1174254000000006,0.0097015999999999,0,sub_12
-0.0119116000000001,0.0004618000000012,-0.0092585999999999,-0.0196425999999994,0.1321002000000006,0.0120659999999999,0,sub_12
-0.0116018000000001,0.0005314000000012,-0.0094421999999999,-0.0163727999999994,0.1418816000000006,0.0110253999999998,0,sub_12
-0.0098426000000002,-0.0010377999999987,-0.0103949999999999,-0.0189081999999995,0.1397606000000006,0.0078231999999998,0,sub_12
-0.0062472000000002,-0.0043455999999987,-0.0126833999999999,-0.0291845999999995,0.1231840000000006,0.0033035999999998,0,sub_12
