userAcceleration.x,userAcceleration.y,userAcceleration.z,rotationRate.x,rotationRate.y,rotationRate.z,label,subject
-0.0006182000000003,-0.0025767999999986,0.017895,0.0063146000000005,0.0151330000000007,0.0021829999999998,0,sub_9
-0.0012534000000003,-0.0010993999999986,0.0160798,0.0026882000000005,0.0153586000000007,0.0021573999999998,0,sub_9
-0.0013666000000003,-0.0001445999999986,0.0139158,0.0015862000000005,0.0170994000000007,0.0015151999999999,0,sub_9
-0.0014054000000003,0.0003892000000013,0.0124782,0.0041144000000005,0.0198910000000007,0.0013243999999999,0,sub_9
-0.0017664000000003,0.0001780000000013,0.0127752,0.0079238000000005,0.0226790000000007,0.0009289999999999,0,sub_9
-0.0009572000000003,-0.0002037999999986,0.01415,0.0108720000000005,0.0231292000000007,-0.0001106,0,sub_9
0.0006967999999996,-0.0007585999999986,0.0157278,0.0118854000000005,0.0206024000000007,-0.0009462,0,sub_9
0.0017195999999996,-0.0010947999999986,0.0165004,0.0103764000000005,0.0174110000000007,-0.000739,0,sub_9
0.0025765999999996,-0.0014323999999986,0.017833,0.0071624000000005,0.0148640000000007,-0.0003308,0,sub_9
0.0020151999999996,-0.0006673999999986,0.0163182,0.0039474000000005,0.0125282000000007,0.0005043999999999,0,sub_9
-5.00000000036669e-06,4.660000000128927e-05,0.013179,0.0017598000000005,0.0123550000000006,0.0011389999999999,0,sub_9
-0.0030504000000003,0.0005658000000012,0.0091304,0.0025652000000005,0.0132376000000006,0.0015793999999999,0,sub_9
-0.0035822000000003,0.0011558000000012,0.0067182,0.0059424000000005,0.0164556000000006,0.0018211999999999,0,sub_9
-0.0034048000000003,0.0017692000000012,0.0062488,0.0101740000000005,0.0203082000000006,0.0024953999999999,0,sub_9
-0.0015462000000003,0.0012416000000012,0.0075941999999999,0.0129054000000005,0.0228870000000006,0.0033741999999999,0,sub_9
0.0004581999999996,0.0010624000000012,0.0091287999999999,0.0148180000000005,0.0226614000000006,0.0048833999999999,0,sub_9
0.0019621999999996,0.0006544000000012,0.0114579999999999,0.0158724000000005,0.0211612000000006,0.0061745999999998,0,sub_9
0.0015679999999996,-2.57999999986908e-05,0.0132091999999999,0.0162820000000005,0.0181736000000006,0.0070357999999998,0,sub_9
0.0003899999999996,-0.0008959999999986,0.0140061999999999,0.0162218000000005,0.0137300000000007,0.0068367999999998,0,sub_9
-0.0008994000000003,-0.0016311999999986,0.0155714,0.0159548000000005,0.0097174000000007,0.0055675999999998,0,sub_9
-0.0024450000000003,-0.0025025999999986,0.0169962,0.0152678000000005,0.0065612000000007,0.0036533999999998,0,sub_9
-0.0031756000000003,-0.0030371999999986,0.0179676,0.0130900000000005,0.0042616000000007,0.0019413999999998,0,sub_9
-0.0035284000000003,-0.0029543999999986,0.0187066,0.0094206000000005,0.0023934000000007,0.0002183999999999,0,sub_9
-0.0038980000000003,-0.0028277999999986,0.0184044,0.0055798000000005,0.0015580000000007,-0.000662,0,sub_9
-0.0040334000000003,-0.0015285999999986,0.0167198,0.0021678000000005,0.0015716000000007,-0.001113,0,sub_9
-0.0035650000000003,0.0001072000000013,0.0143314,-0.0001791999999994,0.0013676000000007,-0.0013428,0,sub_9
-0.0032170000000003,0.0008290000000013,0.011596,-0.0001885999999994,0.0013954000000006,-0.0017554,0,sub_9
-0.0028528000000003,0.0013114000000013,0.0094598,0.0021508000000005,0.0022654000000006,-0.0017254,0,sub_9
-0.0029468000000003,0.0017404000000013,0.0077103999999999,0.0051354000000005,0.0039862000000006,-0.0019056,0,sub_9
-0.0032906000000003,0.0017248000000013,0.0076691999999999,0.0083236000000005,0.0046368000000006,-0.001015,0,sub_9
-0.0031754000000003,0.0009042000000013,0.0073735999999999,0.0110888000000005,0.0061410000000006,-0.0001284,0,sub_9
-0.0026906000000003,0.0003804000000013,0.0087374,0.0123748000000005,0.0082636000000006,0.0007323999999999,0,sub_9
-0.0033952000000003,-0.0004059999999986,0.0111608,0.0121692000000005,0.0110298000000006,0.0017955999999999,0,sub_9
-0.0035690000000003,-0.0007859999999986,0.0122926,0.0106774000000005,0.0125222000000006,0.0028513999999999,0,sub_9
-0.0025036000000003,-0.0012447999999986,0.0122522,0.0081008000000005,0.0131528000000006,0.0024117999999999,0,sub_9
-0.0011470000000003,-0.0013823999999986,0.0130756,0.0050938000000005,0.0131448000000007,0.0021835999999999,0,sub_9
-0.0001966000000003,-0.0009039999999986,0.011987,0.0027258000000005,0.0131338000000007,0.0021733999999999,0,sub_9
0.0013303999999996,-8.559999999867076e-05,0.0091512,0.0009932000000005,0.0116308000000007,0.0017423999999999,0,sub_9
0.0031979999999996,8.580000000132922e-05,0.0069334,-0.0003097999999994,0.0099166000000007,0.0004601999999999,0,sub_9
0.0048075999999996,7.280000000132921e-05,0.0058806,-0.0011659999999994,0.0084316000000007,-0.0003984,0,sub_9
0.0051967999999996,-0.0001713999999986,0.0052782,-0.0020289999999994,0.0046066000000007,-0.0021086,0,sub_9
0.0061067999999995,-0.0004851999999986,0.0057341999999999,-0.0039703999999994,-0.0015593999999992,-0.0036096,0,sub_9
0.0068673999999995,-0.0001553999999986,0.0068017999999999,-0.0067935999999994,-0.0077743999999992,-0.0048992,0,sub_9
0.0060191999999995,0.0006562000000013,0.0076654,-0.0091939999999994,-0.0133575999999992,-0.0046912,0,sub_9
0.0029905999999995,0.0012006000000013,0.0072959999999999,-0.0107313999999994,-0.0161767999999992,-0.0038396,0,sub_9
2.059999999957374e-05,0.0013886000000013,0.0061609999999999,-0.0109731999999994,-0.0149549999999992,-0.0023432,0,sub_9
-0.0031638000000004,0.0016382000000013,0.0060136,-0.0092763999999994,-0.0099039999999993,-0.001052,0,sub_9
-0.0054698000000003,0.0010910000000013,0.0071914,-0.0066957999999994,-0.0045899999999993,-0.0001862,0,sub_9
-0.0055740000000003,-0.0004437999999986,0.0098995999999999,-0.0043159999999994,0.0024334000000006,-0.0003922,0,sub_9
-0.0043852000000003,-0.0011159999999986,0.0129934,-0.0032211999999994,0.0081838000000006,-0.0008194,0,sub_9
-0.0017076000000003,-0.0013519999999986,0.0151526,-0.0045313999999994,0.0110990000000006,-0.001266,0,sub_9
0.0008939999999996,-0.0013789999999986,0.0160486,-0.0071293999999994,0.0127386000000007,-0.0012926,0,sub_9
0.0028121999999996,-0.0018289999999986,0.0158012,-0.0103657999999994,0.0148066000000007,-0.0013242,0,sub_9
0.0034519999999996,-0.0013145999999986,0.0142396,-0.0131877999999994,0.0141034000000007,-0.0013494,0,sub_9
0.0037055999999996,-0.0013393999999986,0.0112378,-0.0147383999999994,0.0112662000000007,-0.0015766,0,sub_9
0.0028801999999996,-0.0008453999999986,0.010552,-0.0136705999999994,0.0104144000000007,-0.0026364,0,sub_9
0.0015889999999996,-0.0005825999999986,0.0099216,-0.0123923999999994,0.0087106000000006,-0.0039072,0,sub_9
0.0010049999999996,-0.0002341999999986,0.0100002,-0.0111217999999994,0.0061512000000006,-0.0043224,0,sub_9
0.0007041999999996,2.3000000001309364e-05,0.0105544,-0.0105323999999994,0.0050252000000006,-0.0041084,0,sub_9
0.0006547999999996,0.0002092000000013,0.0129221999999999,-0.0112163999999994,0.0056072000000006,-0.0036918,0,sub_9
-0.0005094000000003,0.0005470000000013,0.0136139999999999,-0.0127607999999994,0.0063986000000006,-0.0015722,0,sub_9
-0.0014804000000003,0.0005464000000013,0.0133951999999999,-0.0134419999999994,0.0091052000000007,0.0003371999999999,0,sub_9
-0.0025950000000003,0.0007866000000013,0.0130147999999999,-0.0124075999999994,0.0130866000000007,0.0016159999999999,0,sub_9
-0.0030994000000003,0.0010608000000013,0.0127823999999999,-0.0104719999999994,0.0173376000000007,0.0024785999999998,0,sub_9
-0.0027122000000003,0.0003070000000013,0.0127664,-0.0072475999999994,0.0228650000000007,0.0027077999999998,0,sub_9
-0.0017998000000003,-0.0006031999999986,0.0144422,-0.0044525999999994,0.0273302000000006,0.0025079999999998,0,sub_9
-0.0012144000000003,-0.0005801999999986,0.01667,-0.0030037999999994,0.0279062000000006,0.0027259999999998,0,sub_9
-0.0010088000000003,-0.0006767999999986,0.0179996,-0.0024237999999994,0.0255006000000006,0.0033691999999998,0,sub_9
-0.0008356000000003,-0.0006443999999986,0.0185558,-0.0022705999999994,0.0233086000000006,0.0042225999999999,0,sub_9
-0.0009896000000003,0.0010150000000013,0.0179176,-0.0016991999999994,0.0194098000000006,0.0052947999999999,0,sub_9
0.0004631999999996,0.0012364000000013,0.0171938,-0.0002771999999994,0.0138080000000006,0.0053067999999999,0,sub_9
0.0022141999999996,0.0001234000000013,0.0166114,0.0009820000000005,0.0091162000000006,0.0053215999999999,0,sub_9
0.0032681999999996,-0.0005973999999986,0.0169868,0.0007648000000005,0.0078404000000006,0.0048943999999999,0,sub_9
0.0025655999999996,-0.0022225999999986,0.0153172,-0.0020107999999994,0.0053020000000006,0.0027419999999999,0,sub_9
0.0014419999999996,-0.0041895999999986,0.0134284,-0.0082083999999994,0.0048698000000006,-0.0013604,0,sub_9
6.099999999963361e-05,-0.0045927999999986,0.009395,-0.0171663999999994,0.0072178000000007,-0.0056992,0,sub_9
0.0014331999999996,-0.0024671999999986,0.0052812,-0.0241983999999994,0.0104130000000007,-0.0104528,0,sub_9
0.0084583999999996,0.0018440000000013,0.000468,-0.0267897999999994,0.0054930000000007,-0.0143106,0,sub_9
0.0172617999999996,0.0062634000000013,-0.0003237999999999,-0.0213307999999994,-0.0071455999999992,-0.0129748,0,sub_9
0.0211863999999996,0.0093308000000013,0.0017892,-0.0105733999999994,-0.0253313999999992,-0.0032622,0,sub_9
0.0178269999999996,0.0110246000000013,0.0051364,0.0012048000000005,-0.0473815999999992,0.0128717999999999,0,sub_9
0.0055027999999996,0.0097140000000013,0.00914,0.0117142000000005,-0.0651729999999992,0.0307003999999999,0,sub_9
-0.0121804000000003,0.0028934000000013,0.0119302,0.0212282000000005,-0.0712517999999992,0.0440233999999998,0,sub_9
-0.0266060000000003,-0.0028359999999986,0.0127666,0.0255000000000005,-0.0661957999999992,0.0478951999999998,0,sub_9
-0.0307480000000003,-0.0078219999999986,0.0130496,0.0234512000000004,-0.0551043999999992,0.0397509999999998,0,sub_9
-0.0267186000000003,-0.0111831999999986,0.0160672,0.0176344000000004,-0.0345977999999992,0.0247315999999999,0,sub_9
-0.0173362000000003,-0.0116519999999986,0.016463,0.0052176000000005,-0.0125697999999992,0.0079551999999999,0,sub_9
-0.0075730000000003,-0.0068363999999986,0.0137058,-0.0140611999999994,0.0050212000000007,-0.0054478,0,sub_9
-0.0026300000000003,-0.0019097999999986,0.0091212,-0.0327257999999994,0.0227992000000007,-0.0128648,0,sub_9
-0.0042856000000003,0.0033754000000013,0.0040762,-0.0432927999999994,0.0435104000000007,-0.014888,0,sub_9
-0.0063128000000003,0.0065070000000013,-0.0011671999999999,-0.0429709999999994,0.0579746000000007,-0.0187426,0,sub_9
-0.0050788000000003,0.0067036000000013,-0.0018157999999999,-0.0317987999999994,0.0611260000000007,-0.02678,0,sub_9
-0.0012122000000003,0.0044726000000013,0.0052826,-0.0131901999999994,0.0557352000000007,-0.03625,0,sub_9
0.0051249999999996,0.0006474000000013,0.0179786,0.0040854000000005,0.0390552000000007,-0.0452876,0,sub_9
0.0141689999999996,-0.0026705999999986,0.0320518,0.0137980000000005,0.0053410000000007,-0.050297,0,sub_9
0.0206237999999996,-0.0034947999999986,0.0442452,0.0125136000000005,-0.0379255999999992,-0.0451232,0,sub_9
0.0190605999999996,-0.0026611999999986,0.0478378,0.0013928000000005,-0.0748105999999993,-0.0289166,0,sub_9
0.0094813999999996,-0.0007409999999986,0.040345,-0.0120405999999994,-0.0993489999999992,-0.008042,0,sub_9
-0.0038238000000003,0.0028334000000012,0.0268502,-0.0170391999999994,-0.1075707999999993,0.0120181999999999,0,sub_9
-0.0189950000000003,0.0056606000000012,0.0114938,-0.0108189999999994,-0.0938647999999992,0.0265739999999999,0,sub_9
-0.0270044000000003,0.0043526000000012,0.0035614,0.0027872000000005,-0.0596959999999992,0.0323955999999999,0,sub_9
-0.0293480000000003,0.0025996000000012,0.0020804,0.0192336000000005,-0.0191121999999992,0.0298967999999999,0,sub_9
-0.0230754000000003,-0.0009221999999987,0.0078916,0.0290780000000005,0.0195960000000007,0.0226539999999999,0,sub_9
-0.0118434000000003,-0.0040735999999986,0.0129088,0.0266738000000005,0.0458446000000007,0.0140577999999999,0,sub_9
0.0013963999999996,-0.0062061999999986,0.0177922,0.0143894000000005,0.0578520000000007,0.0056243999999999,0,sub_9
0.0098449999999996,-0.0048321999999986,0.018054,-0.0011453999999994,0.0609138000000007,-0.0006836,0,sub_9
0.0151277999999996,-0.0024651999999986,0.017029,-0.0152031999999994,0.0538822000000007,-0.0054742,0,sub_9
0.0169411999999996,0.0015696000000013,0.0125304,-0.0233325999999994,0.0366030000000007,-0.01021,0,sub_9
0.0155957999999996,0.0074434000000013,0.0039382,-0.0184347999999994,0.0235326000000007,-0.0131512,0,sub_9
0.0117803999999996,0.0112456000000013,-0.0024971999999999,0.0018584000000005,0.0189256000000007,-0.0147138,0,sub_9
0.0056811999999996,0.0157800000000013,-0.0097541999999999,0.0297802000000005,0.0076666000000007,-0.0110872,0,sub_9
0.0044161999999996,0.0186506000000013,-0.0146067999999999,0.0621908000000005,0.0068970000000007,-0.006587,0,sub_9
0.0040285999999996,0.0166580000000013,-0.0138391999999999,0.0978604000000005,0.0233566000000007,0.0021867999999998,0,sub_9
0.0017223999999996,0.0097368000000013,-0.0022805999999999,0.1243694000000005,0.0438928000000007,0.0117459999999998,0,sub_9
-0.0025238000000003,0.0035090000000013,0.0085676,0.1314460000000005,0.0555678000000007,0.0215825999999998,0,sub_9
-0.0076006000000003,-0.0045937999999986,0.0170082,0.1234030000000005,0.0666856000000007,0.0240503999999998,0,sub_9
-0.0140814000000003,-0.0134963999999986,0.025907,0.1059638000000005,0.0718878000000007,0.0221873999999998,0,sub_9
-0.0201920000000003,-0.0189345999999986,0.0371769999999999,0.0770102000000005,0.0735296000000007,0.0149071999999998,0,sub_9
-0.0223870000000003,-0.0215981999999986,0.0472759999999999,0.0361048000000005,0.0713910000000007,0.0043437999999998,0,sub_9
-0.0211242000000003,-0.0229213999999986,0.0536999999999999,-0.0105777999999994,0.0698976000000007,-0.0079444,0,sub_9
-0.0168474000000003,-0.0243137999999986,0.0585545999999999,-0.0568259999999994,0.0698950000000007,-0.0204452,0,sub_9
-0.0127342000000003,-0.0234577999999986,0.0624451999999999,-0.1013901999999994,0.0677438000000007,-0.0299404,0,sub_9
-0.0104132000000003,-0.0206855999999986,0.0612778,-0.1414715999999994,0.0602356000000007,-0.0359942,0,sub_9
-0.0095898000000003,-0.0154543999999986,0.0535187999999999,-0.1728275999999994,0.0501300000000007,-0.0394202,0,sub_9
-0.0088850000000003,-0.0060773999999986,0.0383762,-0.1920089999999994,0.0457222000000007,-0.0397774,0,sub_9
-0.0091936000000003,0.0094662000000013,0.015644,-0.1940851999999994,0.0538062000000007,-0.0353308,0,sub_9
-0.0072986000000003,0.0278386000000013,-0.0140315999999999,-0.1707133999999994,0.0805254000000007,-0.0245348,0,sub_9
-0.0021576000000003,0.0429300000000013,-0.0431421999999999,-0.1181289999999994,0.1169248000000006,-0.0086182,0,sub_9
0.0051187999999996,0.0496698000000012,-0.0616937999999999,-0.0435143999999994,0.1675116000000007,0.0099979999999999,0,sub_9
0.0110179999999996,0.0450874000000012,-0.0654827999999999,0.0414016000000005,0.2285136000000007,0.0258953999999999,0,sub_9
0.0160217999999996,0.0311644000000012,-0.0525395999999999,0.1166646000000005,0.2689594000000007,0.0400727999999999,0,sub_9
0.0182809999999996,0.0120378000000012,-0.0281277999999999,0.1636368000000005,0.2741668000000007,0.0466201999999999,0,sub_9
0.0161439999999996,-0.0054579999999987,-0.0006277999999999,0.1725666000000005,0.2584436000000007,0.0456647999999999,0,sub_9
0.0088787999999996,-0.0187399999999986,0.0219902,0.1500816000000005,0.2264472000000007,0.0389559999999999,0,sub_9
0.0007437999999996,-0.0250379999999986,0.0411242,0.1040566000000005,0.1768586000000007,0.0297551999999999,0,sub_9
-0.0074558000000003,-0.0254093999999986,0.0527356,0.0473826000000005,0.1359856000000007,0.0172339999999999,0,sub_9
-0.0140984000000003,-0.0232881999999986,0.0569057999999999,-0.0109255999999994,0.1117350000000007,0.0051073999999999,0,sub_9
-0.0192814000000003,-0.0190505999999986,0.0556147999999999,-0.0602203999999994,0.1021408000000006,-0.0037704,0,sub_9
-0.0258422000000003,-0.0101833999999986,0.0498415999999999,-0.0988281999999994,0.0980454000000006,-0.0080924,0,sub_9
-0.0310412000000003,0.0026786000000013,0.035219,-0.1314777999999994,0.0943392000000007,-0.008314,0,sub_9
-0.0297518000000003,0.0117018000000013,0.0174036,-0.1499941999999994,0.1035732000000007,-0.0067444,0,sub_9
-0.0223800000000003,0.0148086000000013,0.002953,-0.1284861999999994,0.1450320000000007,-2.260000000006736e-05,0,sub_9
-0.0164622000000003,0.0183924000000013,-0.0046427999999999,-0.0869279999999994,0.1874760000000007,0.0094017999999999,0,sub_9
-0.0031948000000003,0.0177574000000013,-0.0059781999999999,-0.0490651999999994,0.2141666000000007,0.0151867999999999,0,sub_9
0.0120001999999996,0.0120152000000013,-0.0006307999999999,-0.0080133999999994,0.2380770000000007,0.0207839999999999,0,sub_9
0.0249225999999996,0.0025662000000013,0.008155,0.0297930000000005,0.2528340000000006,0.0272249999999999,0,sub_9
0.0306885999999996,-0.0018573999999986,0.015876,0.0390750000000005,0.2308500000000007,0.0290271999999999,0,sub_9
0.0258101999999996,-0.0089071999999986,0.0224742,0.0265230000000005,0.1851132000000007,0.0223751999999999,0,sub_9
0.0209123999999996,-0.0132347999999986,0.0263118,0.0058926000000005,0.1419776000000006,0.0116041999999999,0,sub_9
0.0145389999999996,-0.0170913999999986,0.0300818,-0.0150973999999994,0.1146060000000007,0.0016649999999999,0,sub_9
0.0035281999999996,-0.0123205999999987,0.024375,-0.0354319999999994,0.0938240000000006,-0.0050734,0,sub_9
-0.0070634000000003,-0.0058063999999987,0.0204592,-0.0523469999999994,0.0745206000000006,-0.0115762,0,sub_9
-0.0053664000000003,0.0007850000000012,0.0135622,-0.0561463999999994,0.0807244000000006,-0.0146018,0,sub_9
-0.0053266000000003,0.0035834000000012,0.0043136,-0.0379099999999994,0.1087602000000006,-0.0085282,0,sub_9
-0.0048388000000003,0.0074388000000012,-0.0038201999999999,-0.0066435999999994,0.1414318000000006,-0.000874,0,sub_9
-0.0040138000000003,0.0082632000000013,-0.0005061999999999,0.0301704000000005,0.1734472000000007,0.0061785999999998,0,sub_9
-0.0021502000000003,0.0078310000000013,0.0026396,0.0530474000000005,0.1920820000000007,0.0148601999999998,0,sub_9
0.0036303999999996,0.0059302000000013,0.0038956,0.0639150000000005,0.1983972000000007,0.0245419999999998,0,sub_9
0.0090963999999996,0.0038198000000013,0.007257,0.0702826000000005,0.1974962000000007,0.0312105999999998,0,sub_9
0.0115645999999996,0.0002256000000013,0.011654,0.0661940000000005,0.1928112000000006,0.0341789999999998,0,sub_9
0.0119229999999996,-0.0021783999999986,0.0117848,0.0522386000000005,0.1728362000000006,0.0332525999999998,0,sub_9
0.0097489999999996,-0.0036751999999986,0.0075494,0.0430272000000005,0.1613770000000007,0.0297847999999998,0,sub_9
0.0038089999999996,-0.0030381999999986,0.006542,0.0383148000000005,0.1520404000000006,0.0244227999999998,0,sub_9
-0.0037630000000003,-0.0012021999999987,0.0046902,0.0278220000000005,0.1376140000000006,0.0181721999999998,0,sub_9
-0.0077702000000003,0.0012446000000012,-0.0023569999999999,0.0177110000000005,0.1146580000000006,0.0134307999999999,0,sub_9
-0.0085838000000003,0.0027732000000012,-0.0062515999999999,0.0134148000000005,0.1042494000000007,0.0093547999999999,0,sub_9
-0.0083258000000003,0.0029076000000013,-0.0070743999999999,0.0131822000000005,0.0974428000000007,0.0067979999999999,0,sub_9
-0.0079224000000003,0.0026246000000013,-0.0080175999999999,0.0099260000000005,0.0853092000000007,0.0070043999999998,0,sub_9
-0.0063608000000003,0.0037688000000013,-0.0101703999999999,0.0073368000000005,0.0793510000000007,0.0074213999999998,0,sub_9
-0.0065650000000003,0.0043124000000013,-0.0087603999999999,0.0058174000000005,0.0765746000000006,0.0104053999999998,0,sub_9
-0.0082018000000003,0.0040630000000013,-0.0088173999999999,0.0034022000000005,0.0659124000000006,0.0148887999999998,0,sub_9
-0.0086994000000003,0.0041178000000013,-0.0102713999999999,0.0012062000000005,0.0561032000000007,0.0189453999999998,0,sub_9
-0.0080170000000003,0.0040480000000013,-0.0114737999999999,0.0033256000000005,0.0543854000000006,0.0204579999999999,0,sub_9
-0.0075272000000003,0.0030514000000013,-0.0093497999999999,0.0064936000000005,0.0479792000000007,0.0213427999999999,0,sub_9
-0.0053234000000003,0.0013066000000013,-0.0072899999999999,0.0079364000000005,0.0345602000000006,0.0192335999999999,0,sub_9
-0.0013914000000003,0.0007088000000013,-0.0061253999999999,0.0070512000000005,0.0241372000000006,0.0158223999999999,0,sub_9
0.0009561999999996,8.660000000132733e-05,-0.0029571999999999,0.0021282000000005,0.0177746000000006,0.0128049999999999,0,sub_9
0.0023541999999996,-0.0006453999999986,-0.0020011999999999,-0.0072841999999994,0.0107834000000006,0.0110389999999999,0,sub_9
0.0032969999999995,-0.0013041999999986,-0.0039345999999999,-0.0177671999999994,0.0033682000000006,0.0096933999999999,0,sub_9
0.0023761999999996,-5.599999998692675e-06,-0.0073869999999999,-0.0273783999999994,-0.0019167999999992,0.0079411999999999,0,sub_9
0.0007373999999996,0.0004392000000013,-0.0095737999999999,-0.0363541999999994,-0.0086937999999992,0.0057681999999999,0,sub_9
-0.0010448000000003,0.0006608000000013,-0.0124767999999999,-0.0432067999999994,-0.0182461999999992,0.0031861999999999,0,sub_9
-0.0019258000000003,0.0025346000000013,-0.0155589999999999,-0.0525719999999994,-0.0152271999999992,0.0024931999999999,0,sub_9
-0.0021660000000003,0.0034778000000013,-0.0161209999999999,-0.0454667999999994,-0.0533745999999992,-0.0008092,0,sub_9
-0.0004598000000003,0.0034178000000013,-0.0140257999999999,-0.0453483999999994,-0.0759529999999993,-0.002275,0,sub_9
0.0001667999999996,0.0038770000000012,-0.0129605999999999,-0.0448011999999994,-0.0968335999999993,-0.0024582,0,sub_9
0.0004865999999996,0.0043280000000012,-0.0118843999999999,-0.0425681999999994,-0.1209217999999993,-0.0011298,0,sub_9
-0.0011100000000003,0.0028408000000012,-0.0115849999999999,-0.0337521999999993,-0.1527005999999993,-0.0003864,0,sub_9
-0.0033804000000003,0.0018814000000012,-0.0121047999999999,-0.0424735999999994,-0.1433091999999993,0.0029587999999998,0,sub_9
-0.0032450000000003,0.0007884000000012,-0.0136945999999999,-0.0435883999999993,-0.1537459999999993,0.0031781999999998,0,sub_9
2.659999999961235e-05,0.0003062000000012,-0.0122353999999999,-0.0428193999999994,-0.1737707999999992,0.0019273999999998,0,sub_9
0.0036717999999996,-0.0005885999999986,-0.0095293999999999,-0.0422597999999994,-0.1942159999999992,-0.0006062000000001,0,sub_9
0.0065259999999996,-0.0016303999999986,-0.0055133999999999,-0.0434397999999994,-0.2233841999999993,-0.0046364000000001,0,sub_9
0.0081159999999996,-0.0027367999999987,0.0014982,-0.0444121999999994,-0.2540437999999992,-0.0088768,0,sub_9
0.0059839999999996,-0.0037387999999987,0.0072436,-0.0472759999999994,-0.2797903999999993,-0.0146324,0,sub_9
0.0033601999999996,-0.0050581999999986,0.008807,-0.0535269999999994,-0.3029549999999993,-0.023833,0,sub_9
0.0032131999999996,-0.0046495999999986,0.0082058,-0.0610515999999994,-0.3273821999999993,-0.0358184,0,sub_9
0.0038175999999996,-0.0036545999999986,0.006905,-0.0666549999999994,-0.3543617999999992,-0.0505644,0,sub_9
0.0061367999999996,-0.0020579999999986,0.0012026,-0.0673591999999994,-0.3843369999999992,-0.0663404,0,sub_9
0.0136497999999996,0.0007338000000013,-0.0015783999999999,-0.0648965999999994,-0.4211435999999993,-0.0814446,0,sub_9
