userAcceleration.x,userAcceleration.y,userAcceleration.z,rotationRate.x,rotationRate.y,rotationRate.z,label,subject
0.0114669999999996,0.0171652000000012,-0.003658,-0.0151501999999993,-0.167682999999999,-0.0030213999999999,0,sub_24
0.0138965999999996,0.0096634000000012,-0.0054118,-0.0238551999999993,-0.164006599999999,-0.0095047999999999,0,sub_24
0.0155413999999996,0.0062050000000012,-0.0075236,-0.0255223999999993,-0.156538599999999,-0.0112435999999999,0,sub_24
0.0163587999999996,0.0067748000000012,-0.0082618,-0.0214789999999993,-0.153379999999999,-0.0058863999999999,0,sub_24
0.0191869999999996,0.0021440000000012,-0.0071612,-0.0121597999999993,-0.162811399999999,0.0003886,0,sub_24
0.0204275999999996,0.0005874000000012,-0.0047086,-0.0008889999999993,-0.162035599999999,0.009869,0,sub_24
0.0207043999999996,0.0023536000000012,-0.0009816,0.0074164000000006,-0.152529599999999,0.0231628,0,sub_24
0.0208017999999997,0.0034994000000012,0.0065397999999999,0.0138148000000006,-0.141094199999999,0.035159,0,sub_24
0.0188035999999997,0.0035346000000012,0.0123023999999999,0.0191744000000006,-0.1275071999999991,0.042872,0,sub_24
0.0092257999999997,0.0089498000000012,0.0148787999999999,0.0175806000000006,-0.100448599999999,0.044323,0,sub_24
0.0015937999999997,0.0138610000000012,0.0174591999999999,0.0127928000000006,-0.078677999999999,0.0389208,0,sub_24
-0.0045560000000002,0.0158828000000012,0.0177819999999999,0.0104598000000005,-0.083535199999999,0.0303646,0,sub_24
-0.0124468000000002,0.0183946000000012,0.0155541999999999,0.0047516000000006,-0.086436799999999,0.0151586,0,sub_24
-0.0155600000000002,0.0181072000000012,0.0123303999999999,-0.0017635999999993,-0.082079999999999,-0.0030537999999999,0,sub_24
-0.0124770000000002,0.0196420000000012,0.0090631999999999,-0.0019723999999994,-0.090986399999999,-0.0132999999999999,0,sub_24
-0.0090710000000002,0.0187622000000012,0.0068997999999999,-0.0047539999999994,-0.104775599999999,-0.0256941999999999,0,sub_24
-0.0035406000000002,0.0198104000000012,0.0054569999999999,-0.0074837999999993,-0.106635399999999,-0.0376751999999999,0,sub_24
0.0049121999999997,0.0182640000000011,0.0044273999999999,-0.0068193999999993,-0.107463999999999,-0.0440785999999999,0,sub_24
0.0116319999999996,0.0155654000000011,0.0029761999999999,-0.0063865999999994,-0.107459199999999,-0.0455699999999999,0,sub_24
0.0162809999999996,0.0098888000000012,0.0042573999999999,-0.0116657999999993,-0.099327199999999,-0.0498887999999999,0,sub_24
0.0200011999999996,0.0068708000000012,0.0036685999999999,-0.0118345999999993,-0.087402799999999,-0.0479805999999999,0,sub_24
0.0186347999999996,0.0044962000000012,0.0013583999999999,-0.0115875999999993,-0.076975599999999,-0.0449995999999999,0,sub_24
0.0157729999999996,0.0030276000000012,-0.001227,-0.0113703999999993,-0.073789599999999,-0.0426505999999999,0,sub_24
0.0108279999999996,0.0051890000000012,-0.00263,-0.0105253999999993,-0.075285399999999,-0.0422145999999999,0,sub_24
0.0086009999999996,0.0090058000000012,-0.0049914,-0.0094917999999993,-0.082745799999999,-0.0421969999999999,0,sub_24
0.0066781999999997,0.0133742000000012,-0.0055774,-0.0138183999999993,-0.099335199999999,-0.0456233999999999,0,sub_24
0.0085991999999996,0.0163404000000012,-0.0032158,-0.0228375999999993,-0.116118599999999,-0.0497231999999999,0,sub_24
0.0085053999999996,0.0146112000000012,-0.0028282,-0.0316061999999993,-0.121835199999999,-0.0510579999999999,0,sub_24
0.0108749999999996,0.0123170000000012,-0.002121,-0.0367445999999993,-0.128622799999999,-0.0540749999999999,0,sub_24
0.0100535999999996,0.0104058000000012,-0.0012402,-0.0391465999999993,-0.140333799999999,-0.0536485999999999,0,sub_24
0.0104487999999996,0.0056048000000012,-0.0026018,-0.0370177999999993,-0.140981799999999,-0.0532047999999999,0,sub_24
0.0114355999999996,0.0018332000000012,-0.0035488,-0.0250747999999993,-0.141028399999999,-0.0518379999999999,0,sub_24
0.0146993999999996,0.0028706000000012,-0.0031288,-0.0110429999999993,-0.151944599999999,-0.0512969999999999,0,sub_24
0.0148729999999996,0.0047260000000012,-0.0023616,-0.0015083999999993,-0.160949799999999,-0.0452351999999999,0,sub_24
0.0144423999999996,0.0045140000000012,9.599999999993952e-05,0.0095318000000006,-0.168463799999999,-0.0404463999999999,0,sub_24
0.0114081999999997,0.0067618000000012,0.0015759999999999,0.0186268000000006,-0.1819347999999991,-0.0360911999999999,0,sub_24
0.0084035999999997,0.0091032000000012,-0.0006318,0.0208980000000006,-0.1970761999999991,-0.0343459999999999,0,sub_24
0.0065581999999996,0.0086632000000012,-0.0022758,0.0184858000000006,-0.211555399999999,-0.0343435999999999,0,sub_24
0.0071629999999996,0.0044648000000012,-0.0005824,0.0150394000000006,-0.2187869999999991,-0.0343575999999999,0,sub_24
0.0085569999999996,0.0015110000000012,-0.0011748,0.0122850000000006,-0.214940399999999,-0.0348081999999999,0,sub_24
0.0074351999999996,-0.0005599999999987,-0.0033206,0.0029258000000006,-0.209152399999999,-0.0355207999999999,0,sub_24
0.0021177999999996,-0.0023777999999987,-0.0022868,0.0006278000000006,-0.196368599999999,-0.0336297999999999,0,sub_24
-0.0056076000000002,-0.0038383999999987,-0.000496,0.0041474000000006,-0.172732399999999,-0.0334219999999999,0,sub_24
-0.0132730000000002,-0.0048283999999987,-0.0014582,0.0099526000000006,-0.161254599999999,-0.0316879999999999,0,sub_24
-0.0220672000000002,-0.0029861999999987,-0.0030464,0.0150242000000006,-0.168743999999999,-0.0280127999999999,0,sub_24
-0.0311490000000002,0.0003408000000012,-0.0025606,0.0315708000000006,-0.183954599999999,-0.0214703999999999,0,sub_24
-0.0379760000000002,0.0005252000000011,-0.0043842,0.0429782000000006,-0.204468599999999,-0.0162387999999999,0,sub_24
-0.0405482000000002,0.0027626000000011,-0.0072172,0.0517456000000005,-0.238200799999999,-0.0065221999999999,0,sub_24
-0.0426046000000002,0.0072918000000011,-0.0099598,0.0611370000000005,-0.276405799999999,0.0023504,0,sub_24
-0.0407290000000002,0.0071336000000012,-0.0087868,0.0673488000000006,-0.3105491999999991,0.0105548,0,sub_24
-0.0362560000000002,0.0051486000000011,-0.0061536000000001,0.0701484000000006,-0.342133599999999,0.020431,0,sub_24
-0.0312578000000002,0.0071294000000012,-0.0026788000000001,0.0708642000000006,-0.364117199999999,0.0287846,0,sub_24
-0.0233096000000002,0.0099604000000012,0.0007043999999998,0.0691036000000006,-0.372435999999999,0.0319762,0,sub_24
-0.0151548000000002,0.0111720000000011,0.0045085999999998,0.0660614000000006,-0.381387799999999,0.0347326,0,sub_24
-0.0145072000000002,0.0105792000000011,0.0031667999999999,0.0587940000000006,-0.380101399999999,0.0383012,0,sub_24
-0.0156364000000002,0.0106306000000012,0.0021883999999999,0.0504522000000006,-0.380302599999999,0.0425148,0,sub_24
-0.0182618000000002,0.0077378000000012,0.0002791999999999,0.0462792000000006,-0.400765399999999,0.048492,0,sub_24
-0.0280062000000002,0.0023250000000012,0.0005435999999999,0.0452706000000006,-0.428698999999999,0.0551414,0,sub_24
-0.0333316000000002,-0.0009801999999987,-0.0011038,0.0470524000000006,-0.452383799999999,0.062445,0,sub_24
-0.0306952000000002,0.0015386000000012,-0.0029134,0.0543524000000006,-0.479509599999999,0.0729962,0,sub_24
-0.0249102000000002,0.0025960000000012,-0.003207,0.0642290000000006,-0.501324799999999,0.0852682,0,sub_24
-0.0176040000000002,0.0029804000000012,-0.0014322,0.0709232000000006,-0.5161099999999991,0.100501,0,sub_24
-0.0094578000000002,0.0067106000000012,0.0010949999999999,0.0756410000000006,-0.539001399999999,0.1200036,0,sub_24
-0.0075522000000002,0.0101576000000012,0.0009879999999999,0.0767698000000006,-0.557601999999999,0.1352034,0,sub_24
-0.0061156000000002,0.0125784000000012,0.0029873999999999,0.0751696000000005,-0.575091799999999,0.1414098,0,sub_24
-0.0050678000000002,0.0115622000000012,0.0073435999999999,0.0703990000000006,-0.5921187999999991,0.1411842,0,sub_24
-0.0074926000000002,0.0137618000000012,0.0105417999999999,0.0623502000000006,-0.5880049999999991,0.1317216,0,sub_24
-0.0073974000000002,0.0138288000000012,0.0120679999999999,0.0524636000000005,-0.5698059999999991,0.1179556,0,sub_24
-0.0030400000000002,0.0141572000000012,0.0147149999999999,0.0451044000000005,-0.5563133999999991,0.1067772,0,sub_24
-0.0029396000000002,0.0117052000000012,0.0138549999999999,0.0381718000000006,-0.541124799999999,0.0973088,0,sub_24
-0.0030632000000003,0.0117580000000012,0.0042475999999999,0.0327934000000006,-0.514217199999999,0.0863408,0,sub_24
0.0024919999999996,0.0156294000000012,-0.0031652,0.0326786000000006,-0.4990623999999991,0.0794844,0,sub_24
0.0116937999999996,0.0146174000000012,-0.006741,0.0372466000000006,-0.4888145999999991,0.0703178,0,sub_24
0.0212629999999996,0.0145066000000012,-0.006193,0.0378252000000006,-0.464702399999999,0.0606782,0,sub_24
0.0324303999999996,0.0147736000000012,-0.0029788,0.0329060000000006,-0.4275821999999991,0.0529062,0,sub_24
0.0412019999999997,0.0152234000000012,0.0034121999999999,0.0265646000000006,-0.3753267999999991,0.0442502,0,sub_24
0.0482015999999997,0.0122334000000012,0.0049643999999999,0.0209276000000006,-0.3107087999999991,0.0336608,0,sub_24
0.0508567999999996,0.0135608000000012,0.0039045999999999,0.0135616000000006,-0.2486507999999991,0.025412,0,sub_24
0.0474825999999996,0.0137844000000012,0.0011079999999999,0.0077142000000006,-0.182331999999999,0.0158864,0,sub_24
0.0439095999999996,0.0109212000000012,-0.0035722,0.0112332000000006,-0.118823999999999,0.008567,0,sub_24
0.0417683999999996,0.0080596000000012,-0.0087038,0.0135944000000006,-0.070671599999999,0.0061738,0,sub_24
0.0372347999999996,0.0066224000000012,-0.0081782,0.0146056000000006,-0.034247999999999,0.0076322,0,sub_24
0.0323001999999997,0.0066248000000012,-0.0093924,0.0136774000000006,-0.001654199999999,0.0095096,0,sub_24
0.0286287999999997,0.0052600000000012,-0.0112624,0.0107886000000006,0.0207250000000009,0.0101054,0,sub_24
0.0265169999999997,0.0080556000000012,-0.0099336,0.0010612000000006,0.0378136000000009,0.007669,0,sub_24
0.0283333999999997,0.0112304000000012,-0.0045706,-0.0058805999999993,0.0536306000000009,0.0011952,0,sub_24
0.0307903999999997,0.0105436000000012,-0.0031934,-0.0123479999999993,0.0775524000000009,-0.0078497999999999,0,sub_24
0.0317125999999996,0.0084396000000012,-0.0025092,-0.0193387999999993,0.1253466000000009,-0.0190655999999999,0,sub_24
0.0362751999999996,0.0103194000000012,0.0002583999999999,-0.0286155999999993,0.1831772000000008,-0.0339415999999999,0,sub_24
0.0467463999999996,0.0195264000000012,0.0062909999999999,-0.0414935999999993,0.2412570000000009,-0.0546101999999999,0,sub_24
0.0553949999999996,0.0287492000000011,0.0115879999999999,-0.0602437999999993,0.3166358000000009,-0.0806845999999999,0,sub_24
0.0671805999999996,0.0304436000000011,0.0209819999999999,-0.0863143999999993,0.4182726000000009,-0.1134673999999999,0,sub_24
0.0761809999999997,0.0166426000000011,0.0295681999999999,-0.1200249999999993,0.5331294000000009,-0.1422615999999999,0,sub_24
0.0723355999999997,0.0073584000000011,0.0291553999999999,-0.1509961999999993,0.6538872000000009,-0.1573723999999999,0,sub_24
0.0520237999999996,0.0004094000000012,0.0159851999999999,-0.1699537999999993,0.7532488000000008,-0.1604093999999999,0,sub_24
0.0253635999999996,-0.0011761999999987,-0.0063196,-0.1759317999999993,0.797382800000001,-0.1630713999999999,0,sub_24
-0.0120650000000003,0.0024584000000012,-0.0301974,-0.1601689999999993,0.7898768000000009,-0.1644471999999999,0,sub_24
-0.0369840000000003,0.0181704000000012,-0.0510304,-0.1286627999999993,0.764662000000001,-0.1731677999999999,0,sub_24
-0.0349864000000002,0.0196086000000012,-0.053543,-0.0991649999999993,0.7192166000000009,-0.1825173999999999,0,sub_24
-0.0106728000000002,0.0067730000000012,-0.040994,-0.0743855999999993,0.6775860000000009,-0.1827183999999999,0,sub_24
0.0160261999999997,-0.0095413999999987,-0.022791,-0.0573501999999993,0.6895912000000008,-0.1627459999999999,0,sub_24
0.0432023999999996,-0.0170295999999987,-0.0126344,-0.0559569999999993,0.7467674000000009,-0.1307707999999999,0,sub_24
0.0549581999999996,-0.0145967999999987,-0.0092136,-0.0562985999999993,0.7981954000000009,-0.0983731999999999,0,sub_24
0.0449891999999996,-0.0051555999999987,-0.015238,-0.0489137999999993,0.8460290000000009,-0.0795903999999999,0,sub_24
0.0183933999999996,0.0027794000000012,-0.0275206,-0.0452725999999993,0.9001160000000009,-0.0762239999999999,0,sub_24
-0.0072964000000003,0.0100506000000012,-0.0396594,-0.0451625999999993,0.9197346000000008,-0.0813837999999999,0,sub_24
-0.0270426000000002,0.0128804000000012,-0.0460242,-0.0435083999999993,0.899522800000001,-0.0898921999999999,0,sub_24
-0.0404410000000002,0.0105836000000012,-0.0475326,-0.0422875999999993,0.8786700000000008,-0.0975481999999999,0,sub_24
-0.0456010000000002,0.0067916000000012,-0.0486862,-0.0408293999999993,0.8659014000000009,-0.1024353999999999,0,sub_24
-0.0433332000000002,0.0058536000000012,-0.0503902,-0.0389301999999993,0.8612076000000009,-0.1024159999999999,0,sub_24
-0.0372884000000002,0.0057952000000012,-0.0491192,-0.0391223999999993,0.8739592000000009,-0.0943151999999999,0,sub_24
-0.0292662000000002,0.0063286000000012,-0.0453546,-0.0448709999999993,0.8903300000000011,-0.0807029999999999,0,sub_24
-0.0249272000000002,0.0079590000000012,-0.0399228,-0.0551683999999993,0.896258000000001,-0.0624089999999999,0,sub_24
-0.0267612000000002,0.0095536000000012,-0.0358172,-0.0663287999999993,0.898997600000001,-0.0451853999999999,0,sub_24
-0.0322450000000002,0.0109722000000012,-0.0330162,-0.0716869999999993,0.9004804000000008,-0.0383883999999999,0,sub_24
-0.0362810000000002,0.0110944000000012,-0.0262772,-0.0741877999999993,0.9052106000000008,-0.0469581999999999,0,sub_24
-0.0385396000000002,0.0107560000000012,-0.0172518,-0.0753949999999993,0.9086752000000008,-0.0597903999999999,0,sub_24
-0.0378860000000002,0.0060274000000012,-0.0132356,-0.0794729999999993,0.895511800000001,-0.0677081999999999,0,sub_24
-0.0392892000000002,0.0041902000000012,-0.0121218,-0.0919069999999993,0.877890400000001,-0.0724739999999999,0,sub_24
-0.0422222000000002,0.0064058000000012,-0.0114106,-0.1056653999999993,0.8528072000000009,-0.0748893999999999,0,sub_24
-0.0504392000000002,0.0080826000000012,-0.0187346,-0.1143287999999993,0.8208928000000009,-0.0783289999999999,0,sub_24
-0.0577866000000002,0.0098220000000012,-0.02422,-0.1197405999999993,0.791558600000001,-0.0905085999999999,0,sub_24
-0.0641372000000002,0.0126238000000012,-0.0263856,-0.1221459999999993,0.761170000000001,-0.1080063999999999,0,sub_24
-0.0660430000000002,0.0107196000000012,-0.0224728,-0.1218009999999993,0.728417000000001,-0.1227057999999999,0,sub_24
-0.0594288000000002,0.0083900000000012,-0.0163916,-0.1219699999999993,0.685190200000001,-0.1284221999999999,0,sub_24
-0.0485596000000002,0.0051660000000012,-0.008519,-0.1178565999999993,0.609729000000001,-0.1221025999999999,0,sub_24
-0.0404360000000002,-0.0013219999999987,-0.0030208,-0.1093009999999993,0.535279000000001,-0.1061397999999999,0,sub_24
-0.0297316000000002,-0.0027925999999987,0.0059093999999999,-0.0959255999999993,0.4919056000000009,-0.0869783999999999,0,sub_24
-0.0182406000000002,-0.0007599999999987,0.0114155999999999,-0.0791367999999993,0.4512782000000008,-0.0648041999999999,0,sub_24
-0.0112070000000002,-0.0006501999999987,0.0169891999999999,-0.0649103999999993,0.4159632000000009,-0.0368863999999999,0,sub_24
-0.0105540000000002,2.0400000001227183e-05,0.0205581999999999,-0.0572727999999993,0.3913042000000009,-0.0041143999999999,0,sub_24
-0.0122768000000002,0.0033578000000012,0.0181963999999999,-0.0486381999999993,0.3504522000000009,0.028045,0,sub_24
-0.0201066000000002,0.0045324000000012,0.0134825999999999,-0.0398609999999993,0.2876796000000008,0.0540378,0,sub_24
-0.0216066000000002,0.0069424000000012,0.0110501999999999,-0.0310051999999993,0.2298582000000008,0.0672052,0,sub_24
-0.0221408000000002,0.0085390000000012,0.0097355999999999,-0.0228569999999993,0.1899942000000008,0.0658168,0,sub_24
-0.0098068000000002,0.0075882000000012,0.0146149999999999,-0.0179797999999993,0.1723380000000009,0.054763,0,sub_24
-0.0024162000000002,0.0078790000000012,0.0182205999999999,-0.0219851999999993,0.1738820000000009,0.0451192,0,sub_24
0.0037735999999997,0.0067748000000012,0.0180419999999999,-0.0321295999999993,0.1892842000000009,0.0384058,0,sub_24
-5.6800000000288565e-05,0.0036846000000012,0.0125389999999999,-0.0426903999999993,0.2112748000000008,0.0361684,0,sub_24
-0.0055236000000002,0.0019176000000012,0.0091279999999999,-0.0459293999999993,0.2040382000000008,0.037224,0,sub_24
-0.0226638000000002,0.0023810000000012,-0.0005036,-0.0462685999999993,0.1742202000000008,0.0351242,0,sub_24
-0.0324334000000002,0.0043614000000012,-0.0078834,-0.0444685999999993,0.1399428000000009,0.027489,0,sub_24
-0.0267920000000002,0.0052600000000012,-0.0057212,-0.0342555999999993,0.0826096000000009,0.0240014,0,sub_24
-0.0240976000000002,0.0076508000000012,-0.0026264,-0.0252495999999993,-0.000732799999999,0.0256658,0,sub_24
-0.0245598000000002,0.0106100000000012,-0.0050872,-0.0235395999999993,-0.049519999999999,0.0236034,0,sub_24
-0.0099864000000002,0.0108072000000012,-0.0015698,-0.0206015999999993,-0.064003399999999,0.0200098,0,sub_24
0.0057117999999997,0.0085746000000011,0.0060503999999999,-0.0151721999999993,-0.087681799999999,0.0226428,0,sub_24
0.0063191999999996,0.0080690000000011,0.0056523999999999,-0.0175819999999993,-0.100460799999999,0.0237114,0,sub_24
0.0061177999999996,0.0116042000000012,0.0040325999999999,-0.0219115999999993,-0.075058399999999,0.0153172,0,sub_24
0.0127603999999996,0.0092208000000012,0.0066173999999999,-0.0190247999999993,-0.062659799999999,0.0025036,0,sub_24
0.0065819999999996,0.0108354000000012,0.0077945999999999,-0.0194401999999993,-0.071560199999999,-0.0090237999999999,0,sub_24
-0.0011274000000003,0.0144070000000012,0.0116659999999999,-0.0282905999999993,-0.062728799999999,-0.0253343999999999,0,sub_24
-0.0075268000000002,0.0142078000000012,0.0141229999999999,-0.0350383999999993,-0.062635599999999,-0.0435483999999999,0,sub_24
-0.0092722000000002,0.0066368000000012,0.0157725999999999,-0.0391323999999993,-0.084515399999999,-0.0570157999999999,0,sub_24
-0.0128774000000002,0.0072088000000012,0.0131339999999999,-0.0447199999999993,-0.102145799999999,-0.0662261999999999,0,sub_24
-0.0106020000000002,0.0057532000000012,0.0126643999999999,-0.0428513999999993,-0.1191759999999991,-0.0721801999999999,0,sub_24
-0.0064938000000002,0.0033940000000012,0.0085189999999999,-0.0336043999999993,-0.1496809999999991,-0.0714419999999999,0,sub_24
-0.0024204000000002,0.0012684000000012,0.0050127999999999,-0.0217717999999993,-0.167225399999999,-0.0632179999999999,0,sub_24
0.0046151999999997,0.0004194000000012,0.0031675999999999,-0.0086285999999993,-0.173288799999999,-0.0500849999999999,0,sub_24
0.0113715999999997,0.0017456000000012,0.0033625999999999,0.0059636000000006,-0.182368399999999,-0.0298869999999999,0,sub_24
0.0116771999999997,0.0035696000000012,-0.001212,0.0145716000000006,-0.1899509999999991,-0.0058865999999999,0,sub_24
0.0120227999999997,0.0015864000000012,-0.003389,0.0213450000000006,-0.183870199999999,0.0127424,0,sub_24
0.0181425999999997,0.0030136000000012,-0.0029102,0.0298554000000006,-0.1820127999999991,0.020494,0,sub_24
0.0165769999999997,0.0096120000000012,-0.003643,0.0370442000000006,-0.1901611999999991,0.0273948,0,sub_24
0.0117005999999997,0.0123964000000012,-0.0036558,0.0355964000000006,-0.1835373999999991,0.0239604,0,sub_24
0.0121295999999997,0.0107654000000012,0.0009057999999999,0.0370112000000006,-0.168992799999999,0.0085712,0,sub_24
0.0105713999999996,0.0105300000000012,0.0008143999999999,0.0404768000000006,-0.172565799999999,-0.0065669999999999,0,sub_24
0.0035335999999996,0.0115460000000012,-0.0040546,0.0335376000000006,-0.161628599999999,-0.0183793999999999,0,sub_24
0.0036863999999996,0.0085236000000012,-0.0042134,0.0276942000000006,-0.145576599999999,-0.0314727999999999,0,sub_24
0.0026267999999996,0.0032746000000012,-0.0070312,0.0319712000000006,-0.148130199999999,-0.0359257999999999,0,sub_24
-0.0017456000000003,0.0030496000000012,-0.0117342,0.0360286000000006,-0.148142599999999,-0.0363249999999999,0,sub_24
-0.0052620000000002,0.0082492000000012,-0.0120332,0.0401302000000006,-0.138779199999999,-0.0371637999999999,0,sub_24
-0.0037094000000002,0.0115816000000012,-0.0098078,0.0435328000000006,-0.1419851999999991,-0.0375637999999999,0,sub_24
-0.0034152000000002,0.0092134000000012,-0.0088188,0.0526378000000006,-0.1535391999999991,-0.0332129999999999,0,sub_24
-0.0012172000000002,0.0081972000000012,-0.0075284,0.0604914000000006,-0.159333799999999,-0.0295191999999999,0,sub_24
0.0005791999999997,0.0083462000000012,-0.0072092,0.0681306000000006,-0.1630063999999991,-0.0234789999999999,0,sub_24
0.0031319999999997,0.0021116000000012,-0.0083504,0.0762150000000006,-0.1607225999999991,-0.0155201999999999,0,sub_24
0.0011255999999997,-0.0055845999999987,-0.00711,0.0917618000000005,-0.1557113999999991,-0.0034537999999999,0,sub_24
-0.0007342000000002,-0.0011531999999987,-0.0085928,0.1000960000000006,-0.1476665999999991,0.0021486,0,sub_24
-0.0034086000000002,0.0034972000000012,-0.0089008,0.1073624000000006,-0.143862999999999,0.0036896,0,sub_24
-0.0057574000000002,0.0054816000000012,-0.0103658,0.1128976000000005,-0.147077399999999,0.0035182,0,sub_24
-0.0060430000000002,0.0092510000000012,-0.0117198,0.1152352000000006,-0.151126799999999,0.0018298,0,sub_24
-0.0033470000000002,0.0138750000000012,-0.0137,0.1131150000000006,-0.153017999999999,-0.0028833999999999,0,sub_24
0.0012855999999997,0.0117100000000012,-0.0115006,0.1097482000000006,-0.1455379999999991,-0.0056937999999999,0,sub_24
0.0081779999999997,0.0092904000000012,-0.009978,0.1027836000000006,-0.129106199999999,-0.0061899999999999,0,sub_24
0.0132199999999997,0.0086410000000012,-0.0074554,0.0962198000000006,-0.116518399999999,-0.0047553999999998,0,sub_24
0.0113355999999997,0.0068636000000012,-0.0065326,0.0894522000000006,-0.103072599999999,-0.0046049999999999,0,sub_24
0.0107245999999997,0.0060638000000012,-0.0054164,0.0861578000000005,-0.079612599999999,-0.0076479999999999,0,sub_24
0.0104781999999997,0.0062724000000012,-0.0048216,0.0875326000000005,-0.061920599999999,-0.0108645999999999,0,sub_24
0.0106853999999997,0.0081836000000012,-0.0014168,0.0897088000000005,-0.054250999999999,-0.0125673999999999,0,sub_24
0.0078601999999997,0.0099888000000012,0.0011355999999999,0.0868212000000005,-0.0346291999999991,-0.0151753999999999,0,sub_24
0.0079631999999997,0.0129150000000012,0.0026883999999999,0.0813996000000006,-0.011154999999999,-0.0199425999999998,0,sub_24
0.0052385999999997,0.0151184000000012,0.0044993999999999,0.0720882000000006,0.0018914000000009,-0.0242965999999998,0,sub_24
-0.0025676000000002,0.0167596000000012,0.0039779999999999,0.0576366000000006,0.0077238000000009,-0.0316689999999998,0,sub_24
-0.0164996000000002,0.0161268000000012,0.0020257999999999,0.0417318000000006,0.0165676000000009,-0.0450389999999999,0,sub_24
-0.0235974000000002,0.0163954000000012,0.0037321999999999,0.0292714000000006,0.0283974000000009,-0.0622355999999999,0,sub_24
-0.0255996000000002,0.0150080000000012,0.0052295999999999,0.0218530000000006,0.0261270000000009,-0.0757515999999999,0,sub_24
-0.0280496000000002,0.0117076000000012,0.0031717999999999,0.0160832000000006,0.0155228000000009,-0.0845447999999999,0,sub_24
-0.0261262000000002,0.0073388000000012,0.0015769999999999,0.0141868000000006,0.0172418000000008,-0.0881991999999999,0,sub_24
-0.0182696000000002,0.0028302000000012,0.0010363999999999,0.0180152000000006,0.0189086000000008,-0.0836939999999999,0,sub_24
