userAcceleration.x,userAcceleration.y,userAcceleration.z,rotationRate.x,rotationRate.y,rotationRate.z,label,subject
-0.0118934000000001,0.0036428000000011,0.0563679999999999,0.0061332000000004,-0.0019131999999991,-0.0014063999999999,0,sub_10
-0.0119586000000001,0.0044072000000011,0.0567065999999999,0.0038708000000004,0.0034434000000008,-0.0035995999999999,0,sub_10
-0.0109278000000001,0.0046160000000011,0.0564361999999999,0.0015978000000004,0.0079418000000008,-0.0042961999999999,0,sub_10
-0.0096022000000001,0.0052354000000011,0.0569087999999999,0.0001628000000004,0.0105138000000007,-0.0034889999999999,0,sub_10
-0.0099154000000001,0.0055704000000011,0.0567387999999999,-0.0004787999999995,0.0107184000000007,-0.0015739999999999,0,sub_10
-0.0103370000000001,0.0048922000000011,0.0561945999999999,-0.0007013999999995,0.0096416000000007,0.0007728,0,sub_10
-0.0108026000000001,0.0039910000000011,0.0555588,-5.999999999953912e-05,0.0104810000000007,0.0026958,0,sub_10
-0.0112624000000001,0.0033222000000011,0.0558918,0.0005920000000004,0.0128152000000007,0.0037624,0,sub_10
-0.0116228000000002,0.0041508000000012,0.0556368,0.0006106000000004,0.0151576000000008,0.003329,0,sub_10
-0.0111402000000002,0.0048346000000012,0.0560796,0.0006134000000004,0.0151602000000008,0.002688,0,sub_10
-0.0107036000000001,0.0056122000000012,0.0564908,0.0010276000000004,0.0111158000000008,0.0014142,0,sub_10
-0.0101116000000001,0.0057946000000012,0.0565856,0.0029250000000004,0.0045104000000008,-5.959999999995864e-05,0,sub_10
-0.0096018000000001,0.0056008000000012,0.055867,0.0045852000000004,-0.0018429999999991,-0.0017595999999999,0,sub_10
-0.0097606000000001,0.0046656000000012,0.0557014,0.0064608000000004,-0.0071345999999991,-0.0028183999999999,0,sub_10
-0.0095280000000001,0.0039536000000012,0.0557716,0.0081268000000004,-0.0109365999999991,-0.0032397999999999,0,sub_10
-0.0097000000000002,0.0040874000000012,0.0557148,0.0089432000000004,-0.0128223999999991,-0.0026013999999999,0,sub_10
-0.0099334000000002,0.0040186000000012,0.0561716,0.0099720000000004,-0.0140731999999991,-0.0011075999999999,0,sub_10
-0.0100350000000002,0.0045092000000012,0.056339,0.0114502000000004,-0.0162139999999991,0.0001874,0,sub_10
-0.0101876000000002,0.0049714000000011,0.0562374,0.0127132000000004,-0.0192045999999991,0.0010546,0,sub_10
-0.0107008000000002,0.0048062000000011,0.0559072,0.0133370000000004,-0.0221919999999991,0.0017038,0,sub_10
-0.0110590000000002,0.0039380000000011,0.0562696,0.0134672000000004,-0.0239947999999991,0.001922,0,sub_10
-0.0113020000000002,0.0031254000000011,0.0559744,0.0125324000000004,-0.0257921999999991,0.0017056,0,sub_10
-0.0122996000000002,0.0029312000000011,0.0564564,0.0118140000000004,-0.0275877999999991,0.0008498,0,sub_10
-0.0129840000000001,0.0027260000000012,0.0567906,0.0106784000000004,-0.0274633999999991,-0.0002251999999999,0,sub_10
-0.0127204000000001,0.0031752000000012,0.0575112,0.0089132000000004,-0.0249933999999991,-0.0013075999999999,0,sub_10
-0.0129410000000001,0.0035328000000012,0.05737,0.0070206000000004,-0.0198689999999991,-0.0023955999999999,0,sub_10
-0.0130706000000001,0.0038706000000012,0.0574968,0.0036478000000004,-0.0119689999999991,-0.0037111999999999,0,sub_10
-0.0120834000000001,0.0039972000000012,0.0575436,-0.0009993999999995,-0.0023617999999991,-0.0046105999999999,0,sub_10
-0.0102290000000002,0.0046190000000012,0.0569218,-0.0053139999999995,0.0054406000000008,-0.0046443999999999,0,sub_10
-0.0091788000000002,0.0051802000000012,0.0557848,-0.0081425999999995,0.0115334000000008,-0.0046657999999999,0,sub_10
-0.0069616000000002,0.0062792000000012,0.0555146,-0.0088555999999995,0.0142074000000008,-0.0040269999999999,0,sub_10
-0.0055410000000002,0.0070664000000012,0.0550846,-0.0087429999999995,0.0123976000000008,-0.0016675999999999,0,sub_10
-0.0045152000000002,0.0074132000000012,0.0554212,-0.0071673999999995,0.0056746000000008,0.002631,0,sub_10
-0.0043900000000002,0.0069678000000012,0.0564872,-0.0033917999999995,-0.0043701999999991,0.0071566,0,sub_10
-0.0056214000000002,0.0059018000000012,0.0566776,0.0012324000000004,-0.0161197999999991,0.0110496,0,sub_10
-0.0079520000000001,0.0053086000000012,0.0565392,0.0039564000000004,-0.0248739999999991,0.0134298,0,sub_10
-0.0086994000000001,0.0050672000000012,0.0572638,0.0079304000000004,-0.0286533999999991,0.013897,0,sub_10
-0.0104132000000001,0.0044798000000012,0.0574032,0.0100126000000004,-0.0279443999999991,0.0124226,0,sub_10
-0.0118918000000001,0.0038850000000012,0.0572368,0.0089048000000004,-0.0250927999999991,0.0107094,0,sub_10
-0.0122902000000001,0.0037106000000012,0.0579696,0.0063140000000004,-0.0201045999999991,0.0087696,0,sub_10
-0.0122384000000001,0.0029752000000012,0.0577894,0.0035090000000004,-0.0153287999999991,0.0068284,0,sub_10
-0.0133224000000001,0.0029436000000012,0.0571482,0.0007610000000004,-0.0121131999999991,0.0042414,0,sub_10
-0.0134558000000001,0.0031144000000012,0.0567858,-0.0011381999999995,-0.0095411999999991,0.0020882,0,sub_10
-0.0136488000000001,0.0033182000000012,0.0568434,-0.0026029999999995,-0.0050541999999991,0.0001496,0,sub_10
-0.0127298000000001,0.0040450000000012,0.0569007999999999,-0.0053489999999995,-0.0001389999999991,-0.0011577999999999,0,sub_10
-0.0121950000000001,0.0045044000000012,0.0568855999999999,-0.0070781999999994,0.0039508000000008,-0.0020253999999999,0,sub_10
-0.0112610000000002,0.0044062000000011,0.0568321999999999,-0.0088091999999995,0.0080390000000008,-0.0024657999999999,0,sub_10
-0.0098996000000002,0.0045788000000011,0.0565283999999999,-0.0096925999999995,0.0114822000000008,-0.0022583999999999,0,sub_10
-0.0082624000000002,0.0050936000000011,0.0561524,-0.0105893999999995,0.0123672000000008,-0.0016205999999999,0,sub_10
-0.0078768000000002,0.0051794000000011,0.0559492,-0.0100039999999995,0.0111146000000007,-0.0005423999999999,0,sub_10
-0.0076420000000002,0.0052364000000011,0.05577,-0.0087409999999995,0.0085484000000007,0.0007516,0,sub_10
-0.0080170000000002,0.0053360000000011,0.055798,-0.0074847999999995,0.0049152000000007,0.0024742,0,sub_10
-0.0080030000000002,0.0050582000000012,0.055583,-0.0058477999999995,0.0011290000000007,0.0029212,0,sub_10
-0.0083164000000002,0.0044768000000011,0.055417,-0.0042041999999995,-0.0015901999999992,0.0029394,0,sub_10
-0.0095228000000002,0.0037024000000011,0.0553002,-0.0027721999999995,-0.0036703999999991,0.003169,0,sub_10
-0.0097034000000002,0.0039414000000011,0.055962,-0.0024031999999995,-0.0061679999999991,0.00211,0,sub_10
-0.0095274000000002,0.0037618000000011,0.0557874,-0.0039477999999995,-0.0082283999999991,-3.119999999999911e-05,0,sub_10
-0.0095930000000001,0.0033538000000011,0.0558564,-0.0077827999999995,-0.0094829999999991,-0.0026201999999999,0,sub_10
-0.0090834000000001,0.0035862000000011,0.055946,-0.0094705999999995,-0.0090355999999991,-0.0064781999999999,0,sub_10
-0.0075902000000001,0.0043484000000011,0.055785,-0.0120175999999995,-0.0092267999999991,-0.0097003999999999,0,sub_10
-0.0067678000000001,0.0045540000000012,0.0553424,-0.0152579999999995,-0.0091539999999991,-0.0099293999999999,0,sub_10
-0.0062684000000001,0.0049796000000012,0.0552802,-0.0170113999999995,-0.0086681999999991,-0.0082255999999999,0,sub_10
-0.0068072000000001,0.0057510000000012,0.0556554,-0.0172711999999995,-0.0069141999999991,-0.0052309999999999,0,sub_10
-0.0080746000000001,0.0057546000000012,0.0557078,-0.0183855999999995,-0.0049457999999991,-0.0018153999999999,0,sub_10
-0.0087012000000001,0.0058802000000011,0.0553465999999999,-0.0196911999999995,0.0006502000000008,0.0003122,0,sub_10
-0.0093672000000001,0.0057414000000011,0.0551568,-0.0205109999999995,0.0089588000000008,0.0011506,0,sub_10
-0.0097876000000001,0.0065410000000011,0.0551076,-0.0219719999999995,0.0168446000000008,0.0017712,0,sub_10
-0.0093080000000002,0.0062158000000011,0.0541687999999999,-0.0230187999999995,0.0221712000000008,0.0026116,0,sub_10
-0.0087246000000002,0.0061710000000011,0.0536386,-0.0228033999999995,0.0238696000000008,0.0038928,0,sub_10
-0.0083794000000002,0.0061426000000012,0.0540636,-0.0211315999999995,0.0222154000000008,0.0041132,0,sub_10
-0.0079754000000002,0.0063108000000012,0.0546702,-0.0194683999999995,0.0180072000000008,0.0036956,0,sub_10
-0.0080670000000002,0.0055486000000012,0.055093,-0.0180165999999995,0.0138014000000008,0.0028492,0,sub_10
-0.0087004000000002,0.0060678000000012,0.055223,-0.0161275999999995,0.0108768000000008,0.000936,0,sub_10
-0.0083716000000002,0.0063152000000012,0.0553818,-0.0163549999999995,0.0126434000000008,-0.0001431999999999,0,sub_10
-0.0082820000000002,0.0061214000000011,0.055228,-0.0178265999999995,0.0177610000000008,5.3600000000020907e-05,0,sub_10
-0.0083190000000001,0.0058910000000011,0.0552882,-0.0195143999999995,0.0228770000000008,0.0008898,0,sub_10
-0.0080048000000001,0.0063282000000011,0.054493,-0.0197133999999995,0.0262858000000008,0.0010978,0,sub_10
-0.0074550000000001,0.0065014000000011,0.0546618,-0.0209829999999995,0.0290582000000008,0.0015128,0,sub_10
-0.0076450000000001,0.0065356000000011,0.054703,-0.0216125999999995,0.0307674000000008,0.0008652,0,sub_10
-0.0088444000000001,0.0060886000000011,0.0538552,-0.0211847999999995,0.0301302000000008,1.4400000000040943e-05,0,sub_10
-0.0096234000000002,0.0057560000000011,0.053393,-0.0199065999999995,0.0280020000000008,-0.0016829999999999,0,sub_10
-0.0093986000000002,0.0051742000000011,0.053657,-0.0192673999999995,0.0258768000000008,-0.0035985999999999,0,sub_10
-0.0096802000000001,0.0039214000000012,0.053953,-0.0186301999999995,0.0245988000000007,-0.0042333999999999,0,sub_10
-0.0112162000000001,0.0032166000000012,0.0542044,-0.0175699999999995,0.0226794000000007,-0.0046507999999999,0,sub_10
-0.0121428000000001,0.0031864000000012,0.0551204,-0.0162917999999995,0.0209756000000007,-0.0059215999999999,0,sub_10
-0.0122126000000001,0.0032244000000012,0.0542778,-0.0167001999999995,0.0233274000000007,-0.0076365999999999,0,sub_10
-0.0116302000000001,0.0035890000000012,0.0532694,-0.0175211999999994,0.0297254000000007,-0.0085051999999999,0,sub_10
-0.0092212000000002,0.0064336000000012,0.0516824,-0.0166513999999995,0.0327076000000008,-0.0091439999999999,0,sub_10
-0.0056524000000002,0.0097666000000012,0.0498304,-0.0147589999999995,0.0292810000000008,-0.0063489999999999,0,sub_10
-0.0022730000000002,0.0120726000000012,0.0487528,-0.0103479999999995,0.0211396000000008,0.0011698,0,sub_10
-0.0033078000000002,0.0115100000000011,0.0491222,0.0010666000000004,0.0084840000000008,0.0125888,0,sub_10
-0.0072130000000001,0.0098342000000011,0.0506546,0.0171582000000004,-0.0080229999999991,0.0240456,0,sub_10
-0.0127766000000001,0.0052142000000011,0.0531936,0.0300818000000004,-0.0191845999999991,0.0335506,0,sub_10
-0.0174310000000001,0.0002922000000011,0.057223,0.0371098000000004,-0.0181601999999991,0.0376576,0,sub_10
-0.0202780000000001,-0.0033015999999988,0.0599406,0.0352536000000004,-0.0070619999999991,0.0344258,0,sub_10
-0.0194894000000001,-0.0044963999999987,0.062258,0.0215186000000004,0.0122040000000008,0.023623,0,sub_10
-0.0156370000000002,-0.0044551999999987,0.0621224,-0.0002517999999995,0.0364344000000008,0.0078346,0,sub_10
-0.0102632000000002,-0.0006937999999987,0.059462,-0.0231045999999995,0.0547130000000008,-0.0105173999999999,0,sub_10
-0.0051532000000002,0.0050756000000012,0.0544976,-0.0379431999999995,0.0531452000000008,-0.0277197999999999,0,sub_10
-0.0001154000000002,0.0107970000000012,0.0499348,-0.0398705999999995,0.0359484000000008,-0.0371207999999999,0,sub_10
0.0024297999999997,0.0146506000000012,0.0471446,-0.0284455999999995,0.0103486000000008,-0.0346671999999999,0,sub_10
0.0016757999999997,0.0164722000000012,0.0462736,-0.0068849999999995,-0.0208895999999991,-0.0203759999999999,0,sub_10
-0.0049382000000002,0.0125012000000012,0.0482704,0.0174400000000004,-0.0474773999999991,0.0007652,0,sub_10
-0.0125612000000002,0.0053536000000012,0.0522258,0.0331144000000004,-0.0510301999999991,0.0230982,0,sub_10
-0.0212232000000002,-0.0025585999999987,0.057169,0.0390888000000004,-0.0349237999999991,0.0393562,0,sub_10
-0.0266368000000002,-0.0075747999999987,0.0589175999999999,0.0349838000000004,-0.0100179999999991,0.0442056,0,sub_10
-0.0273656000000002,-0.0097965999999987,0.0593805999999999,0.0164576000000004,0.0211710000000008,0.0354868,0,sub_10
-0.0201414000000002,-0.0055473999999987,0.0583679999999999,-0.0079911999999995,0.0541244000000007,0.0168966,0,sub_10
-0.0119224000000002,0.0010076000000012,0.0550818,-0.0280175999999995,0.0717318000000007,-0.0039929999999999,0,sub_10
-0.0047048000000002,0.0071084000000012,0.0503724,-0.0388013999999995,0.0596808000000007,-0.0220025999999999,0,sub_10
0.0012607999999997,0.0119842000000011,0.0469304,-0.0365617999999995,0.0245642000000007,-0.0332649999999999,0,sub_10
0.0024671999999997,0.0149296000000011,0.0465314,-0.0186235999999995,-0.0204499999999992,-0.0339365999999999,0,sub_10
-0.0017052000000002,0.0133702000000011,0.0473158,0.0093928000000004,-0.0651767999999991,-0.0249269999999999,0,sub_10
-0.0075244000000002,0.0094624000000011,0.049952,0.0340556000000004,-0.0930741999999991,-0.0125439999999999,0,sub_10
-0.0134332000000002,0.0048516000000011,0.0526278,0.0439482000000004,-0.0861831999999992,-0.0024453999999999,0,sub_10
-0.0174114000000002,0.0022856000000012,0.0551564,0.0403202000000004,-0.0542969999999991,0.0023994,0,sub_10
-0.0189786000000002,0.0005196000000011,0.0554554,0.0277910000000004,-0.0144741999999991,0.001617,0,sub_10
-0.0175342000000002,0.0003646000000011,0.0547458,0.0066322000000004,0.0203476000000007,-0.0034891999999999,0,sub_10
-0.0141908000000002,0.0014830000000011,0.0525942,-0.0094795999999995,0.0378976000000007,-0.0093925999999999,0,sub_10
-0.0096550000000002,0.0041648000000011,0.0509462,-0.0126887999999995,0.0315350000000007,-0.0138933999999999,0,sub_10
-0.0079202000000002,0.0042694000000011,0.048981,-0.0077865999999995,0.0090574000000007,-0.0148925999999999,0,sub_10
-0.0077330000000002,0.0031692000000012,0.0493592,0.0026240000000004,-0.0204771999999991,-0.0141349999999999,0,sub_10
-0.0089598000000002,0.0018612000000012,0.0504786,0.0173048000000004,-0.0483265999999991,-0.0122815999999999,0,sub_10
-0.0120620000000002,0.0006630000000012,0.0534456,0.0271376000000004,-0.0637983999999991,-0.0113325999999999,0,sub_10
-0.0138070000000002,-0.0005375999999987,0.0559472,0.0283104000000004,-0.0613363999999991,-0.0121759999999999,0,sub_10
-0.0143984000000002,-0.0009303999999987,0.0583846,0.0205164000000004,-0.0423335999999991,-0.0156731999999999,0,sub_10
-0.0126644000000002,-0.0004641999999987,0.0578126,0.0029598000000004,-0.0115785999999991,-0.0192535999999999,0,sub_10
-0.0096638000000002,0.0008474000000011,0.0555044,-0.0180019999999995,0.0221668000000008,-0.0217933999999999,0,sub_10
-0.0061512000000002,0.0023160000000011,0.0520146,-0.0351777999999995,0.0452404000000008,-0.0227975999999999,0,sub_10
-0.0043252000000002,0.0033192000000012,0.0482626,-0.0442923999999995,0.0505098000000007,-0.0222545999999999,0,sub_10
-0.0021440000000001,0.0054908000000012,0.0450766,-0.0432465999999995,0.0384826000000008,-0.0207637999999999,0,sub_10
-0.0024022000000001,0.0081572000000012,0.043064,-0.0316001999999995,0.0121402000000008,-0.0183259999999999,0,sub_10
-0.0041972000000001,0.0094112000000012,0.0451306,-0.0125251999999995,-0.0223267999999991,-0.0151849999999998,0,sub_10
-0.0060272000000001,0.0097250000000012,0.0476856,0.0097486000000004,-0.0557457999999991,-0.0105273999999999,0,sub_10
-0.0078546000000001,0.0085184000000012,0.0501334,0.0290236000000004,-0.0805551999999991,-0.0035243999999999,0,sub_10
-0.0108778000000001,0.0052556000000012,0.0520344,0.0404384000000004,-0.0938473999999991,0.0072546,0,sub_10
-0.0137532000000001,0.0008106000000012,0.0545004,0.0406478000000004,-0.0879801999999991,0.018764,0,sub_10
-0.0165922000000001,-0.0032053999999987,0.0536756,0.0319952000000004,-0.0616217999999991,0.028476,0,sub_10
-0.0171902000000001,-0.0063525999999987,0.0533338,0.0159482000000004,-0.0235007999999991,0.0334212,0,sub_10
-0.0171132000000001,-0.0069311999999987,0.0545246,-0.0034781999999995,0.0152996000000008,0.0312916,0,sub_10
-0.0164854000000001,-0.0057515999999987,0.0562556,-0.0199289999999995,0.0441060000000008,0.0217182,0,sub_10
-0.0138726000000001,-0.0017705999999987,0.0562512,-0.0277317999999995,0.0497326000000008,0.0067014,0,sub_10
-0.0106992000000001,0.0026820000000012,0.054378,-0.0277385999999995,0.0331750000000008,-0.0084461999999999,0,sub_10
-0.0089218000000001,0.0063726000000012,0.052089,-0.0230951999999995,0.0108324000000008,-0.0194945999999999,0,sub_10
-0.0079906000000001,0.0095208000000012,0.0512908,-0.0148265999999995,-0.0083923999999991,-0.0226181999999999,0,sub_10
-0.0074066000000001,0.0102578000000012,0.0512678,-0.0065675999999995,-0.0223207999999991,-0.0182711999999999,0,sub_10
-0.0090816000000001,0.0078388000000012,0.0520456,-0.0016919999999995,-0.0251753999999992,-0.0096891999999999,0,sub_10
-0.0118104000000001,0.0039198000000012,0.0535052,-0.0003869999999995,-0.0150229999999991,-0.0007213999999999,0,sub_10
-0.0141776000000001,0.0005154000000012,0.0545194,-0.0011821999999995,0.0013206000000007,0.0069418,0,sub_10
-0.0156958000000001,-0.0030183999999987,0.053928,-0.0056025999999995,0.0202758000000007,0.0124414,0,sub_10
-0.0158910000000002,-0.0042445999999987,0.0525128,-0.0132015999999995,0.0415960000000007,0.015352,0,sub_10
-0.0146590000000002,-0.0030209999999987,0.051491,-0.0197489999999995,0.0582304000000007,0.0169942,0,sub_10
-0.0125204000000002,-7.15999999987435e-05,0.051504,-0.0227425999999995,0.0603828000000007,0.0174158,0,sub_10
-0.0118760000000001,0.0023942000000012,0.0521756,-0.0223739999999995,0.0488964000000007,0.0157418,0,sub_10
-0.0116328000000001,0.0042578000000011,0.0526246,-0.0183981999999995,0.0303768000000007,0.0115382,0,sub_10
-0.0121866000000001,0.0051688000000011,0.0542316,-0.0118569999999995,0.0120648000000008,0.0064978,0,sub_10
-0.0127070000000001,0.0044012000000011,0.0556894,-0.0069921999999995,0.0020618000000008,0.0029304,0,sub_10
-0.0129282000000001,0.0034358000000011,0.0572282,-0.0069691999999995,0.0056898000000008,0.0014304,0,sub_10
-0.0125034000000002,0.0035292000000011,0.057751,-0.0101207999999995,0.0178400000000008,0.0026748,0,sub_10
-0.0127910000000002,0.0052420000000011,0.0573044,-0.0139125999999995,0.0314778000000007,0.0054084,0,sub_10
-0.0129254000000002,0.0064608000000011,0.054336,-0.0149493999999995,0.0413036000000007,0.0077874,0,sub_10
-0.0125644000000002,0.0072164000000012,0.051587,-0.0119627999999995,0.0425998000000007,0.0084964,0,sub_10
-0.0116788000000002,0.0069826000000012,0.0494678,-0.0047479999999995,0.0336606000000007,0.0077524,0,sub_10
-0.0108822000000001,0.0046520000000012,0.0493716,0.0047850000000004,0.0176850000000007,0.0063928,0,sub_10
-0.0087556000000001,0.0014918000000012,0.0495638,0.0119786000000004,0.0032098000000007,0.0048012,0,sub_10
-0.0080580000000001,0.0002334000000012,0.0505344,0.0149274000000004,-0.0065959999999991,0.0035526,0,sub_10
-0.0078100000000001,0.0004506000000012,0.0517004,0.0127860000000004,-0.0097783999999991,0.0020462,0,sub_10
-0.0082176000000001,0.0013684000000012,0.0532684,0.0068354000000004,-0.0061287999999991,0.0002908,0,sub_10
-0.0084028000000001,0.0027232000000012,0.0528196,3.280000000045851e-05,0.0008148000000008,-0.0014389999999999,0,sub_10
-0.0100152000000001,0.0044538000000012,0.0532572,-0.0046579999999995,0.0039118000000008,-0.0020807999999999,0,sub_10
-0.0104126000000001,0.0041944000000012,0.0530848,-0.0065855999999995,0.0059286000000008,-0.0014201999999999,0,sub_10
-0.0105100000000001,0.0029990000000012,0.0524132,-0.0040553999999995,0.0038776000000008,0.000345,0,sub_10
-0.0113358000000002,0.0010882000000012,0.0518684,0.0029346000000004,-0.0030885999999991,0.0019342,0,sub_10
-0.0125926000000001,0.0008082000000012,0.051457,0.0118464000000004,-0.0144109999999991,0.0017972,0,sub_10
-0.0128086000000001,0.0003288000000012,0.0510398,0.0196970000000004,-0.0265731999999991,-0.0004825999999999,0,sub_10
-0.0125010000000001,0.0002912000000012,0.0526774,0.0247768000000004,-0.0389353999999992,-0.0036359999999999,0,sub_10
-0.0134462000000001,0.0005712000000012,0.0542012,0.0285898000000004,-0.0483103999999992,-0.0068019999999999,0,sub_10
-0.0126566000000001,0.0015030000000012,0.054019,0.0294456000000004,-0.0522973999999991,-0.0086971999999999,0,sub_10
-0.0110554000000001,0.0020352000000012,0.0543756,0.0252168000000004,-0.0456239999999992,-0.0080777999999999,0,sub_10
-0.0095236000000002,0.0024188000000012,0.0548028,0.0188764000000004,-0.0319211999999992,-0.0053455999999999,0,sub_10
-0.0096442000000002,0.0030180000000011,0.053873,0.0129568000000004,-0.0194979999999991,-0.0026089999999999,0,sub_10
-0.0095582000000001,0.0037154000000011,0.0522418,0.0085212000000004,-0.0109081999999991,-0.0015661999999999,0,sub_10
-0.0095454000000001,0.0045674000000011,0.052063,0.0047034000000004,-0.0064181999999991,-0.0022395999999999,0,sub_10
-0.0102724000000001,0.0052598000000011,0.0516534,0.0049168000000004,-0.0072677999999991,-0.0030915999999999,0,sub_10
-0.0116710000000001,0.0051872000000011,0.050386,0.0079164000000004,-0.0121841999999991,-0.0032823999999999,0,sub_10
-0.0116526000000001,0.0051058000000011,0.0500576,0.0115534000000004,-0.0166811999999991,-0.0024009999999999,0,sub_10
-0.0110822000000002,0.0045448000000011,0.0502932,0.0126348000000004,-0.0188305999999991,-0.0002585999999999,0,sub_10
-0.0114744000000001,0.0035096000000011,0.0497948,0.0128684000000004,-0.0194865999999992,0.0020896,0,sub_10
-0.0115126000000001,0.0027140000000011,0.049471,0.0118294000000004,-0.0199189999999991,0.0029332,0,sub_10
-0.0109952000000001,0.0030430000000011,0.0487346,0.0114076000000004,-0.0197009999999991,0.0020754,0,sub_10
-0.0109680000000001,0.0035784000000011,0.0487574,0.0114144000000004,-0.0194827999999991,0.0007934,0,sub_10
-0.0107004000000001,0.0043714000000011,0.0493682,0.0124802000000004,-0.0203361999999991,0.000161,0,sub_10
-0.0106238000000002,0.0044922000000012,0.0500902,0.0144422000000004,-0.0212593999999991,0.0007988,0,sub_10
-0.0111278000000002,0.0044628000000012,0.0503078,0.0168290000000004,-0.0223979999999991,0.0016534,0,sub_10
-0.0112290000000002,0.0040130000000012,0.0514354,0.0175174000000004,-0.0216131999999991,0.0024938,0,sub_10
-0.0104286000000002,0.0034426000000012,0.0517725999999999,0.0162960000000004,-0.0193267999999991,0.0024642,0,sub_10
-0.0108238000000002,0.0024902000000012,0.0523034,0.0133688000000004,-0.0161847999999991,0.0030626,0,sub_10
-0.0116776000000002,0.0024242000000012,0.0524952,0.0099674000000004,-0.0134029999999991,0.0030352,0,sub_10
-0.0122200000000002,0.0024166000000012,0.0529942,0.0069878000000004,-0.0131735999999991,0.0015186,0,sub_10
-0.0123052000000002,0.0022808000000011,0.0527126,0.0048598000000004,-0.0148585999999991,-0.0014851999999999,0,sub_10
