userAcceleration.x,userAcceleration.y,userAcceleration.z,rotationRate.x,rotationRate.y,rotationRate.z,label,subject
-0.0126250000000002,6.52000000012324e-05,0.0122569999999999,0.0027860000000005,0.0007358000000006,0.0032503999999999,0,sub_12
-0.0131262000000002,1.3200000001232452e-05,0.0136654,0.0029812000000004,-0.0037373999999993,0.0028301999999999,0,sub_12
-0.0137724000000001,-0.0005797999999987,0.016165,0.0029696000000004,-0.0067183999999993,0.0024067999999999,0,sub_12
-0.0153544000000001,-4.999999999876759e-05,0.0182658,0.0025332000000004,-0.0090595999999993,0.0021929999999999,0,sub_12
-0.0157868000000002,-0.0003951999999987,0.0199423999999999,0.0020994000000004,-0.0103269999999993,0.0026041999999999,0,sub_12
-0.0166228000000001,-0.0007449999999987,0.0211339999999999,0.0031746000000004,-0.0075543999999993,0.0036615999999999,0,sub_12
-0.0188232000000002,-0.0016849999999987,0.0229041999999999,0.0038346000000004,-0.0017991999999993,0.0051395999999999,0,sub_12
-0.0210968000000002,-0.0035315999999987,0.0243859999999999,0.0045052000000004,0.0058752000000006,0.0061877999999999,0,sub_12
-0.0221694000000002,-0.0047783999999987,0.0262887999999999,0.0047538000000004,0.0139798000000006,0.0065917999999999,0,sub_12
-0.0223200000000002,-0.0045709999999987,0.0292682,0.0069306000000004,0.0231352000000006,0.0061679999999999,0,sub_12
-0.0214894000000002,-0.0044467999999987,0.031943,0.0093238000000004,0.0320804000000006,0.0048913999999999,0,sub_12
-0.0193714000000002,-0.0048743999999987,0.0341664,0.0099936000000004,0.0367730000000006,0.0029671999999999,0,sub_12
-0.0150256000000002,-0.0048037999999987,0.035258,0.0091342000000004,0.0338002000000006,0.0012559999999999,0,sub_12
-0.0108578000000002,-0.0058219999999987,0.0336538,0.0065420000000005,0.0274364000000006,-4.520000000009913e-05,0,sub_12
-0.0100052000000002,-0.0055649999999987,0.0289293999999999,0.0013732000000005,0.0172476000000006,-0.0015732,0,sub_12
-0.0100454000000002,-0.0045619999999987,0.0250823999999999,-0.0065799999999994,0.0038760000000006,-0.003971,0,sub_12
-0.0089942000000001,-0.0036201999999987,0.0199901999999999,-0.0138825999999994,-0.0069417999999993,-0.0061538,0,sub_12
-0.0099316000000002,-0.0012051999999987,0.0136525999999999,-0.0201009999999994,-0.0126553999999993,-0.007054,0,sub_12
-0.0110254000000001,0.0016422000000012,0.0081381999999999,-0.0228909999999994,-0.0169041999999993,-0.007709,0,sub_12
-0.0104800000000002,0.0033788000000012,0.0029608,-0.0218355999999995,-0.0188277999999993,-0.0070582,0,sub_12
-0.0083452000000002,0.0047142000000012,-0.0024839999999999,-0.0146025999999995,-0.0167399999999993,-0.0042392,0,sub_12
-0.0077830000000001,0.0066854000000012,-0.0053891999999999,-0.0050205999999995,-0.0125367999999993,0.0003025999999998,0,sub_12
-0.0083622000000001,0.0076042000000012,-0.0044092,0.0058456000000004,-0.0081223999999993,0.0042123999999998,0,sub_12
-0.0082246000000002,0.0068810000000012,-0.00139,0.0154420000000004,-0.0015719999999993,0.0078967999999998,0,sub_12
-0.0074080000000002,0.0052632000000012,0.0039937999999999,0.0222558000000004,0.0039192000000006,0.0124177999999998,0,sub_12
-0.0080808000000002,0.0025632000000012,0.0110109999999999,0.0243712000000004,0.0034712000000006,0.0160651999999998,0,sub_12
-0.0109464000000002,-0.0014317999999987,0.0185027999999999,0.0230660000000004,-0.0016393999999993,0.0164899999999998,0,sub_12
-0.0133990000000002,-0.0041515999999987,0.0240487999999999,0.0183468000000004,-0.0082233999999993,0.0153971999999998,0,sub_12
-0.0163050000000002,-0.0046315999999987,0.0276549999999999,0.0125626000000004,-0.0156507999999993,0.0130161999999998,0,sub_12
-0.0187688000000002,-0.0048519999999987,0.0305667999999999,0.0065786000000004,-0.0196751999999993,0.0093427999999999,0,sub_12
-0.0208652000000002,-0.0046795999999987,0.0320751999999999,0.0018968000000004,-0.0181671999999993,0.0063123999999999,0,sub_12
-0.0198156000000002,-0.0030301999999987,0.0312789999999999,-0.0012989999999995,-0.0166711999999993,0.0050013999999999,0,sub_12
-0.0175718000000002,-0.0019879999999987,0.0292301999999999,-0.0006579999999995,-0.0147675999999993,0.0049985999999999,0,sub_12
-0.0156244000000002,-0.0016507999999987,0.0277402,0.0027616000000004,-0.0115963999999993,0.0052273999999999,0,sub_12
-0.0135166000000001,-0.0026747999999987,0.0265499999999999,0.0059678000000004,-0.0120267999999993,0.0035411999999999,0,sub_12
-0.0104762000000002,-0.0034659999999987,0.0252042,0.0061688000000004,-0.0188289999999993,-0.000508,0,sub_12
-0.0077326000000001,-0.0046663999999987,0.0240983999999999,0.0048790000000004,-0.0247745999999993,-0.004355,0,sub_12
-0.0052500000000002,-0.0050363999999987,0.0217147999999999,0.0005694000000004,-0.0356133999999993,-0.0082268,0,sub_12
-0.0029206000000002,-0.0045721999999987,0.0184539999999999,-0.0063157999999995,-0.0492153999999993,-0.0114722,0,sub_12
-0.0008298000000002,-0.0025439999999987,0.0146853999999999,-0.0121407999999994,-0.0613417999999993,-0.011721,0,sub_12
-0.0004452000000002,-0.0005065999999987,0.0103417999999999,-0.0154007999999994,-0.0692287999999993,-0.0087526,0,sub_12
-0.0021604000000002,0.0022970000000012,0.0058107999999999,-0.0163115999999994,-0.0764857999999993,-0.005555,0,sub_12
-0.0041954000000002,0.0036614000000012,0.0037739999999999,-0.0141795999999994,-0.0726753999999993,-0.001272,0,sub_12
-0.0071858000000002,0.0046000000000012,0.0034091999999999,-0.0099139999999995,-0.0682357999999993,0.0036659999999999,0,sub_12
-0.0111520000000002,0.0046654000000012,0.0044639999999999,-0.0058465999999995,-0.0612353999999993,0.0077445999999999,0,sub_12
-0.0138130000000002,0.0045128000000012,0.0063127999999999,-0.0015783999999995,-0.0540633999999993,0.0107439999999999,0,sub_12
-0.0155036000000002,0.0033576000000012,0.0085137999999999,0.0024782000000004,-0.0466765999999993,0.0135281999999999,0,sub_12
-0.0177414000000002,0.0026256000000012,0.0116525999999999,0.0065138000000004,-0.0454623999999993,0.0148243999999999,0,sub_12
-0.0184928000000002,0.0011814000000012,0.0155847999999999,0.0099160000000004,-0.0436033999999993,0.0152607999999999,0,sub_12
-0.0174666000000002,-0.0007597999999987,0.0192795999999999,0.0133222000000004,-0.0417409999999993,0.0148427999999999,0,sub_12
-0.0174482000000002,-0.0027687999999987,0.0246479999999999,0.0144188000000004,-0.0362011999999993,0.0137751999999999,0,sub_12
-0.0175740000000002,-0.0043391999999987,0.0302055999999999,0.0131684000000004,-0.0315019999999993,0.0118375999999999,0,sub_12
-0.0161366000000002,-0.0054715999999987,0.0331553999999999,0.0087088000000005,-0.0308543999999993,0.0092409999999999,0,sub_12
-0.0114724000000002,-0.0054115999999987,0.0331917999999999,0.0010314000000005,-0.0344549999999993,0.0061999999999999,0,sub_12
-0.0078462000000002,-0.0050673999999987,0.0307912,-0.0088017999999994,-0.0418873999999993,0.0042169999999999,0,sub_12
-0.0046378000000002,-0.0037237999999987,0.0255407999999999,-0.0176043999999994,-0.0565705999999993,0.0031051999999999,0,sub_12
-0.0024324000000002,-0.0009379999999987,0.0181966,-0.0238581999999994,-0.0733949999999993,0.0024411999999999,0,sub_12
-0.0013398000000002,0.0017230000000012,0.0117346,-0.0258359999999994,-0.0857469999999993,0.0028705999999999,0,sub_12
-0.0046358000000002,0.0038920000000012,0.006298,-0.0226679999999994,-0.0908799999999993,0.0050357999999999,0,sub_12
-0.0086076000000002,0.0057114000000012,0.0043745999999999,-0.0143513999999995,-0.0898521999999993,0.0072291999999999,0,sub_12
-0.0124584000000002,0.0063584000000012,0.0046155999999999,-0.0034559999999995,-0.0847853999999993,0.0094351999999999,0,sub_12
-0.0158360000000002,0.0050486000000012,0.0079475999999999,0.0063614000000004,-0.0767289999999993,0.0120337999999998,0,sub_12
-0.0196068000000002,0.0026310000000012,0.0128751999999999,0.0138336000000004,-0.0690871999999993,0.0137617999999998,0,sub_12
-0.0224170000000002,-1.91999999987676e-05,0.0186177999999999,0.0189530000000004,-0.0642007999999993,0.0139813999999998,0,sub_12
-0.0239636000000002,-0.0019979999999987,0.0233493999999999,0.0208596000000004,-0.0627095999999993,0.0135419999999998,0,sub_12
-0.0230140000000002,-0.0035257999999987,0.0274913999999999,0.0206360000000004,-0.0614195999999993,0.0120197999999998,0,sub_12
-0.0212494000000002,-0.0047923999999987,0.0306889999999999,0.0178766000000004,-0.0601237999999993,0.0100759999999999,0,sub_12
-0.0192328000000002,-0.0055791999999987,0.0320567999999999,0.0114908000000004,-0.0588145999999993,0.0078931999999999,0,sub_12
-0.0176288000000002,-0.0058663999999987,0.0319358,0.0031558000000004,-0.0599967999999993,0.0052565999999999,0,sub_12
-0.0166524000000002,-0.0058717999999987,0.0301062,-0.0060367999999995,-0.0626647999999993,0.0019747999999999,0,sub_12
-0.0169716000000002,-0.0048993999999987,0.0267395999999999,-0.0145985999999995,-0.0674657999999993,-0.0012998,0,sub_12
-0.0166604000000002,-0.0031627999999987,0.0215317999999999,-0.0186997999999994,-0.0759075999999993,-0.003684,0,sub_12
-0.0150758000000002,-0.0008717999999987,0.016239,-0.0163921999999994,-0.0816061999999993,-0.0049586,0,sub_12
-0.0128706000000002,0.0014070000000012,0.0121068,-0.0106225999999994,-0.0799209999999993,-0.0051342,0,sub_12
-0.0103962000000001,0.0024326000000012,0.0110926,-0.0029181999999994,-0.0737735999999993,-0.00402,0,sub_12
-0.0090076000000001,0.0023520000000012,0.0118243999999999,0.0049956000000005,-0.0674179999999993,-0.0018364,0,sub_12
-0.0088126000000002,0.0011974000000012,0.0155851999999999,0.0105624000000004,-0.0619031999999993,-0.0005228,0,sub_12
-0.0096378000000002,-0.0007799999999987,0.020026,0.0127028000000004,-0.0597827999999993,0.0001301999999999,0,sub_12
-0.0120524000000002,-0.0033005999999987,0.0245386,0.0112024000000004,-0.0608445999999993,0.0005483999999999,0,sub_12
-0.0140182000000002,-0.0039115999999987,0.0268442,0.0069274000000004,-0.0625341999999993,0.0005205999999999,0,sub_12
-0.0142008000000002,-0.0038181999999987,0.0287621999999999,-9.659999999951096e-05,-0.0588867999999993,0.0002531999999999,0,sub_12
-0.0152266000000002,-0.0038379999999987,0.0281428,-0.0075387999999995,-0.0535325999999993,-0.000233,0,sub_12
-0.0162028000000002,-0.0035009999999987,0.026355,-0.0139245999999995,-0.0507379999999993,-0.000922,0,sub_12
-0.0150034000000002,-0.0025049999999987,0.0244044,-0.0183967999999995,-0.0494413999999993,-0.0015958,0,sub_12
-0.0146736000000002,-0.0016327999999987,0.0226065999999999,-0.0211601999999995,-0.0464513999999993,-0.000978,0,sub_12
-0.0166166000000002,-0.0011899999999987,0.0209415999999999,-0.0203007999999995,-0.0449639999999993,-0.0007604,0,sub_12
-0.0174866000000002,-0.0002403999999987,0.0205396,-0.0179391999999995,-0.0415641999999993,-0.0005346000000001,0,sub_12
-0.0179664000000002,0.0004820000000012,0.0215958,-0.0146991999999995,-0.0319913999999993,0.0003301999999998,0,sub_12
-0.0185796000000002,0.0002944000000012,0.0227544,-0.0101693999999995,-0.0207169999999993,0.0007745999999998,0,sub_12
-0.0191178000000002,-0.0010937999999987,0.0243016,-0.0064987999999995,-0.0126277999999993,-0.0007056,0,sub_12
-0.0177620000000002,-0.0023921999999987,0.0259052,-0.0062577999999995,-0.0081475999999993,-0.0024188,0,sub_12
-0.0150336000000002,-0.0033271999999987,0.0269117999999999,-0.0087805999999995,-0.0040465999999993,-0.0037238,0,sub_12
-0.0118722000000002,-0.0034725999999987,0.0266968,-0.0136639999999995,-0.0024955999999993,-0.0046146,0,sub_12
-0.0102236000000001,-0.0032683999999987,0.0251988,-0.0189893999999995,-0.0037153999999993,-0.004864,0,sub_12
-0.0082176000000001,-0.0012929999999987,0.0222185999999999,-0.0226135999999995,-0.0049461999999993,-0.0038198,0,sub_12
-0.0080396000000001,0.0005624000000012,0.0183036,-0.0230255999999995,-0.0027827999999993,-0.0019028,0,sub_12
-0.0093026000000001,0.0025952000000012,0.0147479999999999,-0.0191705999999995,0.0023094000000006,4.039999999990232e-05,0,sub_12
-0.0112360000000001,0.0038342000000012,0.0126145999999999,-0.0127463999999995,0.0084614000000006,0.0011455999999999,0,sub_12
-0.0112908000000002,0.0042070000000012,0.0129211999999999,-0.0058867999999995,0.0169538000000006,0.0026779999999999,0,sub_12
-0.0120122000000002,0.0033322000000012,0.0148241999999999,0.0005422000000004,0.0241710000000005,0.0037819999999999,0,sub_12
-0.0124332000000002,0.0020194000000012,0.0181995999999999,0.0054670000000004,0.0284132000000006,0.0042381999999999,0,sub_12
-0.0127256000000002,-0.0007431999999987,0.0223277999999999,0.0071894000000004,0.0313918000000006,0.0038191999999999,0,sub_12
-0.0128628000000002,-0.0028677999999987,0.0258487999999999,0.0065522000000004,0.0318210000000006,0.0036005999999999,0,sub_12
-0.0140658000000002,-0.0043851999999987,0.0280148,0.0025000000000005,0.0307758000000006,0.0020781999999999,0,sub_12
-0.0140668000000002,-0.0047685999999987,0.028959,-0.0034743999999994,0.0293112000000006,0.0005427999999999,0,sub_12
-0.0137920000000001,-0.0042721999999987,0.0276918,-0.0092401999999994,0.0263564000000006,-0.0014164,0,sub_12
-0.0122232000000002,-0.0020081999999987,0.0234102,-0.0135249999999994,0.0212630000000006,-0.0027216,0,sub_12
-0.0095962000000002,-0.0002139999999987,0.0182894,-0.0143755999999994,0.0212684000000006,-0.0033686,0,sub_12
-0.0067138000000001,0.0011786000000012,0.0134475999999999,-0.0124475999999994,0.0233906000000006,-0.0029306,0,sub_12
-0.0055364000000002,0.0013218000000012,0.010525,-0.0098947999999994,0.0223138000000005,-0.0022706,0,sub_12
-0.0046682000000002,0.0012224000000012,0.0078783999999999,-0.0082087999999994,0.0184694000000005,-0.0013994,0,sub_12
-0.0044122000000002,6.080000000123209e-05,0.0070857999999999,-0.0060921999999994,0.0152636000000006,-0.0007396,0,sub_12
-0.0051072000000002,-4.579999999876792e-05,0.0075769999999999,-0.0061113999999994,0.0110026000000006,-0.0007342,0,sub_12
-0.0058350000000002,-0.0005531999999987,0.0108231999999999,-0.0074183999999994,0.0050416000000006,-0.0007356,0,sub_12
-0.0062600000000001,-0.0009771999999987,0.0136719999999999,-0.0091541999999994,-0.0009195999999993,-0.0003128,0,sub_12
-0.0068778000000001,-0.0017497999999987,0.0163469999999999,-0.0100259999999995,-0.0036913999999993,0.0009665999999999,0,sub_12
-0.0083844000000002,-0.0019899999999987,0.0199455999999999,-0.0106737999999995,-0.0043323999999993,0.0020309999999999,0,sub_12
-0.0092984000000001,-0.0033259999999987,0.0241557999999999,-0.0100423999999995,-0.0060397999999993,0.0022511999999999,0,sub_12
-0.0105868000000001,-0.0029599999999987,0.0262007999999999,-0.0096281999999995,-0.0088109999999993,0.0022575999999999,0,sub_12
-0.0110588000000001,-0.0031337999999987,0.0273603999999999,-0.0090013999999995,-0.0128569999999993,0.0011989999999999,0,sub_12
-0.0097710000000002,-0.0025167999999987,0.0285377999999999,-0.0088157999999995,-0.0211581999999993,-0.0009256,0,sub_12
-0.0047188000000002,-0.0019387999999987,0.0279767999999999,-0.0095037999999995,-0.0335063999999993,-0.0026236,0,sub_12
-0.0008854000000001,1.400000000123195e-05,0.0255507999999999,-0.0106511999999995,-0.0524601999999993,-0.0036756,0,sub_12
0.0022759999999997,0.0006634000000012,0.0218617999999999,-0.0103279999999995,-0.0765323999999993,-0.0047108,0,sub_12
0.0042161999999997,0.0022828000000012,0.0172757999999999,-0.0074367999999995,-0.0993333999999993,-0.0061568,0,sub_12
0.0055093999999997,0.0031540000000012,0.0138761999999999,-0.0030335999999995,-0.1176673999999993,-0.0071708,0,sub_12
0.0055765999999997,0.0039930000000012,0.0125249999999999,0.0030794000000004,-0.1351557999999993,-0.0079604,0,sub_12
0.0058145999999997,0.0039944000000012,0.0135216,0.0098364000000004,-0.1500967999999993,-0.0070394,0,sub_12
0.0054513999999997,0.0041882000000011,0.0153194,0.0159514000000004,-0.1646129999999993,-0.0052688,0,sub_12
0.0040951999999997,0.0036398000000012,0.0180776,0.0216262000000004,-0.1810493999999993,-0.0024308,0,sub_12
0.0017729999999997,0.0029796000000012,0.0210741999999999,0.0272942000000004,-0.1994013999999993,-1.7600000000077277e-05,0,sub_12
-0.0024800000000002,0.0014428000000012,0.023187,0.0319232000000004,-0.2126321999999993,0.0013135999999999,0,sub_12
-0.0066374000000002,-0.0005737999999987,0.0238626,0.0340148000000004,-0.2222261999999993,0.0011267999999999,0,sub_12
-0.0060644000000002,-0.0012933999999987,0.0254369999999999,0.0318754000000004,-0.2251945999999993,-0.0005936,0,sub_12
-0.0070884000000002,-0.0028369999999987,0.0266253999999999,0.0265440000000004,-0.2249611999999993,-0.0010584,0,sub_12
-0.0087702000000002,-0.0047619999999987,0.0266943999999999,0.0192712000000004,-0.2311059999999993,-0.0032376,0,sub_12
-0.0108788000000002,-0.0056291999999987,0.0257749999999999,0.0119474000000004,-0.2498157999999993,-0.006683,0,sub_12
-0.0106510000000002,-0.0052169999999987,0.0244447999999999,0.0050552000000004,-0.2689469999999993,-0.0116204,0,sub_12
-0.0138376000000002,-0.0056365999999987,0.0215289999999999,0.0020104000000004,-0.2861759999999993,-0.016106,0,sub_12
-0.0130484000000002,-0.0044483999999987,0.0176939999999999,0.0009024000000004,-0.3010627999999993,-0.021863,0,sub_12
-0.0095176000000001,-0.0013619999999987,0.0148089999999999,0.0005024000000005,-0.2999763999999993,-0.026781,0,sub_12
-0.0031640000000002,0.0007318000000012,0.0131009999999999,0.0003696000000005,-0.2833523999999993,-0.0280852,0,sub_12
-0.0029758000000001,0.0017334000000011,0.011528,0.0025726000000005,-0.2753047999999993,-0.0282926,0,sub_12
-0.0031296000000001,0.0028382000000011,0.0106042,0.0074908000000005,-0.2789897999999994,-0.0271842,0,sub_12
-0.0039066000000002,0.0034640000000011,0.0108517999999999,0.0140948000000004,-0.2865191999999993,-0.0252044,0,sub_12
-0.0039592000000002,0.0028282000000011,0.0107404,0.0202386000000004,-0.2993817999999993,-0.0210846,0,sub_12
-0.0069798000000002,0.0025976000000011,0.0104287999999999,0.0263748000000004,-0.3145853999999993,-0.0176026,0,sub_12
-0.0061380000000002,0.0025680000000012,0.010143,0.0322964000000004,-0.3225045999999993,-0.0137054,0,sub_12
-0.0056544000000001,0.0018748000000012,0.0107301999999999,0.0361074000000004,-0.3255151999999993,-0.010043,0,sub_12
-0.0029914000000001,0.0027202000000012,0.0113203999999999,0.0356836000000004,-0.3238135999999993,-0.00898,0,sub_12
-0.0052866000000001,0.0008464000000012,0.0136439999999999,0.0350426000000004,-0.3242367999999992,-0.0091976,0,sub_12
-0.0077920000000001,-0.0004491999999987,0.0162261999999999,0.0354224000000004,-0.3372243999999993,-0.0117422,0,sub_12
-0.0079606000000002,-0.0023409999999987,0.0189791999999999,0.0328044000000004,-0.3531815999999993,-0.0149448,0,sub_12
-0.0069480000000002,-0.0034777999999987,0.020573,0.0278710000000004,-0.3635851999999993,-0.019666,0,sub_12
-0.0060706000000001,-0.0041237999999987,0.0228916,0.0199666000000004,-0.3695077999999993,-0.0235592,0,sub_12
-0.0079220000000002,-0.0047033999999987,0.0244244,0.0145910000000004,-0.3803479999999993,-0.025292,0,sub_12
-0.0092352000000002,-0.0045535999999987,0.0247234,0.0073084000000004,-0.3884109999999993,-0.0272552,0,sub_12
-0.0128786000000001,-0.0041045999999987,0.022969,0.0023874000000004,-0.3926497999999992,-0.028566,0,sub_12
-0.0148362000000001,-0.0030411999999987,0.0185444,0.0015338000000004,-0.3939201999999993,-0.0298522,0,sub_12
-0.0178648000000002,-0.0035563999999987,0.0125358,0.0092076000000004,-0.3969245999999993,-0.0310766,0,sub_12
-0.0135522000000002,-0.0008477999999987,0.0053666,0.0169168000000004,-0.3943801999999993,-0.034658,0,sub_12
-0.0055378000000002,0.0011558000000012,-0.0004097999999999,0.0278314000000004,-0.3912061999999993,-0.0386452,0,sub_12
0.0036695999999997,0.0041112000000012,-0.0031441999999999,0.0398082000000004,-0.3927085999999993,-0.0462508,0,sub_12
0.0126423999999997,0.0054284000000012,-0.0018851999999999,0.0523522000000004,-0.4108295999999994,-0.0542584,0,sub_12
0.0213971999999997,0.0066848000000012,0.0012804,0.0663140000000005,-0.4449381999999993,-0.061381,0,sub_12
0.0294987999999997,0.0066428000000012,0.005828,0.0797858000000004,-0.4922581999999993,-0.0676356,0,sub_12
0.0335653999999997,0.0058038000000012,0.0103604,0.0889048000000004,-0.5561905999999993,-0.0715492,0,sub_12
0.0348025999999997,0.0043870000000012,0.013294,0.0966678000000005,-0.6350399999999994,-0.0735304,0,sub_12
0.0327863999999997,0.0051828000000012,0.0103422,0.1042386000000004,-0.7106867999999993,-0.0770126,0,sub_12
0.0297637999999997,0.0057618000000012,0.005001,0.1095226000000004,-0.7741763999999993,-0.0818082,0,sub_12
0.0281523999999997,0.0078360000000012,-0.0008178,0.1118876000000004,-0.8248629999999993,-0.0889906,0,sub_12
0.0271237999999997,0.0081098000000012,-0.0066096,0.1120004000000004,-0.8582687999999994,-0.1000564,0,sub_12
0.0262153999999997,0.0084846000000012,-0.0105738,0.1174618000000004,-0.8851021999999993,-0.107675,0,sub_12
0.0284699999999997,0.0095750000000012,-0.0087774,0.1267456000000004,-0.9132383999999992,-0.112488,0,sub_12
0.0300597999999997,0.0100286000000012,-0.0037583999999999,0.1361988000000004,-0.9509635999999994,-0.1170738,0,sub_12
0.0268839999999997,0.0093538000000012,7.440000000000033e-05,0.1518042000000004,-0.9948955999999992,-0.1198996,0,sub_12
0.0224931999999997,0.0106242000000012,0.0043457999999999,0.1734032000000004,-1.0316167999999994,-0.1197018,0,sub_12
0.0209797999999997,0.0128508000000012,0.0103554,0.1850810000000005,-1.0493215999999994,-0.1245114,0,sub_12
0.0126635999999997,0.0099424000000012,0.0162532,0.1967484000000005,-1.066399199999999,-0.1263308,0,sub_12
0.0060391999999997,0.0080744000000012,0.017585,0.2122632000000004,-1.0841207999999996,-0.130259,0,sub_12
0.0003523999999997,0.0077246000000012,0.019988,0.2254472000000004,-1.0960903999999991,-0.1320744,0,sub_12
-0.0054950000000002,0.0085620000000012,0.0219918,0.2394886000000005,-1.1040275999999996,-0.1306842,0,sub_12
-0.0139148000000002,0.0072978000000011,0.0145076,0.2693340000000004,-1.1090363999999997,-0.129401,0,sub_12
-0.0120178000000002,0.0058668000000011,0.0083912,0.3071154000000005,-1.1112775999999993,-0.1344752,0,sub_12
-0.0141382000000002,0.0014604000000011,0.0144408,0.3568982000000005,-1.1024793999999996,-0.1401208,0,sub_12
-0.0163710000000001,-0.0045043999999988,0.0195576,0.4102462000000004,-1.1130593999999994,-0.1512714,0,sub_12
-0.0146566000000002,-0.0103773999999987,0.0226339999999999,0.4555434000000005,-1.1121011999999992,-0.1637748,0,sub_12
-0.0086388000000002,-0.0144169999999987,0.0361996,0.4778578000000005,-1.0887267999999994,-0.1677082,0,sub_12
-0.0091330000000002,-0.0177053999999987,0.0531549999999999,0.4710398000000005,-1.0371511999999994,-0.1658992,0,sub_12
-0.0035992000000002,-0.0188391999999987,0.0624506,0.4316190000000005,-0.9650515999999992,-0.1534482000000001,0,sub_12
0.0050441999999997,-0.0180225999999987,0.0785208,0.3777118000000005,-0.8780269999999994,-0.1312898,0,sub_12
0.0049477999999997,-0.0162429999999987,0.0945027999999999,0.3236514000000005,-0.8223321999999994,-0.1063152,0,sub_12
-0.0022798000000002,-0.0146347999999987,0.1029443999999999,0.2656246000000005,-0.7983533999999993,-0.0851732,0,sub_12
-0.0114014000000002,-0.0121071999999987,0.1008455999999999,0.2102340000000005,-0.7596743999999994,-0.066168,0,sub_12
-0.0242416000000002,-0.0091533999999987,0.0956979999999999,0.1630814000000005,-0.7037893999999992,-0.0518252,0,sub_12
-0.0397624000000002,-0.0083745999999987,0.0852321999999999,0.1194548000000004,-0.6280817999999994,-0.0426106,0,sub_12
-0.0489082000000002,-0.0100449999999987,0.0774085999999999,0.0779116000000004,-0.5187083999999993,-0.0359882,0,sub_12
-0.0524632000000002,-0.0121605999999987,0.0685417999999999,0.0413258000000004,-0.3991221999999993,-0.0301988,0,sub_12
-0.0482422000000002,-0.0124233999999987,0.0640397999999999,0.0138614000000004,-0.2891647999999993,-0.0219834,0,sub_12
-0.0424770000000002,-0.0118089999999987,0.0582785999999999,-0.0151985999999995,-0.1951387999999993,-0.0139746,0,sub_12
