userAcceleration.x,userAcceleration.y,userAcceleration.z,rotationRate.x,rotationRate.y,rotationRate.z,label,subject
-0.0115194000000002,0.0096588000000012,0.0225949999999999,4.360000000055686e-05,-0.0225007999999991,0.0014036,0,sub_2
-0.0134116000000002,0.0094138000000012,0.0234851999999999,0.0001988000000005,-0.0215559999999991,0.0018156,0,sub_2
-0.0154166000000002,0.0090044000000012,0.0260541999999999,0.0014274000000005,-0.0206089999999991,0.0007398,0,sub_2
-0.0162070000000002,0.0090240000000012,0.0292165999999999,0.0030992000000005,-0.0171025999999991,-0.0014043999999999,0,sub_2
-0.0172590000000002,0.0085312000000012,0.0306147999999999,0.0041358000000005,-0.0129529999999991,-0.0039811999999999,0,sub_2
-0.0171458000000002,0.0079800000000012,0.0301431999999999,0.0035128000000005,-0.0125109999999991,-0.0074045999999999,0,sub_2
-0.0154802000000002,0.0078148000000012,0.0279975999999999,0.0016212000000005,-0.0086591999999991,-0.0099863999999999,0,sub_2
-0.0130362000000002,0.0078872000000012,0.0259271999999999,-0.0011199999999994,-0.0031031999999991,-0.0117217999999999,0,sub_2
-0.0117262000000002,0.0070966000000012,0.0241453999999999,-0.0060839999999994,-0.0004861999999991,-0.0126245999999999,0,sub_2
-0.0097272000000002,0.0083500000000012,0.0217337999999999,-0.0114901999999994,-3.599999999189668e-06,-0.0122457999999999,0,sub_2
-0.0088920000000002,0.0103016000000012,0.0194561999999998,-0.0149797999999994,0.0017422000000008,-0.0097185999999999,0,sub_2
-0.0089942000000002,0.0124244000000012,0.0162751999999999,-0.0154841999999994,0.0028394000000008,-0.0073835999999999,0,sub_2
-0.0098310000000002,0.0126456000000012,0.0139903999999999,-0.0127955999999994,0.0026452000000008,-0.0045973999999999,0,sub_2
-0.0113346000000002,0.0128148000000012,0.0115315999999999,-0.0083271999999994,0.0030428000000008,-0.0013619999999999,0,sub_2
-0.0141932000000002,0.0119742000000012,0.0134803999999999,-0.0036357999999994,0.0053582000000007,0.0016588,0,sub_2
-0.0168706000000002,0.0105870000000012,0.0171165999999999,0.0014918000000005,0.0083172000000007,0.0031862,0,sub_2
-0.0186900000000002,0.0102762000000012,0.0231303999999999,0.0064052000000005,0.0104272000000007,0.0040724,0,sub_2
-0.0211046000000002,0.0109490000000012,0.0284383999999999,0.0091022000000005,0.0140108000000007,0.00472,0,sub_2
-0.0219728000000002,0.0108468000000012,0.0337293999999999,0.0109688000000005,0.0201642000000007,0.0027946,0,sub_2
-0.0215386000000002,0.0090506000000012,0.0379993999999999,0.0098720000000005,0.0295322000000007,-0.0012919999999999,0,sub_2
-0.0197702000000002,0.0073910000000012,0.0386099999999999,0.0043012000000005,0.0395584000000007,-0.0062651999999999,0,sub_2
-0.0178404000000002,0.0054216000000012,0.0367971999999999,-0.0057637999999994,0.0472542000000007,-0.0106257999999999,0,sub_2
-0.0130026000000002,0.0048302000000012,0.0319395999999999,-0.0174617999999994,0.0519968000000007,-0.0143455999999999,0,sub_2
-0.0085952000000002,0.0055448000000012,0.0271263999999999,-0.0281103999999994,0.0560838000000007,-0.0148523999999999,0,sub_2
-0.0056274000000002,0.0075364000000012,0.0202689999999999,-0.0336665999999994,0.0563078000000007,-0.0127549999999999,0,sub_2
-0.0043022000000002,0.0096506000000012,0.0168811999999998,-0.0348433999999994,0.0513662000000007,-0.0095485999999999,0,sub_2
-0.0043148000000002,0.0114690000000012,0.0138193999999999,-0.0319719999999994,0.0453442000000007,-0.0060989999999999,0,sub_2
-0.0069352000000002,0.0118668000000012,0.0131787999999998,-0.0261085999999994,0.0397404000000007,-0.0032697999999999,0,sub_2
-0.0084456000000002,0.0114402000000012,0.0124867999999998,-0.0204603999999994,0.0322258000000007,-0.0019351999999999,0,sub_2
-0.0077336000000002,0.0111686000000012,0.0136041999999998,-0.0163135999999994,0.0217388000000007,-0.0018891999999999,0,sub_2
-0.0077656000000002,0.0110644000000012,0.0156739999999998,-0.0133569999999994,0.0155472000000007,-0.0012195999999999,0,sub_2
-0.0087460000000002,0.0093048000000012,0.0197473999999998,-0.0142229999999994,0.0132048000000008,-0.0007953999999999,0,sub_2
-0.0088042000000002,0.0081468000000012,0.0233039999999998,-0.0189497999999994,0.0061896000000008,-0.0006057999999999,0,sub_2
-0.0093352000000002,0.0080782000000012,0.0258035999999998,-0.0241559999999994,-0.0003797999999991,-0.0004173999999999,0,sub_2
-0.0119580000000002,0.0079440000000012,0.0261639999999999,-0.0284893999999994,-0.0024789999999991,-1.4999999999964586e-05,0,sub_2
-0.0135318000000002,0.0075314000000012,0.0251553999999999,-0.0326105999999994,-0.0056407999999991,-0.0004643999999999,0,sub_2
-0.0127262000000002,0.0084652000000012,0.0236267999999999,-0.0348151999999994,-0.0098735999999991,-0.0011123999999999,0,sub_2
-0.0131012000000002,0.0091720000000012,0.0239647999999999,-0.0348581999999994,-0.0075109999999991,-0.0013265999999999,0,sub_2
-0.0143604000000002,0.0101802000000012,0.0241703999999999,-0.0325023999999994,-0.0056017999999991,-0.0013125999999999,0,sub_2
-0.0144656000000002,0.0108512000000012,0.0250265999999999,-0.0305973999999994,-0.0090171999999991,-0.0012947999999999,0,sub_2
-0.0133642000000002,0.0114570000000012,0.0255639999999999,-0.0280531999999994,-0.0124357999999991,-0.0010589999999999,0,sub_2
-0.0123624000000002,0.0110184000000012,0.0254541999999999,-0.0255421999999994,-0.0162505999999991,-0.0003777999999999,0,sub_2
-0.0109688000000002,0.0096494000000012,0.0251129999999998,-0.0251793999999994,-0.0226171999999991,0.0009326,0,sub_2
-0.0083468000000002,0.0082988000000012,0.0249079999999999,-0.0282343999999994,-0.0291873999999991,0.0028604,0,sub_2
-0.0054826000000002,0.0086246000000012,0.0254337999999999,-0.0319141999999994,-0.0319221999999991,0.005206,0,sub_2
-0.0047624000000002,0.0086520000000012,0.0264543999999999,-0.0351585999999994,-0.0331653999999991,0.0071256,0,sub_2
-0.0057416000000002,0.0090114000000012,0.0273959999999999,-0.0358101999999994,-0.0342343999999991,0.0086178,0,sub_2
-0.0061732000000002,0.0099568000000012,0.0257075999999999,-0.0321895999999994,-0.0351017999999991,0.009285,0,sub_2
-0.0071030000000002,0.0104496000000012,0.0266739999999999,-0.0264455999999994,-0.0363945999999991,0.0091278,0,sub_2
-0.0092084000000002,0.0090808000000012,0.0280585999999999,-0.0211205999999994,-0.0359815999999991,0.0089656,0,sub_2
-0.0106804000000002,0.0081438000000012,0.0293869999999999,-0.0181397999999994,-0.0344967999999991,0.009213,0,sub_2
-0.0118960000000002,0.0079096000000012,0.0316667999999999,-0.0174973999999994,-0.0315107999999991,0.0090148,0,sub_2
-0.0130456000000002,0.0081580000000012,0.0342057999999999,-0.0179123999999994,-0.0268147999999991,0.0083798,0,sub_2
-0.0139636000000002,0.0076732000000012,0.0333021999999999,-0.0180939999999994,-0.0210565999999991,0.0070892,0,sub_2
-0.0137138000000002,0.0080692000000012,0.0315119999999999,-0.0182843999999994,-0.0170035999999991,0.0060144,0,sub_2
-0.0130662000000002,0.0080100000000012,0.0314243999999999,-0.0184795999999994,-0.0138035999999991,0.0051542,0,sub_2
-0.0119086000000002,0.0083348000000012,0.0303693999999999,-0.0195107999999994,-0.0113301999999991,0.0047428,0,sub_2
-0.0120238000000002,0.0092472000000012,0.0290019999999999,-0.0205427999999994,-0.0086453999999991,0.0047582,0,sub_2
-0.0122276000000002,0.0105676000000012,0.0276337999999999,-0.0211451999999994,-0.0046863999999992,0.0054162,0,sub_2
-0.0121264000000002,0.0115430000000012,0.0270443999999998,-0.0193995999999994,-0.0013713999999992,0.0052368,0,sub_2
-0.0120576000000002,0.0123452000000012,0.0252505999999998,-0.0159467999999994,0.0019378000000007,0.0050694,0,sub_2
-0.0125148000000002,0.0116788000000012,0.0254605999999998,-0.0116581999999994,0.0066102000000007,0.0050934,0,sub_2
-0.0121330000000002,0.0109318000000012,0.0263501999999998,-0.0086525999999994,0.0104354000000007,0.004896,0,sub_2
-0.0118822000000002,0.0100210000000012,0.0277543999999998,-0.0067293999999994,0.0110680000000007,0.0049086,0,sub_2
-0.0115214000000002,0.0095840000000012,0.0289271999999999,-0.0062347999999994,0.0120282000000007,0.0051466,0,sub_2
-0.0111952000000002,0.0088794000000012,0.0301591999999999,-0.0053077999999994,0.0144772000000008,0.0055992,0,sub_2
-0.0109376000000002,0.0092724000000012,0.0290805999999999,-0.0039615999999994,0.0152204000000007,0.006057,0,sub_2
-0.0114290000000002,0.0092082000000012,0.0286415999999999,-0.0019783999999994,0.0151102000000007,0.0063066,0,sub_2
-0.0119292000000002,0.0092916000000012,0.0297479999999999,0.0004404000000005,0.0160670000000007,0.0057034,0,sub_2
-0.0132098000000002,0.0089188000000012,0.0303219999999999,0.0023684000000005,0.0169160000000007,0.0048612,0,sub_2
-0.0135232000000002,0.0086128000000012,0.0305131999999999,0.0030142000000005,0.0160702000000007,0.0027304,0,sub_2
-0.0124302000000002,0.0080672000000012,0.0314165999999999,0.0023730000000005,0.0139496000000007,0.0008058,0,sub_2
-0.0110278000000002,0.0074288000000012,0.0310753999999998,0.0007710000000005,0.0117798000000007,-0.0002559999999999,0,sub_2
-0.0096386000000002,0.0074092000000012,0.0292437999999998,-0.0018931999999994,0.0115278000000007,-0.0004729999999999,0,sub_2
-0.0086948000000001,0.0075564000000012,0.0277633999999998,-0.0034903999999994,0.0119086000000007,-4.259999999996472e-05,0,sub_2
-0.0088184000000002,0.0074962000000012,0.0257663999999999,-0.0029625999999994,0.0107888000000007,0.000832,0,sub_2
-0.0092606000000002,0.0081082000000012,0.0244285999999999,-0.0009477999999994,0.0073236000000007,0.0008654,0,sub_2
-0.0080662000000001,0.0087820000000012,0.0247347999999999,0.0015954000000005,0.0032674000000007,0.0006748,0,sub_2
-0.0084510000000002,0.0087568000000012,0.0259425999999999,0.0037196000000005,0.0002806000000008,-0.0001611999999999,0,sub_2
-0.0088648000000002,0.0075926000000012,0.0260453999999999,0.0041406000000005,-0.0018479999999991,-0.0010099999999999,0,sub_2
-0.0081888000000002,0.0072388000000012,0.0266949999999999,0.0029812000000005,-0.0050019999999991,-0.0010201999999999,0,sub_2
-0.0073232000000002,0.0071956000000012,0.0263999999999999,0.0003376000000005,-0.0055957999999991,-0.0006165999999999,0,sub_2
-0.0080630000000002,0.0073654000000012,0.0261695999999999,-0.0014457999999994,-0.0040647999999991,0.0004312,0,sub_2
-0.0089528000000002,0.0078690000000012,0.0251181999999999,-0.0008887999999994,-0.0038211999999991,0.0017106,0,sub_2
-0.0095632000000002,0.0089916000000012,0.0248123999999999,0.0017962000000005,-0.0052877999999991,0.0025798,0,sub_2
-0.0103500000000002,0.0098518000000012,0.0253533999999999,0.0056378000000005,-0.0055125999999991,0.0021798,0,sub_2
-0.0111680000000002,0.0092602000000012,0.0269487999999999,0.0103350000000005,-0.0053143999999991,0.001785,0,sub_2
-0.0123890000000002,0.0086498000000012,0.0280939999999999,0.0128984000000005,-0.0059573999999991,0.0005218,0,sub_2
-0.0120346000000002,0.0080012000000012,0.0290569999999999,0.0134610000000005,-0.0056761999999991,-0.0001353999999999,0,sub_2
-0.0112162000000002,0.0079166000000012,0.0293725999999999,0.0123224000000005,-0.0043227999999991,-0.0010195999999999,0,sub_2
-0.0109330000000002,0.0077756000000012,0.0278005999999999,0.0101112000000005,-0.0033951999999991,-0.0010561999999999,0,sub_2
-0.0109362000000002,0.0079392000000012,0.0266177999999999,0.0085362000000005,-0.0026853999999991,-0.0004471999999999,0,sub_2
-0.0108090000000002,0.0087962000000012,0.0252645999999999,0.0086712000000005,-0.0011301999999991,0.0003864,0,sub_2
-0.0116976000000002,0.0093250000000012,0.0254247999999999,0.0097314000000005,-0.0024129999999991,0.000609,0,sub_2
-0.0124808000000002,0.0093994000000012,0.0256783999999999,0.0110058000000005,-0.0036957999999991,0.0006196,0,sub_2
-0.0128828000000002,0.0097708000000012,0.0258275999999999,0.0129242000000005,-0.0041285999999991,0.0006336,0,sub_2
-0.0125024000000002,0.0101134000000012,0.0251699999999999,0.0140996000000005,-0.0043143999999991,0.0006162,0,sub_2
-0.0114200000000002,0.0093750000000012,0.0246889999999999,0.0139920000000005,-0.0049227999999991,0.0008038,0,sub_2
-0.0103786000000002,0.0090448000000012,0.0242785999999999,0.0132510000000005,-0.0036131999999991,0.0014117999999999,0,sub_2
-0.0102414000000002,0.0088064000000012,0.0244891999999999,0.0127168000000005,-0.0031589999999991,0.0026631999999999,0,sub_2
-0.0101238000000002,0.0084274000000012,0.0250259999999999,0.0119672000000005,-0.0039789999999991,0.0030601999999999,0,sub_2
-0.0105968000000002,0.0080950000000012,0.0258033999999999,0.0123872000000005,-0.0056839999999991,0.0028515999999999,0,sub_2
-0.0115790000000002,0.0083382000000012,0.0268829999999999,0.0125976000000005,-0.0067481999999991,0.0024271999999999,0,sub_2
-0.0120688000000002,0.0082990000000012,0.0277011999999999,0.0126004000000005,-0.0067455999999991,0.0017864,0,sub_2
-0.0124696000000002,0.0082860000000012,0.0278873999999999,0.0122588000000005,-0.0046195999999991,0.0009016,0,sub_2
-0.0129662000000002,0.0082760000000012,0.0284431999999999,0.0119200000000005,-0.0010057999999991,0.0008694,0,sub_2
-0.0137162000000002,0.0088972000000012,0.0281405999999999,0.0096620000000005,0.0032522000000008,0.0012504,0,sub_2
-0.0138862000000002,0.0085188000000012,0.0281529999999999,0.0078288000000005,0.0064460000000008,0.0009948,0,sub_2
-0.0142032000000002,0.0075050000000012,0.0278737999999999,0.0064174000000005,0.0085732000000008,0.0007434,0,sub_2
-0.0136896000000002,0.0075400000000012,0.0274341999999998,0.0057800000000005,0.0092146000000008,0.0007382,0,sub_2
-0.0126714000000002,0.0089192000000012,0.0271315999999998,0.0053572000000005,0.0096440000000008,0.0003074,0,sub_2
-0.0117792000000002,0.0092168000000012,0.0267445999999998,0.0068672000000005,0.0119876000000008,-0.0009669999999999,0,sub_2
-0.0127450000000002,0.0089506000000012,0.0255143999999999,0.0096496000000005,0.0132588000000008,-0.0015901999999999,0,sub_2
-0.0116316000000002,0.0095812000000012,0.0249469999999999,0.0124646000000005,0.0121736000000008,-0.0020139999999999,0,sub_2
-0.0109744000000002,0.0091442000000012,0.0251811999999999,0.0133602000000005,0.0110960000000008,-0.0026649999999999,0,sub_2
-0.0114676000000002,0.0078002000000012,0.0254055999999999,0.0131868000000005,0.0102326000000008,-0.0026825999999999,0,sub_2
-0.0121442000000002,0.0076882000000012,0.0255085999999999,0.0117246000000005,0.0085172000000008,-0.0016399999999999,0,sub_2
-0.0112492000000002,0.0083598000000012,0.0260683999999999,0.0096262000000005,0.0074442000000008,-0.0008161999999999,0,sub_2
-0.0117614000000002,0.0088844000000012,0.0247991999999999,0.0087784000000005,0.0087256000000008,-0.0008237999999999,0,sub_2
-0.0123450000000002,0.0096986000000012,0.0237801999999999,0.0109218000000005,0.0110608000000008,-0.0005981999999999,0,sub_2
-0.0124056000000002,0.0097016000000012,0.0228595999999999,0.0143444000000005,0.0127542000000008,-0.0007901999999999,0,sub_2
-0.0122398000000002,0.0090670000000012,0.0227365999999999,0.0177610000000005,0.0099764000000008,-0.0016299999999999,0,sub_2
-0.0113474000000002,0.0087330000000012,0.0229423999999999,0.0207440000000005,0.0057088000000008,-0.0024709999999999,0,sub_2
-0.0109250000000002,0.0082300000000012,0.0246309999999998,0.0209514000000005,0.0020858000000008,-0.0022639999999999,0,sub_2
-0.0103646000000002,0.0077172000000012,0.0256851999999999,0.0181714000000005,-0.0013143999999991,-0.0018643999999999,0,sub_2
-0.0109074000000002,0.0082920000000012,0.0256293999999999,0.0145420000000005,-0.0034351999999992,-0.0010451999999999,0,sub_2
-0.0111672000000002,0.0089500000000012,0.0250501999999999,0.0109136000000005,-0.0025745999999992,-3.599999999924757e-06,0,sub_2
-0.0117894000000002,0.0093260000000012,0.0248403999999999,0.0077218000000005,0.0002028000000007,0.000825,0,sub_2
-0.0120778000000002,0.0097114000000012,0.0248887999999999,0.0051680000000005,0.0021274000000007,0.001232,0,sub_2
-0.0125986000000002,0.0101520000000012,0.0249789999999999,0.0049416000000005,0.0032014000000007,0.0010058,0,sub_2
-0.0120934000000002,0.0100502000000012,0.0243943999999999,0.0068450000000005,0.0025670000000007,-5.779999999994479e-05,0,sub_2
-0.0110296000000002,0.0094522000000012,0.0234865999999999,0.0095924000000005,-0.0002007999999991,-0.0011127999999999,0,sub_2
-0.0095780000000002,0.0087012000000012,0.0226063999999999,0.0108394000000005,-0.0038181999999991,-0.0015361999999999,0,sub_2
-0.0093232000000002,0.0084014000000012,0.0224737999999999,0.0112406000000005,-0.0050915999999991,-0.0013275999999999,0,sub_2
-0.0093802000000002,0.0081834000000012,0.0231749999999999,0.0101680000000005,-0.0055173999999991,-0.0004799999999999,0,sub_2
-0.0095968000000002,0.0083320000000012,0.0242757999999999,0.0073856000000005,-0.0065763999999991,0.0003566,0,sub_2
-0.0101340000000002,0.0084258000000012,0.0251905999999999,0.0041422000000005,-0.0059181999999991,0.0013912,0,sub_2
-0.0116046000000002,0.0088942000000012,0.0252427999999999,0.0017638000000005,-0.0029185999999991,0.0022152,0,sub_2
-0.0124308000000002,0.0097342000000012,0.0239701999999999,0.0017306000000005,-0.0012019999999991,0.0022026,0,sub_2
-0.0125692000000002,0.0100940000000012,0.0228253999999999,0.0031824000000005,-0.0018325999999991,0.0017762,0,sub_2
-0.0123180000000002,0.0093660000000012,0.0224897999999999,0.0052770000000005,-0.0011895999999991,0.0019934,0,sub_2
-0.0124476000000002,0.0099150000000012,0.0232921999999999,0.0072022000000005,-0.0001309999999991,0.0020056,0,sub_2
-0.0127750000000002,0.0099600000000012,0.0251295999999999,0.0080500000000005,-0.0011999999999991,0.0022266,0,sub_2
-0.0126772000000002,0.0096900000000012,0.0261915999999999,0.0076194000000005,-0.0024751999999991,0.001798,0,sub_2
-0.0118406000000002,0.0084728000000012,0.0260641999999999,0.0065126000000005,-0.0014141999999991,0.0011418,0,sub_2
-0.0104902000000002,0.0082790000000012,0.0266073999999999,0.0039076000000005,-0.0009887999999991,0.0009032,0,sub_2
-0.0098030000000002,0.0073736000000012,0.0267787999999999,1.5400000000558024e-05,-0.0012015999999991,0.001511,0,sub_2
-0.0096298000000002,0.0080188000000012,0.0251227999999999,-0.0025869999999994,0.0007116000000008,0.002125,0,sub_2
-0.0106062000000002,0.0084308000000012,0.0236131999999999,-0.0039137999999994,0.0021918000000008,0.0033894,0,sub_2
-0.0107462000000002,0.0093780000000012,0.0232705999999999,-0.0032841999999994,0.0004826000000008,0.0040368,0,sub_2
-0.0114804000000002,0.0099436000000012,0.0238987999999999,-0.0011571999999994,-0.0010163999999991,0.0040536,0,sub_2
-0.0126424000000002,0.0099150000000012,0.0254789999999999,0.0016206000000005,-0.0008105999999991,0.0034318,0,sub_2
-0.0129244000000002,0.0091990000000012,0.0275543999999999,0.0036896000000005,-0.0025477999999991,0.0028066,0,sub_2
-0.0114328000000002,0.0084990000000012,0.0287649999999999,0.0044716000000005,-0.0049231999999991,0.0030278,0,sub_2
-0.0114348000000002,0.0078690000000012,0.0287811999999999,0.0037754000000005,-0.0036721999999991,0.0034478,0,sub_2
-0.0120646000000002,0.0076878000000012,0.0290247999999999,0.0017998000000005,-0.0017791999999991,0.0042852,0,sub_2
-0.0119014000000002,0.0081778000000012,0.0286239999999999,0.0004596000000005,-0.0013781999999991,0.0047016,0,sub_2
-0.0116536000000002,0.0083032000000012,0.0279713999999999,3.760000000057757e-05,-0.0003113999999991,0.0046972,0,sub_2
-0.0119396000000002,0.0084454000000012,0.0280047999999999,-0.0001699999999994,0.0003312000000008,0.004054,0,sub_2
-0.0119488000000002,0.0093698000000012,0.0278545999999999,-0.0005977999999994,0.0005440000000008,0.004478,0,sub_2
-0.0118076000000002,0.0095242000000012,0.0268059999999999,0.0001936000000005,0.0009474000000008,0.0040568,0,sub_2
-0.0110200000000002,0.0092574000000012,0.0259865999999999,0.0007706000000005,0.0015630000000008,0.0040611999999999,0,sub_2
-0.0105658000000002,0.0088504000000012,0.0255223999999999,0.0007000000000005,0.0006884000000008,0.0042765999999999,0,sub_2
-0.0104898000000002,0.0086242000000012,0.0268985999999999,0.0002064000000005,0.0006676000000008,0.004488,0,sub_2
-0.0111562000000002,0.0081686000000012,0.0282067999999999,-0.0004985999999994,0.0004370000000008,0.0040572,0,sub_2
-0.0109872000000002,0.0083874000000012,0.0273289999999999,-0.0013577999999994,-0.0008383999999991,0.0040528,0,sub_2
-0.0112074000000002,0.0085170000000012,0.0262485999999999,-0.0013625999999994,-0.0019037999999991,0.0040542,0,sub_2
-0.0108562000000002,0.0084688000000012,0.0264047999999998,-0.0011481999999994,-0.0019035999999991,0.0038422,0,sub_2
-0.0110010000000002,0.0085388000000012,0.0260375999999998,7.720000000053751e-05,-0.0012733999999991,0.0034228,0,sub_2
-0.0117554000000002,0.0083630000000012,0.0270397999999998,0.0008720000000005,-0.0010693999999991,0.0034283999999999,0,sub_2
-0.0123882000000002,0.0082896000000012,0.0288141999999998,0.0008162000000005,-0.0006475999999991,0.0030005999999999,0,sub_2
-0.0126348000000002,0.0087704000000012,0.0289715999999999,0.0005500000000005,0.0002018000000008,0.0023568,0,sub_2
-0.0129712000000002,0.0083644000000012,0.0280187999999999,0.0011428000000005,0.0025386000000008,0.0019308,0,sub_2
-0.0128860000000002,0.0082928000000012,0.0279721999999999,0.0020050000000004,0.0042408000000007,0.001721,0,sub_2
-0.0116448000000002,0.0095912000000012,0.0278163999999999,0.0037110000000005,0.0044462000000007,0.0021598,0,sub_2
-0.0119192000000002,0.0098010000000012,0.0289601999999999,0.0049950000000005,0.0055060000000008,0.002381,0,sub_2
-0.0134068000000002,0.0083948000000012,0.0312297999999999,0.0058122000000005,0.0076340000000008,0.0019532,0,sub_2
-0.0133510000000002,0.0084390000000012,0.0327287999999999,0.0059808000000005,0.0076346000000008,0.0013098,0,sub_2
-0.0124288000000002,0.0082582000000012,0.0322789999999998,0.0042298000000005,0.0078550000000008,0.0006528,0,sub_2
-0.0119634000000002,0.0070954000000012,0.0310065999999998,0.0018502000000005,0.0102098000000008,-0.0004385999999999,0,sub_2
-0.0114502000000002,0.0072104000000012,0.0279261999999998,0.0003118000000005,0.0108530000000008,-0.0004537999999999,0,sub_2
-0.0096826000000002,0.0083656000000012,0.0255423999999998,-0.0005569999999994,0.0080838000000008,0.0001846,0,sub_2
-0.0095348000000002,0.0092832000000012,0.0250885999999998,-0.0001341999999994,0.0080788000000008,0.0010422,0,sub_2
-0.0110296000000002,0.0092954000000012,0.0250367999999998,0.0026454000000005,0.0095596000000008,0.0012734,0,sub_2
-0.0115692000000002,0.0091256000000012,0.0247091999999998,0.0058460000000005,0.0089118000000008,0.0006556,0,sub_2
-0.0107132000000002,0.0089814000000012,0.0258357999999999,0.0090114000000005,0.0074134000000008,2.8200000000055112e-05,0,sub_2
-0.0104380000000002,0.0083368000000012,0.0272161999999999,0.0106860000000005,0.0069836000000008,-0.0001835999999999,0,sub_2
-0.0105392000000002,0.0079452000000012,0.0282521999999999,0.0106518000000005,0.0067704000000008,0.0002332,0,sub_2
-0.0103042000000002,0.0079530000000012,0.0280235999999999,0.0089040000000005,0.0057084000000008,0.00128,0,sub_2
-0.0102956000000002,0.0082184000000012,0.0283147999999999,0.0069428000000005,0.0044348000000008,0.002112,0,sub_2
-0.0107748000000002,0.0079626000000012,0.0291409999999999,0.0056626000000005,0.0046514000000008,0.0023164,0,sub_2
-0.0110236000000002,0.0085322000000012,0.0289863999999999,0.0048120000000005,0.0055058000000008,0.002523,0,sub_2
-0.0113528000000002,0.0088860000000012,0.0277611999999999,0.0039300000000005,0.0038054000000008,0.002503,0,sub_2
-0.0109868000000002,0.0091890000000012,0.0278599999999999,0.0039024000000005,0.0023150000000008,0.0024886,0,sub_2
-0.0116082000000002,0.0095048000000012,0.0278273999999999,0.0047312000000005,0.0018852000000008,0.0029062,0,sub_2
-0.0119832000000002,0.0097342000000012,0.0278305999999999,0.0053466000000005,0.0010316000000008,0.0028954,0,sub_2
-0.0118800000000002,0.0097464000000012,0.0281043999999999,0.0057506000000005,0.0003928000000008,0.0026692,0,sub_2
-0.0115230000000002,0.0093512000000012,0.0283355999999999,0.0061802000000005,0.0006060000000008,0.0022446,0,sub_2
-0.0116992000000002,0.0088132000000012,0.0285401999999999,0.0063954000000005,0.0006068000000008,0.0018188,0,sub_2
-0.0116504000000002,0.0084568000000012,0.0287819999999998,0.0061840000000005,0.0008214000000008,0.0016034,0,sub_2
