userAcceleration.x,userAcceleration.y,userAcceleration.z,rotationRate.x,rotationRate.y,rotationRate.z,label,subject
-0.0201192000000002,0.0022320000000012,0.0104944,-0.0006035999999995,-0.0069351999999994,-0.0082524,0,sub_13
-0.0156816000000002,0.0038328000000012,0.006905,0.0011236000000004,-0.0016205999999994,-0.0088808,0,sub_13
-0.0098384000000002,0.0043422000000012,0.003102,0.0019848000000004,0.0038982000000005,-0.0065244,0,sub_13
-0.0063540000000002,0.0048088000000012,0.001312,0.0032566000000004,0.0089766000000005,-0.00096,0,sub_13
-0.0044998000000002,0.0043624000000012,0.0013062,0.0058018000000003,0.0142568000000005,0.0063223999999999,0,sub_13
-0.0049644000000001,0.0053250000000012,0.003342,0.0096424000000003,0.0216704000000005,0.0138171999999999,0,sub_13
-0.0050814000000001,0.0059100000000012,0.0064463999999999,0.0141490000000004,0.0344098000000005,0.0208825999999998,0,sub_13
-0.0135954000000001,0.0065368000000012,0.0072437999999999,0.0192814000000004,0.0441632000000005,0.0281697999999999,0,sub_13
-0.0214218000000001,0.0066674000000012,0.0086173999999999,0.0213706000000004,0.0424110000000005,0.0345913999999999,0,sub_13
-0.0282522000000001,0.0060918000000012,0.0119375999999999,0.0189380000000004,0.0291788000000005,0.0386459999999999,0,sub_13
-0.0343682000000001,0.0032592000000012,0.0129145999999999,0.0130924000000004,0.0132008000000005,0.0396891999999999,0,sub_13
-0.0410364000000001,0.0015970000000012,0.0142965999999999,0.0057272000000004,-0.0102217999999994,0.0390223999999999,0,sub_13
-0.0419178000000001,0.0021264000000012,0.0180635999999999,0.0004958000000004,-0.0359859999999994,0.0360233999999999,0,sub_13
-0.0394900000000001,0.0022374000000012,0.0215672,-0.0055743999999995,-0.0627877999999994,0.0304605999999999,0,sub_13
-0.0298864000000002,0.0038896000000012,0.0202325999999999,-0.0143591999999995,-0.0778557999999993,0.0233683999999999,0,sub_13
-0.0118292000000002,0.0044906000000012,0.0190113999999999,-0.0192341999999995,-0.0780217999999994,0.0158569999999999,0,sub_13
-0.0030668000000002,0.0033898000000012,0.0158509999999999,-0.0029077999999995,-0.0580243999999994,0.0088749999999999,0,sub_13
-0.0123500000000002,0.0259992000000012,0.0304791999999999,0.0713124000000004,-0.0498379999999994,-0.0250338,0,sub_13
0.0215539999999997,0.0606108000000012,0.0461581999999999,0.1831502000000004,0.0083102000000005,-0.118137,0,sub_13
0.0757405999999997,0.0744020000000012,0.0192828,0.2617960000000005,0.0507868000000005,-0.1529134,0,sub_13
0.0870541999999997,0.0998712000000012,-0.0065015999999999,0.3600784000000004,0.0527354000000005,-0.0864468,0,sub_13
0.0793223999999998,0.1516226000000012,0.031475,0.4095808000000004,0.0568500000000005,0.0136657999999999,0,sub_13
0.1458339999999998,0.1447956000000012,0.048119,0.3318332000000004,0.0978146000000005,0.1196785999999999,0,sub_13
0.1693827999999997,0.0655704000000012,0.0305195999999999,0.1722050000000004,0.0907974000000005,0.3076479999999999,0,sub_13
0.1396131999999998,-0.0292475999999987,0.0490147999999999,0.0937532000000004,0.2585818000000005,0.4091837999999999,0,sub_13
0.0898431999999997,-0.0530757999999987,0.0797885999999999,0.0379332000000004,0.4905094000000005,0.3813271999999999,0,sub_13
0.0644859999999998,-0.0998719999999987,0.0562407999999999,0.0476980000000004,0.6968148000000006,0.3105915999999999,0,sub_13
-0.0165050000000002,-0.1002533999999987,0.0307879999999999,0.1501182000000004,0.9187578000000004,0.2449697999999998,0,sub_13
-0.0969824000000001,-0.0405883999999987,0.0235112,0.2956942000000004,1.1206518000000003,0.1474147999999999,0,sub_13
-0.1374056000000001,0.0401260000000012,0.0279636,0.3963466000000004,1.1338476000000006,0.0771341999999999,0,sub_13
-0.1148738000000002,0.0225182000000012,0.0215144,0.4351410000000004,1.0887540000000009,0.0385427999999999,0,sub_13
-0.0938802000000001,0.0011600000000012,0.0109422,0.4353196000000004,1.010293200000001,0.0127567999999999,0,sub_13
-0.0747724000000001,-0.0217623999999987,0.0039552,0.3950630000000004,0.8775758000000005,0.0038493999999999,0,sub_13
-0.0626674000000001,-0.0363315999999987,0.0077904,0.3339540000000004,0.7316364000000005,0.0161775999999999,0,sub_13
-0.0678930000000001,-0.0232665999999987,0.0035083999999999,0.2505006000000004,0.5719938000000007,0.0512641999999999,0,sub_13
-0.0797312000000002,0.0147592000000012,-0.0019084,0.1773496000000003,0.4314672000000005,0.0921665999999999,0,sub_13
-0.0730594000000001,0.0523764000000012,-0.0103892,0.1094532000000004,0.3485262000000005,0.1133765999999999,0,sub_13
-0.0698064000000001,0.0544044000000012,-0.0146279999999999,0.0728826000000004,0.2843042000000005,0.1149125999999999,0,sub_13
-0.0592184000000001,0.0459012000000012,-0.0142197999999999,0.0807236000000004,0.2619478000000005,0.1045275999999999,0,sub_13
-0.0462840000000001,0.0266748000000012,-0.0151809999999999,0.1082424000000003,0.2925934000000006,0.0892981999999999,0,sub_13
-0.0295726000000001,0.0067586000000012,-0.0254053999999999,0.1283444000000003,0.2934122000000005,0.0802509999999999,0,sub_13
-0.0209556000000002,-0.0119949999999987,-0.0404879999999999,0.1419864000000004,0.2534802000000006,0.0910797999999999,0,sub_13
-0.0165066000000002,-0.0084423999999987,-0.041338,0.1523684000000003,0.2169018000000005,0.1185457999999999,0,sub_13
-0.0224438000000002,-0.0014321999999987,-0.038749,0.1410420000000004,0.1895734000000005,0.1426433999999999,0,sub_13
-0.0361650000000002,0.0042968000000012,-0.0321674,0.1249916000000004,0.1448346000000005,0.1558345999999999,0,sub_13
-0.0485978000000002,0.0197278000000012,-0.0159562,0.1096410000000003,0.1084222000000005,0.1641059999999999,0,sub_13
-0.0667184000000002,0.0283910000000012,0.0050625999999999,0.0844328000000003,0.0609722000000005,0.1706135999999999,0,sub_13
-0.0778314000000002,0.0312056000000011,0.0091707999999999,0.0439478000000004,-0.0088191999999993,0.1830251999999999,0,sub_13
-0.0928044000000002,0.0278042000000011,0.004659,0.0019888000000004,-0.1095473999999994,0.2076439999999998,0,sub_13
-0.1004588000000002,0.0271690000000012,0.0004638,-0.0396737999999995,-0.2409497999999993,0.2305949999999998,0,sub_13
-0.1128196000000002,0.0196864000000012,-0.0027363999999999,-0.0719959999999995,-0.3894037999999994,0.2472237999999998,0,sub_13
-0.1194826000000002,0.0096802000000012,-0.0046358,-0.0974911999999995,-0.5385189999999994,0.2634737999999998,0,sub_13
-0.1208756000000002,0.0095256000000012,-0.004801,-0.1298161999999995,-0.6905829999999995,0.2771161999999999,0,sub_13
-0.1110634000000002,0.0191028000000012,0.0003927999999999,-0.1559829999999996,-0.8522439999999994,0.2878227999999999,0,sub_13
-0.1043376000000002,0.0265502000000012,0.0069269999999999,-0.1846489999999995,-0.9962289999999994,0.3025485999999999,0,sub_13
-0.0868678000000002,0.0020922000000012,0.0056891999999999,-0.2362949999999995,-1.117795199999999,0.3252035999999999,0,sub_13
-0.0595372000000002,0.0155124000000012,0.0234679999999999,-0.2172755999999995,-1.1935693999999994,0.2903959999999999,0,sub_13
-0.0336626000000002,0.0332386000000012,0.0343883999999999,-0.2179441999999995,-1.2099535999999993,0.2325145999999998,0,sub_13
-0.0085494000000002,0.0376016000000012,0.0420326,-0.2273399999999995,-1.1503641999999994,0.1507603999999999,0,sub_13
0.0120671999999998,0.0356384000000012,0.0394059999999999,-0.2150379999999995,-1.0304761999999994,0.0492115999999999,0,sub_13
0.0180381999999998,0.0494800000000012,0.0371961999999999,-0.1589625999999995,-0.8674453999999996,-0.0634098,0,sub_13
0.0141783999999998,0.0323098000000012,0.0133557999999999,-0.1535861999999995,-0.7210953999999995,-0.1165436,0,sub_13
0.0123153999999998,0.0071340000000012,-0.0019044,-0.1057083999999995,-0.6291375999999995,-0.1374778,0,sub_13
0.0102825999999997,-0.0065273999999987,-0.0098006,-0.0617215999999995,-0.5736879999999994,-0.1361734,0,sub_13
0.0200839999999997,-0.0091709999999987,-0.0017743999999999,-0.0387841999999995,-0.5373867999999995,-0.1232412,0,sub_13
0.0366311999999997,-0.0043819999999987,-0.0052855999999999,-0.0463581999999995,-0.5009781999999994,-0.1107358,0,sub_13
0.0489185999999997,-0.0021177999999987,-0.0138653999999999,-0.0587505999999995,-0.4472849999999994,-0.10085,0,sub_13
0.0556765999999997,-0.0027837999999987,-0.0283991999999999,-0.0614653999999995,-0.3829479999999994,-0.0971058,0,sub_13
0.0641975999999997,-0.0030399999999987,-0.0426629999999999,-0.0442993999999995,-0.3116443999999995,-0.0945134,0,sub_13
0.0921901999999997,0.0111896000000012,-0.0468093999999999,0.0465650000000004,-0.2382043999999994,-0.1016708,0,sub_13
0.1056143999999997,0.0216844000000012,-0.0445147999999999,0.2129838000000004,-0.0822735999999994,-0.0774278,0,sub_13
0.0932087999999997,0.0442532000000012,-0.0244573999999999,0.2097676000000004,0.1270408000000005,-0.0958852,0,sub_13
0.1075575999999997,0.0622920000000012,-0.0105345999999999,0.0878414000000004,0.3394184000000005,-0.191233,0,sub_13
0.1191511999999997,0.0362950000000012,-0.0262302,0.0079832000000004,0.5892384000000005,-0.2559976,0,sub_13
0.0449799999999997,-0.0068681999999987,-0.0446677999999999,-0.0282611999999995,0.7997850000000005,-0.2898492000000001,0,sub_13
0.0179265999999997,-0.0278777999999987,-0.0470554,-0.1358575999999995,0.8984842000000006,-0.3699894,0,sub_13
0.0391593999999997,-0.0582593999999987,-0.0678418,-0.1083967999999995,0.8902674000000005,-0.3635912,0,sub_13
0.0282903999999997,-0.0907061999999987,-0.074645,0.0075576000000004,0.9349752000000006,-0.2427704,0,sub_13
0.0174511999999997,-0.0484967999999987,-0.0576787999999999,0.1406768000000004,0.9703710000000004,-0.1523688000000001,0,sub_13
0.0730565999999997,-0.0121187999999987,-0.0391493999999999,0.2033954000000004,1.0213024000000004,-0.0498738000000001,0,sub_13
0.0519303999999997,0.0121080000000012,-0.0253567999999999,0.2391088000000004,1.0270440000000003,0.0815459999999998,0,sub_13
-0.0046914000000002,0.0434382000000012,-0.0050661999999999,0.2767228000000004,1.0261612000000004,0.1629945999999998,0,sub_13
-0.0488974000000001,0.0634600000000012,0.0081632,0.3028450000000004,0.9269064000000004,0.1863777999999998,0,sub_13
-0.0767534000000002,0.0441602000000012,0.0224928,0.2719512000000004,0.7616254000000006,0.2006877999999999,0,sub_13
-0.1036734000000001,0.0302206000000012,0.0262244,0.2129072000000004,0.6125614000000006,0.1799563999999999,0,sub_13
-0.1013150000000001,0.0127512000000012,0.0364624,0.1849146000000004,0.5241570000000005,0.1476137999999999,0,sub_13
-0.0994278000000001,-0.0023123999999987,0.0526851999999999,0.1610054000000004,0.4915514000000005,0.1171511999999999,0,sub_13
-0.1042034000000002,0.0067794000000012,0.0662243999999999,0.1349524000000004,0.5087896000000005,0.0913097999999999,0,sub_13
-0.1235018000000001,0.0290572000000012,0.0548867999999999,0.0842810000000004,0.5094904000000005,0.0665995999999999,0,sub_13
-0.1304166000000002,0.0356822000000012,0.0363981999999999,0.0388140000000004,0.4387796000000006,0.0469309999999999,0,sub_13
-0.1082848000000002,0.0283136000000012,0.0178237999999999,0.0168022000000004,0.3221590000000005,0.0326125999999999,0,sub_13
-0.0681268000000002,0.0145288000000012,0.0044404,0.0300434000000004,0.1831976000000005,0.0335239999999999,0,sub_13
-0.0337806000000002,0.0053280000000012,-0.0019632,0.0522156000000004,0.0545754000000005,0.0517897999999999,0,sub_13
-0.0095520000000002,-0.0073195999999987,0.0088353999999999,0.0730772000000004,-0.0297411999999994,0.0736215999999999,0,sub_13
-0.0068274000000001,-0.0082369999999987,0.0247363999999999,0.0879706000000004,-0.0682177999999994,0.0923619999999999,0,sub_13
-0.0269730000000001,0.0056512000000012,0.0463023999999999,0.0995806000000004,-0.0834365999999994,0.1052811999999999,0,sub_13
-0.0551962000000001,0.0233364000000012,0.0629853999999999,0.0732928000000004,-0.0878393999999994,0.1102307999999999,0,sub_13
-0.0791052000000001,0.0352552000000012,0.0672469999999999,0.0253256000000004,-0.1194427999999994,0.1163455999999999,0,sub_13
-0.0966782000000001,0.0356982000000012,0.0618918,-0.0138291999999995,-0.1792209999999994,0.1276855999999999,0,sub_13
-0.1071934000000001,0.0370670000000012,0.0557266,-0.0464491999999995,-0.2622229999999995,0.1335461999999999,0,sub_13
-0.1036540000000002,0.0312844000000012,0.0422206,-0.0896975999999995,-0.3508811999999994,0.1245983999999999,0,sub_13
-0.0804956000000002,0.0175150000000012,0.0265348,-0.1207703999999995,-0.4446629999999995,0.1076235999999999,0,sub_13
-0.0507020000000002,0.0064766000000012,0.0201668,-0.1227131999999995,-0.5204101999999995,0.0842061999999999,0,sub_13
-0.0228490000000002,0.0074112000000012,0.0274428,-0.1121375999999995,-0.5602115999999995,0.0651029999999999,0,sub_13
-0.0076944000000002,0.0080526000000012,0.0339946,-0.1056893999999995,-0.5597677999999994,0.0551061999999999,0,sub_13
-0.0083608000000002,0.0141632000000012,0.0360746,-0.1013451999999995,-0.5433751999999994,0.0544745999999999,0,sub_13
-0.0209484000000002,0.0184112000000011,0.0343762,-0.0986465999999995,-0.5175849999999995,0.0495465999999999,0,sub_13
-0.0330634000000002,0.0092816000000011,0.030635,-0.0984461999999995,-0.4847279999999994,0.0377553999999999,0,sub_13
-0.0307048000000002,-0.0004409999999987,0.0232971999999999,-0.0999039999999995,-0.4567021999999994,0.0101491999999999,0,sub_13
-0.0140024000000002,-0.0058787999999987,0.0153138,-0.1005099999999995,-0.4305907999999995,-0.0189442,0,sub_13
0.0173935999999997,-0.0127315999999987,0.0046882,-0.0917717999999995,-0.4005195999999994,-0.0340906,0,sub_13
0.0385951999999997,-0.0135669999999987,-0.0027377999999999,-0.0641557999999995,-0.3706145999999994,-0.0241084,0,sub_13
0.0471711999999997,-0.0010659999999987,-0.0048659999999999,-0.0391249999999995,-0.3390249999999995,-0.0068824,0,sub_13
0.0414941999999997,0.0065444000000012,-0.0022961999999999,-0.0221965999999995,-0.3042189999999994,0.0122055999999998,0,sub_13
0.0287907999999997,0.0096924000000012,-0.0009982,-0.0092811999999995,-0.2697867999999994,0.0216521999999998,0,sub_13
0.0053747999999997,0.0142002000000012,0.0024649999999999,-0.0089105999999995,-0.2399397999999994,0.0164891999999998,0,sub_13
-0.0048446000000002,0.0116796000000012,0.0056937999999999,-0.0120933999999995,-0.2108631999999994,-0.0060030000000001,0,sub_13
-0.0070360000000002,0.0071086000000012,0.0093135999999999,-0.0064421999999995,-0.2029391999999994,-0.0211424000000001,0,sub_13
-0.0137906000000002,0.0080230000000012,0.0092386,-0.0106981999999995,-0.2052483999999994,-0.026083,0,sub_13
-0.0176890000000002,0.0089994000000012,0.0114048,-0.0188821999999995,-0.2195047999999994,-0.0235582,0,sub_13
-0.0171316000000002,0.0073696000000012,0.014201,-0.0170777999999995,-0.2421229999999994,-0.0143366000000001,0,sub_13
-0.0275180000000002,0.0076914000000012,0.0227217999999999,-0.0182863999999995,-0.2658147999999994,-0.0004344000000001,0,sub_13
-0.0410532000000001,0.0075134000000012,0.0294081999999999,-0.0226131999999995,-0.2771143999999994,0.0074479999999998,0,sub_13
-0.0507430000000001,0.0088986000000012,0.0363598,-0.0189761999999995,-0.2851971999999995,0.0032043999999998,0,sub_13
-0.0539184000000001,0.0160616000000012,0.0363735999999999,-0.0221209999999995,-0.2919421999999995,-0.0100614000000001,0,sub_13
-0.0525738000000001,0.0211700000000011,0.0340755999999999,-0.0350283999999995,-0.2888295999999994,-0.0313062,0,sub_13
-0.0307270000000001,0.0244872000000011,0.0189173999999999,-0.0446661999999995,-0.2759055999999995,-0.0580956,0,sub_13
0.0101929999999998,0.0168436000000011,0.0072793999999999,-0.0384569999999995,-0.2504657999999994,-0.085004,0,sub_13
0.0535501999999998,0.0041090000000012,0.0021481999999999,-0.0184623999999995,-0.1848527999999994,-0.1003308,0,sub_13
0.0781803999999997,-0.0090297999999987,0.0033089999999999,0.0099976000000004,-0.0767007999999994,-0.1049708,0,sub_13
0.0851511999999997,-0.0140887999999987,0.0025989999999999,0.0446664000000004,0.0443926000000005,-0.1012518,0,sub_13
0.0607869999999997,-0.0138273999999987,0.0043025999999999,0.0753976000000004,0.1480128000000005,-0.0934788,0,sub_13
0.0185717999999997,-0.0039113999999987,0.0016851999999999,0.0927234000000004,0.2148116000000005,-0.083402,0,sub_13
-0.0229302000000002,0.0130406000000012,0.0028214,0.0999234000000004,0.2134644000000005,-0.0724542,0,sub_13
-0.0534658000000002,0.0235910000000012,0.005224,0.0925370000000004,0.1522806000000005,-0.0568314,0,sub_13
-0.0721406000000002,0.0238012000000012,0.006897,0.0660378000000004,0.0658022000000005,-0.039387,0,sub_13
-0.0707158000000002,0.0198138000000012,0.0073292,0.0404140000000004,-0.0210839999999994,-0.0272768,0,sub_13
-0.0593028000000002,0.0176736000000012,0.0116673999999999,0.0249224000000004,-0.0911493999999994,-0.0213132,0,sub_13
-0.0453360000000001,0.0102284000000012,0.0137271999999999,0.0095794000000004,-0.1303133999999994,-0.0175246,0,sub_13
-0.0329122000000001,0.0053116000000012,0.0133283999999999,0.0020642000000004,-0.1381803999999994,-0.0150032,0,sub_13
-0.0221812000000001,0.0073000000000012,0.0130803999999999,0.0059460000000004,-0.1305179999999994,-0.0164814,0,sub_13
-0.0123740000000001,0.0099750000000012,0.0141595999999999,0.0070618000000004,-0.1177461999999994,-0.0145672,0,sub_13
-0.0118962000000001,0.0094042000000012,0.0101361999999999,-0.0004023999999995,-0.1060455999999994,-0.0037384,0,sub_13
-0.0160420000000001,0.0087002000000012,0.0031607999999999,0.0008404000000004,-0.1045979999999994,0.0060959999999999,0,sub_13
-0.0191598000000001,0.0124028000000012,-0.0032214,0.0097044000000004,-0.1219045999999994,0.0106665999999998,0,sub_13
-0.0158062000000001,0.0105894000000012,-0.0072854,0.0011072000000004,-0.1355109999999994,0.0108375999999998,0,sub_13
-0.0086766000000001,0.0093482000000012,-0.015516,-0.0149225999999995,-0.1420571999999994,0.0100929999999998,0,sub_13
0.0137741999999998,0.0062182000000012,-0.0259738,-0.0190797999999995,-0.1266657999999993,0.0008573999999998,0,sub_13
0.0436105999999998,0.0005310000000012,-0.0327118,-0.0154683999999995,-0.0851229999999994,-0.0015206,0,sub_13
0.0635231999999998,-0.0096353999999987,-0.0328006,-0.0117591999999995,-0.0129363999999994,0.0050357999999999,0,sub_13
0.0706235999999997,-0.0151241999999987,-0.0323318,0.0097002000000004,0.0708950000000005,0.0144785999999999,0,sub_13
0.0641723999999998,-0.0167815999999987,-0.0273706,0.0392506000000004,0.1542584000000005,0.0273969999999998,0,sub_13
0.0350137999999997,-0.0083991999999987,-0.017447,0.0586026000000004,0.2058882000000005,0.0462667999999998,0,sub_13
-0.0024226000000002,0.0052552000000012,-0.012593,0.0523088000000004,0.2359262000000005,0.0523799999999998,0,sub_13
-0.0237444000000002,0.0133418000000012,-0.0142061999999999,0.0265530000000004,0.2390426000000005,0.0413001999999998,0,sub_13
-0.0265394000000002,0.0150674000000012,-0.0187271999999999,-0.0031353999999995,0.2187486000000005,0.0272319999999998,0,sub_13
-0.0231924000000002,0.0178754000000012,-0.0241175999999999,-0.0375477999999995,0.1908054000000005,0.0120721999999998,0,sub_13
-0.0063516000000002,0.0151198000000012,-0.0345781999999999,-0.0723427999999995,0.1711786000000005,-0.0045964000000001,0,sub_13
0.0189239999999997,0.0059790000000012,-0.0425423999999999,-0.0886203999999995,0.1491120000000005,-0.0132276,0,sub_13
0.0372797999999997,-0.0049867999999987,-0.0459726,-0.0846313999999995,0.1422496000000005,-0.0054998,0,sub_13
0.0403997999999997,-0.0084457999999987,-0.0454886,-0.0745999999999995,0.1572834000000005,0.0090787999999999,0,sub_13
0.0391327999999997,-0.0057431999999987,-0.0451563999999999,-0.0618671999999995,0.1962000000000005,0.0161681999999999,0,sub_13
0.0345179999999997,-0.0031203999999987,-0.0412633999999999,-0.0581473999999995,0.2603324000000005,0.0122663999999999,0,sub_13
0.0256333999999997,-0.0069787999999987,-0.0409021999999999,-0.0693655999999995,0.3268494000000005,0.0110345999999999,0,sub_13
0.0055489999999997,-0.0062697999999987,-0.0462345999999999,-0.0811533999999995,0.3718086000000005,0.0200813999999999,0,sub_13
-0.0118698000000002,-0.0044181999999987,-0.0436361999999999,-0.0775721999999995,0.3706940000000005,0.0292945999999999,0,sub_13
-0.0203958000000002,-0.0048007999999987,-0.0291857999999999,-0.0746457999999995,0.3252404000000005,0.0449693999999999,0,sub_13
-0.0290362000000002,-0.0024503999999987,-0.0133103999999999,-0.0777065999999995,0.2422584000000005,0.0734691999999999,0,sub_13
-0.0466064000000002,0.0139994000000012,0.013549,-0.0794863999999995,0.1524824000000005,0.0949361999999998,0,sub_13
-0.0574852000000002,0.0272594000000012,0.0450976,-0.0902197999999995,0.0830944000000005,0.0872589999999998,0,sub_13
-0.0665650000000002,0.0301416000000012,0.068142,-0.1173065999999995,0.0547644000000005,0.0559139999999998,0,sub_13
-0.0845828000000002,0.0240406000000012,0.0842427999999999,-0.1401285999999995,0.0497224000000005,0.0066167999999998,0,sub_13
-0.0956924000000002,0.0227592000000012,0.0997097999999999,-0.1329441999999995,0.0814062000000005,-0.0354676000000001,0,sub_13
-0.0889704000000002,0.0139850000000012,0.1035372,-0.1176581999999995,0.1228168000000005,-0.0661846,0,sub_13
-0.0720310000000001,0.0054978000000012,0.1022561999999999,-0.1044871999999995,0.1409314000000005,-0.0768042,0,sub_13
-0.0616818000000001,0.0061170000000012,0.1030186,-0.0779001999999995,0.1390506000000005,-0.053762,0,sub_13
-0.0545554000000001,0.0212356000000012,0.107872,-0.0362479999999995,0.1485158000000005,-0.0060542,0,sub_13
-0.0584680000000001,0.0296116000000012,0.113687,-0.0011259999999995,0.1597766000000005,0.0245141999999999,0,sub_13
-0.0811388000000001,0.0347784000000012,0.1201643999999999,0.0319496000000004,0.1715470000000005,0.0360531999999999,0,sub_13
-0.1062330000000001,0.0440180000000012,0.1293492,0.0725248000000004,0.1765288000000005,0.0337665999999998,0,sub_13
-0.1237038000000001,0.0505854000000012,0.1387402,0.0973460000000004,0.1739582000000005,0.0157833999999998,0,sub_13
-0.1298924000000001,0.0497770000000012,0.1463443999999999,0.0997776000000004,0.1621418000000005,-0.0149492,0,sub_13
-0.1344798000000002,0.0488004000000012,0.148389,0.0824494000000004,0.1237538000000005,-0.0436494,0,sub_13
-0.1313394000000002,0.0533168000000012,0.1471763999999999,0.0573016000000004,0.0638376000000005,-0.0631898000000001,0,sub_13
-0.1335616000000002,0.0562892000000012,0.1344199999999999,0.0432580000000004,0.0102564000000005,-0.0781744,0,sub_13
-0.1369732000000002,0.0570606000000012,0.1190035999999999,0.0423088000000004,-0.0314171999999994,-0.0986374,0,sub_13
-0.1419494000000002,0.0517544000000012,0.0979203999999999,0.0456230000000004,-0.0779897999999994,-0.1231238,0,sub_13
-0.1317350000000002,0.0394938000000012,0.0759531999999999,0.0542620000000004,-0.1245893999999994,-0.1454364,0,sub_13
-0.1098508000000002,0.0256424000000012,0.0589258,0.0631700000000004,-0.1601059999999994,-0.1690432000000001,0,sub_13
-0.0798764000000002,0.0202240000000012,0.0522184,0.0584402000000004,-0.1836753999999994,-0.1848556,0,sub_13
-0.0562556000000002,0.0141266000000012,0.0380166,0.0340678000000004,-0.1972137999999994,-0.1879996,0,sub_13
-0.0330282000000001,0.0014404000000012,0.014979,0.0101030000000004,-0.2061023999999994,-0.1821734,0,sub_13
-0.0130000000000002,-0.0108629999999987,-0.0090029999999999,-0.0013083999999995,-0.2144299999999994,-0.1677146,0,sub_13
0.0052061999999997,-0.0236887999999987,-0.0313155999999999,0.0119308000000004,-0.2256919999999994,-0.1334246000000001,0,sub_13
0.0184555999999997,-0.0360417999999987,-0.0451525999999999,0.0411002000000004,-0.2421675999999994,-0.0879072000000001,0,sub_13
0.0297739999999997,-0.0278657999999987,-0.0444968,0.0827904000000004,-0.2665991999999994,-0.0350282,0,sub_13
0.0245413999999997,-0.0111011999999987,-0.0359242,0.1096508000000004,-0.2728467999999994,0.0121691999999999,0,sub_13
0.0153159999999998,-0.0037787999999987,-0.0324728,0.1202082000000004,-0.2613117999999995,0.0487613999999999,0,sub_13
0.0025865999999998,0.0028956000000012,-0.0307221999999999,0.1229016000000004,-0.2582101999999994,0.0699269999999999,0,sub_13
-0.0045422000000001,0.0052318000000012,-0.031534,0.1249556000000004,-0.2642299999999994,0.0816993999999999,0,sub_13
