userAcceleration.x,userAcceleration.y,userAcceleration.z,rotationRate.x,rotationRate.y,rotationRate.z,label,subject
0.0009249999999998,0.0107860000000011,0.061255,-0.0017697999999995,-0.0081565999999991,0.0106116,0,sub_10
0.0013971999999998,0.0103032000000011,0.0613396,-0.0022049999999995,-0.0096479999999991,0.0110377999999999,0,sub_10
0.0023511999999997,0.0102338000000011,0.0615344,-0.0009591999999995,-0.0175345999999991,0.010843,0,sub_10
0.0022131999999997,0.0103654000000011,0.0613658,0.0022020000000004,-0.0267053999999991,0.0104496,0,sub_10
0.0019853999999997,0.0105140000000012,0.060969,0.0066492000000004,-0.0341777999999991,0.0104904,0,sub_10
0.0017493999999997,0.0100868000000012,0.0615236,0.0106726000000004,-0.0410095999999991,0.0105272,0,sub_10
0.0019493999999997,0.0101316000000012,0.0630258,0.0136272000000004,-0.0480517999999991,0.0107704,0,sub_10
0.0023155999999997,0.0092158000000012,0.065401,0.0155148000000004,-0.0561509999999991,0.0099394,0,sub_10
0.0010909999999997,0.0084844000000012,0.0657834,0.0176160000000004,-0.0650997999999991,0.0082564,0,sub_10
-0.0008150000000001,0.0085538000000012,0.0662222,0.0188962000000004,-0.0680751999999992,0.005278,0,sub_10
-0.0028840000000001,0.0093128000000012,0.0644374,0.0183040000000004,-0.0595423999999991,0.0031266,0,sub_10
-0.0027562000000001,0.0087274000000012,0.0643004,0.0145360000000004,-0.0446099999999992,0.0017994,0,sub_10
-0.0037410000000001,0.0083938000000012,0.0638686,0.0092660000000004,-0.0309535999999992,0.001104,0,sub_10
-0.0026106000000002,0.0092766000000011,0.0641268,0.0033452000000004,-0.0204871999999992,-0.0004461999999999,0,sub_10
-0.0010830000000002,0.0095826000000011,0.063398,-0.0021689999999995,-0.0130109999999992,-0.0004941999999999,0,sub_10
0.0005781999999997,0.0100872000000011,0.0637272,-0.0047149999999995,-0.0100183999999992,-0.0007295999999999,0,sub_10
0.0005571999999997,0.0114510000000011,0.063094,-0.0034355999999995,-0.0102359999999991,-0.0007203999999999,0,sub_10
-0.0002056000000002,0.0114776000000011,0.063195,-0.0006731999999995,-0.0111045999999991,0.0010092,0,sub_10
-0.0015994000000002,0.0098136000000011,0.0639292,0.0035694000000004,-0.0147489999999991,0.0029662,0,sub_10
-0.0023298000000002,0.0091542000000011,0.0642278,0.0082446000000004,-0.0188141999999991,0.0032176,0,sub_10
-0.0020714000000002,0.0095388000000011,0.0638538,0.0114660000000004,-0.0186575999999991,0.0038794,0,sub_10
-0.0023294000000002,0.0096596000000011,0.0640678,0.0121490000000004,-0.0129551999999992,0.0051572,0,sub_10
-0.0025872000000002,0.0098646000000011,0.063784,0.0119862000000004,-0.0061821999999992,0.0057868,0,sub_10
-0.0030818000000002,0.0093068000000012,0.0636978,0.0107566000000004,0.0008068000000007,0.0066224,0,sub_10
-0.0038466000000002,0.0085274000000012,0.0637846,0.0099382000000004,0.0045978000000008,0.0076786,0,sub_10
-0.0044324000000002,0.0070950000000012,0.0639942,0.0086646000000004,0.0069424000000008,0.0085212,0,sub_10
-0.0047250000000002,0.0077414000000012,0.0631772,0.0082474000000004,0.0097110000000008,0.0091556,0,sub_10
-0.0029758000000002,0.0085732000000012,0.0634004,0.0063414000000004,0.0141868000000008,0.0104184,0,sub_10
-0.0019296000000002,0.0083280000000012,0.0647556,0.0044590000000004,0.0153366000000008,0.0114528,0,sub_10
-0.0030862000000002,0.0074392000000012,0.065579,0.0044770000000004,0.0092470000000008,0.0097324,0,sub_10
-0.0037132000000002,0.0075178000000012,0.06565,0.0068468000000004,0.0014560000000008,0.0052532,0,sub_10
-0.0033460000000002,0.0073410000000012,0.0654038,0.0066840000000004,0.0009134000000008,0.0018154,0,sub_10
-0.0036682000000002,0.0075726000000012,0.0653484,0.0046112000000004,0.0050554000000008,0.0007082,0,sub_10
-0.0046722000000002,0.0081632000000012,0.0652032,0.0018536000000004,0.0084748000000008,0.0004708,0,sub_10
-0.0038178000000002,0.0089748000000012,0.0654534,0.0001620000000004,0.0125262000000008,0.0010948,0,sub_10
-0.0031792000000002,0.0087912000000012,0.0653564,-0.0013199999999995,0.0163612000000008,0.0023614,0,sub_10
-0.0024130000000002,0.0077966000000012,0.0648324,-0.0008667999999995,0.0188726000000008,0.003179,0,sub_10
-0.0013382000000002,0.0092700000000011,0.0627238,0.0013050000000004,0.0237224000000008,0.003792,0,sub_10
0.0010269999999997,0.0101820000000011,0.0616558,0.0017774000000004,0.0313438000000008,0.0054578,0,sub_10
0.0029261999999997,0.0103634000000011,0.0619162,-0.0007527999999995,0.0379008000000008,0.009454,0,sub_10
0.0029303999999997,0.0094160000000011,0.062719,-0.0018257999999994,0.0348712000000008,0.0119772,0,sub_10
0.0017411999999997,0.0096354000000011,0.0627448,0.0013296000000005,0.0225122000000008,0.0096648,0,sub_10
0.0012489999999997,0.0090062000000011,0.0628302,0.0053396000000005,0.0084536000000008,0.005438,0,sub_10
0.0019275999999997,0.0098016000000011,0.0635124,0.0076598000000004,0.0005700000000008,0.0035416,0,sub_10
0.0016517999999997,0.0092438000000012,0.0638218,0.0095580000000004,-0.0045489999999991,0.0033478,0,sub_10
0.0005947999999997,0.0084158000000012,0.0644334,0.0114572000000004,-0.0088183999999991,0.0037938,0,sub_10
0.0006345999999997,0.0078122000000011,0.0647182,0.0118696000000004,-0.0094691999999991,0.0063614,0,sub_10
0.0014461999999997,0.0071896000000011,0.0650202,0.0103866000000004,-0.0039373999999991,0.0095486,0,sub_10
0.0009873999999997,0.0071478000000011,0.0640362,0.0080616000000004,0.0033052000000008,0.011873,0,sub_10
0.0012359999999997,0.0081710000000011,0.0644514,0.0044564000000004,0.0092790000000008,0.0129084,0,sub_10
0.0023437999999997,0.0096376000000011,0.0651818,0.0016884000000004,0.0105670000000008,0.0128876,0,sub_10
0.0015127999999997,0.0095690000000012,0.0656308,0.0008196000000004,0.0058880000000008,0.0116056,0,sub_10
-2.8200000000188056e-05,0.0094166000000012,0.0649398,0.0033540000000004,-0.0030563999999991,0.00843,0,sub_10
1.619999999981194e-05,0.0094724000000012,0.0645,0.0054820000000004,-0.0077373999999991,0.0050326,0,sub_10
0.0005779999999998,0.0094972000000012,0.064345,0.0050648000000004,-0.0075151999999992,0.0031066,0,sub_10
-0.0006336000000001,0.0088438000000012,0.0652398,0.0027244000000004,-0.0068643999999992,0.0022348,0,sub_10
-0.0015822000000001,0.0084740000000012,0.0663298,0.0005974000000004,-0.0079119999999992,-0.0003423999999999,0,sub_10
-0.0016932000000002,0.0085438000000012,0.066476,-0.0012997999999995,-0.0047017999999992,-0.0022823999999999,0,sub_10
-0.0017472000000002,0.0090428000000012,0.0652888,-0.0029665999999995,0.0038280000000007,-0.0027321999999999,0,sub_10
-0.0027544000000002,0.0090230000000012,0.065469,-0.0039921999999995,0.0125686000000007,-0.0031779999999999,0,sub_10
-0.0030856000000001,0.0083244000000012,0.0648528,-0.0048237999999995,0.0170474000000007,-0.0036167999999999,0,sub_10
-0.0025050000000001,0.0082282000000012,0.0633698,-0.0035445999999995,0.0157688000000007,-0.0046743999999999,0,sub_10
-0.0021406000000001,0.0084914000000012,0.0627198,-0.0016357999999995,0.0112956000000008,-0.0065781999999999,0,sub_10
-0.0017414000000001,0.0084254000000012,0.0630118,0.0015514000000004,0.0059676000000008,-0.0088991999999999,0,sub_10
-0.0009640000000001,0.0083234000000012,0.062168,0.0038850000000004,0.0023402000000008,-0.0095191999999999,0,sub_10
-0.0004570000000002,0.0089044000000012,0.062351,0.0058036000000004,0.0021196000000008,-0.009292,0,sub_10
-0.0011458000000002,0.0090292000000012,0.0637042,0.0058018000000004,0.0025424000000008,-0.0084379999999999,0,sub_10
-0.0007026000000002,0.0083032000000012,0.0643254,0.0062170000000004,0.0001966000000008,-0.0082183999999999,0,sub_10
-0.0003718000000002,0.0080936000000012,0.063763,0.0064238000000004,-0.0012955999999991,-0.0082149999999999,0,sub_10
0.0004911999999997,0.0091394000000012,0.0624488,0.0066584000000004,0.0033908000000008,-0.0082191999999999,0,sub_10
0.0019627999999997,0.0102618000000012,0.0617809999999999,0.0053982000000004,0.0091426000000008,-0.0069533999999999,0,sub_10
0.0041877999999997,0.0109094000000012,0.0610972,0.0051790000000004,0.0108358000000008,-0.0039661999999999,0,sub_10
0.0051487999999997,0.0108202000000012,0.0621542,0.0047178000000004,0.0071992000000008,9.44000000000615e-05,0,sub_10
0.0043485999999997,0.0105592000000012,0.0634562,0.0076484000000004,-0.0026227999999991,0.0029048,0,sub_10
0.0025403999999997,0.0088268000000012,0.064203,0.0131280000000004,-0.0175567999999991,0.0031758,0,sub_10
0.0017599999999997,0.0080210000000012,0.0643648,0.0184336000000004,-0.0250279999999991,0.0021542,0,sub_10
0.0013615999999997,0.0076878000000012,0.0654918,0.0188748000000004,-0.0211971999999991,0.0027934,0,sub_10
0.0003497999999997,0.0079618000000012,0.066764,0.0163402000000004,-0.0137383999999991,0.0044754,0,sub_10
-4.760000000020783e-05,0.0077234000000012,0.0677404,0.0116662000000004,-0.0083989999999991,0.0052904,0,sub_10
-0.0001274000000002,0.0082142000000012,0.0683004,0.0080552000000004,-0.0058027999999991,0.0048066,0,sub_10
-0.0004672000000001,0.0080484000000012,0.067524,0.0059234000000004,-0.0066197999999991,0.0041238,0,sub_10
-0.0013708000000001,0.0083890000000012,0.0667652,0.0050776000000004,-0.0076481999999991,0.0019548,0,sub_10
-0.0023462000000001,0.0088288000000011,0.0663796,0.0050988000000004,-0.0061213999999991,-0.0006387999999999,0,sub_10
-0.0029704000000001,0.0088978000000011,0.0661626,0.0063962000000004,-0.0054511999999991,-0.0032221999999999,0,sub_10
-0.0030516000000001,0.0093630000000011,0.0661442,0.0076744000000004,-0.0069427999999991,-0.0042795999999999,0,sub_10
-0.0023562000000001,0.0095622000000011,0.066476,0.0080992000000004,-0.0082191999999991,-0.0051295999999999,0,sub_10
-0.0026240000000001,0.0085976000000011,0.0667602,0.0078868000000004,-0.0086421999999991,-0.0057715999999999,0,sub_10
-0.0030436000000001,0.0073824000000011,0.065979,0.0074310000000004,-0.0103473999999991,-0.0079515999999999,0,sub_10
-0.0037106000000001,0.0065676000000011,0.0657016,0.0074098000000004,-0.0105621999999991,-0.0103441999999999,0,sub_10
-0.0026538000000001,0.0069366000000011,0.0659796,0.0065504000000004,-0.0067283999999991,-0.0121067999999999,0,sub_10
-0.0031718000000001,0.0074044000000011,0.0663572,0.0048308000000004,-0.0024731999999991,-0.0119531999999999,0,sub_10
-0.0042088000000001,0.0076338000000011,0.066524,0.0043674000000004,-0.0031241999999991,-0.0113571999999999,0,sub_10
-0.0043966000000002,0.0079294000000011,0.0662442,0.0052114000000004,-0.0054699999999991,-0.0115619999999999,0,sub_10
-0.0031392000000002,0.0081556000000012,0.0657584,0.0054238000000004,-0.0052593999999991,-0.0111333999999999,0,sub_10
-0.0030124000000002,0.0079898000000012,0.0653214,0.0050086000000004,-0.0016401999999991,-0.0100727999999999,0,sub_10
-0.0025872000000002,0.0080466000000012,0.064759,0.0041570000000004,0.0034480000000008,-0.0096773999999999,0,sub_10
-0.0005386000000002,0.0081538000000012,0.0640686,0.0016052000000004,0.0093968000000008,-0.0099357999999999,0,sub_10
0.0008915999999997,0.0079860000000012,0.064198,-0.0007429999999995,0.0140632000000007,-0.0093365999999999,0,sub_10
0.0011549999999997,0.0092914000000012,0.0643234,-0.0009697999999995,0.0155282000000007,-0.0091457999999999,0,sub_10
0.0015041999999997,0.0102054000000012,0.0634874,-0.0005659999999995,0.0146482000000007,-0.0091611999999999,0,sub_10
0.0028477999999997,0.0113324000000012,0.063432,6.640000000046374e-05,0.0140024000000007,-0.0080875999999999,0,sub_10
0.0034039999999997,0.0118330000000012,0.0646694,0.0017522000000004,0.0116436000000007,-0.0057227999999999,0,sub_10
0.0024487999999997,0.0114104000000012,0.0660194,0.0044916000000004,0.0065104000000008,-0.0031333999999999,0,sub_10
0.0009827999999997,0.0099622000000012,0.065617,0.0063676000000004,0.0039196000000008,-0.0014053999999999,0,sub_10
-0.0002994000000002,0.0088334000000012,0.0656362,0.0074168000000004,0.0053874000000008,-0.0016109999999999,0,sub_10
-0.0011236000000002,0.0083166000000012,0.0654004,0.0076328000000004,0.0102714000000007,-0.0028951999999999,0,sub_10
-0.0024776000000002,0.0075408000000012,0.0658454,0.0057218000000004,0.0166540000000007,-0.0041959999999999,0,sub_10
-0.0033584000000002,0.0070706000000011,0.0663464,0.0035906000000004,0.0215462000000007,-0.0054963999999999,0,sub_10
-0.0036946000000001,0.0074672000000011,0.0664638,0.0023256000000004,0.0238984000000007,-0.0065763999999999,0,sub_10
-0.0033954000000001,0.0084384000000011,0.0665666,0.0019074000000004,0.0258172000000007,-0.0065817999999999,0,sub_10
-0.0029852000000001,0.0084988000000011,0.0672146,0.0017112000000004,0.0302894000000007,-0.0059479999999999,0,sub_10
-0.0028386000000001,0.0088400000000011,0.066574,0.0014760000000004,0.0351972000000007,-0.0055307999999999,0,sub_10
-0.0026966000000001,0.0089340000000012,0.066058,-0.0002583999999995,0.0381954000000007,-0.0057625999999999,0,sub_10
-0.0021124000000001,0.0084610000000012,0.0660426,-0.0022157999999995,0.0388516000000007,-0.0062065999999999,0,sub_10
-0.0017676000000002,0.0078928000000012,0.0654222,-0.0028899999999995,0.0401426000000007,-0.0066423999999999,0,sub_10
-0.0023950000000002,0.0086408000000012,0.0642668,-0.0018599999999995,0.0412128000000007,-0.0066385999999999,0,sub_10
-0.0010930000000002,0.0093192000000011,0.063402,0.0009168000000004,0.0431156000000007,-0.0053397999999999,0,sub_10
0.0005491999999997,0.0101234000000011,0.0628962,0.0028352000000004,0.0456534000000008,-0.0023385999999999,0,sub_10
0.0014387999999997,0.0099940000000011,0.0637882,0.0032428000000004,0.0449982000000007,0.0012972,0,sub_10
0.0010661999999997,0.0090918000000011,0.0643048,0.0035962000000004,0.0413838000000008,0.0045174,0,sub_10
0.0006197999999997,0.0086160000000011,0.0642414,0.0045906000000004,0.0369192000000008,0.006675,0,sub_10
-0.0005046000000001,0.0092570000000012,0.0646138,0.0053784000000004,0.0337346000000007,0.0086158,0,sub_10
-0.0007276000000001,0.0093184000000011,0.0647556,0.0049042000000004,0.0348148000000008,0.010756,0,sub_10
-0.0011082000000001,0.0095942000000011,0.0654344,0.0044406000000004,0.0376020000000007,0.012253,0,sub_10
-0.0011728000000002,0.0088454000000011,0.06559,0.0035872000000004,0.0369684000000007,0.011607,0,sub_10
-0.0003800000000002,0.0075316000000011,0.0663228,0.0020916000000004,0.0335768000000007,0.0086098,0,sub_10
0.0016475999999997,0.0072170000000011,0.0660186,0.0006028000000004,0.0308276000000007,0.0047574,0,sub_10
0.0032431999999997,0.0080738000000011,0.0662196,-0.0011517999999995,0.0265982000000007,0.0028566,0,sub_10
0.0024255999999997,0.0083062000000011,0.0656484,-0.0014347999999995,0.0193732000000008,0.0028928,0,sub_10
0.0016057999999997,0.0092048000000011,0.0656262,0.0012520000000004,0.0102126000000008,0.0048748,0,sub_10
-0.0004416000000001,0.0095992000000011,0.0648336,0.0050116000000004,0.0029632000000008,0.007503,0,sub_10
-0.0014508000000001,0.0089140000000011,0.0643462,0.0077350000000004,0.0027474000000008,0.0103286,0,sub_10
-0.0023964000000001,0.0083052000000011,0.0633976,0.0103108000000004,0.0055106000000008,0.0097022,0,sub_10
4.959999999979235e-05,0.0084872000000011,0.063508,0.0094832000000004,0.0093562000000008,0.0077688,0,sub_10
0.0020781999999997,0.0096088000000011,0.064327,0.0041720000000004,0.0130026000000008,0.0062316,0,sub_10
0.0047247999999997,0.0103822000000011,0.0642644,-0.0003077999999995,0.0130190000000008,0.0059866,0,sub_10
0.0056549999999997,0.0117642000000011,0.0630016,-0.0014231999999995,0.0083270000000008,0.0053776,0,sub_10
0.0059979999999997,0.0120414000000011,0.0630852,-0.0001923999999995,0.0042626000000008,0.0056388,0,sub_10
0.0055163999999997,0.0115606000000011,0.0635572,0.0018926000000004,-1.6199999999187005e-05,0.0054788,0,sub_10
0.0049115999999997,0.0105538000000011,0.0641332,0.0052502000000004,-0.0068525999999991,0.0044766,0,sub_10
0.0038981999999997,0.0103540000000011,0.0649056,0.0071238000000004,-0.0119775999999991,0.0030346,0,sub_10
0.0027667999999997,0.0098278000000011,0.065417,0.0058464000000004,-0.0121827999999991,0.0021714,0,sub_10
0.0023169999999997,0.0107086000000012,0.0648726,0.0035204000000004,-0.0074873999999991,0.0021492,0,sub_10
0.0016669999999997,0.0107842000000012,0.064235,0.0007706000000004,-0.0019391999999991,0.0023366,0,sub_10
0.0007587999999997,0.0104320000000012,0.0636734,-0.0021945999999995,0.0021226000000008,0.001456,0,sub_10
0.0004051999999997,0.0096810000000011,0.0636416,-0.0043195999999995,0.0023498000000008,-0.0002683999999999,0,sub_10
-4.200000000207613e-06,0.0095450000000011,0.0634454,-0.0045319999999994,0.0002294000000008,-0.0026171999999999,0,sub_10
-0.0003706000000002,0.0097024000000011,0.0632606,-0.0049615999999995,-0.0023179999999991,-0.0045397999999999,0,sub_10
-0.0006670000000001,0.0102744000000011,0.0631758,-0.0051749999999995,-0.0033783999999991,-0.0056081999999999,0,sub_10
-0.0013756000000001,0.0095948000000011,0.063502,-0.0058179999999994,-0.0040151999999991,-0.0056117999999999,0,sub_10
-0.0029070000000001,0.0086326000000011,0.0640228,-0.0051797999999994,-0.0055043999999991,-0.0066735999999999,0,sub_10
-0.0044196000000001,0.0075986000000011,0.0643036,-0.0036843999999995,-0.0082663999999991,-0.0098643999999999,0,sub_10
-0.0052070000000001,0.0063282000000011,0.064802,-0.0036747999999995,-0.0101677999999991,-0.0139211999999999,0,sub_10
-0.0057040000000002,0.0053492000000011,0.0666994,-0.0053673999999995,-0.0105733999999991,-0.0175643999999999,0,sub_10
-0.0069402000000002,0.0056918000000011,0.0682168,-0.0077057999999995,-0.0124673999999991,-0.0214239999999999,0,sub_10
-0.0083506000000002,0.0055264000000011,0.0695867999999999,-0.0104997999999995,-0.0205393999999991,-0.0250651999999999,0,sub_10
-0.0105004000000001,0.0039642000000011,0.0719441999999999,-0.0118339999999995,-0.0331507999999991,-0.0276001999999999,0,sub_10
-0.0138176000000001,0.0021040000000011,0.0725928,-0.0080369999999995,-0.0440729999999991,-0.0307423999999999,0,sub_10
-0.0171084000000001,0.0022946000000012,0.0696336,-0.0037583999999995,-0.0417915999999991,-0.0328299999999999,0,sub_10
-0.0157550000000001,0.0033694000000012,0.0661734,-0.0038839999999995,-0.0173575999999991,-0.0298491999999999,0,sub_10
-0.0113078000000001,0.0054832000000012,0.0641742,-0.0133481999999995,0.0251908000000008,-0.0199065999999999,0,sub_10
-0.0061818000000002,0.0077430000000012,0.0625998,-0.0285701999999995,0.0690832000000008,-0.0074639999999999,0,sub_10
-0.0020290000000002,0.0097742000000012,0.0619052,-0.0404547999999995,0.0944340000000008,0.00353,0,sub_10
0.0030499999999997,0.0111926000000012,0.061476,-0.0426067999999995,0.0961228000000007,0.0092812,0,sub_10
0.0066073999999997,0.0130860000000012,0.0613424,-0.0378015999999995,0.0795486000000007,0.011037,0,sub_10
0.0060905999999997,0.0131958000000012,0.0612858,-0.0259877999999995,0.0527350000000007,0.009864,0,sub_10
0.0028919999999997,0.0115078000000011,0.0623896,-0.0088587999999995,0.0193076000000007,0.0063864,0,sub_10
0.0011155999999997,0.0096940000000011,0.0632726,0.0057424000000004,-0.0062303999999992,0.003522,0,sub_10
0.0004935999999997,0.0086584000000011,0.06405,0.0108070000000004,-0.0121543999999991,0.0056934,0,sub_10
-0.0009876000000002,0.0068626000000011,0.065337,0.0072056000000004,-0.0004477999999991,0.0116354,0,sub_10
-0.0018052000000002,0.0059272000000011,0.066579,0.0004372000000004,0.0174538000000007,0.0162652,0,sub_10
-0.0008382000000002,0.0065734000000012,0.0666768,-0.0082295999999994,0.0383524000000007,0.0189552,0,sub_10
0.0012389999999997,0.0076474000000012,0.066072,-0.0184177999999994,0.0576634000000007,0.02162,0,sub_10
0.0023613999999997,0.0078790000000012,0.0650692,-0.0262953999999994,0.0690824000000008,0.0245246,0,sub_10
0.0026925999999997,0.0088196000000012,0.0631948,-0.0293093999999994,0.0691986000000007,0.0259822,0,sub_10
0.0045515999999997,0.0102908000000012,0.0621098,-0.0306355999999994,0.0667452000000008,0.0291642,0,sub_10
0.0039131999999997,0.0090146000000012,0.0627176,-0.0292107999999995,0.0600176000000008,0.0332252,0,sub_10
0.0012241999999997,0.0070682000000012,0.0642248,-0.0237359999999994,0.0433818000000008,0.0328574,0,sub_10
-0.0026652000000002,0.0050618000000012,0.0666858,-0.0163311999999994,0.0231404000000008,0.0267394,0,sub_10
-0.0024414000000002,0.0054286000000012,0.0690778,-0.0112265999999995,0.0120734000000008,0.0193116,0,sub_10
-0.0039022000000002,0.0053274000000012,0.0693346,-0.0092949999999995,0.0103254000000008,0.0131244,0,sub_10
-0.0020812000000002,0.0080886000000012,0.0674886,-0.0128775999999995,0.0181758000000008,0.009023,0,sub_10
-0.0010602000000002,0.0097962000000012,0.0665332,-0.0209023999999995,0.0381712000000008,0.0085068,0,sub_10
0.0006073999999997,0.0110768000000012,0.066106,-0.0297979999999995,0.0560322000000008,0.0096964,0,sub_10
-0.0007174000000002,0.0088464000000011,0.0656822,-0.0344703999999995,0.0625926000000008,0.0094346,0,sub_10
-0.0003676000000002,0.0093346000000011,0.0636904,-0.0342625999999995,0.0598282000000008,0.007944,0,sub_10
-0.0001970000000002,0.0098866000000011,0.062852,-0.0300171999999995,0.0534276000000008,0.0064862,0,sub_10
0.0007309999999997,0.0110478000000011,0.0621548,-0.0234497999999995,0.0431772000000008,0.0067588,0,sub_10
0.0017347999999997,0.0106130000000011,0.061123,-0.0166625999999995,0.0329246000000008,0.007284,0,sub_10
0.0020973999999997,0.0106174000000011,0.0602532,-0.0111535999999995,0.0233146000000008,0.008013,0,sub_10
0.0018969999999997,0.0104254000000011,0.0619754,-0.0073449999999995,0.0137164000000008,0.0072346,0,sub_10
0.0006701999999997,0.0104228000000012,0.0631572,-0.0052383999999995,0.0051896000000008,0.006443,0,sub_10
4.4599999999771735e-05,0.0093736000000012,0.0637352,-0.0050261999999995,0.0013608000000008,0.004564,0,sub_10
-0.0008476000000002,0.0096534000000011,0.0639282,-0.0048107999999995,-0.0003359999999991,0.0024312,0,sub_10
-0.0013774000000002,0.0100900000000011,0.0641074,-0.0028923999999995,-0.0037395999999991,-0.0005419999999999,0,sub_10
-0.0011212000000002,0.0091048000000011,0.063347,-0.0016139999999995,-0.0065041999999991,-0.0028795999999999,0,sub_10
0.0001215999999997,0.0086726000000011,0.0635052,-0.0024131999999995,-0.0065815999999991,-0.0030573999999999,0,sub_10
0.0007835999999997,0.0089422000000011,0.0636604,-0.0034419999999995,-0.0090067999999991,-0.0019519999999999,0,sub_10
0.0009283999999997,0.0091522000000011,0.065012,-0.0031935999999995,-0.0127121999999991,-0.0014769999999999,0,sub_10
0.0016257999999997,0.0097528000000011,0.0653342,-0.0016561999999995,-0.0151411999999991,-0.0016355999999999,0,sub_10
