userAcceleration.x,userAcceleration.y,userAcceleration.z,rotationRate.x,rotationRate.y,rotationRate.z,label,subject
-0.0056456000000001,-0.0307023999999987,0.1124059999999999,0.0077888000000004,-0.0265909999999993,0.0026509999999999,0,sub_14
-0.0051384000000001,-0.0302607999999987,0.1142347999999999,0.0084582000000004,-0.0219927999999993,-0.0006266,0,sub_14
-0.0040480000000001,-0.0302017999999987,0.1160123999999999,0.0087008000000005,-0.0171809999999993,-0.0036938,0,sub_14
-0.0039386000000001,-0.0301581999999987,0.1179915999999999,0.0076770000000005,-0.0105605999999993,-0.0067006,0,sub_14
-0.0036158000000001,-0.0292567999999987,0.1187613999999999,0.0051606000000005,-0.0032975999999993,-0.0092912000000001,0,sub_14
-0.0028600000000001,-0.0288435999999987,0.1179351999999999,0.0007162000000005,0.0026920000000006,-0.0114662000000001,0,sub_14
-0.0028922000000001,-0.0298297999999987,0.1165421999999999,-0.0053615999999994,0.0069274000000006,-0.0137988000000001,0,sub_14
-0.0033092000000001,-0.0299829999999987,0.1149461999999999,-0.0116605999999994,0.0094592000000006,-0.0161308000000001,0,sub_14
-0.0035006000000001,-0.0310913999999987,0.1129085999999999,-0.0158295999999994,0.0107068000000006,-0.0188736000000001,0,sub_14
-0.0041150000000001,-0.0327155999999987,0.1115633999999999,-0.0176475999999994,0.0123740000000006,-0.0220278000000001,0,sub_14
-0.0034896000000001,-0.0338695999999987,0.1107469999999999,-0.0160409999999994,0.0165850000000006,-0.0249478000000001,0,sub_14
-0.0015464000000001,-0.0339919999999987,0.1101685999999999,-0.0113065999999994,0.0238192000000006,-0.0266332000000001,0,sub_14
0.0009661999999998,-0.0347443999999987,0.1091811999999999,-0.0050765999999994,0.0331720000000006,-0.0266018,0,sub_14
0.0025905999999998,-0.0352987999999987,0.1072285999999999,0.0007106000000005,0.0410106000000006,-0.0239346,0,sub_14
0.0036583999999997,-0.0358285999999987,0.1049447999999999,0.0062584000000005,0.0447952000000006,-0.0195548,0,sub_14
0.0033125999999997,-0.0362167999999987,0.1029569999999999,0.0113642000000005,0.0449604000000006,-0.015387,0,sub_14
0.0015295999999997,-0.0363849999999987,0.1027575999999999,0.0164652000000005,0.0425748000000006,-0.0127114,0,sub_14
-0.0007744000000002,-0.0359449999999987,0.1029353999999999,0.0217796000000005,0.0382786000000006,-0.0119546000000001,0,sub_14
-0.0027600000000002,-0.0353003999999987,0.1038265999999999,0.0275224000000005,0.0327252000000006,-0.0134028000000001,0,sub_14
-0.0040220000000001,-0.0334997999999987,0.1053935999999999,0.0317832000000005,0.0278238000000006,-0.0167850000000001,0,sub_14
-0.0048860000000001,-0.0318339999999987,0.1068407999999999,0.0332738000000005,0.0231476000000006,-0.0208278000000001,0,sub_14
-0.0045642000000001,-0.0301725999999987,0.1074001999999999,0.0315736000000005,0.0199766000000006,-0.0255358000000001,0,sub_14
-0.0028688000000001,-0.0268827999999987,0.1104009999999999,0.0286848000000005,0.0240368000000006,-0.0331298,0,sub_14
0.0022407999999998,-0.0234885999999987,0.1110155999999999,0.0286350000000005,0.0374820000000006,-0.0458434,0,sub_14
0.0084379999999997,-0.0221291999999987,0.1106513999999999,0.0330986000000004,0.0549724000000006,-0.0617354,0,sub_14
0.0138967999999997,-0.0226255999999987,0.1096665999999999,0.0416258000000005,0.0726694000000006,-0.079522,0,sub_14
0.0154541999999997,-0.0235827999999987,0.1077773999999999,0.0541916000000005,0.0858824000000006,-0.0983430000000001,0,sub_14
0.0114183999999997,-0.0261979999999987,0.1032963999999999,0.0679318000000005,0.0850608000000006,-0.1179012000000001,0,sub_14
0.0012025999999997,-0.0275947999999987,0.1027605999999999,0.0779718000000004,0.0684844000000006,-0.1370378000000001,0,sub_14
-0.0120964000000002,-0.0272359999999987,0.1046977999999999,0.0828780000000005,0.0436474000000006,-0.1579834,0,sub_14
-0.0248510000000001,-0.0253509999999987,0.1078407999999999,0.0837140000000005,0.0145662000000006,-0.179593,0,sub_14
-0.0318898000000001,-0.0229265999999987,0.1096771999999999,0.0792176000000005,-0.0134337999999993,-0.2006002000000001,0,sub_14
-0.0331950000000001,-0.0226503999999987,0.1110513999999999,0.0695972000000005,-0.0378109999999993,-0.2173750000000001,0,sub_14
-0.0309340000000001,-0.0247029999999987,0.110868,0.0559266000000005,-0.0536825999999993,-0.2264978000000001,0,sub_14
-0.0265140000000001,-0.0293163999999987,0.1061413999999999,0.0351566000000005,-0.0670435999999993,-0.2238482000000001,0,sub_14
-0.0170264000000001,-0.0354411999999986,0.1021267999999999,0.0075146000000005,-0.0776613999999993,-0.2086452000000001,0,sub_14
-0.0084192000000001,-0.0424351999999986,0.1003153999999999,-0.0248877999999994,-0.0910801999999993,-0.1815078000000001,0,sub_14
-0.0010396000000001,-0.0483363999999987,0.0989497999999999,-0.0569121999999994,-0.1045437999999993,-0.1434720000000001,0,sub_14
0.0030007999999998,-0.0519231999999987,0.098969,-0.0832089999999994,-0.1189405999999993,-0.0973108000000001,0,sub_14
0.0059483999999998,-0.0532041999999987,0.101989,-0.0981923999999994,-0.1295531999999993,-0.0482980000000001,0,sub_14
0.0032463999999998,-0.0525331999999987,0.1027498,-0.1029003999999994,-0.1355033999999993,-0.0019968000000001,0,sub_14
-0.0004480000000001,-0.0484047999999987,0.1051173999999999,-0.0972925999999994,-0.1335721999999993,0.0358205999999998,0,sub_14
-0.0042046000000001,-0.0427765999999987,0.1081176,-0.0845573999999994,-0.1262839999999993,0.0597941999999998,0,sub_14
-0.0067680000000001,-0.0370103999999987,0.1115167999999999,-0.0696395999999994,-0.1214717999999993,0.0688653999999998,0,sub_14
-0.0097184000000001,-0.0312007999999987,0.1152819999999999,-0.0561807999999994,-0.1208675999999993,0.0659675999999998,0,sub_14
-0.0129352000000001,-0.0236735999999987,0.1203437999999999,-0.0473701999999994,-0.1227005999999993,0.0538783999999998,0,sub_14
-0.0154736000000001,-0.0190767999999987,0.1236415999999999,-0.0458017999999994,-0.1257701999999993,0.0376809999999998,0,sub_14
-0.0163616000000001,-0.0160923999999987,0.1263517999999999,-0.0504373999999994,-0.1307425999999993,0.0231517999999998,0,sub_14
-0.0149196000000001,-0.0159875999999987,0.1266159999999999,-0.0591347999999994,-0.1337977999999993,0.0122235999999998,0,sub_14
-0.0122576000000001,-0.0177675999999987,0.1249847999999999,-0.0691095999999994,-0.1340873999999993,0.0034193999999998,0,sub_14
-0.0087470000000001,-0.0214937999999987,0.1224653999999999,-0.0763307999999994,-0.1329711999999993,-0.0030418000000001,0,sub_14
-0.0055798000000001,-0.0250341999999987,0.1187705999999999,-0.0775899999999994,-0.1318869999999993,-0.0066840000000001,0,sub_14
-0.0030066000000001,-0.0287085999999987,0.1140623999999999,-0.0750123999999994,-0.1301829999999993,-0.0088048000000001,0,sub_14
-0.0022356000000001,-0.0323267999999987,0.1089202,-0.0701341999999994,-0.1270349999999994,-0.0091330000000001,0,sub_14
-0.0016734000000001,-0.0346557999999987,0.1051009999999999,-0.0646165999999994,-0.1217679999999993,-0.0071096000000001,0,sub_14
1.1999999998154111e-06,-0.0363027999999987,0.1009949999999999,-0.0599543999999994,-0.1145897999999993,-0.0027446000000001,0,sub_14
0.0016213999999998,-0.0378537999999987,0.0983319999999999,-0.0572193999999994,-0.1065621999999993,0.0039559999999998,0,sub_14
0.0020797999999998,-0.0379201999999987,0.0972291999999999,-0.0553463999999994,-0.0989635999999993,0.0121467999999998,0,sub_14
0.0032181999999998,-0.0352057999999987,0.0969933999999999,-0.0555653999999994,-0.0926019999999993,0.0198281999999998,0,sub_14
0.0040847999999998,-0.0318021999999987,0.0962763999999999,-0.0577059999999994,-0.0879321999999993,0.0260029999999998,0,sub_14
0.0033835999999998,-0.0292507999999987,0.0963273999999999,-0.0596225999999994,-0.0847391999999993,0.0283355999999998,0,sub_14
0.0029143999999997,-0.0265431999999987,0.0955143999999999,-0.0612497999999994,-0.0814411999999993,0.0256365999999998,0,sub_14
0.0030039999999997,-0.0239099999999987,0.0941385999999999,-0.0628531999999994,-0.0768485999999993,0.0188767999999998,0,sub_14
0.0037201999999997,-0.0225095999999987,0.0926785999999999,-0.0644401999999994,-0.0711803999999993,0.0095521999999999,0,sub_14
0.0049081999999997,-0.0240445999999987,0.0904609999999999,-0.0664537999999994,-0.0650863999999993,0.0006511999999999,0,sub_14
0.0067745999999997,-0.0264689999999987,0.0879323999999999,-0.0699821999999994,-0.0607035999999993,-0.005267,0,sub_14
0.0081121999999997,-0.0295067999999987,0.0856468,-0.0742371999999994,-0.0598287999999993,-0.0072206000000001,0,sub_14
0.0099839999999997,-0.0332631999999987,0.0846249999999999,-0.0785247999999994,-0.0615293999999993,-0.0044708000000001,0,sub_14
0.0114869999999997,-0.0369531999999987,0.0830279999999999,-0.0798433999999994,-0.0645297999999993,0.0010783999999998,0,sub_14
0.0118015999999997,-0.0386999999999987,0.0846265999999999,-0.0753989999999994,-0.0677607999999993,0.0060273999999998,0,sub_14
0.0110423999999997,-0.0381751999999987,0.0870521999999999,-0.0645379999999994,-0.0695151999999993,0.0090965999999998,0,sub_14
0.0110713999999997,-0.0367145999999987,0.0893611999999999,-0.0491723999999994,-0.0674443999999993,0.0106967999999998,0,sub_14
0.0103879999999997,-0.0348965999999987,0.0909919999999999,-0.0325005999999994,-0.0621719999999993,0.0097381999999998,0,sub_14
0.0089601999999998,-0.0338567999999987,0.0932726,-0.0179529999999994,-0.0553981999999993,0.0081219999999998,0,sub_14
0.0073951999999998,-0.0324591999999987,0.0938465999999999,-0.0085359999999994,-0.0501003999999993,0.0071127999999998,0,sub_14
0.0066323999999998,-0.0317683999999987,0.0939366,-0.0044695999999994,-0.0475569999999993,0.0069241999999998,0,sub_14
0.0050337999999998,-0.0320801999999987,0.0940328,-0.0048961999999994,-0.0486163999999993,0.0058543999999998,0,sub_14
0.0041127999999998,-0.0327059999999987,0.0945897999999999,-0.0066087999999994,-0.0511619999999993,0.0045637999999998,0,sub_14
0.0038741999999998,-0.0321909999999987,0.0957693999999999,-0.0087491999999994,-0.0541313999999993,0.0030571999999998,0,sub_14
0.0050159999999998,-0.0319487999999987,0.0970837999999999,-0.0104473999999994,-0.0534811999999993,0.0017627999999998,0,sub_14
0.0063927999999998,-0.0324241999999987,0.0984052,-0.0125561999999994,-0.0489953999999993,0.0006741999999998,0,sub_14
0.0075551999999998,-0.0328319999999987,0.1000647999999999,-0.0144401999999994,-0.0415293999999993,1.0599999999890404e-05,0,sub_14
0.0078539999999998,-0.0331347999999987,0.1007026,-0.0163279999999994,-0.0338545999999993,0.0004147999999998,0,sub_14
0.0080909999999998,-0.0341691999999987,0.1010443999999999,-0.0180071999999994,-0.0270335999999993,0.0010351999999998,0,sub_14
0.0078975999999997,-0.0344895999999987,0.1009045999999999,-0.0194817999999994,-0.0223429999999993,0.0014459999999998,0,sub_14
0.0067325999999997,-0.0341971999999987,0.1007793999999999,-0.0201083999999994,-0.0191457999999993,0.0016509999999998,0,sub_14
0.0057683999999997,-0.0339711999999987,0.1005078,-0.0201007999999994,-0.0168045999999993,0.0022889999999998,0,sub_14
0.0047967999999997,-0.0340487999999987,0.1004432,-0.0185937999999994,-0.0142513999999993,0.0018689999999998,0,sub_14
0.0041487999999997,-0.0339481999999987,0.10028,-0.0162351999999994,-0.0119149999999993,0.0016689999999998,0,sub_14
0.0029385999999997,-0.0338995999999987,0.0999639999999999,-0.0130267999999994,-0.0104339999999993,0.0014759999999998,0,sub_14
0.0022857999999997,-0.0337225999999987,0.0994865999999999,-0.0100405999999994,-0.0102329999999993,0.0019239999999998,0,sub_14
0.0013925999999998,-0.0336649999999987,0.0991039999999999,-0.0072761999999994,-0.0117365999999993,0.0025859999999998,0,sub_14
0.0002903999999998,-0.0330657999999987,0.0989277999999999,-0.0062341999999994,-0.0151575999999993,0.0047341999999998,0,sub_14
-0.0013882000000001,-0.0319789999999987,0.0986271999999999,-0.0058351999999994,-0.0196399999999993,0.0064517999999998,0,sub_14
-0.0030272000000001,-0.0311259999999987,0.0988898,-0.0067231999999994,-0.0258213999999993,0.0079489999999998,0,sub_14
-0.0041482000000001,-0.0301529999999987,0.0995675999999999,-0.0078255999999994,-0.0330641999999993,0.0085913999999998,0,sub_14
-0.0050196000000001,-0.0289723999999987,0.0998008,-0.0095651999999994,-0.0396655999999993,0.0092287999999998,0,sub_14
-0.0048568000000001,-0.0280269999999987,0.1004641999999999,-0.0115095999999994,-0.0454095999999993,0.0087951999999998,0,sub_14
-0.0045724000000001,-0.0278145999999987,0.1005265999999999,-0.0136605999999994,-0.0494493999999993,0.0085717999999998,0,sub_14
-0.0036528000000001,-0.0279785999999987,0.1004808,-0.0160173999999994,-0.0511473999999993,0.0089847999999998,0,sub_14
-0.0022674000000001,-0.0297457999999987,0.0998811999999999,-0.0189621999999994,-0.0504473999999993,0.0091827999999998,0,sub_14
-0.0001362000000001,-0.0312761999999987,0.0993095999999999,-0.0223319999999994,-0.0497441999999993,0.0089503999999998,0,sub_14
0.0026167999999998,-0.0315469999999987,0.0989457999999999,-0.0267693999999994,-0.0490381999999993,0.0089241999999998,0,sub_14
0.0029045999999998,-0.0335955999999987,0.1001423999999999,-0.0329167999999994,-0.0493897999999993,0.0084599999999998,0,sub_14
0.0014421999999998,-0.0353643999999987,0.1009097999999999,-0.0399347999999994,-0.0539975999999993,0.0075679999999998,0,sub_14
-0.0022322000000001,-0.0362333999999987,0.1025597999999999,-0.0485233999999994,-0.0654741999999993,0.0079499999999998,0,sub_14
-0.0048272000000001,-0.0351981999999987,0.1066365999999999,-0.0577999999999994,-0.0869645999999993,0.0089807999999998,0,sub_14
-0.0071430000000001,-0.0341641999999986,0.1104233999999999,-0.0655965999999994,-0.1137773999999993,0.0076787999999998,0,sub_14
-0.0064154000000001,-0.0314769999999986,0.1136101999999999,-0.0718917999999994,-0.1416493999999993,0.0036111999999998,0,sub_14
-0.0026034000000001,-0.0298949999999986,0.1156807999999999,-0.0762321999999994,-0.1641925999999993,-0.0027996,0,sub_14
0.0056875999999998,-0.0284465999999986,0.1166573999999999,-0.0771019999999994,-0.1769361999999993,-0.0119762,0,sub_14
0.0151531999999998,-0.0303919999999986,0.1152403999999999,-0.0748991999999994,-0.1724261999999993,-0.0228624,0,sub_14
0.0233491999999998,-0.0358493999999987,0.1116423999999999,-0.0705069999999994,-0.1534443999999993,-0.0316154,0,sub_14
0.0304223999999998,-0.0415101999999987,0.1063987999999999,-0.0635447999999994,-0.1263993999999993,-0.0343788,0,sub_14
0.0341621999999997,-0.0470923999999987,0.1012015999999999,-0.0540365999999994,-0.0968297999999993,-0.0313592,0,sub_14
0.0344207999999997,-0.0518805999999987,0.0970985999999999,-0.0417745999999994,-0.0662267999999993,-0.022767,0,sub_14
0.0322475999999997,-0.0531331999999987,0.0951781999999999,-0.0257017999999994,-0.0379977999999993,-0.0098722,0,sub_14
0.0268435999999997,-0.0506165999999987,0.0960951999999999,-0.0056151999999994,-0.0166091999999993,0.0051957999999998,0,sub_14
0.0176651999999997,-0.0471235999999987,0.0979381999999999,0.0165794000000005,-0.0022537999999993,0.0190057999999998,0,sub_14
0.0073645999999997,-0.0404181999999987,0.1004665999999999,0.0349246000000005,0.0078634000000006,0.0304439999999998,0,sub_14
-0.0038318000000002,-0.0336313999999987,0.1012075999999999,0.0440900000000004,0.0129156000000006,0.0377655999999998,0,sub_14
-0.0155838000000002,-0.0286045999999987,0.1003411999999999,0.0417248000000004,0.0107856000000006,0.0396745999999998,0,sub_14
-0.0239884000000001,-0.0254837999999987,0.0996843999999999,0.0280422000000004,0.0016848000000006,0.0363859999999999,0,sub_14
-0.0267970000000001,-0.0230835999999987,0.1000065999999999,0.0045308000000004,-0.0152449999999993,0.0281249999999998,0,sub_14
-0.0242734000000001,-0.0237999999999987,0.1015857999999999,-0.0223895999999994,-0.0361903999999993,0.0147179999999999,0,sub_14
-0.0157650000000002,-0.0256893999999987,0.1058595999999999,-0.0473771999999994,-0.0575557999999993,-0.0018798,0,sub_14
-0.0044430000000002,-0.0278839999999987,0.1098883999999999,-0.0672275999999994,-0.0744683999999993,-0.0175928,0,sub_14
0.0150897999999997,-0.0314945999999987,0.1109623999999999,-0.0817109999999994,-0.0820337999999993,-0.0311438,0,sub_14
0.0390575999999997,-0.0402639999999987,0.1083383999999999,-0.0880065999999994,-0.0687611999999993,-0.0414598,0,sub_14
0.0609959999999997,-0.0480369999999987,0.1047081999999999,-0.0824841999999994,-0.0312653999999993,-0.0457422000000001,0,sub_14
0.0794245999999998,-0.0566421999999987,0.0963983999999999,-0.0634801999999994,0.0229822000000006,-0.0418334,0,sub_14
0.0801857999999998,-0.0663253999999987,0.0890041999999999,-0.0329751999999994,0.0799292000000006,-0.0303702,0,sub_14
0.0658699999999998,-0.0743227999999987,0.0828697999999999,0.0061966000000005,0.1272242000000006,-0.0102884,0,sub_14
0.0393961999999998,-0.0727045999999987,0.0785145999999999,0.0433348000000005,0.1536298000000006,0.0140789999999999,0,sub_14
0.0135411999999998,-0.0670015999999987,0.075274,0.0688254000000005,0.1502558000000006,0.0364803999999999,0,sub_14
-0.0136368000000001,-0.0580975999999987,0.0764619999999999,0.0775838000000005,0.1199112000000006,0.0515355999999998,0,sub_14
-0.0268900000000001,-0.0446581999999987,0.0808541999999999,0.0703086000000005,0.0724072000000006,0.0560321999999998,0,sub_14
-0.0318464000000001,-0.0281155999999987,0.0938973999999999,0.0485546000000005,0.0181906000000006,0.0467629999999998,0,sub_14
-0.0279124000000001,-0.0144373999999987,0.1110433999999999,0.0208610000000005,-0.0385207999999993,0.0272005999999998,0,sub_14
-0.0198216000000001,-0.0040281999999987,0.1286611999999999,-0.0080727999999994,-0.0926453999999993,0.0012167999999998,0,sub_14
-0.0078578000000001,-0.0005605999999987,0.1409227999999999,-0.0339637999999994,-0.1361209999999993,-0.0264686000000001,0,sub_14
0.0049687999999998,-0.0027319999999987,0.1465565999999999,-0.0563879999999994,-0.1634343999999993,-0.0496638000000001,0,sub_14
0.0188943999999998,-0.0137809999999987,0.1370264,-0.0759999999999994,-0.1733229999999993,-0.0638886000000001,0,sub_14
0.0323667999999998,-0.0271175999999987,0.1227883999999999,-0.0908699999999994,-0.1623897999999993,-0.0678520000000001,0,sub_14
0.0424491999999998,-0.0430161999999987,0.1059037999999999,-0.0950281999999994,-0.1325695999999993,-0.0623644000000001,0,sub_14
0.0409107999999998,-0.0561437999999987,0.0939585999999999,-0.0825365999999994,-0.0945257999999993,-0.0499344000000001,0,sub_14
0.0332187999999998,-0.0680325999999987,0.085004,-0.0545041999999994,-0.0618729999999993,-0.0348254000000001,0,sub_14
0.0104265999999998,-0.0691401999999987,0.0803535999999999,-0.0205683999999994,-0.0452191999999993,-0.0198682000000001,0,sub_14
-0.0131350000000001,-0.0638137999999987,0.0788482,0.0073154000000005,-0.0500457999999993,-0.0091988000000001,0,sub_14
-0.0322450000000001,-0.0520929999999987,0.0811044,0.0195366000000005,-0.0767513999999993,-0.0013882000000001,0,sub_14
-0.0399676000000001,-0.0342677999999987,0.0888545999999999,0.0084448000000005,-0.1180669999999993,0.0039283999999998,0,sub_14
-0.0392752000000001,-0.0149301999999987,0.1020487999999999,-0.0215657999999994,-0.1613547999999993,0.0029273999999998,0,sub_14
-0.0241208000000001,-0.0019425999999987,0.1199855999999999,-0.0570537999999994,-0.1975581999999993,-0.0066668000000001,0,sub_14
-0.0063508000000002,0.0035204000000012,0.1319379999999999,-0.0873691999999994,-0.2275797999999993,-0.0215738000000001,0,sub_14
0.0058075999999997,-0.0002961999999987,0.1373007999999999,-0.1103847999999994,-0.2507961999999993,-0.0396432,0,sub_14
0.0141183999999997,-0.0102745999999987,0.1333995999999999,-0.1267437999999994,-0.2644491999999993,-0.0574648,0,sub_14
0.0205623999999997,-0.0227439999999987,0.1223847999999999,-0.1384455999999994,-0.2692589999999993,-0.0699318,0,sub_14
0.0305713999999997,-0.0359901999999987,0.1062935999999999,-0.1448113999999994,-0.2645367999999993,-0.073187,0,sub_14
0.0398155999999997,-0.0471233999999987,0.0960593999999999,-0.1419801999999994,-0.2451849999999993,-0.066569,0,sub_14
0.0446031999999997,-0.0540725999999987,0.0896795999999999,-0.1246059999999994,-0.2112123999999993,-0.0526042000000001,0,sub_14
0.0388715999999998,-0.0583329999999987,0.0849563999999999,-0.0940073999999994,-0.1741071999999993,-0.0342782000000001,0,sub_14
0.0244613999999997,-0.0581435999999987,0.0792169999999999,-0.0591759999999994,-0.1453233999999993,-0.0165528000000001,0,sub_14
0.0003605999999998,-0.0530395999999987,0.0748743999999999,-0.0290789999999994,-0.1314129999999993,-0.0048236000000001,0,sub_14
-0.0254200000000001,-0.0461315999999987,0.0714729999999999,-0.0101223999999994,-0.1361775999999993,-0.0019078000000001,0,sub_14
-0.0429084000000001,-0.0363521999999987,0.0712423999999999,-0.0074329999999994,-0.1593921999999993,-0.0063458000000001,0,sub_14
-0.0443718000000001,-0.0260649999999987,0.0773015999999999,-0.0207657999999994,-0.1916925999999993,-0.0157980000000001,0,sub_14
-0.0324232000000001,-0.0182377999999987,0.0882743999999999,-0.0436771999999994,-0.2201191999999993,-0.0266040000000001,0,sub_14
-0.0093220000000001,-0.0188071999999987,0.1000331999999999,-0.0720825999999994,-0.2351101999999993,-0.0359698000000001,0,sub_14
0.0125039999999998,-0.0210377999999987,0.1096925999999999,-0.1012943999999994,-0.2360511999999993,-0.0417274000000001,0,sub_14
0.0338155999999998,-0.0298879999999987,0.1117423999999999,-0.1240761999999994,-0.2265909999999993,-0.0433942000000001,0,sub_14
0.0495253999999998,-0.0381633999999987,0.1091339999999999,-0.1359463999999994,-0.2082299999999993,-0.0426460000000001,0,sub_14
0.0595369999999998,-0.0469885999999987,0.1039053999999999,-0.1358475999999994,-0.1822537999999993,-0.0386192,0,sub_14
0.0569683999999998,-0.0511703999999987,0.0987407999999999,-0.1229597999999994,-0.1552731999999993,-0.0304454,0,sub_14
0.0508521999999998,-0.0554545999999987,0.0928149999999999,-0.1007201999999994,-0.1328139999999993,-0.0185684,0,sub_14
0.0399783999999997,-0.0557789999999987,0.0912539999999999,-0.0744437999999994,-0.1146283999999993,-0.0070850000000001,0,sub_14
0.0294349999999997,-0.0565089999999987,0.0884203999999999,-0.0473453999999994,-0.1051739999999993,0.0027061999999998,0,sub_14
0.0214959999999997,-0.0545343999999987,0.0844909999999999,-0.0241203999999994,-0.1052841999999993,0.0101323999999998,0,sub_14
0.0194969999999997,-0.0501207999999987,0.082587,-0.0077243999999994,-0.1089787999999993,0.0140973999999998,0,sub_14
0.0221471999999997,-0.0444913999999987,0.0842949999999999,0.0021156000000005,-0.1051713999999993,0.0124521999999998,0,sub_14
0.0262019999999997,-0.0389345999999987,0.0889993999999999,0.0075342000000004,-0.0906853999999993,0.0081985999999998,0,sub_14
0.0302605999999997,-0.0343111999999987,0.0935397999999999,0.0091706000000004,-0.0636141999999993,0.0034751999999998,0,sub_14
0.0327269999999998,-0.0327671999999987,0.0972581999999999,0.0093576000000004,-0.0263129999999993,-0.0008442000000001,0,sub_14
0.0319603999999998,-0.0338949999999987,0.0952387999999999,0.0089132000000004,0.0152422000000006,-0.0028234000000001,0,sub_14
0.0296193999999998,-0.0366147999999987,0.0899719999999999,0.0086342000000004,0.0506002000000006,-0.0003070000000001,0,sub_14
0.0253943999999997,-0.0398601999999987,0.0819411999999999,0.0080708000000004,0.0733760000000006,0.0054281999999998,0,sub_14
0.0210605999999997,-0.0427005999999987,0.076328,0.0093664000000004,0.0822976000000006,0.0109803999999998,0,sub_14
0.0172477999999997,-0.0445791999999987,0.0736117999999999,0.0142558000000005,0.0816276000000006,0.0144337999999998,0,sub_14
0.0178673999999997,-0.0448107999999987,0.0762706,0.0244774000000005,0.0777544000000006,0.0151509999999998,0,sub_14
0.0201251999999997,-0.0442055999999987,0.0800035999999999,0.0379284000000005,0.0779274000000006,0.0135355999999998,0,sub_14
0.0261433999999998,-0.0423947999999987,0.0847349999999999,0.0518532000000005,0.0870530000000006,0.0104165999999998,0,sub_14
0.0323299999999998,-0.0409155999999987,0.0881745999999999,0.0623996000000005,0.1047100000000006,0.0079039999999998,0,sub_14
0.0376271999999998,-0.0402769999999987,0.0905425999999999,0.0682602000000005,0.1253620000000006,0.0064229999999998,0,sub_14
0.0399867999999998,-0.0410565999999987,0.0920565999999999,0.0694124000000005,0.1447444000000006,0.0068335999999998,0,sub_14
0.0396551999999998,-0.0419835999999987,0.0931605999999999,0.0677678000000005,0.1602964000000006,0.0085113999999998,0,sub_14
0.0365141999999998,-0.0427187999999987,0.0938687999999999,0.0650324000000005,0.1707382000000006,0.0104015999999998,0,sub_14
0.0315203999999998,-0.0427895999999987,0.0946935999999999,0.0642000000000005,0.1767016000000006,0.0116699999999998,0,sub_14
0.0257815999999998,-0.0422875999999987,0.0957139999999999,0.0661290000000005,0.1794612000000006,0.0125343999999998,0,sub_14
0.0204063999999998,-0.0407253999999987,0.0961871999999999,0.0699678000000005,0.1785972000000006,0.0121349999999998,0,sub_14
0.0161245999999998,-0.0387577999999987,0.0966085999999999,0.0733692000000005,0.1745424000000006,0.0108819999999998,0,sub_14
0.0124629999999998,-0.0366335999999987,0.0972395999999999,0.0739872000000005,0.1683666000000006,0.0096123999999998,0,sub_14
