userAcceleration.x,userAcceleration.y,userAcceleration.z,rotationRate.x,rotationRate.y,rotationRate.z,label,subject
0.0030893999999996,0.0054156000000012,0.0012557999999999,0.0159288000000005,-0.0278263999999992,-0.0154319999999999,0,sub_7
-0.0001140000000003,0.0044912000000012,0.0022749999999999,0.0144560000000005,-0.0252681999999992,-0.0156537999999999,0,sub_7
-0.0015932000000003,0.0043742000000012,0.0017917999999999,0.0121416000000005,-0.0161063999999992,-0.0137587999999999,0,sub_7
-0.0012676000000003,0.0027968000000012,0.0011593999999999,0.0034490000000005,0.0001010000000007,-0.0099945999999999,0,sub_7
0.0008793999999996,0.0050242000000012,0.0012859999999999,-0.0075811999999994,0.0190836000000007,-0.0056095999999999,0,sub_7
0.0026821999999996,0.0068102000000012,0.0012041999999999,-0.0154155999999994,0.0369896000000007,-0.0012005999999999,0,sub_7
0.0087765999999996,0.0078558000000012,-0.0007488,-0.0198499999999994,0.0506414000000006,0.0011,0,sub_7
0.0148113999999996,0.0069576000000012,-0.002607,-0.0234731999999994,0.0540672000000006,0.0025648,0,sub_7
0.0208883999999996,0.0083360000000012,-0.0044798,-0.0237427999999994,0.0451196000000006,0.0051372,0,sub_7
0.0251327999999996,0.0070572000000012,-0.006824,-0.0206471999999994,0.0248700000000007,0.0073204,0,sub_7
0.0287771999999996,0.0055304000000012,-0.0097986,-0.0162885999999994,-0.0019773999999992,0.0067432,0,sub_7
0.0285801999999996,0.0047840000000012,-0.0103726,-0.0127915999999994,-0.0322383999999992,0.0055246,0,sub_7
0.0249597999999996,0.0051542000000012,-0.01075,-0.0088591999999994,-0.0607955999999992,0.0040932,0,sub_7
0.0181739999999996,0.0048552000000012,-0.0090582,-0.0038341999999994,-0.0855139999999992,0.0007416,0,sub_7
0.0107849999999996,0.0045274000000012,-0.0067448000000001,0.0016404000000005,-0.1038501999999992,-0.0034773999999999,0,sub_7
0.0043517999999996,0.0057052000000012,-0.0039194000000001,0.0052224000000005,-0.1136669999999992,-0.0053701999999999,0,sub_7
-0.0019022000000003,0.0057822000000012,-0.0016534000000001,0.0071290000000005,-0.1155983999999992,-0.0064303999999999,0,sub_7
-0.0054246000000003,0.0053440000000012,0.0006679999999998,0.0067182000000005,-0.1109169999999992,-0.0075152,0,sub_7
-0.0080684000000003,0.0049734000000012,0.0031285999999998,0.0061220000000005,-0.0977219999999992,-0.0062621999999999,0,sub_7
-0.0071244000000003,0.0043478000000012,0.0034405999999999,0.0002156000000005,-0.0823621999999992,-0.0061093999999999,0,sub_7
-0.0055184000000003,0.0035328000000012,0.0031637999999999,-0.0048295999999994,-0.0644521999999992,-0.0050994,0,sub_7
-0.0031682000000003,0.0039044000000012,0.0029747999999999,-0.0077563999999994,-0.0476531999999992,-0.0032208,0,sub_7
-0.0001766000000003,0.0045212000000012,0.0028205999999998,-0.0066415999999994,-0.0332135999999992,-0.0008837999999999,0,sub_7
0.0035453999999996,0.0052230000000012,0.0006951999999998,-0.0059775999999994,-0.0257963999999992,-0.0002499999999999,0,sub_7
0.0047573999999996,0.0056160000000012,0.0006243999999998,-0.0008451999999994,-0.0192547999999992,0.0023388,0,sub_7
0.0042227999999996,0.0054972000000012,0.0013289999999998,0.0023534000000005,-0.0169623999999992,0.0036378,0,sub_7
0.0031555999999996,0.0048472000000012,0.0015601999999998,0.0040738000000005,-0.0127123999999992,0.0049262,0,sub_7
0.0006085999999996,0.0049926000000012,0.0016057999999998,0.0017554000000005,-0.0065247999999993,0.0046883999999999,0,sub_7
-0.0004770000000003,0.0041608000000012,0.0016465999999998,-0.0007581999999994,0.0030750000000006,0.0038039999999999,0,sub_7
-0.0010986000000003,0.0036738000000012,0.0008665999999999,-0.0036869999999994,0.0150206000000006,0.0026999999999999,0,sub_7
0.0001743999999996,0.0047730000000012,-6.220000000009126e-05,-0.0038477999999994,0.0286514000000006,0.0022677999999999,0,sub_7
0.0020167999999996,0.0060134000000012,-0.0007568,-0.0018757999999994,0.0410008000000006,0.0007839999999999,0,sub_7
0.0050905999999996,0.0052674000000012,-0.0017672,0.0013602000000005,0.0505726000000007,0.0001672,0,sub_7
0.0084391999999996,0.0055460000000012,-0.0029948,0.0039330000000005,0.0575798000000007,0.0021126,0,sub_7
0.0114607999999996,0.0061684000000012,-0.003416,0.0049920000000005,0.0601182000000007,0.0040532,0,sub_7
0.0139029999999996,0.0058190000000012,-0.0041228,0.0060464000000005,0.0590424000000007,0.005771,0,sub_7
0.0146683999999996,0.0054564000000012,-0.0043938,0.0058032000000005,0.0560460000000007,0.009405,0,sub_7
0.0149699999999996,0.0054632000000012,-0.0041284,0.0038512000000005,0.0505074000000007,0.010894,0,sub_7
0.0144329999999996,0.0052678000000012,-0.003854,0.0029658000000005,0.0440956000000007,0.0111338,0,sub_7
0.0145725999999996,0.0052946000000012,-0.0042534,0.0033596000000005,0.0374664000000007,0.011383,0,sub_7
0.0132405999999996,0.0049836000000012,-0.003264,0.0024740000000005,0.0297816000000007,0.0103426,0,sub_7
0.0130957999999996,0.0043474000000012,-0.0028076,0.0022306000000005,0.0214596000000006,0.0082394,0,sub_7
0.0125801999999996,0.0044718000000012,-0.0018186000000001,0.0034768000000005,0.0144022000000006,0.0082811999999999,0,sub_7
0.0122069999999996,0.0050200000000012,-0.0010480000000001,0.0047214000000004,0.0067270000000007,0.0085134,0,sub_7
0.0098427999999996,0.0048794000000012,-0.0002460000000001,0.0059720000000004,-0.0009431999999992,0.0074636,0,sub_7
0.0092979999999996,0.0046568000000012,-0.0001452000000001,0.0066094000000004,-0.0064211999999992,0.0070596,0,sub_7
0.0087975999999996,0.0051928000000012,-0.0003308000000001,0.0066124000000005,-0.0112553999999992,0.0060094,0,sub_7
0.0080933999999996,0.0048942000000012,-0.0004876,0.0064050000000004,-0.0150251999999992,0.0053838,0,sub_7
0.0069897999999996,0.0041702000000012,-0.0005724,0.0057748000000005,-0.0181533999999992,0.0045407999999999,0,sub_7
0.0072209999999996,0.0046002000000012,-0.000581,0.0042928000000005,-0.0200037999999992,0.0045447999999999,0,sub_7
0.0062081999999996,0.0036798000000012,-0.000413,0.0034326000000005,-0.0217043999999992,0.0043273999999999,0,sub_7
0.0054457999999996,0.0032228000000012,-0.0003602,0.0040660000000005,-0.0227735999999992,0.0047603999999999,0,sub_7
0.0060165999999996,0.0040712000000012,-0.0012138,0.0047052000000004,-0.0229887999999992,0.0047649999999999,0,sub_7
0.0061263999999995,0.0035188000000012,-0.0014302,0.0057748000000004,-0.0223533999999992,0.0047715999999999,0,sub_7
0.0064667999999995,0.0031952000000012,-0.000548,0.0072848000000004,-0.0219449999999992,0.0045843999999999,0,sub_7
0.0075041999999995,0.0049694000000012,-0.000797,0.0090100000000004,-0.0200503999999992,0.0054649999999999,0,sub_7
0.0076945999999995,0.0049640000000012,-0.0007796,0.0083900000000004,-0.0183579999999992,0.0056885999999999,0,sub_7
0.0066363999999995,0.0040308000000012,-0.0006176,0.0086234000000004,-0.0166685999999992,0.0059181999999999,0,sub_7
0.0061889999999995,0.0051446000000012,0.0001683999999999,0.0080054000000004,-0.0151865999999992,0.0055011999999999,0,sub_7
0.0056971999999996,0.0057114000000012,-0.000858,0.0071662000000004,-0.0111389999999992,0.0063447999999999,0,sub_7
0.0049175999999996,0.0050682000000012,-0.0012008,0.0063310000000004,-0.0077245999999992,0.0056937999999999,0,sub_7
0.0050485999999996,0.0057474000000012,-0.0015894,0.0063634000000004,-0.0033305999999993,0.0052663999999999,0,sub_7
0.0057381999999996,0.0066464000000012,-0.0012958,0.0059662000000004,0.0008500000000006,0.0052633999999999,0,sub_7
0.0059843999999995,0.0066750000000012,-0.0019736,0.0059918000000004,0.0052378000000006,0.0063313999999999,0,sub_7
0.0064361999999995,0.0063856000000012,-0.0019666,0.0064412000000004,0.0083484000000006,0.006763,0,sub_7
0.0077055999999995,0.0065330000000012,-0.0020764,0.0077422000000004,0.0116666000000006,0.0078412,0,sub_7
0.0082543999999995,0.0059976000000012,-0.0023362,0.0088138000000004,0.0137890000000006,0.0089142,0,sub_7
0.0089499999999996,0.0056978000000012,-0.0025368,0.0098854000000004,0.0156992000000006,0.0097738,0,sub_7
0.0095907999999996,0.0056568000000012,-0.002804,0.0109570000000004,0.0167608000000006,0.0097798,0,sub_7
0.0107299999999996,0.0051548000000012,-0.0029254,0.0111724000000004,0.0171862000000006,0.0097807999999999,0,sub_7
0.0103527999999996,0.0047572000000012,-0.003159,0.0096784000000004,0.0169616000000006,0.0097595999999999,0,sub_7
0.0102763999999996,0.0046010000000012,-0.00256,0.0079700000000004,0.0167368000000006,0.0099505999999999,0,sub_7
0.0105713999999996,0.0044886000000012,-0.0026618,0.0071152000000004,0.0160846000000006,0.0097209999999999,0,sub_7
0.0116115999999996,0.0041792000000012,-0.0026956,0.0056194000000004,0.0145850000000006,0.0088469999999999,0,sub_7
0.0114857999999996,0.0045740000000012,-0.002707,0.0045482000000004,0.0122334000000006,0.0075496,0,sub_7
0.0118659999999996,0.0043486000000012,-0.0018196,0.0041128000000004,0.0092564000000006,0.0064822,0,sub_7
0.0123705999999996,0.0045556000000012,-0.001367,0.0043138000000005,0.0054250000000006,0.0054202,0,sub_7
0.0115125999999996,0.0042530000000012,-0.001379,0.0025992000000005,0.0018168000000007,0.00349,0,sub_7
0.0099649999999996,0.0047414000000012,-0.0013748,0.0008778000000005,-0.0003321999999992,0.0021726,0,sub_7
0.0095991999999996,0.0049788000000012,-0.001101,1.2000000000559686e-05,-0.0014215999999992,0.0015008,0,sub_7
0.0095257999999996,0.0051468000000012,-0.001626,0.0008540000000005,-0.0023039999999992,0.0008408,0,sub_7
0.0089469999999996,0.0047296000000012,-0.0022328,0.0010548000000005,-0.0031847999999992,0.00039,0,sub_7
0.0089023999999996,0.0045744000000012,-0.0022154,0.0018890000000005,-0.0044981999999992,0.0010123999999999,0,sub_7
0.0091097999999996,0.0040426000000012,-0.0018028,0.0035892000000005,-0.0057833999999992,0.0012395999999999,0,sub_7
0.0087983999999996,0.0041720000000012,-0.0021812,0.0042264000000004,-0.0064247999999992,0.0012449999999999,0,sub_7
0.0083531999999996,0.0042562000000012,-0.0025148,0.0029462000000005,-0.0062079999999992,0.0014493999999999,0,sub_7
0.0081073999999996,0.0049816000000012,-0.0029274,0.0027172000000005,-0.0053365999999992,0.0014189999999999,0,sub_7
0.0083187999999996,0.0051418000000012,-0.0032366,0.0033426000000005,-0.0038307999999992,0.001821,0,sub_7
0.0079403999999996,0.0049286000000012,-0.0037172,0.0039652000000005,-0.0027517999999992,0.0024374,0,sub_7
0.0081391999999996,0.0046678000000012,-0.0036706,0.0050116000000005,-0.0016767999999992,0.0036976,0,sub_7
0.0083493999999996,0.0045544000000012,-0.0038074,0.0058446000000005,-0.0012377999999992,0.0043162,0,sub_7
0.0086637999999996,0.0043416000000012,-0.0032572,0.0060562000000005,-0.0008157999999992,0.0051717999999999,0,sub_7
0.0082413999999996,0.0047720000000012,-0.0031856,0.0060534000000005,-0.0012425999999992,0.0053859999999999,0,sub_7
0.0083605999999996,0.0049568000000012,-0.0030496,0.0060198000000005,-0.0016407999999992,0.0059963999999999,0,sub_7
0.0075387999999996,0.0046322000000012,-0.0026168,0.0053472000000004,-0.0026725999999992,0.0057483999999999,0,sub_7
0.0070373999999996,0.0052324000000012,-0.002794,0.0059568000000004,-0.0034947999999992,0.0052955999999999,0,sub_7
0.0061513999999996,0.0049724000000012,-0.0031244,0.0065672000000005,-0.0038917999999992,0.0050558,0,sub_7
0.0061257999999996,0.0053434000000012,-0.0023998,0.0073928000000005,-0.0034391999999992,0.0052437999999999,0,sub_7
0.0056163999999996,0.0056410000000012,-0.002776,0.0084722000000005,-0.0010975999999993,0.0048209999999999,0,sub_7
0.0059883999999996,0.0050270000000012,-0.0037502,0.0102002000000005,0.0020982000000006,0.0033335999999999,0,sub_7
0.0075667999999996,0.0050896000000012,-0.0043912,0.0121482000000005,0.0067846000000006,0.0018455999999999,0,sub_7
0.0105893999999996,0.0050604000000012,-0.0052808,0.0123902000000005,0.0106290000000006,-0.0007213999999999,0,sub_7
0.0133021999999996,0.0039968000000012,-0.0072114,0.0098128000000005,0.0121342000000006,-0.0039853999999999,0,sub_7
0.0145891999999996,0.0039834000000012,-0.0070496,0.0057284000000004,0.0117228000000007,-0.0061891999999999,0,sub_7
0.0144141999999996,0.0048732000000012,-0.0064132,0.0018400000000005,0.0098102000000007,-0.0060395999999999,0,sub_7
0.0132089999999996,0.0049756000000012,-0.0046264,-0.0020607999999994,0.0064010000000007,-0.0046063999999999,0,sub_7
0.0104843999999996,0.0033012000000012,-0.0043728,-0.0031847999999994,0.0059554000000007,-0.0008074,0,sub_7
0.0078651999999995,0.0018756000000012,-0.0040056,-0.0038257999999994,0.0099886000000007,0.0034557999999999,0,sub_7
0.0084663999999995,0.0019992000000012,-0.003993,-0.0066015999999994,0.0123308000000006,0.0062107999999999,0,sub_7
0.0083261999999995,0.0032046000000012,-0.0016858,-0.0070387999999994,0.0129594000000006,0.0091977999999999,0,sub_7
0.0068847999999996,0.0023822000000012,-0.0001326,-0.0030419999999994,0.0099316000000006,0.0113275999999999,0,sub_7
0.0050679999999996,0.0049040000000012,0.0022719999999999,0.0003068000000005,0.0039286000000007,0.0121747999999999,0,sub_7
0.0047649999999996,0.0062040000000012,0.0037601999999999,0.0055770000000005,-0.0033533999999992,0.0115415999999999,0,sub_7
0.0038251999999996,0.0050372000000012,0.0041875999999999,0.0132096000000005,-0.0087201999999992,0.0094267999999999,0,sub_7
0.0029651999999996,0.0021970000000012,0.0027455999999999,0.0176616000000005,-0.0123603999999992,0.0045104,0,sub_7
0.0029855999999996,0.0017294000000012,0.0006719999999999,0.0161966000000005,-0.0121173999999992,-0.0016957999999999,0,sub_7
0.0034883999999996,0.0001850000000012,-0.001285,0.0104854000000005,-0.0086577999999992,-0.0094314,0,sub_7
0.0031157999999996,-0.0004831999999987,-0.0030056,-0.0001589999999994,-0.0028507999999992,-0.0155235999999999,0,sub_7
0.0032975999999996,0.0019008000000012,-0.0034036,-0.0103823999999994,0.0046472000000007,-0.0186239999999999,0,sub_7
0.0052623999999996,0.0040292000000012,-0.004072,-0.0152809999999994,0.0138156000000007,-0.0178437999999999,0,sub_7
0.0072059999999996,0.0051826000000012,-0.0055154,-0.0163531999999994,0.0225334000000006,-0.0142589999999999,0,sub_7
0.0101551999999996,0.0061620000000012,-0.0061146,-0.0133913999999994,0.0271874000000007,-0.0102133999999999,0,sub_7
0.0133405999999996,0.0078664000000012,-0.006104,-0.0042277999999994,0.0282060000000007,-0.0065187999999999,0,sub_7
0.0151393999999996,0.0070194000000012,-0.0078918,0.0055672000000005,0.0256074000000007,-0.0045243999999999,0,sub_7
0.0176661999999995,0.0069010000000012,-0.0103072,0.0093908000000005,0.0213346000000007,-0.0049195999999999,0,sub_7
0.0199611999999995,0.0064616000000012,-0.0112624,0.0076724000000005,0.0162376000000007,-0.0074887999999999,0,sub_7
0.0207571999999995,0.0065100000000012,-0.012794,0.0054886000000005,0.0126186000000006,-0.0066715999999999,0,sub_7
0.0152119999999996,0.0076994000000012,-0.0096686,0.0043546000000004,0.0083440000000006,-0.0026415999999999,0,sub_7
0.0095223999999996,0.0071402000000012,-0.0051534,0.0051276000000004,0.0055360000000006,0.0058864,0,sub_7
0.0036307999999996,0.0055482000000012,-0.0009778,0.0065358000000005,0.0031462000000006,0.0159137999999999,0,sub_7
0.0014023999999996,0.0039380000000012,0.0012205999999999,0.0102996000000005,0.0022410000000006,0.0255285999999999,0,sub_7
0.0028919999999996,0.0032450000000012,0.0027387999999999,0.0137050000000004,0.0024336000000007,0.0276885999999999,0,sub_7
0.0086145999999996,0.0003508000000012,-0.0012208,0.0115942000000005,0.0014006000000007,0.0214795999999999,0,sub_7
0.0123709999999996,-0.0010375999999987,-0.0051258,0.0041626000000005,-0.0019359999999992,0.0098951999999999,0,sub_7
0.0139589999999996,-0.0007761999999987,-0.0069228,-0.0045777999999994,-0.0050555999999992,-0.0034287999999999,0,sub_7
0.0122653999999996,0.0007374000000012,-0.0063172000000001,-0.0137495999999994,-0.0075411999999992,-0.0150475999999999,0,sub_7
0.0077319999999996,0.0011224000000012,-0.0052366000000001,-0.0231519999999994,-0.0094047999999992,-0.0221822,0,sub_7
0.0039991999999996,0.0023234000000012,-0.0023124000000001,-0.0289367999999994,-0.0081065999999992,-0.0239546,0,sub_7
0.0022931999999996,0.0046150000000012,-0.0009462000000001,-0.0287413999999994,-0.0030045999999992,-0.0231262,0,sub_7
0.0027707999999996,0.0059118000000012,-0.0011520000000001,-0.0225419999999994,0.0022892000000007,-0.0203122,0,sub_7
0.0044105999999996,0.0054004000000012,-0.0027844,-0.0159215999999994,0.0054542000000006,-0.0183472,0,sub_7
0.0076429999999996,0.0061380000000012,-0.0044422,-0.0097605999999994,0.0058318000000006,-0.0170437999999999,0,sub_7
0.0113939999999996,0.0064166000000012,-0.006872,-0.0053179999999994,0.0032342000000006,-0.0161758,0,sub_7
0.0150269999999996,0.0052182000000012,-0.0078788,-0.0038787999999994,-0.0029747999999993,-0.0153242,0,sub_7
0.0164127999999996,0.0043538000000012,-0.008686,-0.0067033999999994,-0.0102265999999992,-0.016424,0,sub_7
0.0160847999999996,0.0050686000000012,-0.0089824,-0.0101593999999994,-0.0159827999999992,-0.0179572,0,sub_7
0.0141205999999996,0.0047458000000012,-0.0082784,-0.0131599999999994,-0.0195917999999992,-0.0186143999999999,0,sub_7
0.0124411999999996,0.0045096000000012,-0.0071982,-0.0144497999999994,-0.0212933999999993,-0.018194,0,sub_7
0.0115675999999996,0.0049420000000012,-0.006977,-0.0150871999999994,-0.0204397999999992,-0.017986,0,sub_7
0.0113951999999996,0.0051264000000012,-0.0068752,-0.0157243999999994,-0.0189495999999992,-0.0171378,0,sub_7
0.0112901999999996,0.0058456000000012,-0.0063058,-0.0155357999999994,-0.0174807999999992,-0.0150084,0,sub_7
0.0111523999999996,0.0058676000000012,-0.006416,-0.0149221999999994,-0.0155905999999992,-0.012022,0,sub_7
0.0111071999999996,0.0062362000000012,-0.0066846,-0.0149467999999994,-0.0136965999999992,-0.0094672,0,sub_7
0.0104593999999996,0.0059230000000012,-0.0069108,-0.0149733999999994,-0.0124407999999992,-0.0071252,0,sub_7
0.0098247999999996,0.0062922000000012,-0.007012,-0.0139331999999994,-0.0114009999999992,-0.0049891999999999,0,sub_7
0.0091643999999996,0.0053346000000012,-0.0063812,-0.0137179999999994,-0.0105511999999992,-0.0045615999999999,0,sub_7
0.0085455999999996,0.0052834000000012,-0.005705,-0.0132893999999994,-0.0101265999999992,-0.0045591999999999,0,sub_7
0.0075175999999996,0.0056344000000012,-0.0049128,-0.0128587999999994,-0.0094879999999992,-0.0047707999999999,0,sub_7
0.0066167999999996,0.0053168000000012,-0.0033012,-0.0122109999999994,-0.0079979999999992,-0.0049817999999999,0,sub_7
0.0057895999999996,0.0054024000000012,-0.0016348,-0.0117899999999994,-0.0063423999999992,-0.0049699999999999,0,sub_7
0.0051907999999996,0.0057188000000012,-0.0013052000000001,-0.0111603999999994,-0.0049039999999992,-0.0041018,0,sub_7
0.0046081999999996,0.0056938000000012,-0.000746,-0.0107375999999994,-0.0040955999999992,-0.0053706,0,sub_7
0.0039421999999996,0.0048194000000012,-9.840000000009122e-05,-0.0098841999999994,-0.0024365999999992,-0.0066374,0,sub_7
0.0036285999999996,0.0049482000000012,0.0001683999999999,-0.0105251999999994,-0.0007731999999992,-0.0077011999999999,0,sub_7
0.0043523999999996,0.0043536000000012,8.239999999992875e-05,-0.0120005999999994,0.0020068000000007,-0.0089967999999999,0,sub_7
0.0040225999999996,0.0043904000000012,-0.0001576,-0.0124239999999994,0.0051738000000007,-0.0098683999999999,0,sub_7
0.0037109999999996,0.0040666000000012,-0.0001334,-0.0132787999999994,0.0096114000000007,-0.0083947999999999,0,sub_7
0.0039479999999996,0.0042998000000012,-0.000434,-0.0154139999999994,0.0142658000000007,-0.0067167999999999,0,sub_7
0.0043375999999996,0.0043968000000012,-4.0800000000091285e-05,-0.0158421999999994,0.0189140000000006,-0.0050268,0,sub_7
0.0037461999999996,0.0048298000000012,-3.1800000000091284e-05,-0.0154235999999994,0.0220678000000006,-0.0033289999999999,0,sub_7
0.0046107999999996,0.0045130000000012,0.0006235999999999,-0.0154109999999994,0.0252620000000006,-0.0029058,0,sub_7
0.0058187999999996,0.0053008000000012,0.0008361999999998,-0.0149747999999994,0.0269666000000006,-0.0033321999999999,0,sub_7
0.0066489999999996,0.0051382000000012,0.0014139999999998,-0.0124103999999994,0.0280220000000006,-0.0031019999999999,0,sub_7
0.0070987999999996,0.0059444000000012,0.0004651999999998,-0.0102765999999994,0.0280146000000007,-0.003087,0,sub_7
0.0078153999999996,0.0059162000000012,0.0008691999999998,-0.0098239999999994,0.0284208000000007,-0.0028393999999999,0,sub_7
0.0080993999999996,0.0060138000000012,0.0012697999999998,-0.0089523999999994,0.0283940000000007,-0.0013066,0,sub_7
0.0083969999999996,0.0055608000000012,0.0012953999999999,-0.0068081999999994,0.0270828000000007,0.0006642,0,sub_7
0.0084641999999996,0.0055434000000012,0.0009641999999998,-0.0048783999999995,0.0247106000000007,0.0017801999999999,0,sub_7
0.0078093999999996,0.0049502000000012,0.0007349999999998,-0.0042221999999995,0.0234098000000007,0.0024585999999999,0,sub_7
0.0081021999999996,0.0050492000000012,6.759999999988864e-05,-0.0035877999999995,0.0217048000000007,0.0020378,0,sub_7
0.0093769999999996,0.0056456000000012,-0.0005668000000001,-0.0023171999999995,0.0195698000000007,0.0020496,0,sub_7
0.0096509999999996,0.0054334000000012,-0.0007128000000001,-0.0016865999999995,0.0170126000000007,0.0016299999999999,0,sub_7
0.0096289999999996,0.0051736000000012,-0.0011504,-0.0016497999999994,0.0144806000000007,0.0008353999999999,0,sub_7
0.0100997999999996,0.0055438000000012,-0.001625,-0.0005497999999994,0.0108806000000007,-0.0001642,0,sub_7
0.0102973999999996,0.0053282000000012,-0.0017098,0.0014026000000005,0.0077012000000007,-0.0005174,0,sub_7
0.0095709999999996,0.0046670000000012,-0.0022952,0.0022882000000005,0.0038890000000007,-0.0015182,0,sub_7
0.0086777999999996,0.0050100000000012,-0.0028316,0.0033842000000005,7.34000000007222e-05,-0.0018765999999999,0,sub_7
0.0081943999999996,0.0053556000000012,-0.0030424,0.0035794000000005,-0.0037629999999992,-0.0016568,0,sub_7
0.0081239999999996,0.0046074000000012,-0.0028076,0.0035620000000005,-0.0069613999999992,-0.0010118,0,sub_7
0.0071149999999996,0.0047836000000012,-0.0028482,0.0031824000000005,-0.0101153999999992,-0.0013858,0,sub_7
0.0070243999999996,0.0050740000000012,-0.002542,0.0028076000000005,-0.0122041999999992,-0.0017612,0,sub_7
0.0072521999999996,0.0051876000000012,-0.0025344,0.0024386000000005,-0.0130145999999992,-0.0021382,0,sub_7
0.0068947999999996,0.0050358000000012,-0.0028722,0.0029260000000005,-0.0131889999999992,-0.00251,0,sub_7
0.0068271999999996,0.0057270000000012,-0.0033372,0.0029876000000005,-0.0131485999999992,-0.0028852,0,sub_7
0.0068905999999996,0.0062532000000012,-0.0037382,0.0032000000000005,-0.0125135999999992,-0.00203,0,sub_7
0.0068925999999996,0.0058616000000012,-0.0036568,0.0038400000000005,-0.0114547999999992,-0.0009588,0,sub_7
0.0076079999999996,0.0062558000000012,-0.0040964,0.0040562000000005,-0.0099675999999992,-0.0001046,0,sub_7
0.0078549999999996,0.0058930000000012,-0.004904,0.0038504000000005,-0.0082623999999992,-0.0001082,0,sub_7
0.0074649999999996,0.0050970000000012,-0.005383,0.0032892000000005,-0.0054685999999992,-6.619999999999998e-05,0,sub_7
0.0079275999999996,0.0043784000000012,-0.0057064,0.0018794000000005,-0.0022431999999992,-0.0006716,0,sub_7
