userAcceleration.x,userAcceleration.y,userAcceleration.z,rotationRate.x,rotationRate.y,rotationRate.z,label,subject
-0.0169418000000002,-5.599999998714966e-06,0.0535451999999999,0.0776302000000004,0.0820208000000006,-0.022856,0,sub_15
-0.0149540000000002,-0.0036871999999987,0.0561317999999999,0.0652536000000004,0.0837608000000006,-0.0210218,0,sub_15
-0.0124866000000002,-0.0061997999999987,0.0641629999999999,0.0449660000000004,0.0853016000000006,-0.0158242,0,sub_15
-0.0104296000000002,-0.0058755999999987,0.0704927999999999,0.0184072000000004,0.0788048000000006,-0.008112,0,sub_15
-0.0099306000000002,-0.0041107999999987,0.0723955999999999,-0.0077681999999995,0.0637800000000006,0.0006819999999999,0,sub_15
-0.0095124000000002,-0.0005165999999987,0.0693855999999999,-0.0279575999999995,0.0495934000000006,0.0078075999999999,0,sub_15
-0.0094424000000002,0.0027922000000012,0.0646847999999999,-0.0404539999999995,0.0353902000000006,0.0124231999999998,0,sub_15
-0.0080188000000002,0.0045862000000012,0.0597837999999999,-0.0433017999999995,0.0279856000000006,0.0134653999999998,0,sub_15
-0.0065228000000002,0.0055328000000012,0.0575857999999999,-0.0370899999999995,0.0315928000000006,0.0117949999999999,0,sub_15
-0.0035710000000002,0.0056548000000012,0.0568499999999999,-0.0270171999999995,0.0375386000000006,0.0080121999999999,0,sub_15
-7.500000000026027e-05,0.0044842000000012,0.0580623999999999,-0.0178141999999995,0.0398654000000006,0.0042277999999999,0,sub_15
0.0045349999999997,0.0031762000000012,0.0599903999999999,-0.0103057999999995,0.0422880000000006,0.0010265999999999,0,sub_15
0.0100435999999997,0.0031532000000012,0.0621009999999999,-0.0049617999999995,0.0387492000000006,-0.0013274,0,sub_15
0.0168755999999997,0.0033608000000012,0.0624319999999999,-0.0020023999999995,0.0279704000000006,-0.0026208,0,sub_15
0.0226881999999997,0.0047418000000012,0.0625639999999999,0.0001064000000004,0.0201680000000006,-0.0015738,0,sub_15
0.0267721999999997,0.0064574000000012,0.0622583999999999,0.0048034000000004,0.0200206000000006,0.0009769999999999,0,sub_15
0.0286395999999997,0.0075860000000012,0.0616161999999999,0.0144310000000004,0.0268004000000006,0.0021037999999999,0,sub_15
0.0268999999999997,0.0058770000000012,0.0606685999999999,0.0242644000000004,0.0333606000000006,0.0047277999999999,0,sub_15
0.0238125999999997,0.0087652000000012,0.0576493999999999,0.0370926000000004,0.0390684000000006,0.0048101999999999,0,sub_15
0.0187671999999997,0.0014326000000012,0.0573305999999999,0.0411538000000004,0.0459092000000006,0.0090851999999999,0,sub_15
0.0174635999999997,-0.0003599999999987,0.0599333999999999,0.0482532000000004,0.0587264000000006,0.0080327999999999,0,sub_15
0.0131763999999997,-0.0007821999999987,0.0626955999999999,0.0448800000000004,0.0711404000000006,0.0103259999999999,0,sub_15
0.0074995999999997,0.0011306000000012,0.0625127999999999,0.0412772000000004,0.0790844000000006,0.0117685999999999,0,sub_15
0.0022253999999997,-0.0026207999999987,0.0647291999999999,0.0344480000000004,0.0817114000000006,0.0136227999999999,0,sub_15
-0.0016704000000002,0.0025732000000012,0.0650705999999999,0.0340348000000004,0.0813004000000006,0.0102021999999999,0,sub_15
-0.0102770000000002,0.0021470000000012,0.0628761999999999,0.0260958000000004,0.0732252000000006,0.0118661999999999,0,sub_15
-0.0155332000000002,0.0012530000000012,0.0590153999999999,0.0241046000000004,0.0570416000000006,0.0114455999999999,0,sub_15
-0.0180020000000002,0.0004330000000012,0.0562321999999999,0.0201568000000004,0.0439184000000006,0.0109877999999999,0,sub_15
-0.0220200000000002,0.0012766000000012,0.0541103999999999,0.0151688000000004,0.0397352000000006,0.0135023999999999,0,sub_15
-0.0257248000000002,0.0026076000000012,0.0518279999999999,0.0104076000000004,0.0389586000000006,0.0164413999999999,0,sub_15
-0.0279254000000002,0.0037352000000012,0.0499831999999999,0.0058552000000004,0.0369036000000006,0.0191697999999999,0,sub_15
-0.0292714000000002,0.0047718000000012,0.0495189999999999,0.0015218000000004,0.0363384000000006,0.0221115999999999,0,sub_15
-0.0306678000000002,0.0050222000000012,0.0505661999999999,-0.0004081999999995,0.0361244000000006,0.0240211999999999,0,sub_15
-0.0312992000000002,0.0050896000000012,0.0511773999999999,-0.0016979999999995,0.0335740000000006,0.0235881999999999,0,sub_15
-0.0310646000000002,0.0050654000000012,0.0523467999999999,-0.0010779999999995,0.0276122000000006,0.0221045999999999,0,sub_15
-0.0309976000000002,0.0058102000000012,0.0544477999999999,0.0008052000000004,0.0182398000000006,0.0199911999999999,0,sub_15
-0.0312564000000002,0.0061856000000012,0.0567461999999999,0.0037448000000004,0.0058836000000006,0.0172479999999999,0,sub_15
-0.0312634000000002,0.0070532000000012,0.0586395999999999,0.0070948000000004,-0.0100959999999993,0.0145123999999999,0,sub_15
-0.0304940000000002,0.0069700000000012,0.0605211999999999,0.0106478000000004,-0.0275711999999993,0.0126345999999999,0,sub_15
-0.0287904000000002,0.0074076000000012,0.0629419999999999,0.0137624000000004,-0.0476015999999993,0.0107569999999999,0,sub_15
-0.0286668000000002,0.0066974000000012,0.0654941999999999,0.0158100000000004,-0.0689057999999993,0.0086621999999999,0,sub_15
-0.0284656000000002,0.0058116000000012,0.0688339999999999,0.0159438000000004,-0.0884997999999993,0.0067653999999999,0,sub_15
-0.0272250000000002,0.0043206000000012,0.0725883999999999,0.0141754000000004,-0.1042513999999993,0.0046367999999999,0,sub_15
-0.0260270000000002,0.0026782000000012,0.0750909999999999,0.0104982000000004,-0.1174393999999993,0.0024915999999999,0,sub_15
-0.0263714000000001,9.36000000012649e-05,0.0764791999999999,0.0047018000000004,-0.1272119999999993,0.0005409999999999,0,sub_15
-0.0254924000000002,-0.0015035999999987,0.0759759999999999,-0.0012909999999995,-0.1333609999999993,-0.0016294,0,sub_15
-0.0244954000000002,-0.0019723999999987,0.0743847999999999,-0.0079159999999995,-0.1378035999999993,-0.0038064,0,sub_15
-0.0237936000000002,-0.0012083999999987,0.0720575999999999,-0.0158241999999995,-0.1420317999999993,-0.0051382,0,sub_15
-0.0233432000000002,-0.0006257999999987,0.0699257999999999,-0.0237381999999995,-0.1471139999999993,-0.0060416,0,sub_15
-0.0227054000000002,0.0006870000000012,0.0665955999999999,-0.0314387999999995,-0.1511359999999993,-0.0058766,0,sub_15
-0.0209750000000002,0.0005960000000012,0.0646789999999999,-0.0385039999999995,-0.1553767999999993,-0.0048524,0,sub_15
-0.0195928000000002,-0.0001179999999987,0.0625789999999999,-0.0442889999999995,-0.1587729999999993,-0.0029656,0,sub_15
-0.0178074000000002,-0.0021625999999987,0.0644755999999999,-0.0438563999999995,-0.1566473999999993,-0.0021106,0,sub_15
-0.0161236000000002,-0.0018109999999987,0.0662995999999999,-0.0395351999999995,-0.1436703999999993,-0.0010288,0,sub_15
-0.0138810000000001,0.0005554000000012,0.0677503999999999,-0.0337059999999995,-0.1277149999999993,-0.000154,0,sub_15
-0.0138692000000001,0.0034516000000012,0.0676689999999999,-0.0285131999999995,-0.1106929999999993,0.0009287999999999,0,sub_15
-0.0138412000000001,0.0050354000000012,0.0686391999999999,-0.0226697999999995,-0.0934515999999993,-0.0001208,0,sub_15
-0.0143806000000001,0.0072534000000012,0.0669165999999999,-0.0181141999999995,-0.0783345999999993,-0.001604,0,sub_15
-0.0148042000000002,0.0069440000000012,0.0663189999999999,-0.0148627999999995,-0.0691759999999993,-0.0037294,0,sub_15
-0.0154074000000002,0.0040754000000012,0.0660783999999999,-0.0105531999999995,-0.0623629999999993,-0.0062718,0,sub_15
-0.0159532000000002,0.0032016000000012,0.0665305999999999,-0.0058033999999995,-0.0527807999999993,-0.0090284,0,sub_15
-0.0190834000000002,0.0024324000000012,0.0668317999999999,-0.0025261999999995,-0.0370209999999993,-0.0103076,0,sub_15
-0.0245062000000002,0.0008226000000012,0.0683307999999999,-0.0011587999999995,-0.0186985999999993,-0.0113896,0,sub_15
-0.0318548000000002,-0.0007609999999986,0.0713431999999999,0.0002412000000004,0.0066554000000006,-0.0126942,0,sub_15
-0.0415602000000002,-0.0028395999999986,0.0753633999999999,0.0006348000000004,0.0467086000000006,-0.0127428,0,sub_15
-0.0503856000000002,-0.0042947999999986,0.0782257999999999,-0.0004143999999994,0.0969978000000006,-0.0138826,0,sub_15
-0.0522916000000002,-0.0014081999999986,0.0761569999999999,-0.0057491999999994,0.1424050000000006,-0.0159008,0,sub_15
-0.0419794000000002,0.0029454000000012,0.0653105999999999,-0.0152061999999995,0.1743972000000006,-0.0162216,0,sub_15
-0.0264368000000002,0.0064078000000012,0.0513895999999999,-0.0268851999999995,0.1880692000000006,-0.0152526,0,sub_15
-0.0032106000000002,0.0087858000000012,0.0373097999999999,-0.0382419999999995,0.1783050000000006,-0.0144648,0,sub_15
0.0237055999999997,0.0086224000000012,0.0235347999999999,-0.0464419999999995,0.1455182000000006,-0.0130032,0,sub_15
0.0462279999999997,0.0048328000000012,0.0142487999999999,-0.0463923999999995,0.0988456000000006,-0.0093296,0,sub_15
0.0564361999999997,0.0009718000000012,0.0115249999999999,-0.0403653999999995,0.0525790000000006,-0.0058284,0,sub_15
0.0617843999999997,0.0001694000000012,0.0096657999999999,-0.0298451999999995,0.0080054000000006,-0.0033662,0,sub_15
0.0600703999999997,0.0006948000000012,0.0093219999999999,-0.0175987999999995,-0.0335863999999993,-0.0021776,0,sub_15
0.0537735999999997,0.0005502000000012,0.0109571999999999,-0.0053765999999995,-0.0662325999999993,-0.0005548,0,sub_15
0.0462115999999997,0.0007440000000012,0.0151683999999999,0.0030376000000004,-0.0920461999999993,0.0006053999999998,0,sub_15
0.0396991999999997,0.0014076000000012,0.0217853999999999,0.0082406000000004,-0.1197675999999993,0.0021727999999999,0,sub_15
0.0339103999999997,0.0011038000000012,0.0310293999999999,0.0082524000000004,-0.1465171999999993,0.0040763999999999,0,sub_15
0.0286139999999997,0.0027702000000012,0.0399463999999999,0.0029462000000004,-0.1689897999999993,0.0065781999999998,0,sub_15
0.0178857999999997,0.0081592000000012,0.0526639999999999,-0.0042439999999995,-0.1814497999999993,0.0109767999999998,0,sub_15
0.0064323999999997,0.0115828000000012,0.0638727999999999,-0.0105097999999995,-0.1770857999999993,0.0164285999999999,0,sub_15
-0.0098362000000002,0.0127178000000012,0.0752317999999999,-0.0132571999999995,-0.1505721999999993,0.0208083999999999,0,sub_15
-0.0277808000000002,0.0114802000000012,0.0858173999999999,-0.0098667999999995,-0.1060647999999993,0.0231251999999999,0,sub_15
-0.0457818000000002,0.0081904000000012,0.0955353999999999,-0.0017055999999995,-0.0475001999999993,0.0224661999999999,0,sub_15
-0.0557300000000002,0.0020452000000012,0.0994211999999999,0.0084318000000004,0.0181096000000006,0.0164709999999999,0,sub_15
-0.0599710000000002,-0.0010133999999987,0.0995341999999999,0.0190218000000004,0.0860752000000006,0.0070573999999999,0,sub_15
-0.0537406000000002,-0.0025803999999987,0.0944977999999999,0.0244996000000004,0.1508062000000006,-0.0032716,0,sub_15
-0.0408142000000002,-0.0015691999999987,0.0857057999999999,0.0224450000000004,0.2040474000000006,-0.0108612,0,sub_15
-0.0233466000000002,-0.0003733999999987,0.0749859999999999,0.0147576000000004,0.2415292000000006,-0.0152652,0,sub_15
-0.0044184000000001,0.0004916000000012,0.0638883999999999,0.0042032000000004,0.2619620000000006,-0.0160354,0,sub_15
0.0120369999999998,-6.599999999877486e-05,0.0537039999999999,-0.0072891999999995,0.2647102000000007,-0.0157212,0,sub_15
0.0243407999999997,0.0008296000000012,0.0452575999999999,-0.0152471999999995,0.2519496000000006,-0.0144786,0,sub_15
0.0316511999999997,0.0028916000000012,0.0387973999999999,-0.0191903999999995,0.2300152000000006,-0.0136234,0,sub_15
0.0339373999999997,0.0041436000000012,0.0342075999999999,-0.0186329999999995,0.2039376000000006,-0.0138044,0,sub_15
0.0311599999999997,0.0033092000000012,0.0327289999999999,-0.0133861999999995,0.1744442000000006,-0.0162986,0,sub_15
0.0263519999999997,0.0027726000000012,0.0335219999999999,-0.0057853999999995,0.1460094000000006,-0.019205,0,sub_15
0.0210633999999997,0.0010534000000012,0.0365713999999999,0.0020450000000004,0.1192862000000006,-0.0240346,0,sub_15
0.0164697999999997,0.0009250000000012,0.0388533999999999,0.0088152000000004,0.0932092000000006,-0.0297272,0,sub_15
0.0129421999999997,0.0013232000000012,0.0407833999999999,0.0108540000000004,0.0693510000000006,-0.0324598,0,sub_15
0.0108705999999997,0.0040732000000012,0.0407731999999999,0.0094798000000004,0.0501740000000006,-0.0307356,0,sub_15
0.0086253999999997,0.0062628000000012,0.0424067999999999,0.0066206000000004,0.0356782000000006,-0.0262504,0,sub_15
0.0058257999999997,0.0074798000000012,0.0438565999999999,0.0044006000000004,0.0258476000000006,-0.016853,0,sub_15
0.0018951999999997,0.0040760000000012,0.0462551999999999,0.0037040000000004,0.0243142000000006,-0.0057462,0,sub_15
-0.0015514000000002,0.0022898000000012,0.0479357999999999,0.0064434000000004,0.0268202000000006,0.0045245999999999,0,sub_15
-0.0073548000000002,0.0010926000000012,0.0488739999999999,0.0081150000000004,0.0276314000000006,0.0132945999999998,0,sub_15
-0.0132516000000002,-0.0004145999999987,0.0482021999999999,0.0094130000000004,0.0254782000000006,0.0197333999999998,0,sub_15
-0.0218116000000002,-0.0014939999999987,0.0502837999999999,0.0096624000000004,0.0241936000000006,0.0229589999999998,0,sub_15
-0.0297828000000002,-0.0019077999999987,0.0528951999999999,0.0097262000000004,0.0278150000000006,0.0248951999999999,0,sub_15
-0.0378070000000002,-0.0017505999999987,0.0563873999999999,0.0102522000000004,0.0376204000000006,0.0251175999999999,0,sub_15
-0.0432246000000001,0.0008920000000012,0.0583115999999999,0.0103794000000004,0.0538180000000006,0.0255425999999999,0,sub_15
-0.0475086000000001,0.0036398000000012,0.0586761999999999,0.0093998000000004,0.0746948000000006,0.0270043999999999,0,sub_15
-0.0468954000000002,0.0041376000000012,0.0556533999999999,0.0086430000000004,0.0966406000000006,0.0273983999999999,0,sub_15
-0.0445656000000002,0.0051932000000012,0.0529605999999999,0.0087236000000004,0.1126272000000006,0.0254555999999999,0,sub_15
-0.0398500000000002,0.0061006000000012,0.0493367999999999,0.0088328000000004,0.1182036000000006,0.0211785999999999,0,sub_15
-0.0320564000000002,0.0050424000000012,0.0449345999999999,0.0088892000000004,0.1095156000000006,0.0143557999999999,0,sub_15
-0.0226850000000002,0.0045254000000012,0.0400895999999999,0.0080328000000004,0.0869848000000006,0.0069033999999999,0,sub_15
-0.0143140000000002,0.0055192000000012,0.0356611999999999,0.0058474000000004,0.0552904000000006,0.0011623999999999,0,sub_15
-0.0086922000000002,0.0050888000000012,0.0336265999999999,0.0023586000000004,0.0206092000000006,-0.0024472,0,sub_15
-0.0065092000000002,0.0018548000000012,0.0354149999999999,-0.0005425999999995,-0.0094147999999993,-0.0041382,0,sub_15
-0.0077386000000001,-0.0026163999999987,0.0415513999999999,0.0008734000000004,-0.0258283999999993,-0.0032528,0,sub_15
-0.0146148000000002,-0.0055331999999987,0.0503495999999999,0.0060108000000004,-0.0252875999999993,-1.4400000000077544e-05,0,sub_15
-0.0227830000000001,-0.0063595999999986,0.0582155999999999,0.0082070000000004,-0.0136611999999993,0.0040437999999999,0,sub_15
-0.0303352000000001,-0.0055209999999986,0.0626287999999999,0.0059492000000004,0.0050074000000006,0.0091299999999999,0,sub_15
-0.0356328000000002,-0.0019487999999987,0.0644601999999999,0.0005128000000004,0.0287996000000006,0.0144009999999999,0,sub_15
-0.0376628000000002,0.0010048000000012,0.0664971999999999,-0.0076857999999995,0.0528238000000006,0.0173023999999999,0,sub_15
-0.0332700000000002,0.0031014000000012,0.0671211999999999,-0.0167831999999995,0.0699008000000006,0.0170031999999999,0,sub_15
-0.0271502000000002,0.0031786000000012,0.0680551999999999,-0.0216217999999995,0.0827112000000006,0.0143891999999999,0,sub_15
-0.0188862000000002,0.0024742000000012,0.0679101999999999,-0.0200715999999995,0.0914564000000006,0.0105431999999999,0,sub_15
-0.0101784000000002,0.0020250000000012,0.0658791999999999,-0.0151089999999995,0.0923078000000006,0.0061307999999999,0,sub_15
-0.0040282000000002,0.0035784000000012,0.0615547999999999,-0.0104115999999995,0.0833528000000006,0.0034381999999999,0,sub_15
0.0013317999999997,0.0049174000000012,0.0556829999999999,-0.0072535999999995,0.0652374000000006,0.0018147999999999,0,sub_15
0.0072831999999997,0.0052794000000012,0.0492717999999999,-0.0067049999999995,0.0379630000000006,0.0018939999999999,0,sub_15
0.0132179999999997,0.0045684000000012,0.0429233999999999,-0.0115357999999995,0.0032400000000006,0.0045089999999999,0,sub_15
0.0175887999999997,0.0025860000000012,0.0373853999999999,-0.0198499999999995,-0.0359597999999993,0.0111239999999999,0,sub_15
0.0187389999999997,0.0007256000000012,0.0334343999999999,-0.0283755999999995,-0.0717619999999993,0.0207243999999999,0,sub_15
0.0122667999999997,-0.0013079999999987,0.0336945999999999,-0.0336423999999995,-0.0924569999999993,0.0324645999999999,0,sub_15
-0.0006246000000002,-0.0015101999999987,0.0367607999999999,-0.0325991999999995,-0.0912727999999993,0.0420911999999999,0,sub_15
-0.0158134000000002,-0.0001187999999987,0.0417951999999999,-0.0243987999999995,-0.0700631999999993,0.0459735999999998,0,sub_15
-0.0299700000000002,0.0016282000000012,0.0482331999999999,-0.0118445999999995,-0.0339377999999993,0.0455945999999999,0,sub_15
-0.0420802000000002,0.0023062000000012,0.0548995999999999,0.0016110000000004,0.0098664000000006,0.0422207999999999,0,sub_15
-0.0474504000000002,0.0029410000000012,0.0601109999999999,0.0129368000000004,0.0507106000000006,0.0349903999999999,0,sub_15
-0.0466630000000002,0.0030588000000012,0.0642501999999999,0.0214336000000004,0.0811820000000006,0.0264649999999999,0,sub_15
-0.0388262000000002,0.0017258000000012,0.0705473999999999,0.0273126000000004,0.0997282000000006,0.0187909999999999,0,sub_15
-0.0308672000000002,0.0003918000000012,0.0752527999999999,0.0309908000000004,0.1037924000000006,0.0115475999999999,0,sub_15
-0.0209014000000002,6.32000000012651e-05,0.0784801999999999,0.0316136000000004,0.0918916000000006,0.0034487999999999,0,sub_15
-0.0097758000000002,0.0011242000000012,0.0753299999999999,0.0263920000000004,0.0635974000000006,-0.0025334,0,sub_15
0.0001235999999997,0.0015708000000012,0.0706889999999999,0.0153404000000004,0.0229544000000006,-0.0055496,0,sub_15
0.0053219999999997,0.0020642000000012,0.0626501999999999,-0.0006935999999995,-0.0317433999999993,-0.0060188,0,sub_15
0.0095305999999997,-0.0009421999999987,0.0543213999999999,-0.0159037999999995,-0.0932609999999993,-0.0066872,0,sub_15
0.0146429999999997,-0.0030217999999987,0.0477345999999999,-0.0289131999999995,-0.1402965999999993,-0.007786,0,sub_15
0.0181059999999997,-0.0064389999999987,0.0477893999999999,-0.0367047999999995,-0.1649829999999993,-0.0080224,0,sub_15
0.0125757999999997,-0.0050109999999987,0.0480117999999999,-0.0380137999999995,-0.1696725999999993,-0.0063164,0,sub_15
0.0041089999999997,-0.0021255999999987,0.0477569999999999,-0.0345221999999995,-0.1492441999999993,-0.0031134,0,sub_15
-0.0064348000000002,0.0034284000000012,0.0480255999999999,-0.0298593999999995,-0.1053845999999993,0.0002811999999999,0,sub_15
-0.0201330000000002,0.0047468000000012,0.0473601999999999,-0.0219929999999995,-0.0630191999999993,0.0015637999999999,0,sub_15
-0.0321250000000002,0.0071240000000012,0.0471171999999999,-0.0118043999999995,-0.0304451999999993,-0.0013978,0,sub_15
-0.0329076000000002,0.0061234000000012,0.0491737999999999,-0.0027305999999995,-0.0127641999999993,-0.008621,0,sub_15
-0.0306800000000002,0.0047868000000012,0.0534423999999999,0.0043384000000004,-0.0150981999999993,-0.0171144,0,sub_15
-0.0277932000000002,0.0033144000000012,0.0574841999999999,0.0100448000000004,-0.0382965999999993,-0.0281542,0,sub_15
-0.0235546000000002,0.0070690000000012,0.0613071999999999,0.0133590000000004,-0.0712881999999993,-0.0389848,0,sub_15
-0.0203856000000002,0.0077934000000012,0.0622791999999999,0.0130670000000004,-0.0961849999999993,-0.0464326,0,sub_15
-0.0193288000000002,0.0068524000000012,0.0613489999999999,0.0106826000000004,-0.1080931999999993,-0.0500658,0,sub_15
-0.0194330000000002,0.0058342000000012,0.0605783999999999,0.0089824000000004,-0.1080813999999993,-0.0515732,0,sub_15
-0.0203490000000002,0.0055436000000012,0.0603395999999999,0.0075396000000004,-0.0923281999999993,-0.047117,0,sub_15
-0.0222814000000002,0.0024794000000012,0.0603989999999999,0.0048502000000004,-0.0640207999999993,-0.037558,0,sub_15
-0.0261894000000002,0.0002820000000012,0.0604895999999999,0.0025740000000004,-0.0384853999999993,-0.027779,0,sub_15
-0.0294918000000002,-0.0006223999999987,0.0591317999999999,7.48000000004221e-05,-0.0172017999999993,-0.0201326,0,sub_15
-0.0319386000000002,-0.0011125999999987,0.0564879999999999,-0.0009479999999995,-0.0023047999999993,-0.0150314,0,sub_15
-0.0302046000000002,-0.0014133999999987,0.0523057999999999,-0.0004463999999995,6.2000000006910695e-06,-0.0146248,0,sub_15
-0.0256722000000002,-0.0017789999999987,0.0458703999999999,0.0023618000000004,-0.0119441999999992,-0.019525,0,sub_15
-0.0178396000000002,0.0005074000000012,0.0403525999999999,0.0053460000000004,-0.0349629999999992,-0.0271872,0,sub_15
-0.0089988000000002,0.0016892000000012,0.0356559999999999,0.0082526000000004,-0.0746025999999993,-0.0341878,0,sub_15
-0.0007124000000002,0.0016968000000012,0.0314505999999999,0.0094062000000004,-0.1257357999999993,-0.0424676,0,sub_15
0.0068531999999997,0.0016036000000012,0.0261723999999999,0.0098842000000004,-0.1674733999999993,-0.0481792,0,sub_15
0.0148965999999997,-0.0004359999999987,0.0245773999999999,0.0067906000000004,-0.1925971999999993,-0.0496642,0,sub_15
0.0208991999999997,-0.0036915999999987,0.0229905999999999,0.0045582000000004,-0.2141097999999993,-0.0492248,0,sub_15
0.0259637999999997,-0.0047717999999987,0.0213929999999999,0.0012880000000004,-0.2286335999999993,-0.0482594,0,sub_15
0.0315917999999997,-0.0023537999999987,0.0185395999999999,-0.0045003999999995,-0.2293179999999993,-0.042843,0,sub_15
0.0340775999999997,0.0004226000000012,0.0183581999999999,-0.0141361999999995,-0.2287217999999993,-0.0346776,0,sub_15
0.0331717999999997,0.0050834000000012,0.0158245999999999,-0.0220821999999995,-0.2302687999999993,-0.0247884,0,sub_15
0.0279095999999997,0.0099250000000012,0.0143069999999999,-0.0295621999999995,-0.2196869999999993,-0.0114932,0,sub_15
0.0192329999999997,0.0138840000000012,0.0147305999999999,-0.0329233999999995,-0.1935275999999993,0.0029775999999999,0,sub_15
0.0068199999999997,0.0152890000000012,0.0167551999999999,-0.0313089999999995,-0.1548049999999993,0.0149033999999999,0,sub_15
-0.0013618000000002,0.0178344000000012,0.0216767999999999,-0.0225909999999995,-0.1056535999999993,0.0234469999999999,0,sub_15
-0.0068208000000002,0.0214190000000012,0.0293235999999999,-0.0042569999999995,-0.0565231999999993,0.0288531999999999,0,sub_15
-0.0101330000000002,0.0208056000000012,0.0361013999999999,0.0155612000000004,-0.0112259999999993,0.0325653999999999,0,sub_15
-0.0158016000000002,0.0121388000000012,0.0417075999999999,0.0319654000000004,0.0317490000000006,0.0339067999999999,0,sub_15
-0.0181480000000002,0.0040140000000012,0.0437163999999999,0.0406450000000004,0.0585538000000006,0.0326409999999999,0,sub_15
-0.0213414000000002,-0.0042123999999987,0.0422769999999999,0.0371210000000004,0.0758152000000006,0.0308749999999998,0,sub_15
-0.0231112000000002,-0.0127879999999987,0.0390087999999999,0.0244326000000004,0.0924816000000006,0.0260545999999998,0,sub_15
-0.0154590000000002,-0.0131895999999987,0.0345385999999999,0.0023538000000004,0.1066328000000006,0.0190353999999998,0,sub_15
-0.0030390000000002,-0.0046021999999987,0.0295431999999999,-0.0151015999999995,0.1052138000000006,0.0122821999999999,0,sub_15
0.0107533999999997,0.0056196000000012,0.0282871999999999,-0.0219363999999995,0.1005632000000006,0.0090357999999999,0,sub_15
0.0173447999999997,0.0082122000000012,0.0291267999999999,-0.0173053999999995,0.0862732000000006,0.0088727999999999,0,sub_15
0.0211815999999997,0.0096188000000012,0.0308489999999999,-0.0159017999999995,0.0706972000000006,0.0133891999999999,0,sub_15
0.0175081999999997,0.0081802000000012,0.0347473999999999,-0.0029731999999995,0.0542346000000006,0.0164915999999999,0,sub_15
0.0107349999999997,0.0048756000000012,0.0396219999999999,0.0048650000000004,0.0454564000000006,0.0204031999999999,0,sub_15
0.0035757999999997,-0.0013869999999987,0.0435345999999999,0.0069682000000004,0.0401166000000006,0.0219201999999999,0,sub_15
0.0025361999999997,-0.0016785999999987,0.0459949999999999,0.0016464000000004,0.0416318000000006,0.0205991999999999,0,sub_15
