userAcceleration.x,userAcceleration.y,userAcceleration.z,rotationRate.x,rotationRate.y,rotationRate.z,label,subject
-0.0111228000000003,0.0022922000000012,0.0221383999999999,-0.0031291999999994,0.0576418000000007,0.0112319999999999,0,sub_20
-0.0117434000000003,0.0014052000000012,0.0223517999999999,-0.0052733999999994,0.0542448000000007,0.0101531999999998,0,sub_20
-0.0107734000000003,0.0041494000000012,0.0223143999999999,-0.0086977999999994,0.0508522000000007,0.0090653999999998,0,sub_20
-0.0098944000000003,0.0066344000000012,0.0218315999999999,-0.0116877999999994,0.0481016000000007,0.0069115999999999,0,sub_20
-0.0091310000000003,0.0081022000000012,0.0217237999999999,-0.0119097999999994,0.0453362000000007,0.0060589999999999,0,sub_20
-0.0080616000000003,0.0091398000000012,0.0212113999999999,-0.0104219999999994,0.0440528000000007,0.0060709999999998,0,sub_20
-0.0062350000000003,0.0115754000000012,0.0203388,-0.0085025999999994,0.0431964000000007,0.0054445999999999,0,sub_20
-0.0056562000000003,0.0106544000000012,0.0205918,-0.0057335999999994,0.0410604000000007,0.0043983999999999,0,sub_20
-0.0052224000000003,0.0090932000000012,0.0207524,-0.0010517999999994,0.0384864000000007,0.0046479999999999,0,sub_20
-0.0053772000000003,0.0074024000000012,0.021008,0.0031994000000004,0.0354862000000007,0.0053223999999998,0,sub_20
-0.0051470000000002,0.0058570000000012,0.0210064,0.0072304000000004,0.0303586000000007,0.0053571999999999,0,sub_20
-0.0057628000000002,0.0040460000000012,0.0212795999999999,0.0106166000000004,0.0237438000000006,0.0049619999999999,0,sub_20
-0.0071740000000003,0.0041606000000012,0.0216863999999999,0.0114490000000004,0.0184172000000007,0.0043335999999999,0,sub_20
-0.0082072000000003,0.0036046000000012,0.0220485999999999,0.0095152000000004,0.0145924000000007,0.0034705999999999,0,sub_20
-0.0082782000000003,0.0043878000000012,0.0218841999999999,0.0065154000000005,0.0103476000000007,0.0019595999999999,0,sub_20
-0.0095982000000003,0.0063398000000012,0.0215365999999999,0.0033044000000005,0.0061054000000007,1.979999999993055e-05,0,sub_20
-0.0103794000000003,0.0063620000000012,0.0207216,0.0015926000000004,0.0035606000000007,-0.0014844,0,sub_20
-0.0099096000000003,0.0050816000000012,0.0192318,0.0024442000000004,0.0027070000000007,-0.0019046,0,sub_20
-0.0099934000000003,0.0055124000000012,0.0174982,0.0047902000000004,0.0029102000000007,-0.0014612,0,sub_20
-0.0101788000000003,0.0059256000000012,0.0158806,0.0075622000000004,0.0026866000000007,-0.0012278,0,sub_20
-0.0096990000000003,0.0052742000000012,0.0155328,0.0090510000000004,0.0014040000000007,-0.0014294,0,sub_20
-0.0097942000000003,0.0056586000000012,0.0164592,0.0096758000000005,-0.0017947999999992,-0.0012072,0,sub_20
-0.0105752000000003,0.0061952000000012,0.0167548,0.0102968000000005,-0.0056335999999992,-0.0007706,0,sub_20
-0.0109878000000003,0.0063692000000012,0.0164664,0.0098462000000004,-0.0109583999999992,-0.000767,0,sub_20
-0.0121614000000003,0.0062992000000012,0.0168896,0.0091822000000004,-0.0152213999999992,0.0003019999999999,0,sub_20
-0.0138642000000003,0.0055030000000012,0.0171092,0.0108728000000004,-0.0171515999999992,0.0020253999999999,0,sub_20
-0.0150268000000003,0.0042504000000012,0.0164723999999999,0.0132084000000004,-0.0180189999999992,0.0037519999999999,0,sub_20
-0.0161672000000003,0.0034968000000012,0.0171289999999999,0.0140512000000004,-0.0193045999999992,0.0048277999999999,0,sub_20
-0.0176744000000003,0.0036638000000013,0.0191685999999999,0.0140454000000005,-0.0203707999999992,0.0050427999999998,0,sub_20
-0.0180782000000003,0.0019544000000013,0.0206845999999999,0.0125566000000005,-0.0201491999999992,0.0041775999999998,0,sub_20
-0.0183356000000003,0.0023466000000013,0.0216523999999999,0.0085150000000005,-0.0186385999999992,0.0028655999999999,0,sub_20
-0.0187496000000003,0.0036150000000012,0.0222581999999999,0.0036284000000005,-0.0154195999999992,0.0013317999999999,0,sub_20
-0.0191232000000003,0.0039688000000012,0.0220262,-0.0001881999999994,-0.0113529999999992,1.7999999999930788e-05,0,sub_20
-0.0186356000000003,0.0029412000000012,0.0214554,-0.0020855999999994,-0.0066573999999992,-0.0004286,0,sub_20
-0.0179498000000003,0.0045700000000012,0.0207516,-0.0029189999999994,-0.0021801999999992,-0.0004402,0,sub_20
-0.0168850000000003,0.0053194000000012,0.0203546,-0.0031199999999994,0.0005902000000007,-0.0004452,0,sub_20
-0.0157004000000003,0.0055408000000012,0.0209536,-0.0031169999999994,0.0012294000000007,-0.000446,0,sub_20
-0.0147050000000003,0.0055318000000012,0.0215674,-0.0029075999999994,0.0012252000000007,0.0004099999999999,0,sub_20
-0.0139960000000003,0.0061256000000012,0.021914,-0.0024855999999994,0.0007950000000007,0.0010543999999999,0,sub_20
-0.0141394000000003,0.0053386000000012,0.0219748,-0.0022799999999994,-0.0004857999999992,0.0014847999999999,0,sub_20
-0.0147834000000003,0.0046192000000012,0.0222954,-0.0016503999999994,-0.0017705999999992,0.0025589999999999,0,sub_20
-0.0152340000000003,0.0044224000000012,0.0226356,-0.0003769999999994,-0.0019931999999992,0.0038499999999999,0,sub_20
-0.0156674000000003,0.0048764000000012,0.0232006,0.0011166000000005,-0.0019983999999992,0.0038603999999999,0,sub_20
-0.0165568000000003,0.0051676000000012,0.0237816,0.0017840000000005,-0.0024361999999992,0.0031997999999999,0,sub_20
-0.0170712000000003,0.0050174000000012,0.024334,0.0020286000000005,-0.0022325999999992,0.0023217999999999,0,sub_20
-0.0171842000000003,0.0045486000000012,0.0244776,0.0009986000000005,-0.0003217999999992,0.0018599999999999,0,sub_20
-0.0169272000000003,0.0043418000000012,0.024209,-0.0006675999999994,0.0022312000000007,0.0011791999999999,0,sub_20
-0.0159940000000003,0.0040936000000012,0.023539,-0.0025537999999994,0.0037180000000007,0.0009255999999999,0,sub_20
-0.0147788000000003,0.0044728000000012,0.0226492,-0.0031861999999994,0.0056368000000007,0.0011323999999999,0,sub_20
-0.0138218000000003,0.0050696000000012,0.0221558,-0.0031805999999994,0.0075516000000007,0.0017707999999999,0,sub_20
-0.0131570000000003,0.0061146000000012,0.0222082,-0.0021117999999994,0.0081862000000007,0.0019911999999999,0,sub_20
-0.0121392000000003,0.0058274000000012,0.0215706,-0.0004125999999994,0.0066880000000007,0.0022185999999999,0,sub_20
-0.0114238000000003,0.0059352000000012,0.0219006,0.0006436000000005,0.0045528000000007,0.0024423999999999,0,sub_20
-0.0111810000000003,0.0056652000000012,0.0221086,0.0006310000000005,0.0015708000000007,0.0022323999999999,0,sub_20
-0.0112978000000003,0.0048834000000012,0.0219244,0.0010454000000005,-0.0016245999999992,0.0018121999999999,0,sub_20
-0.0111766000000003,0.0044970000000012,0.0214404,0.0012464000000005,-0.0050315999999992,0.0011769999999999,0,sub_20
-0.0126122000000003,0.0049754000000012,0.0211928,0.0014512000000005,-0.0071619999999992,0.0009675999999999,0,sub_20
-0.0139104000000003,0.0053266000000012,0.020835,0.0020866000000005,-0.0084417999999992,0.0007599999999999,0,sub_20
-0.0149412000000003,0.0049210000000012,0.0211058,0.0027294000000004,-0.0084729999999992,0.0011803999999999,0,sub_20
-0.0160130000000003,0.0056830000000012,0.0220472,0.0025194000000004,-0.0080761999999992,0.0018077999999999,0,sub_20
-0.0170570000000003,0.0052348000000012,0.0221082,0.0023124000000004,-0.0072523999999992,0.0022211999999999,0,sub_20
-0.0168972000000003,0.0047984000000012,0.0220243999999999,0.0012528000000004,-0.0066369999999992,0.0022015999999999,0,sub_20
-0.0170766000000003,0.0040658000000012,0.0215559999999999,0.0004114000000004,-0.0053813999999992,0.0017553999999999,0,sub_20
-0.0177238000000003,0.0042588000000012,0.0210109999999999,-0.0002211999999994,-0.0040991999999992,0.0013221999999999,0,sub_20
-0.0172444000000003,0.0037666000000012,0.0204159999999999,0.0002142000000005,-0.0028197999999992,0.0006827999999999,0,sub_20
-0.0167234000000003,0.0036668000000012,0.0204325999999999,0.0006466000000005,-0.0017551999999992,0.0004707999999999,0,sub_20
-0.0172106000000003,0.0039914000000012,0.0205319999999999,0.0004208000000005,-0.0004067999999992,1.3799999999930882e-05,0,sub_20
-0.0170048000000003,0.0055780000000012,0.0211297999999999,-0.0006593999999994,0.0015804000000007,0.0004047999999999,0,sub_20
-0.0157188000000003,0.0053186000000012,0.0213189999999999,-0.0008879999999994,0.0033506000000007,0.0010153999999999,0,sub_20
-0.0143788000000003,0.0049698000000012,0.0208052,-5.459999999948388e-05,0.0038396000000007,0.0014213999999999,0,sub_20
-0.0138126000000003,0.0053890000000012,0.0209178,0.0012018000000005,0.0026260000000007,0.0009779999999999,0,sub_20
-0.0135194000000003,0.0047074000000012,0.022019,0.0018372000000004,0.0009218000000007,0.0003437999999999,0,sub_20
-0.0132296000000003,0.0025670000000012,0.0225828,0.0022590000000004,-0.0007815999999992,-0.000292,0,sub_20
-0.0131868000000003,0.0026244000000012,0.0224454,0.0007504000000004,-0.0019373999999992,-0.0007496,0,sub_20
-0.0134568000000003,0.0048824000000012,0.0229936,-0.0031051999999995,-0.0032971999999992,-0.001437,0,sub_20
-0.0133440000000003,0.0053108000000012,0.0235508,-0.0069599999999995,-0.0042315999999992,-0.0019114,0,sub_20
-0.0126116000000003,0.0061092000000012,0.0234866,-0.0082513999999994,-0.0043235999999992,-0.0021554,0,sub_20
-0.0122458000000003,0.0068150000000012,0.0231008,-0.0086891999999994,-0.0042063999999992,-0.00218,0,sub_20
-0.0119224000000003,0.0072168000000012,0.0230082,-0.0078413999999994,-0.0061243999999992,-0.0028126,0,sub_20
-0.0120216000000003,0.0063168000000012,0.0221724,-0.0057161999999994,-0.0088981999999992,-0.0036488,0,sub_20
-0.0124316000000003,0.0066290000000012,0.021288,-0.0027375999999994,-0.0112505999999992,-0.0040522,0,sub_20
-0.0128080000000003,0.0063954000000012,0.0205904,-0.0004019999999994,-0.0138155999999992,-0.0040326,0,sub_20
-0.0131506000000003,0.0058212000000012,0.0204842,0.0012874000000005,-0.0172993999999992,-0.0048894,0,sub_20
-0.0138454000000003,0.0054800000000012,0.0211789999999999,0.0023396000000005,-0.0199293999999992,-0.005538,0,sub_20
-0.0145384000000003,0.0053986000000012,0.0218469999999999,0.0016914000000005,-0.0202133999999992,-0.0053468,0,sub_20
-0.0148966000000003,0.0057198000000012,0.0221063999999999,0.0004108000000005,-0.0187907999999992,-0.0051622,0,sub_20
-0.0146718000000003,0.0062922000000012,0.0221027999999999,-0.0006515999999994,-0.0167279999999992,-0.0054042,0,sub_20
-0.0152034000000003,0.0069198000000012,0.0218313999999999,-4.799999999483689e-06,-0.0152389999999992,-0.0054016,0,sub_20
-0.0151944000000003,0.0073296000000012,0.0212866,0.0019212000000004,-0.0139673999999992,-0.0053898,0,sub_20
-0.0152774000000003,0.0065502000000012,0.0210917999999999,0.0042722000000004,-0.0133355999999992,-0.005588,0,sub_20
-0.0156908000000003,0.0059476000000012,0.0210855999999999,0.0057602000000004,-0.0141947999999992,-0.0051494,0,sub_20
-0.0166002000000003,0.0052208000000012,0.0215817999999999,0.0070216000000004,-0.0163721999999992,-0.0045124,0,sub_20
-0.0169684000000003,0.0045880000000012,0.0219489999999999,0.0074344000000004,-0.0174813999999992,-0.0038824,0,sub_20
-0.0179618000000003,0.0036172000000012,0.0223735999999999,0.0065746000000004,-0.0170939999999992,-0.003477,0,sub_20
-0.0192548000000003,0.0052234000000012,0.0228622,0.0059318000000004,-0.0160671999999992,-0.0032844,0,sub_20
-0.0198498000000003,0.0055662000000012,0.0234746,0.0063656000000004,-0.0135501999999992,-0.0037272,0,sub_20
-0.0202158000000003,0.0052792000000012,0.023685,0.0070248000000004,-0.0097157999999992,-0.0041546,0,sub_20
-0.0204874000000003,0.0058034000000012,0.0234615999999999,0.0076760000000005,-0.0063249999999992,-0.0043806,0,sub_20
-0.0205896000000003,0.0059574000000012,0.0230389999999999,0.0083254000000005,-0.0031481999999992,-0.0043924,0,sub_20
-0.0197168000000003,0.0039990000000012,0.0225383999999999,0.0089662000000005,-0.0010399999999992,-0.0035484,0,sub_20
-0.0189038000000003,0.0029054000000012,0.0224615999999999,0.0091724000000005,-0.0004225999999992,-0.0024918,0,sub_20
-0.0182448000000003,0.0033198000000012,0.0226193999999999,0.0085224000000005,-0.0006535999999992,-0.001654,0,sub_20
-0.0173948000000003,0.0031828000000012,0.0239184,0.0061724000000005,-0.0004357999999992,-0.000816,0,sub_20
-0.0165770000000003,0.0032960000000012,0.0248961999999999,0.0029698000000005,-0.0002139999999992,-0.0001978,0,sub_20
-0.0160418000000003,0.0033890000000012,0.0246649999999999,0.0001988000000005,0.0006470000000007,-4.600000000109399e-06,0,sub_20
-0.0159968000000003,0.0039840000000012,0.0239539999999999,-0.0019329999999994,0.0015050000000007,0.0004065999999999,0,sub_20
-0.0164356000000003,0.0049628000000012,0.0232913999999999,-0.0032167999999994,0.0017110000000007,0.0010307999999999,0,sub_20
-0.0168826000000003,0.0056200000000012,0.0218469999999999,-0.0025763999999994,0.0019138000000006,0.0008137999999999,0,sub_20
-0.0172750000000003,0.0054526000000012,0.0214154,-0.0006575999999994,0.0018982000000006,0.0008195999999999,0,sub_20
-0.0171844000000003,0.0050366000000012,0.0223888,0.0008314000000005,0.0014570000000007,0.0010365999999999,0,sub_20
-0.0168086000000003,0.0044148000000012,0.0222116,0.0012546000000005,0.0008084000000007,0.0008191999999999,0,sub_20
-0.0165404000000003,0.0034328000000012,0.0222714,0.0001888000000005,0.0006008000000007,0.0003845999999999,0,sub_20
-0.0167044000000003,0.0035408000000012,0.0222766,-0.0013085999999994,0.0003904000000007,0.0010151999999998,0,sub_20
-0.0160826000000003,0.0038486000000012,0.02256,-0.0025907999999994,0.0006052000000007,0.0016469999999998,0,sub_20
-0.0162360000000003,0.0044130000000012,0.0224588,-0.0032231999999994,0.0010504000000007,0.0018583999999998,0,sub_20
-0.0165308000000003,0.0048318000000012,0.022523,-0.0040689999999994,0.0017084000000007,0.0022815999999998,0,sub_20
-0.0165070000000003,0.0055442000000012,0.0224732,-0.0049177999999994,0.0019394000000007,0.0029191999999998,0,sub_20
-0.0163068000000003,0.0045186000000012,0.0226833999999999,-0.0049129999999994,0.0017430000000007,0.0031359999999998,0,sub_20
-0.0159744000000003,0.0036114000000012,0.0222611999999999,-0.0053377999999994,0.0009090000000007,0.0033503999999998,0,sub_20
-0.0159678000000003,0.0037744000000012,0.0216265999999999,-0.0072599999999994,6.520000000075477e-05,0.0029107999999998,0,sub_20
-0.0161300000000003,0.0053000000000012,0.0218031999999999,-0.0102491999999994,-0.0009871999999992,0.0022503999999998,0,sub_20
-0.0163582000000003,0.0057106000000012,0.0215485999999999,-0.0117385999999994,-0.0005053999999992,0.0016117999999999,0,sub_20
-0.0156160000000003,0.0062686000000012,0.0208853999999999,-0.0123697999999994,0.0008264000000007,0.0007643999999999,0,sub_20
-0.0156988000000003,0.0076030000000012,0.0201007999999999,-0.0112949999999994,0.0015148000000007,-0.0004974,0,sub_20
-0.0159414000000003,0.0076526000000012,0.0202737999999999,-0.0080921999999994,0.0015538000000007,-0.0011028,0,sub_20
-0.0160982000000003,0.0062596000000012,0.0201899999999999,-0.0027565999999994,0.0017968000000007,-0.0012662,0,sub_20
-0.0158056000000003,0.0047690000000012,0.0207375999999999,0.0012946000000005,0.0011434000000007,-0.001237,0,sub_20
-0.0160060000000003,0.0044226000000012,0.0212071999999999,0.0023538000000005,-0.0003525999999992,-0.001014,0,sub_20
-0.0166374000000003,0.0039680000000012,0.0220756,0.0010670000000005,-0.0016273999999992,-0.0008078,0,sub_20
-0.0166730000000003,0.0038512000000012,0.0226126,-0.0014991999999994,-0.0024723999999992,-0.0003972,0,sub_20
-0.0162412000000003,0.0036528000000012,0.0227248,-0.0042915999999994,-0.0026217999999992,2.8599999999930635e-05,0,sub_20
-0.0157892000000003,0.0041950000000012,0.0226484,-0.0058037999999994,-0.0027755999999992,0.0004631999999999,0,sub_20
-0.0154256000000003,0.0044984000000012,0.0229308,-0.0049717999999994,-0.0037889999999992,0.0007017999999999,0,sub_20
-0.0151062000000003,0.0054442000000012,0.022618,-0.0024357999999994,-0.0052353999999992,0.0011665999999999,0,sub_20
-0.0148898000000003,0.0055786000000012,0.0230198,0.0005308000000005,-0.0062553999999992,0.0012063999999999,0,sub_20
-0.0148558000000003,0.0050150000000012,0.0237914,0.0030844000000005,-0.0077555999999992,0.0012261999999999,0,sub_20
-0.0152564000000003,0.0047290000000012,0.0243543999999999,0.0041464000000004,-0.0090367999999992,0.0010215999999999,0,sub_20
-0.0162574000000003,0.0045280000000012,0.0252029999999999,0.0024432000000004,-0.0086029999999992,0.0005817999999999,0,sub_20
-0.0166434000000003,0.0034666000000012,0.0261747999999999,-0.0013879999999995,-0.0070955999999992,-8.800000000006918e-05,0,sub_20
-0.0169612000000003,0.0039092000000012,0.0258543999999999,-0.0045965999999995,-0.0055531999999992,-0.0007398,0,sub_20
-0.0171222000000003,0.0042290000000012,0.0255117999999999,-0.0063085999999994,-0.0038011999999992,-0.0018086,0,sub_20
-0.0178186000000003,0.0048650000000012,0.0250932,-0.0058829999999995,-0.0009923999999992,-0.0026502,0,sub_20
-0.0183232000000003,0.0051080000000012,0.0247872,-0.0037513999999995,0.0022340000000007,-0.0028394,0,sub_20
-0.0182828000000003,0.0048086000000012,0.0243466,-0.0007653999999995,0.0060950000000007,-0.0025962,0,sub_20
-0.0182442000000003,0.0035480000000012,0.0244992,0.0020220000000004,0.0094926000000007,-0.0021538,0,sub_20
-0.0181934000000003,0.0033002000000012,0.0248467999999999,0.0028900000000004,0.0135342000000007,-0.0012984,0,sub_20
-0.0177842000000003,0.0029494000000012,0.0247375999999999,0.0022538000000004,0.0167514000000007,-0.0008728,0,sub_20
-0.0172034000000003,0.0036382000000012,0.0250693999999999,0.0005480000000004,0.0195454000000007,-0.0002406,0,sub_20
-0.0172050000000003,0.0046104000000012,0.0256389999999999,-0.0005185999999994,0.0219118000000007,0.0001829999999999,0,sub_20
-0.0174320000000003,0.0051222000000012,0.0250165999999999,-0.0020111999999994,0.0244928000000007,0.0006033999999999,0,sub_20
-0.0181680000000003,0.0051722000000012,0.0243745999999999,-0.0030789999999994,0.0262218000000007,0.0006005999999999,0,sub_20
-0.0185720000000003,0.0048182000000012,0.0239153999999999,-0.0032865999999994,0.0281376000000007,0.0012375999999998,0,sub_20
-0.0189424000000003,0.0040072000000012,0.0235256,-0.0019987999999994,0.0298376000000007,0.0012443999999999,0,sub_20
-0.0197514000000003,0.0041260000000012,0.0235263999999999,-0.0009261999999994,0.0309000000000007,0.0010367999999999,0,sub_20
-0.0194882000000003,0.0042380000000012,0.0242581999999999,0.0001602000000004,0.0326136000000007,0.0008281999999999,0,sub_20
-0.0188880000000003,0.0043060000000012,0.0247629999999999,0.0012506000000004,0.0351794000000007,0.0006183999999999,0,sub_20
-0.0178180000000003,0.0045060000000012,0.0251249999999999,0.0014834000000004,0.0371080000000007,0.0006171999999999,0,sub_20
-0.0175396000000003,0.0043422000000012,0.0251259999999999,0.0014934000000004,0.0375436000000007,0.0012571999999999,0,sub_20
-0.0173960000000003,0.0028766000000012,0.0256594,0.0017118000000004,0.0369132000000007,0.0019001999999999,0,sub_20
-0.0178662000000003,0.0024064000000012,0.0261226,0.0017042000000004,0.0358452000000007,0.0025423999999999,0,sub_20
-0.0190370000000003,0.0034444000000012,0.0264628,0.0012754000000004,0.0358450000000007,0.0029667999999999,0,sub_20
-0.0202100000000003,0.0031604000000012,0.0263454,0.0010688000000004,0.0371250000000007,0.0027499999999999,0,sub_20
-0.0199240000000003,0.0031430000000012,0.0260248,0.0006716000000004,0.0396950000000007,0.0018895999999999,0,sub_20
-0.0192398000000003,0.0044674000000012,0.024749,0.0002754000000005,0.0426904000000007,0.0012423999999999,0,sub_20
-0.0188212000000003,0.0051810000000012,0.0242478,0.0005146000000005,0.0444062000000007,0.0003875999999999,0,sub_20
-0.0173616000000003,0.0039070000000012,0.0238284,0.0013804000000005,0.0439856000000007,0.0003943999999999,0,sub_20
-0.0155800000000002,0.0043300000000012,0.0237842,0.0024500000000005,0.0420704000000007,0.0010455999999999,0,sub_20
-0.0144192000000002,0.0045284000000012,0.0234658,0.0030718000000005,0.0388690000000007,0.0019085999999999,0,sub_20
-0.0131688000000003,0.0050702000000012,0.0232828,0.0043262000000005,0.0337488000000007,0.0025647999999999,0,sub_20
-0.0117772000000003,0.0053254000000012,0.0235086,0.0053724000000004,0.0267318000000007,0.0027937999999999,0,sub_20
-0.0104904000000003,0.0056828000000012,0.0238468,0.0068378000000004,0.0177968000000007,0.0028145999999999,0,sub_20
-0.0111028000000003,0.0060104000000012,0.024024,0.0089376000000004,0.0071568000000007,0.0024145999999999,0,sub_20
-0.0125292000000003,0.0073958000000012,0.024515,0.0116776000000004,-0.0032731999999992,0.0022325999999999,0,sub_20
-0.0136626000000003,0.0059180000000012,0.0245772,0.0133592000000004,-0.0111455999999992,0.0026807999999999,0,sub_20
-0.0147080000000003,0.0046902000000012,0.0243346,0.0152518000000004,-0.0162697999999992,0.0037687999999999,0,sub_20
-0.0164532000000003,0.0050028000000012,0.0248752,0.0165100000000004,-0.0203257999999992,0.0046373999999999,0,sub_20
-0.0162216000000003,0.0033432000000012,0.0253028,0.0169204000000004,-0.0235247999999992,0.0050717999999999,0,sub_20
-0.0154754000000003,0.0014660000000012,0.0259402,0.0147732000000004,-0.0273489999999992,0.0042071999999999,0,sub_20
-0.0145982000000003,0.0012308000000012,0.0264466,0.0119896000000004,-0.0330899999999992,0.0029157999999999,0,sub_20
-0.0140902000000003,0.0016124000000012,0.025358,0.0091906000000005,-0.0418153999999992,0.0020553999999999,0,sub_20
-0.0131644000000003,0.0018374000000012,0.023391,0.0068126000000005,-0.0520327999999992,0.0009861999999999,0,sub_20
-0.0135844000000003,0.0039330000000012,0.0221314,0.0044384000000005,-0.0613979999999992,-8.42000000000694e-05,0,sub_20
-0.0147082000000003,0.0038838000000012,0.021154,0.0044142000000005,-0.0688589999999992,0.0001413999999999,0,sub_20
-0.0161568000000003,0.0031988000000012,0.020379,0.0056676000000004,-0.0737677999999992,0.0012245999999999,0,sub_20
-0.0173560000000003,0.0024424000000013,0.0205992,0.0062952000000004,-0.0761153999999992,0.0016591999999999,0,sub_20
-0.0200008000000003,0.0036702000000013,0.0210988,0.0073620000000004,-0.0754825999999992,0.0023067999999999,0,sub_20
-0.0226428000000003,0.0028056000000013,0.0224362,0.0094998000000004,-0.0747085999999992,0.0042439999999999,0,sub_20
-0.0251426000000003,0.0024448000000013,0.0234953999999999,0.0131350000000004,-0.0726631999999992,0.0066171999999999,0,sub_20
-0.0274634000000003,0.0016160000000013,0.0238947999999999,0.0152860000000004,-0.0695429999999992,0.0079105999999999,0,sub_20
-0.0292480000000003,0.0018362000000012,0.0244443999999999,0.0153140000000004,-0.0651327999999992,0.0081191999999999,0,sub_20
-0.0292622000000003,0.0006220000000012,0.0246427999999999,0.0132092000000004,-0.0617751999999992,0.0070321999999999,0,sub_20
-0.0284016000000003,0.0010488000000012,0.0245613999999999,0.0115310000000004,-0.0585605999999992,0.0038115999999999,0,sub_20
-0.0274032000000003,0.0015912000000012,0.0242238,0.0096450000000004,-0.0547035999999992,-5.22000000000699e-05,0,sub_20
-0.0259122000000003,0.0022884000000012,0.0245816,0.0066984000000004,-0.0490549999999992,-0.0026476,0,sub_20
-0.0231250000000003,0.0018914000000013,0.024101,0.0037478000000004,-0.0431973999999992,-0.004175,0,sub_20
-0.0204752000000003,0.0023642000000013,0.0241396,0.0010068000000005,-0.0369195999999992,-0.0044194,0,sub_20
-0.0178428000000003,0.0022444000000013,0.0221328,-0.0028067999999994,-0.0308553999999992,-0.0036028,0,sub_20
-0.0140082000000003,0.0022928000000012,0.0202478,-0.0062079999999994,-0.0277761999999992,-0.002566,0,sub_20
-0.0103578000000003,0.0032640000000012,0.0187616,-0.0055765999999994,-0.0303323999999992,-0.0031992,0,sub_20
-0.0081602000000003,0.0048830000000012,0.0190976,-0.0021817999999994,-0.0358785999999992,-0.0044502,0,sub_20
