userAcceleration.x,userAcceleration.y,userAcceleration.z,rotationRate.x,rotationRate.y,rotationRate.z,label,subject
0.0118701999999996,0.0059596000000013,-0.0043509999999999,-0.0134751999999994,0.0295722000000007,-0.0128438000000001,0,sub_7
0.0140707999999996,0.0048018000000013,-0.0066003999999999,-0.0162577999999994,0.0332288000000007,-0.0103004000000001,0,sub_7
0.0157099999999996,0.0043882000000013,-0.0083319999999999,-0.0231115999999994,0.0317444000000007,-0.0060734000000001,0,sub_7
0.0177593999999996,0.0057466000000013,-0.0077893999999999,-0.0297701999999994,0.0251500000000007,-0.0029068000000001,0,sub_7
0.0161667999999996,0.0049036000000013,-0.0063503999999999,-0.0336667999999994,0.0170160000000007,0.0024107999999998,0,sub_7
0.0168597999999996,0.0045130000000013,-0.0074415999999999,-0.0362697999999994,0.0082530000000007,0.0041063999999998,0,sub_7
0.0136159999999996,0.0043048000000013,-0.0069301999999999,-0.0324801999999994,-0.0009645999999992,0.0073425999999998,0,sub_7
0.0112509999999996,0.0026120000000013,-0.0087875999999999,-0.0261271999999993,-0.0106129999999992,0.0095289999999998,0,sub_7
0.0070863999999996,0.0014464000000013,-0.0087399999999999,-0.0259591999999993,-0.0168417999999992,0.0144453999999998,0,sub_7
0.0068171999999996,0.0010122000000013,-0.0092459999999999,-0.0238571999999993,-0.0226067999999992,0.0157493999999998,0,sub_7
0.0070259999999996,0.0029062000000013,-0.0077607999999999,-0.0219675999999994,-0.0298555999999992,0.0153445999999998,0,sub_7
0.0066069999999996,0.0039960000000013,-0.0071627999999999,-0.0190051999999994,-0.0377395999999992,0.0130251999999998,0,sub_7
0.0063997999999995,0.0043242000000013,-0.0044793999999999,-0.0181593999999994,-0.0447519999999992,0.0076989999999998,0,sub_7
0.0074493999999995,0.0041602000000013,-0.0032631999999999,-0.0087387999999994,-0.0530907999999992,0.0004933999999998,0,sub_7
0.0078103999999996,0.0060966000000013,-0.0021699999999999,-0.0004021999999994,-0.0646241999999992,-0.0060748000000001,0,sub_7
0.0076093999999995,0.0049294000000013,-0.0024241999999999,0.0072886000000005,-0.0772215999999992,-0.0124326000000001,0,sub_7
0.0099455999999995,0.0040702000000013,-0.0015759999999999,0.0064394000000005,-0.0889445999999992,-0.0169282000000001,0,sub_7
0.0109443999999996,0.0048284000000013,-5.519999999996535e-05,0.0070762000000005,-0.1008917999999992,-0.0199176000000001,0,sub_7
0.0122071999999995,0.0047668000000013,0.0013474,0.0048946000000005,-0.1140833999999992,-0.0224798000000001,0,sub_7
0.0114787999999995,0.0045498000000013,0.0025598,0.0042180000000005,-0.1232381999999992,-0.0235410000000001,0,sub_7
0.0102709999999995,0.0048020000000013,0.0041546,0.0011990000000005,-0.1283485999999992,-0.0216326000000001,0,sub_7
0.0084869999999995,0.0051302000000013,0.0058442,0.0012186000000005,-0.1309173999999992,-0.0177776000000001,0,sub_7
0.0074021999999995,0.0058672000000013,0.0067754,-3.999999999944789e-05,-0.1311457999999992,-0.0120118000000001,0,sub_7
0.0051507999999996,0.0062120000000013,0.007846,0.0002072000000005,-0.1286097999999992,-0.0062388000000001,0,sub_7
0.0028729999999996,0.0054986000000013,0.0088756,0.0002508000000005,-0.1220325999999992,0.0014501999999998,0,sub_7
0.0008715999999996,0.0060520000000013,0.0082434,0.0018082000000005,-0.1137451999999992,0.0063701999999998,0,sub_7
-0.0008638000000003,0.0052414000000013,0.0075992,0.0026896000000005,-0.1031133999999992,0.0108493999999998,0,sub_7
-0.0036474000000003,0.0043526000000013,0.007517,0.0033708000000005,-0.0918323999999992,0.0129761999999998,0,sub_7
-0.0050018000000003,0.0041224000000012,0.0062034,0.0046980000000005,-0.0796997999999992,0.0146789999999998,0,sub_7
-0.0063444000000003,0.0043124000000012,0.0053074,0.0049632000000005,-0.0671347999999992,0.0157329999999998,0,sub_7
-0.0064824000000003,0.0038532000000013,0.005642,0.0048252000000005,-0.0558265999999992,0.0146553999999998,0,sub_7
-0.0066974000000003,0.0038838000000013,0.005238,0.0040518000000005,-0.0449361999999992,0.0120781999999998,0,sub_7
-0.0065170000000003,0.0036786000000012,0.0053718,0.0041254000000005,-0.0342669999999992,0.0107891999999998,0,sub_7
-0.0068158000000003,0.0041494000000013,0.0056604,0.0020662000000005,-0.0240137999999992,0.0088447999999998,0,sub_7
-0.0082250000000003,0.0038704000000013,0.0059432,0.0010804000000005,-0.0139705999999992,0.0051989999999998,0,sub_7
-0.0090396000000003,0.0029710000000013,0.0056744,-0.0003605999999994,-0.0024595999999992,0.0049603999999998,0,sub_7
-0.0096778000000003,0.0031540000000013,0.0060066,-0.0013775999999994,0.0096838000000007,0.0060059999999998,0,sub_7
-0.0082084000000003,0.0038316000000013,0.0064954,-0.0021783999999994,0.0226780000000007,0.0072655999999998,0,sub_7
-0.0065336000000003,0.0042772000000013,0.0074118,-0.0008589999999994,0.0337430000000007,0.0096107999999998,0,sub_7
-0.0043046000000003,0.0039356000000013,0.0068382,-0.0008359999999994,0.0424636000000007,0.0132317999999998,0,sub_7
-0.0022246000000003,0.0026546000000013,0.0053854,-0.0018777999999994,0.0486432000000007,0.0138575999999998,0,sub_7
0.0029635999999996,0.0019176000000013,0.0032438,-0.0031273999999994,0.0524946000000007,0.0108527999999998,0,sub_7
0.0090831999999996,0.0013024000000013,-0.0004047999999999,-0.0058859999999994,0.0495470000000007,0.0044279999999998,0,sub_7
0.0170049999999996,0.0010384000000013,-0.0034923999999999,-0.0091007999999994,0.0380864000000007,-0.0039120000000001,0,sub_7
0.0237853999999996,0.0020634000000013,-0.0060865999999999,-0.0108489999999994,0.0189578000000007,-0.0139410000000001,0,sub_7
0.0272855999999996,0.0042062000000013,-0.0078243999999999,-0.0117619999999994,-0.0031607999999992,-0.022892,0,sub_7
0.0264655999999996,0.0055030000000013,-0.0077953999999999,-0.0129151999999994,-0.0267879999999992,-0.0273562,0,sub_7
0.0234407999999996,0.0061944000000013,-0.0066119999999999,-0.0115077999999994,-0.0466045999999992,-0.027962,0,sub_7
0.0156949999999996,0.0055618000000012,-0.0053747999999999,-0.0098631999999994,-0.0564271999999992,-0.0238786000000001,0,sub_7
0.0073395999999996,0.0049988000000012,-0.0037509999999999,-0.0069017999999994,-0.0560361999999992,-0.0176626000000001,0,sub_7
0.0005671999999996,0.0041650000000012,-0.0018105999999999,-0.0024141999999994,-0.0475579999999992,-0.0105920000000001,0,sub_7
-0.0036446000000003,0.0027422000000012,-0.0023561999999999,-0.0006649999999994,-0.0337333999999992,-0.0061110000000001,0,sub_7
-0.0058752000000003,0.0035472000000012,-0.0014871999999999,-0.0001643999999994,-0.0156321999999992,-0.0044216000000001,0,sub_7
-0.0054440000000003,0.0041576000000012,-0.0020631999999999,0.0007840000000005,0.0035474000000007,-0.0063624,0,sub_7
-0.0027776000000003,0.0036406000000013,-0.0021959999999999,-0.0004041999999994,0.0193364000000007,-0.0110912,0,sub_7
0.0024001999999996,0.0033354000000013,-0.0041733999999999,-0.0035357999999994,0.0285336000000007,-0.0173204,0,sub_7
0.0079411999999996,0.0053146000000013,-0.0042129999999999,-0.0060587999999994,0.0304856000000007,-0.0237498,0,sub_7
0.0121657999999996,0.0049278000000013,-0.0065875999999999,-0.0060529999999994,0.0268834000000007,-0.0286588,0,sub_7
0.0168215999999996,0.0050446000000013,-0.0074413999999999,-0.0094879999999994,0.0188128000000007,-0.0320906,0,sub_7
0.0209875999999996,0.0063632000000013,-0.0073365999999999,-0.0105989999999994,0.0077430000000007,-0.0333660000000001,0,sub_7
0.0225043999999996,0.0073828000000013,-0.0071675999999999,-0.0110851999999994,-0.0056769999999992,-0.0335660000000001,0,sub_7
0.0224123999999996,0.0070002000000013,-0.0064725999999999,-0.0107159999999994,-0.0174007999999992,-0.0324802,0,sub_7
0.0208585999999996,0.0076332000000013,-0.0048899999999999,-0.0114059999999994,-0.0267797999999992,-0.030764,0,sub_7
0.0173281999999996,0.0073688000000013,-0.0040045999999999,-0.0095259999999994,-0.0327637999999992,-0.0277522,0,sub_7
0.0132741999999996,0.0062064000000013,-0.0038263999999999,-0.0076219999999994,-0.0329971999999992,-0.0243204,0,sub_7
0.0097177999999996,0.0052698000000013,-0.0019107999999999,-0.0069741999999994,-0.0264143999999992,-0.0194104,0,sub_7
0.0054289999999996,0.0051856000000013,-0.0004295999999999,-0.0037429999999994,-0.0149393999999992,-0.0147024,0,sub_7
0.0024077999999996,0.0031584000000013,0.000473,-0.0013537999999994,-0.0009047999999992,-0.0100034,0,sub_7
0.0008805999999996,0.0034184000000013,0.0013288,0.0001926000000005,0.0139908000000007,-0.006807,0,sub_7
0.0006933999999996,0.0047236000000012,0.0018266,0.0004568000000005,0.0263428000000007,-0.0057526,0,sub_7
0.0003363999999996,0.0050418000000012,0.0025512,0.0017782000000005,0.0359240000000007,-0.0053284,0,sub_7
0.0016501999999996,0.0038042000000013,0.0023966,0.0028662000000005,0.0423050000000007,-0.0036198,0,sub_7
0.0025093999999996,0.0050836000000013,0.0030892,0.0022404000000005,0.0452908000000007,-0.0038416,0,sub_7
0.0034547999999996,0.0048316000000013,0.0028062,0.0003200000000005,0.0463586000000007,-0.0027882000000001,0,sub_7
0.0039461999999995,0.0040642000000013,0.002236,0.0005190000000005,0.0459206000000007,-9.000000000108227e-06,0,sub_7
0.0045433999999996,0.0058608000000013,0.0020086,-0.0001391999999994,0.0439968000000007,0.0021253999999998,0,sub_7
0.0050563999999996,0.0068320000000013,0.0024202,-0.0014365999999994,0.0412274000000007,0.0031879999999998,0,sub_7
0.0058055999999996,0.0068688000000013,0.0009438,-0.0023177999999994,0.0365372000000006,0.0046831999999998,0,sub_7
0.0064219999999996,0.0069194000000013,-0.0001481999999999,-0.0010663999999994,0.0292924000000006,0.0038465999999998,0,sub_7
0.0073695999999996,0.0065054000000013,-0.0002745999999999,-0.0019467999999994,0.0212080000000007,0.0017143999999998,0,sub_7
0.0092451999999996,0.0050928000000013,-0.0017753999999999,0.0001524000000005,0.0114088000000007,-0.0003948000000001,0,sub_7
0.0103527999999996,0.0048918000000013,-0.0042067999999999,0.0016462000000005,-0.0011817999999992,-0.0029306000000001,0,sub_7
0.0113885999999996,0.0040304000000013,-0.0047847999999999,0.0035648000000005,-0.0141997999999992,-0.0054630000000001,0,sub_7
0.0116795999999996,0.0032348000000013,-0.0045823999999999,0.0048376000000005,-0.0282817999999992,-0.0077850000000001,0,sub_7
0.0111777999999995,0.0048120000000013,-0.0040797999999999,0.0073896000000005,-0.0417325999999992,-0.0092442,0,sub_7
0.0106997999999995,0.0058372000000013,-0.0021593999999999,0.0084566000000005,-0.0536851999999992,-0.011143,0,sub_7
0.0077157999999996,0.0079648000000013,0.0038256,0.0058626000000005,-0.0626183999999992,-0.0126452,0,sub_7
0.0018233999999996,0.0074566000000013,0.0087518,0.0043470000000005,-0.0660279999999992,-0.0111558,0,sub_7
-0.0045798000000003,0.0049782000000013,0.0122165999999999,0.0007418000000005,-0.0592053999999992,-0.0092668,0,sub_7
-0.0092760000000003,0.0025166000000013,0.0136211999999999,-0.0051787999999994,-0.0451315999999992,-0.0071898,0,sub_7
-0.0127294000000003,0.0007602000000013,0.0127438,-0.0110649999999994,-0.0223267999999992,-0.0040556000000001,0,sub_7
-0.0119788000000003,-0.0016801999999986,0.007164,-0.0147973999999994,0.0040958000000007,-0.0017654000000001,0,sub_7
-0.0072276000000003,-0.0005345999999986,0.0031482,-0.0185239999999994,0.0288258000000007,-0.0024640000000001,0,sub_7
-0.0004466000000003,0.0023664000000013,-0.0019307999999999,-0.0165375999999994,0.0447930000000007,-0.0011888000000001,0,sub_7
0.0049933999999996,0.0036446000000013,-0.0053547999999999,-0.0148113999999994,0.0503214000000007,9.819999999987166e-05,0,sub_7
0.0072695999999996,0.0042708000000013,-0.0094909999999999,-0.0095163999999994,0.0415676000000007,0.0001463999999998,0,sub_7
0.0084297999999995,0.0037754000000013,-0.0130019999999999,-0.0081195999999994,0.0240758000000007,0.0042377999999998,0,sub_7
0.0071013999999995,0.0029298000000013,-0.0150125999999999,-0.0048053999999994,0.0021052000000007,0.0087873999999998,0,sub_7
0.0043443999999996,0.0023982000000012,-0.0154225999999999,-0.0038141999999994,-0.0183505999999992,0.0094733999999998,0,sub_7
0.0014441999999996,0.0010164000000012,-0.0158813999999999,-0.0029943999999994,-0.0328263999999992,0.0067319999999998,0,sub_7
0.0012881999999996,0.0017450000000012,-0.0130707999999999,-0.0078885999999994,-0.0387523999999992,0.0020171999999998,0,sub_7
0.0006925999999996,0.0028976000000012,-0.0097189999999999,-0.0067575999999994,-0.0385001999999992,-0.0077910000000001,0,sub_7
0.0006431999999996,0.0030782000000013,-0.0085225999999999,-0.0086155999999994,-0.0333451999999992,-0.0165700000000001,0,sub_7
0.0005533999999996,0.0040998000000013,-0.0050013999999999,-0.0115499999999994,-0.0258607999999992,-0.0208730000000001,0,sub_7
0.0013815999999996,0.0059774000000013,-0.0024479999999999,-0.0117287999999994,-0.0179779999999992,-0.0206706,0,sub_7
0.0029689999999996,0.0057264000000013,-0.0002771999999999,-0.0102121999999994,-0.0090501999999992,-0.016826,0,sub_7
0.0057077999999996,0.0068032000000013,0.0006322,-0.0071805999999994,9.740000000071289e-05,-0.0109708,0,sub_7
0.0091069999999996,0.0082144000000013,0.0011852,-0.0039453999999994,0.0069016000000007,-0.0053248,0,sub_7
0.0128875999999996,0.0075922000000013,0.000328,-0.0007167999999994,0.0096680000000006,-0.0022374,0,sub_7
0.0148973999999996,0.0074942000000013,0.0011612,-0.0009183999999994,0.0084000000000006,0.0004039999999998,0,sub_7
0.0135117999999996,0.0072614000000013,0.001519,-0.0002817999999994,0.0022348000000007,0.0015619999999998,0,sub_7
0.0090193999999996,0.0060738000000013,0.0030086,-0.0024471999999994,-0.0045761999999992,0.0017691999999998,0,sub_7
0.0045675999999996,0.0049126000000013,0.004317,-0.0041607999999994,-0.0064859999999992,0.0013323999999998,0,sub_7
-0.0001468000000003,0.0052398000000013,0.005763,-0.0047817999999994,-0.0030713999999992,0.0004691999999998,0,sub_7
-0.0029042000000003,0.0051336000000013,0.0048315999999999,-0.0049353999999994,0.0041694000000007,-0.001623,0,sub_7
-0.0030932000000003,0.0052122000000013,0.00473,-0.0065701999999994,0.0143972000000007,-0.0035156,0,sub_7
-0.0009476000000003,0.0051570000000013,0.0040564,-0.0069303999999994,0.0237666000000007,-0.0049708,0,sub_7
0.0014645999999996,0.0052896000000013,0.0025258,-0.0075317999999994,0.0275948000000007,-0.0057798,0,sub_7
0.0050857999999996,0.0051366000000013,0.0007706,-0.0077341999999994,0.0260918000000007,-0.0057246,0,sub_7
0.0089833999999996,0.0053170000000013,5.320000000003386e-05,-0.0069017999999994,0.0211894000000007,-0.0059262,0,sub_7
0.0111571999999996,0.0052332000000013,-0.0019809999999999,-0.0047995999999994,0.0135146000000007,-0.0065426000000001,0,sub_7
0.0125413999999996,0.0052964000000013,-0.0032157999999999,-0.0039699999999994,0.0042116000000007,-0.0075392000000001,0,sub_7
0.0127417999999996,0.0055222000000013,-0.0023931999999999,-0.0033517999999994,-0.0048765999999992,-0.0087510000000001,0,sub_7
0.0111095999999996,0.0058638000000013,-0.0017469999999999,-0.0031555999999994,-0.0133225999999992,-0.010394,0,sub_7
0.0078195999999996,0.0049410000000013,-0.0010451999999999,-0.0025297999999994,-0.0202819999999992,-0.0111812,0,sub_7
0.0043803999999996,0.0048760000000013,-0.0001697999999999,-0.0027497999999994,-0.0244729999999992,-0.0109096,0,sub_7
0.0015749999999996,0.0045452000000013,-0.0001761999999999,-0.0018933999999994,-0.0236245999999992,-0.010691,0,sub_7
0.0001651999999996,0.0039364000000013,-0.0005729999999999,-0.0016513999999994,-0.0180825999999992,-0.011551,0,sub_7
0.0005753999999996,0.0035218000000013,-0.0004965999999999,-0.0018245999999994,-0.0097701999999992,-0.0122038000000001,0,sub_7
0.0023113999999996,0.0036714000000013,-0.0010573999999999,-0.0022101999999994,-0.0003951999999992,-0.0120048000000001,0,sub_7
0.0044359999999995,0.0035530000000013,-0.0018849999999999,-0.0029985999999994,0.0075130000000007,-0.0119896000000001,0,sub_7
0.0075089999999995,0.0034988000000013,-0.0022615999999999,-0.0057265999999994,0.0115914000000007,-0.0115558000000001,0,sub_7
0.0113733999999996,0.0040102000000013,-0.0036801999999999,-0.0069809999999994,0.0114012000000007,-0.010679,0,sub_7
0.0145441999999996,0.0046016000000013,-0.0053441999999999,-0.0082461999999994,0.0082308000000007,-0.0104394,0,sub_7
0.0166499999999996,0.0049584000000013,-0.0061515999999999,-0.0086739999999993,0.0007988000000007,-0.0108296,0,sub_7
0.0166453999999996,0.0052536000000013,-0.0056693999999999,-0.0085115999999994,-0.0104949999999992,-0.0106006,0,sub_7
0.0138917999999996,0.0052686000000013,-0.0050895999999999,-0.0062249999999994,-0.0228659999999992,-0.009287,0,sub_7
0.0085269999999996,0.0054728000000013,-0.0034519999999999,-0.0047793999999994,-0.0320383999999992,-0.0077696000000001,0,sub_7
0.0040663999999996,0.0053282000000013,-0.0008829999999999,-0.0022359999999994,-0.0346089999999992,-0.0064666000000001,0,sub_7
0.0013647999999996,0.0053192000000013,0.001444,0.0014124000000005,-0.0303587999999992,-0.0068738,0,sub_7
-0.0001182000000003,0.0037742000000013,0.0016496,0.0031538000000005,-0.0233315999999992,-0.0075116,0,sub_7
-0.0007046000000003,0.0024900000000013,0.0027508,0.0019148000000005,-0.0156511999999992,-0.0090256,0,sub_7
3.479999999962871e-05,0.0013690000000013,0.0038064,-0.0008235999999994,-0.0092439999999992,-0.0105486,0,sub_7
-0.0002406000000003,0.0009772000000013,0.003694,-0.0050681999999994,-0.0041157999999992,-0.010585,0,sub_7
-0.0013144000000003,0.0012990000000013,0.0032581999999999,-0.0108167999999994,0.0001594000000007,-0.009135,0,sub_7
-0.0015952000000003,0.0027324000000013,0.0035647999999999,-0.0146333999999994,0.0067724000000007,-0.0078882,0,sub_7
-0.0014636000000003,0.0044306000000013,0.0028467999999999,-0.0148179999999994,0.0148624000000007,-0.0061908,0,sub_7
-0.0012850000000003,0.0055380000000013,0.0006901999999999,-0.0135223999999994,0.0206010000000007,-0.003839,0,sub_7
-0.0003650000000003,0.0055614000000013,-0.0009767999999999,-0.0111723999999994,0.0220806000000007,-0.0029698,0,sub_7
0.0005755999999996,0.0052304000000013,-0.0016769999999999,-0.0088329999999994,0.0203680000000007,-0.0029514,0,sub_7
0.0012547999999996,0.0061514000000013,-0.0021427999999999,-0.0056429999999994,0.0165278000000007,-0.0044196,0,sub_7
0.0029337999999996,0.0055110000000013,-0.0008943999999999,-0.0037293999999994,0.0124832000000007,-0.0069648000000001,0,sub_7
0.0047257999999996,0.0044994000000013,0.001029,-0.0015965999999994,0.0101406000000007,-0.0090834,0,sub_7
0.0058659999999996,0.0043838000000013,0.0024964,-0.0024557999999994,0.0078044000000007,-0.0101546,0,sub_7
0.0059763999999996,0.0042268000000013,0.0035938,-0.0043761999999994,0.0065378000000007,-0.0114482,0,sub_7
0.0070471999999996,0.0034214000000013,0.0047572,-0.0058563999999994,0.0099502000000007,-0.0110358,0,sub_7
0.0077229999999996,0.0043716000000013,0.0046904,-0.0077613999999994,0.0148512000000007,-0.0095598,0,sub_7
0.0082315999999996,0.0052340000000013,0.003728,-0.0083871999999994,0.0186860000000007,-0.008928,0,sub_7
0.0085013999999996,0.0059068000000013,0.0029636,-0.0088091999999994,0.0210258000000007,-0.0076522,0,sub_7
0.0071795999999996,0.0059446000000013,0.0012232,-0.0056103999999994,0.0227106000000007,-0.0054956,0,sub_7
0.0060135999999996,0.0054680000000013,-0.0002339999999999,-0.0037121999999994,0.0205622000000007,-0.0027022,0,sub_7
0.0043413999999996,0.0056836000000013,-0.0027663999999999,-0.0013977999999994,0.0158566000000007,-0.0001162,0,sub_7
0.0030389999999996,0.0056734000000013,-0.0038289999999999,-0.0007863999999994,0.0113724000000007,0.0018165999999999,0,sub_7
0.0029491999999996,0.0051576000000013,-0.0047441999999999,0.0030618000000005,0.0068682000000007,0.0018501999999999,0,sub_7
0.0043453999999996,0.0047568000000013,-0.0040481999999999,0.0026396000000005,-0.0001701999999992,-6.580000000010744e-05,0,sub_7
0.0043129999999996,0.0044816000000013,-0.0035787999999999,0.0024386000000005,-0.0082633999999992,-0.0047562000000001,0,sub_7
0.0049077999999996,0.0035542000000013,-0.0015219999999999,0.0016032000000005,-0.0150761999999992,-0.0094528,0,sub_7
0.0042609999999996,0.0029058000000013,0.0001552,0.0016192000000005,-0.0210447999999992,-0.0128626,0,sub_7
0.0030027999999996,0.0024622000000013,0.0024026,-9.639999999942684e-05,-0.0248661999999992,-0.0147926,0,sub_7
0.0018433999999996,0.0031924000000013,0.0038286,-0.0005269999999994,-0.0252925999999992,-0.0143676,0,sub_7
0.0018213999999996,0.0045058000000013,0.0055954,0.0001092000000005,-0.0229639999999992,-0.0111614,0,sub_7
0.0017975999999996,0.0040108000000013,0.0055472,0.0009942000000005,-0.0195277999999992,-0.0076844,0,sub_7
0.0032431999999996,0.0044476000000012,0.0054012,0.0006038000000005,-0.0158705999999992,-0.0050712,0,sub_7
0.0044203999999996,0.0046594000000013,0.004052,0.0010648000000005,-0.0132791999999992,-0.0030916,0,sub_7
0.0067287999999996,0.0042318000000013,0.0026714,0.0004570000000005,-0.0123831999999992,-0.0023994,0,sub_7
0.0062939999999996,0.0035976000000013,0.0011132,-0.0010099999999994,-0.0140359999999992,-0.0029916,0,sub_7
0.0036357999999996,0.0047748000000013,0.001097,-0.0010187999999994,-0.0170143999999992,-0.0040562,0,sub_7
0.0005671999999996,0.0054474000000013,0.0009884,0.0011120000000005,-0.0185097999999992,-0.0048940000000001,0,sub_7
-0.0030602000000003,0.0054414000000013,0.0020994,0.0051796000000005,-0.0157533999999992,-0.0050828000000001,0,sub_7
-0.0074968000000003,0.0045040000000013,0.0019722,0.0090776000000005,-0.0097801999999992,-0.0032996000000001,0,sub_7
-0.0088374000000003,0.0038160000000013,0.0024234,0.0127776000000005,-0.0012461999999992,-0.0023758000000001,0,sub_7
-0.0068054000000003,0.0031690000000012,0.0010866,0.0143496000000005,0.0073004000000007,-0.0027486000000001,0,sub_7
-0.0046476000000003,0.0035026000000012,0.0011358,0.0116320000000005,0.0132958000000007,-0.0007980000000001,0,sub_7
-0.0035318000000003,0.0026236000000013,0.0029192,0.0076130000000005,0.0146086000000007,0.0011495999999998,0,sub_7
-0.0024518000000003,0.0060484000000013,0.00225,0.0075986000000005,0.0139592000000007,0.0037141999999998,0,sub_7
-0.0010372000000003,0.0075190000000013,0.0049077999999999,0.0007516000000005,0.0160882000000007,0.0100729999999998,0,sub_7
-0.0013088000000003,0.0067374000000013,0.0100197999999999,0.0020040000000005,0.0194542000000007,0.0196915999999998,0,sub_7
-0.0018068000000003,0.0059516000000013,0.0118517999999999,0.0062828000000005,0.0213144000000007,0.0276781999999998,0,sub_7
0.0009099999999996,0.0064710000000013,0.011556,0.0118592000000005,0.0255196000000007,0.0341751999999998,0,sub_7
0.0027609999999996,0.0042984000000013,0.0144362,0.0146684000000005,0.0288916000000007,0.0383039999999998,0,sub_7
0.0020955999999996,0.0034866000000013,0.0138436,0.0264324000000005,0.0275578000000007,0.0392967999999998,0,sub_7
-0.0004684000000003,0.0040406000000013,0.012564,0.0271108000000005,0.0258470000000007,0.0376487999999998,0,sub_7
-0.0045818000000003,0.0038464000000013,0.013682,0.0292838000000005,0.0330892000000007,0.0361591999999998,0,sub_7
-0.0101308000000003,0.0044158000000013,0.0116674,0.0280514000000005,0.0422610000000007,0.0346433999999998,0,sub_7
-0.0135926000000003,0.0042464000000013,0.0106678,0.0246968000000005,0.0535724000000007,0.0326825999999998,0,sub_7
-0.0136182000000003,0.0041910000000013,0.0073552,0.0222044000000005,0.0667982000000007,0.0307253999999998,0,sub_7
-0.0081422000000003,0.0033250000000013,0.0033088,0.0192728000000005,0.0766192000000007,0.0281285999999998,0,sub_7
-0.0011746000000003,0.0027002000000013,-0.0024241999999999,0.0152390000000005,0.0751658000000007,0.0221201999999998,0,sub_7
0.0062677999999996,0.0024222000000013,-0.0061519999999999,0.0092502000000005,0.0658370000000007,0.0158945999999998,0,sub_7
0.0120997999999996,0.0020000000000013,-0.0101601999999999,0.0055770000000005,0.0494694000000007,0.0096941999999998,0,sub_7
