userAcceleration.x,userAcceleration.y,userAcceleration.z,rotationRate.x,rotationRate.y,rotationRate.z,label,subject
-0.0220914000000002,-0.0064267999999987,0.0333205999999999,0.0033738000000004,0.0025948000000008,0.0038536,0,sub_17
-0.0220398000000002,-0.0062477999999987,0.0335831999999999,0.0033730000000004,0.0030184000000008,0.004494,0,sub_17
-0.0209786000000002,-0.0062147999999987,0.0337307999999999,0.0042274000000004,0.0034406000000008,0.0047132,0,sub_17
-0.0195676000000002,-0.0061023999999987,0.0329885999999999,0.0050800000000004,0.0036488000000008,0.0051462,0,sub_17
-0.0189196000000001,-0.0054567999999986,0.0322231999999999,0.0061392000000004,0.0019408000000008,0.0051558,0,sub_17
-0.0185230000000001,-0.0050221999999986,0.0304511999999999,0.0073424000000004,0.0002124000000008,0.0051428,0,sub_17
-0.0179840000000001,-0.0041807999999986,0.0286939999999999,0.0087628000000005,-0.0015133999999991,0.0042768,0,sub_17
-0.0178460000000001,-0.0030527999999987,0.0275055999999999,0.0108264000000005,-0.0021777999999991,0.003841,0,sub_17
-0.0184964000000001,-0.0025605999999987,0.0281477999999999,0.0135242000000005,-0.0036983999999991,0.0038382,0,sub_17
-0.0189298000000002,-0.0018651999999987,0.0278443999999999,0.0177072000000005,-0.0075661999999991,0.0034216,0,sub_17
-0.0197228000000002,-0.0022585999999987,0.0279487999999999,0.0238730000000005,-0.0131245999999991,0.0028308,0,sub_17
-0.0203504000000002,-0.0035963999999987,0.0292121999999999,0.0281366000000005,-0.0150527999999991,0.0017948,0,sub_17
-0.0204472000000002,-0.0052665999999987,0.0307823999999999,0.0302808000000004,-0.0137775999999991,0.00074,0,sub_17
-0.0192952000000002,-0.0070143999999987,0.0325509999999999,0.0288054000000004,-0.0116339999999991,-0.0011957999999999,0,sub_17
-0.0174406000000002,-0.0091739999999987,0.0326911999999999,0.0236446000000004,-0.0112011999999991,-0.0027417999999999,0,sub_17
-0.0154272000000002,-0.0093937999999987,0.0322439999999999,0.0142136000000004,-0.0111803999999991,-0.0041031999999999,0,sub_17
-0.0133934000000002,-0.0081179999999987,0.0293151999999999,0.0066876000000004,-0.0135141999999991,-0.0043801999999999,0,sub_17
-0.0117922000000002,-0.0060167999999987,0.0255237999999999,0.0006428000000005,-0.0177741999999991,-0.0037897999999999,0,sub_17
-0.0122632000000002,-0.0016743999999987,0.0219341999999999,-0.0024109999999994,-0.0205557999999991,-0.0025393999999999,0,sub_17
-0.0136118000000002,0.0011840000000012,0.0206953999999999,-0.0032671999999994,-0.0188577999999991,-0.0001973999999999,0,sub_17
-0.0155646000000002,0.0013916000000012,0.0223379999999999,-0.0007395999999994,-0.0165415999999991,0.0025866,0,sub_17
-0.0201170000000001,0.0009338000000012,0.0258891999999999,0.0015758000000004,-0.0144357999999991,0.0049422,0,sub_17
-0.0236560000000001,-0.0012031999999987,0.0305313999999999,0.0060364000000004,-0.0114785999999991,0.0056024,0,sub_17
-0.0253478000000001,-0.0052727999999987,0.0356589999999999,0.0122126000000004,-0.0070341999999991,0.0058454,0,sub_17
-0.0261346000000001,-0.0090057999999987,0.0411105999999999,0.0166950000000004,-0.0012987999999991,0.0043658,0,sub_17
-0.0261234000000001,-0.0108827999999987,0.0449113999999999,0.0160980000000004,0.0059566000000008,0.0020022,0,sub_17
-0.0231630000000002,-0.0134435999999987,0.0469671999999999,0.0116690000000005,0.0147184000000008,-0.0008173999999999,0,sub_17
-0.0215596000000002,-0.0145405999999987,0.0460985999999999,0.0023218000000005,0.0220028000000008,-0.0028147999999999,0,sub_17
-0.0191662000000002,-0.0143979999999987,0.0410495999999999,-0.0111033999999994,0.0231260000000008,-0.0056873999999999,0,sub_17
-0.0154160000000002,-0.0117655999999987,0.0341425999999999,-0.0243535999999994,0.0221082000000008,-0.0077093999999999,0,sub_17
-0.0119380000000002,-0.0070529999999987,0.0257735999999999,-0.0333361999999994,0.0231974000000008,-0.0075677999999999,0,sub_17
-0.0099854000000002,-0.0011291999999987,0.0188845999999999,-0.0353035999999994,0.0193584000000008,-0.0065163999999999,0,sub_17
-0.0092738000000002,0.0033918000000012,0.0142329999999999,-0.0311099999999994,0.0099566000000008,-0.0049873999999999,0,sub_17
-0.0114166000000002,0.0060052000000012,0.0123339999999999,-0.0230881999999994,-0.0015915999999991,-0.0027879999999999,0,sub_17
-0.0163200000000002,0.0060738000000012,0.0135717999999999,-0.0135103999999994,-0.0054661999999991,-0.0012205999999999,0,sub_17
-0.0210818000000001,0.0027130000000012,0.0175899999999999,-0.0038961999999994,-0.0033665999999991,-0.0017969999999999,0,sub_17
-0.0227240000000001,-0.0030297999999987,0.0282345999999999,0.0033638000000005,0.0025714000000008,-0.0030497999999999,0,sub_17
-0.0227394000000001,-0.0078543999999987,0.0389561999999999,0.0042178000000005,0.0074666000000008,-0.0043459999999999,0,sub_17
-0.0218932000000001,-0.0109199999999987,0.0483341999999999,-0.0004737999999994,0.0128074000000008,-0.0056815999999999,0,sub_17
-0.0204004000000001,-0.0133503999999987,0.0513115999999999,-0.0092519999999994,0.0104942000000008,-0.0074631999999999,0,sub_17
-0.0184906000000001,-0.0137129999999987,0.0504441999999999,-0.0184695999999994,0.0062614000000008,-0.0083907999999999,0,sub_17
-0.0187980000000002,-0.0118791999999987,0.0422439999999999,-0.0291169999999994,0.0103494000000008,-0.0091113999999999,0,sub_17
-0.0195018000000002,-0.0087047999999987,0.0334599999999999,-0.0371741999999994,0.0210330000000008,-0.0098223999999999,0,sub_17
-0.0192552000000002,-0.0063305999999987,0.0257683999999999,-0.0424317999999994,0.0380958000000008,-0.0098809999999999,0,sub_17
-0.0178160000000002,-0.0030165999999987,0.0231567999999999,-0.0409377999999994,0.0525892000000008,-0.0088333999999999,0,sub_17
-0.0174808000000002,0.0009440000000012,0.0222711999999999,-0.0354365999999994,0.0562044000000008,-0.0081711999999999,0,sub_17
-0.0170766000000002,0.0031972000000012,0.0224553999999999,-0.0263541999999994,0.0491560000000008,-0.0078973999999999,0,sub_17
-0.0146264000000002,0.0026092000000012,0.0246725999999999,-0.0174679999999994,0.0450944000000008,-0.0084833999999999,0,sub_17
-0.0121270000000002,0.0006846000000012,0.0294511999999999,-0.0075167999999994,0.0399664000000008,-0.0097015999999999,0,sub_17
-0.0115062000000002,-0.0028383999999987,0.0343993999999999,-0.0019959999999994,0.0310106000000008,-0.0126425999999999,0,sub_17
-0.0111820000000002,-0.0064545999999987,0.0376807999999999,-0.0012057999999994,0.0120656000000008,-0.0175265999999999,0,sub_17
-0.0098384000000002,-0.0089617999999987,0.0382697999999999,-0.0040523999999994,-0.0098461999999991,-0.0232867999999999,0,sub_17
-0.0081602000000002,-0.0095849999999987,0.0374281999999999,-0.0090115999999994,-0.0251533999999991,-0.0271475999999999,0,sub_17
-0.0057192000000002,-0.0080271999999987,0.0339159999999999,-0.0178471999999994,-0.0340229999999991,-0.0284875999999999,0,sub_17
-0.0017262000000002,-0.0041129999999987,0.0295451999999999,-0.0243413999999994,-0.0412081999999991,-0.0268223999999999,0,sub_17
0.0018565999999997,0.0008218000000012,0.0265151999999999,-0.0269729999999994,-0.0394749999999991,-0.0210823999999999,0,sub_17
0.0034749999999997,0.0029684000000012,0.0221933999999999,-0.0249507999999994,-0.0450087999999991,-0.0135913999999999,0,sub_17
0.0014985999999997,0.0057128000000012,0.0195699999999999,-0.0159389999999994,-0.0622841999999991,-0.0062499999999999,0,sub_17
-0.0055202000000002,0.0053080000000012,0.0209137999999999,0.0004350000000005,-0.0681203999999991,0.0004948,0,sub_17
-0.0135526000000002,0.0004342000000012,0.0264045999999999,0.0156188000000005,-0.0571081999999991,0.0040052,0,sub_17
-0.0191058000000002,-0.0072561999999987,0.0346765999999999,0.0246380000000005,-0.0454173999999991,0.002985,0,sub_17
-0.0208324000000002,-0.0110957999999987,0.0447949999999999,0.0263858000000004,-0.0324083999999991,-1.3199999999999325e-05,0,sub_17
-0.0190134000000002,-0.0148171999999987,0.0506681999999999,0.0208626000000004,-0.0238447999999991,-0.0039109999999999,0,sub_17
-0.0144228000000001,-0.0158615999999987,0.0493585999999999,0.0114202000000004,-0.0331625999999991,-0.0082405999999999,0,sub_17
-0.0119310000000001,-0.0126303999999987,0.0425297999999999,0.0023432000000004,-0.0533585999999991,-0.0097763999999999,0,sub_17
-0.0135798000000001,-0.0080185999999987,0.0328065999999999,-0.0026567999999995,-0.0661211999999991,-0.0089429999999999,0,sub_17
-0.0178256000000001,-0.0051695999999987,0.0246199999999999,-0.0035245999999994,-0.0688895999999991,-0.0085181999999999,0,sub_17
-0.0218066000000001,-0.0030187999999987,0.0217303999999999,-8.759999999948601e-05,-0.0635759999999991,-0.0082873999999999,0,sub_17
-0.0248806000000001,-0.0012671999999987,0.0230275999999999,0.0046454000000005,-0.0565725999999991,-0.0076149999999999,0,sub_17
-0.0271042000000001,-0.0017587999999987,0.0271595999999999,0.0093840000000005,-0.0495641999999991,-0.0082243999999999,0,sub_17
-0.0260848000000002,-0.0047669999999987,0.0322717999999999,0.0121716000000005,-0.0495787999999991,-0.0090521999999999,0,sub_17
-0.0243748000000002,-0.0070127999999987,0.0376367999999999,0.0147440000000005,-0.0483211999999991,-0.0081739999999999,0,sub_17
-0.0240716000000002,-0.0087399999999987,0.0401127999999999,0.0143406000000004,-0.0442845999999991,-0.0071063999999999,0,sub_17
-0.0238072000000002,-0.0104783999999987,0.0409073999999999,0.0120040000000004,-0.0417205999999991,-0.0069123999999999,0,sub_17
-0.0223474000000002,-0.0110225999999987,0.0400227999999999,0.0085862000000004,-0.0419241999999991,-0.0062949999999999,0,sub_17
-0.0227166000000002,-0.0096035999999987,0.0373197999999999,0.0051896000000004,-0.0376529999999991,-0.0058967999999999,0,sub_17
-0.0242618000000002,-0.0082833999999987,0.0336455999999999,0.0009336000000004,-0.0350815999999991,-0.0059297999999999,0,sub_17
-0.0246106000000002,-0.0071413999999986,0.0296983999999999,-0.0017571999999994,-0.0310901999999991,-0.0061445999999999,0,sub_17
-0.0243746000000002,-0.0059453999999986,0.0267343999999999,-0.0020751999999994,-0.0213545999999991,-0.0063499999999999,0,sub_17
-0.0233246000000002,-0.0044175999999986,0.0253659999999999,-0.0017413999999994,-0.0092767999999991,-0.0067677999999999,0,sub_17
-0.0188708000000002,-0.0034193999999987,0.0259993999999999,-0.0007897999999994,-0.0021013999999991,-0.0071749999999999,0,sub_17
-0.0147744000000002,-0.0029235999999987,0.0277767999999999,-6.879999999944638e-05,0.0025130000000008,-0.0062983999999999,0,sub_17
-0.0126688000000002,-0.0030991999999987,0.0299973999999999,-0.0022015999999994,0.0040068000000008,-0.0050333999999999,0,sub_17
-0.0139278000000002,-0.0045585999999987,0.0318641999999999,-0.0077607999999994,0.0014696000000008,-0.0050689999999999,0,sub_17
-0.0166166000000002,-0.0061661999999987,0.0318271999999999,-0.0139515999999994,-0.0006333999999991,-0.0066049999999999,0,sub_17
-0.0211748000000002,-0.0067717999999987,0.0290353999999999,-0.0168795999999994,-0.0057909999999991,-0.0084873999999999,0,sub_17
-0.0227290000000002,-0.0059869999999987,0.0258585999999999,-0.0165751999999994,-0.0054141999999991,-0.0118499999999999,0,sub_17
-0.0202498000000002,-0.0046263999999987,0.0231855999999999,-0.0115469999999994,0.0023996000000008,-0.0143345999999999,0,sub_17
-0.0128362000000002,-0.0026383999999987,0.0219405999999999,-0.0033401999999994,0.0076360000000008,-0.0144435999999999,0,sub_17
-0.0064524000000002,-0.0005143999999987,0.0230549999999999,0.0048032000000005,0.0013574000000008,-0.0119743999999999,0,sub_17
-0.0018666000000002,-0.0003105999999987,0.0257349999999999,0.0094514000000004,-0.0071877999999991,-0.0102219999999999,0,sub_17
-0.0004654000000002,-0.0019895999999987,0.0278351999999999,0.0112978000000004,-0.0219019999999991,-0.0084811999999999,0,sub_17
-0.0041472000000001,-0.0037585999999987,0.0280043999999999,0.0112338000000004,-0.0471909999999991,-0.0086105999999999,0,sub_17
-0.0107716000000001,-0.0042089999999987,0.0267741999999999,0.0101202000000005,-0.0703387999999991,-0.0104593999999999,0,sub_17
-0.0155402000000001,-0.0048459999999987,0.0239365999999999,0.0097130000000005,-0.0798491999999991,-0.0133889999999999,0,sub_17
-0.0182492000000001,-0.0040561999999986,0.0221587999999999,0.0099958000000005,-0.0767977999999991,-0.0148341999999999,0,sub_17
-0.0182542000000002,-0.0024607999999986,0.0211269999999999,0.0107074000000005,-0.0722607999999991,-0.0152101999999999,0,sub_17
-0.0176226000000002,-0.0015329999999987,0.0215643999999999,0.0119972000000004,-0.0697103999999991,-0.0147771999999999,0,sub_17
-0.0160548000000002,-0.0015359999999987,0.0222745999999999,0.0141262000000004,-0.0707829999999991,-0.0147609999999999,0,sub_17
-0.0130364000000002,-0.0027191999999986,0.0245771999999999,0.0160208000000004,-0.0765419999999991,-0.0147403999999999,0,sub_17
-0.0100596000000001,-0.0038835999999987,0.0268377999999999,0.0178990000000004,-0.0846497999999991,-0.0134349999999999,0,sub_17
-0.0122464000000001,-0.0048393999999987,0.0291587999999999,0.0189454000000004,-0.0915313999999991,-0.0118721999999999,0,sub_17
-0.0139586000000001,-0.0062959999999987,0.0308313999999999,0.0178602000000005,-0.0984039999999991,-0.0107517999999999,0,sub_17
-0.0152600000000001,-0.0073113999999987,0.0320731999999999,0.0146642000000004,-0.0997315999999991,-0.0092257999999999,0,sub_17
-0.0183558000000001,-0.0076521999999987,0.0321041999999999,0.0112672000000004,-0.0974399999999991,-0.0068513999999999,0,sub_17
-0.0220934000000001,-0.0081167999999987,0.0320017999999999,0.0076760000000004,-0.0921595999999991,-0.0057639999999999,0,sub_17
-0.0220500000000001,-0.0083985999999987,0.0313885999999999,0.0045098000000004,-0.0840541999999991,-0.0053691999999999,0,sub_17
-0.0217166000000002,-0.0077633999999987,0.0312635999999999,0.0019944000000004,-0.0736073999999991,-0.0049727999999999,0,sub_17
-0.0218000000000002,-0.0075713999999987,0.0309635999999999,0.0005324000000005,-0.0663591999999991,-0.0047785999999999,0,sub_17
-0.0201588000000002,-0.0072235999999987,0.0309943999999999,-0.0005073999999994,-0.0599859999999991,-0.0053861999999999,0,sub_17
-0.0185372000000001,-0.0062735999999987,0.0317179999999999,-0.0004879999999994,-0.0551089999999991,-0.0057709999999999,0,sub_17
-0.0174790000000001,-0.0057339999999987,0.0323959999999999,-0.0017621999999994,-0.0525735999999991,-0.0055207999999999,0,sub_17
-0.0161654000000001,-0.0058273999999987,0.0331167999999999,-0.0024077999999994,-0.0521725999999991,-0.0048361999999999,0,sub_17
-0.0157874000000001,-0.0056445999999987,0.0341079999999999,-0.0032629999999994,-0.0496453999999991,-0.0028739999999999,0,sub_17
-0.0174596000000001,-0.0055685999999987,0.0341589999999999,-0.0043279999999994,-0.0473057999999991,-0.0009615999999999,0,sub_17
-0.0184938000000001,-0.0063741999999987,0.0324323999999999,-0.0062501999999994,-0.0462397999999991,0.0005192,0,sub_17
-0.0199078000000001,-0.0065975999999987,0.0308141999999999,-0.0068707999999994,-0.0429091999999991,0.0016266,0,sub_17
-0.0203688000000001,-0.0067027999999987,0.0293309999999999,-0.0072493999999994,-0.0331877999999991,0.0027275999999999,0,sub_17
-0.0200362000000002,-0.0063997999999987,0.0294319999999999,-0.0076251999999994,-0.0232517999999991,0.0034009999999999,0,sub_17
-0.0198898000000002,-0.0059861999999987,0.0299743999999999,-0.0088639999999994,-0.0154431999999991,0.0040709999999999,0,sub_17
-0.0182832000000002,-0.0058321999999987,0.0306175999999999,-0.0096885999999994,-0.0104057999999991,0.0047475999999999,0,sub_17
-0.0162574000000002,-0.0051369999999987,0.0315333999999999,-0.0096685999999994,-0.0046585999999991,0.0060222,0,sub_17
-0.0166756000000002,-0.0039581999999987,0.0314589999999999,-0.0092429999999994,-0.0040243999999991,0.0068788,0,sub_17
-0.0172114000000002,-0.0038773999999986,0.0305537999999999,-0.0081779999999994,-0.0044541999999991,0.0068868,0,sub_17
-0.0159296000000002,-0.0040071999999986,0.0298515999999999,-0.0062479999999994,-0.0019059999999991,0.0073244,0,sub_17
-0.0162110000000002,-0.0042535999999986,0.0309267999999999,-0.0043083999999994,0.0037670000000008,0.0082406,0,sub_17
-0.0172768000000002,-0.0048683999999986,0.0320951999999999,-0.0038671999999994,0.0075312000000008,0.0082941999999999,0,sub_17
-0.0170538000000002,-0.0059385999999986,0.0341329999999999,-0.0051329999999994,0.0117258000000008,0.0087627999999999,0,sub_17
-0.0152406000000002,-0.0061905999999986,0.0355293999999999,-0.0057605999999994,0.0152798000000008,0.0090229999999999,0,sub_17
-0.0151710000000002,-0.0068109999999987,0.0368335999999999,-0.0080933999999994,0.0196902000000008,0.0096973999999999,0,sub_17
-0.0151956000000002,-0.0069447999999986,0.0367823999999999,-0.0095783999999994,0.0220374000000008,0.0101113999999999,0,sub_17
-0.0149930000000002,-0.0071389999999987,0.0361889999999999,-0.0102089999999994,0.0241702000000008,0.0101044,0,sub_17
-0.0142924000000002,-0.0070405999999987,0.0345707999999999,-0.0104329999999994,0.0286994000000008,0.0097346,0,sub_17
-0.0144602000000002,-0.0067027999999987,0.0328969999999999,-0.0106637999999994,0.0325862000000008,0.01022,0,sub_17
-0.0134192000000002,-0.0052735999999987,0.0311069999999999,-0.0089789999999994,0.0354010000000008,0.0107202,0,sub_17
-0.0135952000000002,-0.0038747999999987,0.0301257999999999,-0.0079295999999994,0.0392832000000008,0.0112146,0,sub_17
-0.0141872000000002,-0.0032321999999987,0.0295639999999999,-0.0071001999999994,0.0420992000000008,0.012136,0,sub_17
-0.0151802000000002,-0.0028465999999987,0.0294419999999999,-0.0053903999999994,0.0435812000000008,0.0130006,0,sub_17
-0.0155308000000002,-0.0028853999999987,0.0296663999999999,-0.0038823999999994,0.0471962000000008,0.0134338,0,sub_17
-0.0161992000000002,-0.0033757999999987,0.0308711999999999,-0.0021619999999994,0.0497486000000008,0.0130152,0,sub_17
-0.0155126000000002,-0.0040445999999987,0.0321083999999999,-0.0017275999999994,0.0506028000000008,0.0121626,0,sub_17
-0.0138060000000002,-0.0047107999999987,0.0333641999999999,-0.0011161999999994,0.0515882000000008,0.0115822,0,sub_17
-0.0134730000000002,-0.0049789999999987,0.0343599999999999,-0.0002903999999994,0.0529982000000008,0.0112162,0,sub_17
-0.0141458000000002,-0.0051013999999987,0.0348113999999999,-0.0003267999999994,0.0518570000000008,0.0102066,0,sub_17
-0.0143240000000002,-0.0053653999999987,0.0345665999999999,-0.0007889999999994,0.0511426000000008,0.0094072,0,sub_17
-0.0147592000000001,-0.0051319999999987,0.0334425999999999,-0.0003917999999994,0.0521278000000008,0.0090388,0,sub_17
-0.0160596000000001,-0.0039905999999987,0.0315689999999999,0.0002560000000005,0.0534056000000008,0.0086144,0,sub_17
-0.0158284000000001,-0.0038039999999987,0.0305899999999999,0.0008990000000005,0.0531938000000008,0.0077646,0,sub_17
-0.0158216000000001,-0.0038765999999987,0.0294011999999999,0.0017620000000005,0.0544726000000008,0.0069144,0,sub_17
-0.0152540000000001,-0.0041359999999987,0.0286333999999999,0.0030464000000005,0.0577790000000008,0.0061042,0,sub_17
-0.0143368000000002,-0.0039279999999986,0.0285373999999999,0.0049698000000005,0.0617190000000008,0.0061522,0,sub_17
-0.0129662000000002,-0.0045237999999986,0.0296753999999999,0.0060330000000005,0.0643828000000008,0.0064096,0,sub_17
-0.0131600000000002,-0.0046157999999986,0.0304685999999999,0.0062322000000005,0.0649182000000008,0.0068774,0,sub_17
-0.0133354000000002,-0.0048037999999986,0.0314769999999999,0.0066334000000005,0.0626840000000008,0.0071364,0,sub_17
-0.0143810000000002,-0.0051507999999987,0.0312361999999999,0.0057636000000004,0.0586406000000008,0.0067082,0,sub_17
-0.0141138000000002,-0.0055791999999987,0.0302845999999999,0.0038338000000004,0.0550314000000008,0.0052038,0,sub_17
-0.0124634000000001,-0.0055587999999987,0.0294869999999999,0.0023442000000004,0.0548278000000008,0.0041254,0,sub_17
-0.0114074000000001,-0.0046549999999987,0.0286035999999999,0.0015072000000004,0.0565510000000008,0.0037016,0,sub_17
-0.0107062000000001,-0.0039569999999987,0.0267803999999999,1.2800000000453508e-05,0.0550780000000008,0.0039184,0,sub_17
-0.0101348000000001,-0.0030047999999987,0.0255307999999999,-0.0006481999999995,0.0493404000000008,0.0043602,0,sub_17
-0.0104070000000001,-0.0023899999999987,0.0246355999999999,-0.0004537999999995,0.0440258000000008,0.0048074,0,sub_17
-0.0118766000000001,-0.0020473999999987,0.0237701999999999,0.0003884000000004,0.0399890000000008,0.00483,0,sub_17
-0.0114582000000001,-0.0030479999999987,0.0238949999999999,0.0012266000000005,0.0363650000000008,0.0046268,0,sub_17
-0.0108004000000001,-0.0039109999999987,0.0257047999999999,0.0012218000000005,0.0352998000000008,0.0046282,0,sub_17
-0.0104164000000001,-0.0041559999999987,0.0273761999999999,0.0005808000000005,0.0348768000000008,0.0044105999999999,0,sub_17
-0.0111780000000001,-0.0043537999999986,0.0285073999999999,-0.0006833999999994,0.0332746000000008,0.0043889999999999,0,sub_17
-0.0117412000000001,-0.0042183999999986,0.0290191999999999,-0.0019551999999994,0.0295436000000008,0.0039427999999999,0,sub_17
-0.0124738000000001,-0.0043703999999987,0.0286097999999999,-0.0042967999999994,0.0247528000000008,0.0030631999999999,0,sub_17
-0.0128642000000001,-0.0041409999999986,0.0274991999999999,-0.0055695999999994,0.0205966000000008,0.0024038,0,sub_17
-0.0132730000000001,-0.0039253999999986,0.0266133999999999,-0.0063973999999994,0.0206990000000008,0.0019558,0,sub_17
-0.0125158000000002,-0.0033585999999987,0.0258801999999999,-0.0074613999999994,0.0207054000000008,0.0013074,0,sub_17
-0.0117746000000002,-0.0029941999999987,0.0249949999999999,-0.0083283999999994,0.0170890000000008,0.0006652,0,sub_17
-0.0111956000000002,-0.0018551999999987,0.0248565999999999,-0.0074959999999994,0.0119744000000008,0.0002504,0,sub_17
-0.0107416000000002,-0.0010829999999987,0.0251729999999999,-0.0072683999999994,0.0093764000000008,0.0002182,0,sub_17
-0.0111090000000002,-0.0005629999999987,0.0249513999999999,-0.0066245999999994,0.0046456000000008,0.0004052,0,sub_17
-0.0121878000000002,-0.0012185999999987,0.0253855999999999,-0.0053473999999994,-0.0017911999999991,0.0003852,0,sub_17
-0.0133126000000002,-0.0017879999999987,0.0260573999999999,-0.0040625999999994,-0.0058867999999991,0.001003,0,sub_17
-0.0146264000000002,-0.0015581999999987,0.0279281999999999,-0.0023385999999994,-0.0065775999999991,0.0022606,0,sub_17
-0.0162626000000002,-0.0018639999999987,0.0304431999999999,0.0012812000000005,-0.0070215999999991,0.0035682,0,sub_17
-0.0177138000000002,-0.0040993999999987,0.0335861999999999,0.0059820000000005,-0.0044857999999991,0.004666,0,sub_17
-0.0231594000000001,-0.0067831999999987,0.0399995999999999,0.0109292000000005,0.0017320000000008,0.0055032,0,sub_17
-0.0280112000000001,-0.0097683999999987,0.0466405999999999,0.0150490000000005,0.0120076000000008,0.0046202,0,sub_17
-0.0305768000000001,-0.0131237999999987,0.0520505999999999,0.0176848000000004,0.0233578000000008,0.0026572,0,sub_17
-0.0319636000000001,-0.0159127999999986,0.0558181999999999,0.0175552000000004,0.0355744000000008,-0.0003943999999999,0,sub_17
-0.0314826000000001,-0.0168223999999986,0.0580683999999999,0.0150680000000004,0.0450312000000008,-0.0038861999999999,0,sub_17
-0.0262164000000001,-0.0161749999999986,0.0528205999999999,0.0097922000000004,0.0540142000000008,-0.0079937999999999,0,sub_17
-0.0203894000000001,-0.0140907999999987,0.0455137999999999,0.0017328000000004,0.0606642000000008,-0.0123313999999999,0,sub_17
-0.0162670000000001,-0.0103549999999987,0.0366745999999999,-0.0059073999999994,0.0660328000000008,-0.0162371999999999,0,sub_17
-0.0110240000000001,-0.0049293999999987,0.0266841999999999,-0.0107981999999994,0.0656186000000008,-0.0199449999999999,0,sub_17
-0.0045870000000001,0.0004404000000012,0.0179705999999999,-0.0131513999999994,0.0617798000000008,-0.0219215999999999,0,sub_17
0.0023867999999998,0.0052296000000012,0.0131985999999999,-0.0127633999999994,0.0545072000000008,-0.0200289999999999,0,sub_17
0.0052645999999997,0.0092344000000012,0.0097781999999999,-0.0081499999999994,0.0416650000000008,-0.0142541999999999,0,sub_17
0.0060283999999998,0.0098512000000012,0.0073881999999999,-0.0039845999999994,0.0245614000000008,-0.0080498,0,sub_17
0.0040411999999998,0.0074046000000012,0.0080219999999999,-0.0004395999999994,0.0125922000000008,-0.0016001999999999,0,sub_17
0.0003141999999998,0.0050708000000012,0.0116203999999999,0.0018576000000005,0.0068102000000008,0.0037643999999999,0,sub_17
-0.0048890000000001,0.0024626000000012,0.0165989999999999,0.0035272000000005,0.0021026000000008,0.0074139999999999,0,sub_17
-0.0075792000000001,-0.0008219999999987,0.0224389999999999,0.0024238000000005,-0.0040799999999991,0.0093369999999999,0,sub_17
-0.0100490000000002,-0.0027701999999987,0.0275451999999999,0.0010982000000005,-0.0126339999999991,0.0112243999999999,0,sub_17
-0.0121644000000002,-0.0037661999999987,0.0316343999999999,-0.0019401999999994,-0.0230969999999991,0.0124611999999999,0,sub_17
-0.0131618000000002,-0.0048285999999987,0.0325915999999999,-0.0056157999999994,-0.0327063999999991,0.0139062,0,sub_17
