userAcceleration.x,userAcceleration.y,userAcceleration.z,rotationRate.x,rotationRate.y,rotationRate.z,label,subject
0.0014987999999997,0.0171260000000012,-0.01852,0.0810304000000004,0.2978304000000008,0.0529414,0,sub_18
0.0061913999999997,0.0152884000000012,-0.02318,0.0811224000000005,0.3178590000000008,0.0524892,0,sub_18
0.0111819999999997,0.0137690000000012,-0.0225342,0.0850344000000004,0.3211706000000008,0.0439728,0,sub_18
0.0085009999999997,0.0092914000000012,-0.0186184,0.0914810000000004,0.3157500000000008,0.0324944,0,sub_18
-0.0029148000000002,0.0022680000000012,-0.0126968,0.0976972000000005,0.3062830000000008,0.0208058,0,sub_18
-0.0182110000000001,-0.0053393999999987,-0.0070108,0.0992506000000005,0.2991948000000007,0.0043814,0,sub_18
-0.0306850000000001,-0.0067443999999987,0.0009869999999999,0.0966038000000004,0.3055498000000007,-0.0135849999999999,0,sub_18
-0.0391946000000001,-0.0058435999999987,0.0063457999999999,0.0864980000000004,0.3233194000000008,-0.0262833999999999,0,sub_18
-0.0442446000000001,-0.0033755999999987,0.0101771999999999,0.0725296000000004,0.3408706000000007,-0.0343083999999999,0,sub_18
-0.0433254000000001,0.0004786000000012,0.0114741999999999,0.0576806000000004,0.3558544000000007,-0.0389177999999999,0,sub_18
-0.0379082000000001,0.0073722000000012,0.0107045999999999,0.0453558000000004,0.3707968000000008,-0.0353909999999999,0,sub_18
-0.0314618000000001,0.0119768000000012,0.0067763999999999,0.0351080000000005,0.3808010000000008,-0.0241523999999999,0,sub_18
-0.0216272000000001,0.0150380000000012,0.0030133999999999,0.0252430000000005,0.3805788000000008,-0.0133249999999999,0,sub_18
-0.0076150000000002,0.0171054000000012,0.0008031999999999,0.0187670000000005,0.3714100000000008,-0.0058809999999999,0,sub_18
0.0057519999999997,0.0170060000000012,-0.0031608,0.0182224000000005,0.3539062000000008,0.002897,0,sub_18
0.0151699999999997,0.0124322000000012,-0.0080906,0.0225432000000005,0.3248890000000008,0.0095872,0,sub_18
0.0244435999999997,0.0085812000000012,-0.0105058,0.0306894000000005,0.2869322000000007,0.010761,0,sub_18
0.0302341999999997,0.0059308000000012,-0.0121248,0.0432952000000005,0.2459702000000007,0.0136787999999999,0,sub_18
0.0273421999999997,0.0041200000000012,-0.0154212,0.0567478000000005,0.2037260000000008,0.0168179999999999,0,sub_18
0.0245851999999997,0.0031850000000012,-0.016164,0.0670334000000005,0.1647058000000007,0.0156579999999999,0,sub_18
0.0211709999999997,0.0041160000000012,-0.0157442,0.0726496000000005,0.1327268000000007,0.0159519999999999,0,sub_18
0.0158513999999997,0.0051618000000012,-0.0153434,0.0720962000000005,0.1056662000000007,0.017051,0,sub_18
0.0104899999999997,0.0062890000000012,-0.0149476,0.0675244000000005,0.0826832000000007,0.0142712,0,sub_18
0.0069579999999997,0.0065824000000012,-0.0153308,0.0606496000000005,0.0690846000000007,0.011036,0,sub_18
0.0044027999999997,0.0056222000000012,-0.0182784,0.0501522000000005,0.0578370000000007,0.0090542,0,sub_18
0.0055371999999997,0.0048576000000012,-0.019138,0.0373124000000005,0.0429944000000007,0.0023604,0,sub_18
0.0075833999999997,0.0040620000000012,-0.0199088,0.0263796000000005,0.0243138000000007,-0.0051693999999999,0,sub_18
0.0080849999999997,0.0031730000000012,-0.0188886,0.0186398000000005,0.0054028000000007,-0.0111811999999999,0,sub_18
0.0096787999999997,0.0016620000000012,-0.0158574,0.0110978000000005,-0.0141591999999992,-0.0144135999999999,0,sub_18
0.0069477999999997,0.0006406000000012,-0.0116396,0.0041932000000005,-0.0318159999999992,-0.0150799999999999,0,sub_18
0.0016409999999997,0.0008468000000012,-0.0088316,-0.0020577999999994,-0.0445825999999991,-0.0138253999999999,0,sub_18
-0.0022712000000002,0.0028614000000012,-0.0040278,-0.0080551999999994,-0.0473407999999991,-0.0115137999999999,0,sub_18
-0.0071336000000002,0.0059796000000012,-0.0021886,-0.0159739999999994,-0.0479711999999991,-0.0068681999999999,0,sub_18
-0.0113962000000002,0.0098556000000012,-0.001165,-0.0236763999999994,-0.0483875999999991,-0.0026485999999999,0,sub_18
-0.0114916000000002,0.0110930000000012,-0.0003796,-0.0273153999999994,-0.0488095999999991,-0.0005369999999999,0,sub_18
-0.0084996000000002,0.0098724000000012,-0.0009564,-0.0286013999999994,-0.0483857999999991,0.0011626,0,sub_18
-0.0063304000000002,0.0089320000000012,-0.0038632,-0.0307571999999994,-0.0507321999999992,0.0037144,0,sub_18
-0.0021968000000002,0.0064684000000012,-0.0056266,-0.0329167999999994,-0.0556283999999992,0.0045602,0,sub_18
0.0011271999999997,0.0041866000000012,-0.0080238,-0.0331675999999994,-0.0647853999999992,0.0037158,0,sub_18
0.0030139999999997,0.0044146000000012,-0.0104378,-0.0332191999999994,-0.0752291999999992,0.004797,0,sub_18
0.0012105999999997,0.0068290000000012,-0.011284,-0.0334709999999994,-0.0824773999999992,0.0060864,0,sub_18
0.0013227999999997,0.0079388000000012,-0.0134154,-0.0326529999999994,-0.0907877999999992,0.0056754,0,sub_18
0.0015315999999997,0.0101598000000012,-0.017574,-0.0288831999999994,-0.1057181999999992,0.0065754,0,sub_18
0.0051717999999998,0.0108396000000012,-0.0193679999999999,-0.0242627999999994,-0.1172591999999991,0.0115362,0,sub_18
0.0145167999999997,0.0163794000000012,-0.0170606,-0.0197123999999994,-0.1435041999999991,0.01737,0,sub_18
0.0248059999999997,0.0158156000000012,-0.0174424,-0.0217419999999994,-0.1620561999999991,0.023148,0,sub_18
0.0309137999999997,0.0171580000000012,-0.0155196,-0.0221067999999994,-0.1842589999999991,0.0347106,0,sub_18
0.0356233999999997,0.0143820000000012,-0.0105774,-0.0267093999999994,-0.1975079999999991,0.0485824,0,sub_18
0.0358733999999997,0.0105252000000012,-0.0065146,-0.0357755999999994,-0.2086039999999991,0.060711,0,sub_18
0.0306951999999997,0.0023186000000012,-0.0007692,-0.0486469999999994,-0.2213525999999991,0.0632012,0,sub_18
0.0261053999999997,0.0040190000000012,0.0052051999999999,-0.0551325999999994,-0.2464447999999992,0.0567788,0,sub_18
0.0215843999999997,0.0032048000000012,0.0082345999999999,-0.0630387999999994,-0.2636155999999992,0.0420042,0,sub_18
0.0189717999999997,0.0049138000000012,0.0106395999999999,-0.0692285999999994,-0.2771765999999992,0.0287322,0,sub_18
0.0209895999999997,0.0176836000000012,0.0149925999999999,-0.0767045999999994,-0.2848011999999992,0.0224926,0,sub_18
0.0228199999999997,0.0283968000000012,0.0126041999999999,-0.0762465999999994,-0.2682277999999992,0.0318732,0,sub_18
0.0231117999999997,0.0324176000000012,0.0151851999999999,-0.0722003999999994,-0.2538239999999992,0.0479048,0,sub_18
0.0271905999999997,0.0347900000000012,0.0191489999999999,-0.0596433999999994,-0.2498689999999991,0.0588818,0,sub_18
0.0311835999999997,0.0328554000000012,0.0238323999999999,-0.0513269999999994,-0.2437531999999992,0.0659808,0,sub_18
0.0309903999999997,0.0214704000000012,0.0274467999999999,-0.0429727999999994,-0.2371751999999992,0.0653898,0,sub_18
0.0310075999999997,0.0117494000000012,0.0316159999999999,-0.0477825999999994,-0.2241267999999991,0.0565802,0,sub_18
0.0350675999999997,0.0070430000000012,0.0326319999999999,-0.0574395999999994,-0.1980633999999991,0.0472926,0,sub_18
0.0339803999999997,0.0113758000000012,0.0406353999999999,-0.0747069999999994,-0.1500535999999991,0.0441194,0,sub_18
0.0344219999999997,0.0219434000000012,0.0523335999999999,-0.0811143999999994,-0.1103771999999991,0.0376146,0,sub_18
0.0355483999999997,0.0324212000000012,0.0478343999999999,-0.0825045999999994,-0.0971233999999991,0.0277602,0,sub_18
0.0237883999999997,0.0507722000000012,0.0354587999999999,-0.0905915999999994,-0.0871027999999991,0.033032,0,sub_18
0.0199799999999997,0.0581938000000012,0.0331859999999999,-0.0907867999999994,-0.0658655999999992,0.0503086,0,sub_18
0.0272399999999997,0.0514284000000012,0.0263025999999999,-0.0994703999999994,-0.0685141999999991,0.0808024,0,sub_18
0.0351237999999997,0.0401698000000012,0.0074295999999999,-0.1183377999999994,-0.0982151999999992,0.1187373999999999,0,sub_18
0.0376973999999997,0.0282056000000012,0.0024135999999999,-0.1297005999999994,-0.1213317999999991,0.1552208,0,sub_18
0.0468401999999997,0.0106504000000012,0.0084569999999999,-0.1190687999999994,-0.1606371999999992,0.1717959999999999,0,sub_18
0.0373171999999997,-0.0026699999999987,0.0012603999999999,-0.1209533999999994,-0.2352499999999992,0.1842697999999999,0,sub_18
0.0211263999999997,-0.0123987999999987,-0.0064218,-0.1146579999999994,-0.3119491999999991,0.1786438,0,sub_18
0.0087801999999997,-0.0183823999999987,-0.000692,-0.1032815999999994,-0.3636837999999991,0.1593478,0,sub_18
-0.0004522000000002,-0.0160369999999987,0.0028233999999999,-0.1109279999999995,-0.4192005999999992,0.1433422,0,sub_18
-0.0055704000000001,-0.0147827999999987,0.0014323999999999,-0.1282289999999994,-0.4808845999999992,0.1328318,0,sub_18
-0.0041850000000001,-0.0115393999999987,0.0015235999999999,-0.1306671999999994,-0.5257317999999993,0.1080896,0,sub_18
-0.0116048000000002,-0.0017443999999987,0.0050801999999999,-0.1238959999999994,-0.5593335999999992,0.0870292,0,sub_18
-0.0288760000000002,0.0059546000000012,0.0009205999999999,-0.1211881999999994,-0.5874125999999993,0.0736246,0,sub_18
-0.0432602000000002,0.0057702000000012,-0.0009052,-0.1085655999999994,-0.5935805999999992,0.0600474,0,sub_18
-0.0533820000000001,0.0011776000000012,0.0011765999999999,-0.0896717999999994,-0.5829321999999992,0.0447834,0,sub_18
-0.0609092000000002,-0.0005909999999987,0.0051703999999999,-0.0782883999999994,-0.5750537999999992,0.0360934,0,sub_18
-0.0595968000000001,-0.0019779999999987,0.0044013999999999,-0.0779837999999994,-0.5622415999999992,0.0286014,0,sub_18
-0.0547164000000002,0.0015956000000012,0.0040463999999999,-0.0759589999999994,-0.5449671999999992,0.0226112,0,sub_18
-0.0499594000000001,0.0031206000000012,0.0050783999999999,-0.0700637999999995,-0.5200405999999992,0.0177066,0,sub_18
-0.0495240000000001,0.0093732000000012,0.0043331999999999,-0.0682101999999994,-0.4910567999999992,0.0140504,0,sub_18
-0.0518742000000001,0.0088568000000012,0.0101747999999999,-0.0597121999999994,-0.4578257999999992,0.008085,0,sub_18
-0.0536688000000002,0.0046028000000012,0.0112255999999999,-0.0593559999999994,-0.4373281999999991,-0.0032617999999999,0,sub_18
-0.0548700000000001,-0.0030211999999987,0.0130647999999999,-0.0673021999999994,-0.4242115999999991,-0.0264075999999999,0,sub_18
-0.0540168000000001,-0.0022233999999987,0.0123839999999999,-0.0809593999999994,-0.4072109999999991,-0.0568621999999999,0,sub_18
-0.0496412000000001,-0.0073681999999987,0.0146157999999999,-0.0915919999999994,-0.3736359999999992,-0.0789847999999999,0,sub_18
-0.0436926000000001,-0.0071649999999987,0.0097013999999999,-0.1144079999999994,-0.3372783999999992,-0.0937185999999999,0,sub_18
-0.0317008000000001,-0.0053435999999987,0.0179133999999999,-0.1254713999999994,-0.2892755999999992,-0.1004803999999999,0,sub_18
-0.0165402000000001,0.0053388000000012,0.0216531999999999,-0.1363941999999994,-0.2438845999999991,-0.0935645999999999,0,sub_18
-0.0043114000000002,0.0154518000000012,0.0256783999999999,-0.1305891999999994,-0.2141573999999991,-0.0734795999999999,0,sub_18
0.0046753999999997,0.0313904000000012,0.0317445999999999,-0.1036831999999994,-0.1896171999999992,-0.0532405999999999,0,sub_18
0.0064077999999997,0.0359194000000012,0.0310163999999999,-0.0602967999999994,-0.1485377999999991,-0.0275663999999999,0,sub_18
-0.0023392000000002,0.0365292000000012,0.0204211999999999,-0.0066137999999994,-0.0961987999999992,-0.0026893999999999,0,sub_18
-0.0133722000000002,0.0280332000000012,0.0157887999999999,0.0584874000000005,-0.0289483999999992,0.0128478,0,sub_18
-0.0169726000000002,0.0155682000000012,0.0098129999999999,0.1042158000000005,0.0375604000000007,0.0175686,0,sub_18
-0.0178804000000002,0.0018264000000012,-0.0022196,0.1182892000000005,0.0788602000000007,0.0135548,0,sub_18
-0.0121528000000002,-0.0014619999999987,-0.0089244,0.1120060000000005,0.0934170000000007,0.0017418,0,sub_18
-0.0044660000000002,-0.0026049999999987,-0.0137052,0.0853642000000005,0.0878072000000007,-0.0108283999999999,0,sub_18
0.0026781999999997,-0.0038745999999987,-0.0183062,0.0485950000000005,0.0662298000000007,-0.0174667999999999,0,sub_18
0.0047775999999997,-0.0055275999999987,-0.0197919999999999,0.0096480000000005,0.0401644000000007,-0.0187737999999999,0,sub_18
0.0064723999999997,-0.0052455999999987,-0.0189444,-0.0260897999999994,0.0174906000000007,-0.0185671999999999,0,sub_18
0.0075427999999997,1.4000000012684422e-06,-0.0130645999999999,-0.0550239999999994,-0.0101109999999991,-0.0180959999999999,0,sub_18
0.0065467999999997,0.0061410000000012,-0.0053524,-0.0745677999999994,-0.0381681999999991,-0.0184131999999999,0,sub_18
0.0038791999999997,0.0096212000000012,0.0037373999999999,-0.0797811999999994,-0.0586053999999991,-0.0186399999999999,0,sub_18
-0.0003104000000002,0.0125578000000012,0.0128817999999999,-0.0732293999999994,-0.0733277999999991,-0.0196463999999999,0,sub_18
-0.0035130000000002,0.0163308000000012,0.0203907999999999,-0.0645063999999994,-0.0786873999999991,-0.0195813999999999,0,sub_18
-0.0045978000000002,0.0169698000000012,0.0233939999999999,-0.0550795999999994,-0.0704101999999991,-0.0197397999999999,0,sub_18
-0.0026620000000002,0.0153440000000012,0.0250651999999999,-0.0449925999999994,-0.0570245999999991,-0.0192591999999999,0,sub_18
-9.480000000021416e-05,0.0142330000000012,0.0260741999999999,-0.0355763999999994,-0.0502423999999991,-0.0185611999999999,0,sub_18
0.0005959999999997,0.0127696000000012,0.0258091999999999,-0.0296383999999994,-0.0539031999999991,-0.0140285999999999,0,sub_18
-0.0018438000000002,0.0106724000000012,0.0242483999999999,-0.0260733999999994,-0.0609739999999991,-0.0071579999999999,0,sub_18
-0.0065292000000002,0.0095472000000012,0.0240813999999999,-0.0242115999999994,-0.0657011999999991,0.0011932,0,sub_18
-0.0104926000000002,0.0109746000000012,0.0244337999999999,-0.0208225999999994,-0.0638255999999991,0.0086919999999999,0,sub_18
-0.0134168000000002,0.0130998000000012,0.0240517999999999,-0.0163263999999994,-0.0542785999999991,0.0149067999999999,0,sub_18
-0.0148932000000002,0.0142392000000012,0.0254411999999999,-0.0113277999999994,-0.0327823999999991,0.0161961999999999,0,sub_18
-0.0162018000000002,0.0127612000000012,0.0295363999999999,-0.0024547999999994,-0.0099967999999991,0.011315,0,sub_18
-0.0142888000000002,0.0099270000000012,0.0323947999999999,0.0068334000000004,0.0076844000000008,0.0038798,0,sub_18
-0.0114302000000002,0.0065180000000012,0.0313057999999999,0.0090544000000004,0.0194256000000008,-0.0038109999999999,0,sub_18
-0.0092598000000002,0.0047352000000012,0.0283995999999999,0.0035930000000004,0.0303440000000008,-0.0121951999999999,0,sub_18
-0.0069368000000002,0.0026038000000012,0.0242725999999999,-0.0038059999999995,0.0384950000000008,-0.0195213999999999,0,sub_18
-0.0029054000000002,0.0001174000000012,0.0190801999999999,-0.0131627999999994,0.0417390000000008,-0.0234363999999999,0,sub_18
-0.0011198000000002,0.0015656000000012,0.0145183999999999,-0.0242725999999994,0.0390064000000008,-0.0230831999999999,0,sub_18
-0.0018306000000002,0.0038752000000012,0.0113099999999999,-0.0334917999999994,0.0326332000000008,-0.0197209999999999,0,sub_18
-0.0015724000000002,0.0075012000000012,0.0083951999999999,-0.0397429999999994,0.0243228000000008,-0.0139855999999999,0,sub_18
-0.0013658000000002,0.0108162000000012,0.0101377999999999,-0.0406433999999994,0.0191912000000008,-0.0086441999999999,0,sub_18
-0.0012260000000002,0.0140472000000012,0.0124589999999999,-0.0353531999999994,0.0127674000000008,-0.0051807999999999,0,sub_18
-0.0026218000000002,0.0145972000000012,0.0142833999999999,-0.0255715999999994,0.0057006000000008,-0.0046761999999999,0,sub_18
-0.0046632000000001,0.0146134000000012,0.0174423999999999,-0.0116995999999994,0.0050182000000008,-0.0058603999999999,0,sub_18
-0.0081242000000001,0.0133212000000012,0.0202835999999999,0.0062526000000005,0.0098616000000008,-0.0072367999999999,0,sub_18
-0.0109940000000001,0.0122400000000012,0.0153289999999999,0.0218508000000005,0.0130098000000007,-0.0088409999999999,0,sub_18
-0.0124224000000001,0.0097588000000012,0.0104901999999999,0.0330114000000005,0.0266098000000008,-0.0096349999999999,0,sub_18
-0.0123498000000001,0.0055142000000012,0.0070817999999999,0.0390942000000005,0.0502396000000007,-0.0100499999999999,0,sub_18
-0.0116494000000001,0.0017518000000012,0.0025349999999999,0.0368296000000005,0.0698436000000008,-0.0088089999999999,0,sub_18
-0.0094834000000001,0.0014244000000012,-0.0024662,0.0251534000000005,0.0852160000000008,-0.0067737999999999,0,sub_18
-0.0063378000000001,0.0035086000000012,-0.0040624,0.0119828000000005,0.1014414000000007,-0.0036817999999999,0,sub_18
-0.0024722000000002,0.0090166000000012,-0.0052926,0.0030576000000005,0.1133884000000008,8.620000000002775e-05,0,sub_18
0.0026093999999997,0.0148866000000012,-0.0037778,0.0032806000000005,0.1197622000000007,0.0043524,0,sub_18
0.0081333999999997,0.0199132000000012,-0.0015224,0.0124500000000005,0.1220592000000007,0.0080454,0,sub_18
0.0122137999999997,0.0206700000000012,0.0010419999999999,0.0307704000000005,0.1185734000000008,0.0113825999999999,0,sub_18
0.0126533999999997,0.0201608000000012,0.0036137999999999,0.0514120000000004,0.1091150000000007,0.0145297999999999,0,sub_18
0.0109595999999997,0.0184638000000012,0.0057291999999999,0.0694892000000005,0.0971154000000008,0.0159531999999999,0,sub_18
0.0085195999999997,0.0128322000000012,0.0056073999999999,0.0809584000000004,0.0838718000000007,0.0145547999999999,0,sub_18
0.0056425999999997,0.0078616000000012,0.0055121999999999,0.0849626000000004,0.0700202000000007,0.0118231999999999,0,sub_18
0.0029841999999997,0.0040258000000012,0.0056709999999999,0.0793718000000005,0.0566326000000007,0.0079555999999999,0,sub_18
0.0024141999999998,0.0020566000000012,0.0039667999999999,0.0661254000000005,0.0481754000000007,0.0031738,0,sub_18
0.0017377999999998,-5.55999999987301e-05,0.0025355999999999,0.0505424000000005,0.0431312000000007,-0.0005603999999999,0,sub_18
0.0013423999999998,0.0018858000000012,0.0015369999999999,0.0347520000000005,0.0417000000000008,-0.0019507999999999,0,sub_18
0.0015583999999998,0.0041026000000012,0.0017233999999999,0.0213306000000005,0.0466464000000007,-0.0018371999999999,0,sub_18
0.0006065999999998,0.0071860000000012,0.0026527999999999,0.0119766000000004,0.0551980000000007,-0.0010587999999999,0,sub_18
-0.0002756000000001,0.0096142000000012,0.0049055999999999,0.0081464000000004,0.0586160000000007,-2.1799999999952337e-05,0,sub_18
-0.0013284000000001,0.0131708000000012,0.0073159999999999,0.0081454000000004,0.0584028000000007,-2.159999999993235e-05,0,sub_18
-0.0030820000000001,0.0161616000000012,0.0103999999999999,0.0130712000000004,0.0611606000000007,-0.0012725999999999,0,sub_18
-0.0050608000000001,0.0158642000000012,0.0118329999999999,0.0224976000000004,0.0677374000000007,-0.0033539999999999,0,sub_18
-0.0061732000000001,0.0122886000000012,0.0128397999999999,0.0306486000000004,0.0747474000000008,-0.0060857999999999,0,sub_18
-0.0074024000000001,0.0084530000000012,0.0134721999999999,0.0358182000000004,0.0826218000000008,-0.0092667999999999,0,sub_18
-0.0075914000000001,0.0045330000000012,0.0117833999999999,0.0345914000000004,0.0917960000000008,-0.0122803999999999,0,sub_18
-0.0073932000000001,0.0013376000000012,0.0077005999999999,0.0271566000000004,0.0973664000000008,-0.0144781999999999,0,sub_18
-0.0058192000000002,0.0009638000000012,0.0041463999999999,0.0143714000000005,0.0997608000000007,-0.0160659999999999,0,sub_18
-0.0033970000000002,0.0022048000000012,0.0020593999999999,0.0018008000000005,0.1032162000000008,-0.0167991999999999,0,sub_18
-0.0022568000000002,0.0045926000000012,0.0011031999999999,-0.0107613999999994,0.1094378000000008,-0.0166811999999999,0,sub_18
-0.0024522000000002,0.0071874000000012,0.0012127999999999,-0.0201353999999994,0.1130908000000007,-0.0163241999999999,0,sub_18
-0.0029878000000001,0.0096156000000012,0.0023459999999999,-0.0256697999999994,0.1156686000000007,-0.0167933999999999,0,sub_18
-0.0040622000000001,0.0120560000000012,0.0047911999999999,-0.0254371999999994,0.1188678000000007,-0.0178641999999999,0,sub_18
-0.0049640000000001,0.0143832000000012,0.0071995999999999,-0.0202769999999994,0.1263118000000007,-0.0191195999999999,0,sub_18
-0.0041778000000001,0.0146270000000012,0.0087127999999999,-0.0118949999999994,0.1382196000000007,-0.0205717999999999,0,sub_18
-0.0031280000000001,0.0133920000000012,0.0093031999999999,-0.0041301999999994,0.1550308000000007,-0.0222481999999999,0,sub_18
-0.0018134000000002,0.0122710000000012,0.0093603999999999,0.0027832000000005,0.1726954000000007,-0.0235043999999999,0,sub_18
-0.0010668000000002,0.0097530000000012,0.0076063999999999,0.0086114000000005,0.1867402000000007,-0.0243361999999999,0,sub_18
0.0005495999999997,0.0069064000000012,0.0032443999999999,0.0101466000000005,0.1946230000000008,-0.0241215999999999,0,sub_18
0.0025563999999997,0.0065276000000012,0.0001519999999999,0.0065454000000005,0.1995394000000007,-0.0235117999999999,0,sub_18
0.0046275999999997,0.0064186000000012,-0.0015446,0.0003724000000005,0.2014836000000008,-0.0233433999999999,0,sub_18
0.0063893999999997,0.0051902000000012,-0.0002408,-0.0068819999999994,0.2004480000000008,-0.0229651999999999,0,sub_18
0.0075087999999997,0.0056856000000012,0.0021041999999999,-0.0164863999999994,0.1992058000000008,-0.0221757999999999,0,sub_18
0.0073105999999997,0.0073036000000012,0.0057787999999999,-0.0263091999999994,0.1973236000000008,-0.0224555999999999,0,sub_18
0.0064695999999997,0.0082762000000012,0.0070803999999999,-0.0323189999999994,0.1875518000000008,-0.0244077999999999,0,sub_18
0.0075535999999997,0.0092496000000012,0.0095873999999999,-0.0323679999999994,0.1762618000000008,-0.0248209999999999,0,sub_18
0.0087117999999997,0.0107690000000012,0.0091211999999999,-0.0294239999999994,0.1685738000000007,-0.0228677999999999,0,sub_18
0.0100901999999997,0.0116090000000012,0.0085343999999999,-0.0279819999999994,0.1585492000000007,-0.0213493999999999,0,sub_18
0.0116309999999997,0.0128336000000012,0.0075847999999999,-0.0246255999999994,0.1466028000000007,-0.0204559999999999,0,sub_18
0.0139215999999997,0.0109628000000012,0.0090677999999999,-0.0210595999999994,0.1363498000000008,-0.0169995999999999,0,sub_18
0.0140869999999997,0.0094240000000012,0.0092037999999999,-0.0192159999999994,0.1224818000000007,-0.0137641999999999,0,sub_18
0.0135445999999997,0.0094788000000012,0.0089963999999999,-0.0195251999999994,0.1013894000000007,-0.0135255999999999,0,sub_18
0.0128331999999997,0.0112222000000012,0.0073171999999999,-0.0181361999999994,0.0781614000000007,-0.0134861999999999,0,sub_18
0.0131747999999997,0.0126192000000012,0.0068911999999999,-0.0135455999999994,0.0574696000000007,-0.0110775999999999,0,sub_18
0.0128363999999997,0.0139570000000012,0.0072753999999999,-0.0048903999999994,0.0386828000000007,-0.0090703999999999,0,sub_18
0.0128073999999997,0.0142266000000012,0.0087245999999998,0.0024684000000005,0.0164908000000007,-0.0068541999999999,0,sub_18
0.0138575999999997,0.0147366000000012,0.0107769999999998,0.0089938000000005,-0.0010119999999992,-0.0044361999999999,0,sub_18
0.0153105999999997,0.0121476000000012,0.0121617999999999,0.0142390000000005,-0.0187225999999992,-0.0022403999999999,0,sub_18
0.0139005999999997,0.0109980000000012,0.0106821999999999,0.0179656000000005,-0.0419673999999992,-4.79999999999722e-05,0,sub_18
0.0133779999999997,0.0117256000000012,0.0085767999999999,0.0195604000000005,-0.0637175999999992,0.0031958,0,sub_18
0.0142387999999997,0.0105378000000012,0.0089673999999999,0.0188264000000004,-0.0807749999999992,0.0070582,0,sub_18
0.0169523999999997,0.0067576000000012,0.0092219999999999,0.0112578000000004,-0.0980265999999992,0.012155,0,sub_18
0.0172631999999997,0.0048130000000012,0.0095641999999999,-0.0020499999999995,-0.1135407999999991,0.0140048,0,sub_18
0.0151139999999997,0.0034268000000012,0.0117957999999999,-0.0185255999999994,-0.1307123999999992,0.0068614,0,sub_18
0.0125289999999997,0.0029490000000012,0.0131571999999999,-0.0358269999999994,-0.1495539999999992,-0.0081903999999999,0,sub_18
0.0123877999999997,0.0048968000000012,0.0120495999999999,-0.0477623999999994,-0.1630811999999992,-0.0249207999999999,0,sub_18
