userAcceleration.x,userAcceleration.y,userAcceleration.z,rotationRate.x,rotationRate.y,rotationRate.z,label,subject
-0.0156858000000001,-0.0057043999999987,0.0317313999999999,-0.0203215999999994,-0.0182665999999991,0.0054666,0,sub_17
-0.0131080000000001,-0.0046297999999987,0.0326885999999999,-0.0216587999999994,-0.0150003999999991,0.0048144,0,sub_17
-0.0097992000000002,-0.0044313999999987,0.0315923999999999,-0.0234371999999994,-0.0134431999999991,0.0056566,0,sub_17
-0.0093540000000002,-0.0035835999999987,0.0301445999999999,-0.0243251999999994,-0.0194125999999991,0.0073672,0,sub_17
-0.0099024000000002,-0.0030251999999987,0.0273733999999999,-0.0230735999999994,-0.0236865999999991,0.0095178,0,sub_17
-0.0107610000000002,-0.0024023999999987,0.0260675999999999,-0.0192539999999994,-0.0288115999999991,0.0091236,0,sub_17
-0.0110744000000002,-0.0031179999999987,0.0262051999999999,-0.0132841999999994,-0.0351685999999991,0.0066126,0,sub_17
-0.0103262000000002,-0.0035239999999987,0.0288103999999999,-0.0079659999999994,-0.0453531999999991,0.0028202,0,sub_17
-0.0108346000000002,-0.0040397999999987,0.0317195999999999,-0.0028553999999994,-0.0527733999999991,0.0005182,0,sub_17
-0.0137344000000002,-0.0060043999999987,0.0325635999999999,-0.0013779999999994,-0.0612471999999991,-0.0015939999999999,0,sub_17
-0.0160978000000002,-0.0068943999999987,0.0311625999999999,-0.0014075999999994,-0.0720617999999991,-0.0030727999999999,0,sub_17
-0.0192310000000002,-0.0059781999999987,0.0289959999999999,-0.0007905999999994,-0.0780261999999991,-0.0039153999999999,0,sub_17
-0.0234328000000002,-0.0054089999999987,0.0268283999999999,0.0005040000000004,-0.0746225999999991,-0.0036969999999999,0,sub_17
-0.0246404000000002,-0.0051479999999987,0.0256025999999999,0.0010168000000004,-0.0716909999999991,-0.0049739999999999,0,sub_17
-0.0244288000000001,-0.0032289999999986,0.0263083999999999,0.0032376000000004,-0.0683401999999991,-0.0060259999999999,0,sub_17
-0.0253302000000001,-0.0021813999999986,0.0288127999999999,0.0048336000000004,-0.0603051999999991,-0.0058065999999999,0,sub_17
-0.0276890000000001,-0.0039823999999986,0.0320573999999999,0.0070678000000005,-0.0522739999999991,-0.0051553999999999,0,sub_17
-0.0274186000000001,-0.0065749999999987,0.0357885999999999,0.0088752000000005,-0.0453023999999991,-0.0055739999999999,0,sub_17
-0.0276254000000001,-0.0084039999999986,0.0389837999999999,0.0102150000000005,-0.0320975999999991,-0.0055815999999999,0,sub_17
-0.0284862000000002,-0.0098527999999987,0.0409551999999999,0.0102850000000005,-0.0167567999999991,-0.0058143999999999,0,sub_17
-0.0293118000000002,-0.0111611999999987,0.0421621999999999,0.0099120000000005,-0.0063097999999991,-0.0073257999999999,0,sub_17
-0.0280606000000002,-0.0104895999999987,0.0419917999999999,0.0093372000000004,0.0062702000000008,-0.0092687999999999,0,sub_17
-0.0284958000000002,-0.0098747999999987,0.0403579999999999,0.0089130000000004,0.0204870000000008,-0.0109801999999999,0,sub_17
-0.0275000000000002,-0.0098331999999987,0.0388287999999999,0.0065646000000004,0.0340704000000008,-0.0124905999999999,0,sub_17
-0.0250452000000002,-0.0102211999999987,0.0382819999999999,0.0033742000000004,0.0510624000000008,-0.0131567999999999,0,sub_17
-0.0215622000000002,-0.0107073999999987,0.0378151999999999,-3.619999999953175e-05,0.0688980000000008,-0.0114753999999999,0,sub_17
-0.0180632000000002,-0.0105423999999987,0.0365795999999999,-0.0054369999999995,0.0728850000000008,-0.0080809999999999,0,sub_17
-0.0155098000000002,-0.0089425999999987,0.0354217999999999,-0.0103847999999994,0.0684102000000008,-0.0036233999999999,0,sub_17
-0.0182446000000002,-0.0070635999999987,0.0314551999999999,-0.0129951999999994,0.0611600000000008,0.0002134,0,sub_17
-0.0218836000000002,-0.0058797999999986,0.0273455999999999,-0.0121857999999994,0.0532664000000008,0.002152,0,sub_17
-0.0249376000000002,-0.0059593999999986,0.0242909999999999,-0.0094965999999994,0.0485492000000008,0.001122,0,sub_17
-0.0269106000000002,-0.0056879999999987,0.0239225999999999,-0.0054915999999994,0.0502250000000008,-0.0014025999999999,0,sub_17
-0.0292444000000002,-0.0055775999999986,0.0237995999999999,-0.0021285999999994,0.0527502000000008,-0.0026507999999999,0,sub_17
-0.0309564000000002,-0.0048619999999986,0.0261579999999999,0.0012134000000005,0.0522860000000008,-0.0021863999999999,0,sub_17
-0.0357752000000002,-0.0036597999999987,0.0279621999999999,0.0030608000000005,0.0530992000000008,-0.0002383999999999,0,sub_17
-0.0406422000000002,-0.0042523999999987,0.0286147999999999,0.0028676000000005,0.0596962000000008,0.0018882,0,sub_17
-0.0413464000000002,-0.0064653999999987,0.0287681999999999,0.0022974000000005,0.0782222000000008,0.0048516,0,sub_17
-0.0396982000000002,-0.0078733999999987,0.0291829999999999,0.0008504000000005,0.1089314000000008,0.0082154,0,sub_17
-0.0355274000000002,-0.0099337999999987,0.0288267999999999,-0.0038029999999994,0.1379490000000008,0.0111318,0,sub_17
-0.0259978000000002,-0.0107407999999987,0.0261785999999999,-0.0108685999999994,0.1512140000000008,0.0127696,0,sub_17
-0.0159722000000002,-0.0064579999999987,0.0215847999999999,-0.0165065999999994,0.1501974000000008,0.0148628,0,sub_17
-0.0107682000000002,-0.0011247999999987,0.0163779999999999,-0.0204923999999994,0.1363944000000008,0.0163432,0,sub_17
-0.0075860000000002,0.0021754000000012,0.0112017999999999,-0.0201719999999994,0.1108342000000008,0.0144553999999999,0,sub_17
-0.0023298000000002,0.0032776000000012,0.0079335999999999,-0.0145229999999994,0.0818550000000008,0.0104727999999999,0,sub_17
0.0006589999999997,0.0036492000000012,0.0076259999999999,-0.0064981999999994,0.0598958000000008,0.0071386,0,sub_17
0.0019813999999997,0.0015948000000012,0.0109223999999999,3.0000000000527868e-05,0.0381516000000008,0.0046484,0,sub_17
0.0015819999999997,-0.0002081999999987,0.0149737999999999,0.0044898000000005,0.0106136000000008,0.002153,0,sub_17
0.0005755999999998,-0.0011793999999987,0.0178841999999999,0.0057366000000005,-0.0181975999999991,0.0011324,0,sub_17
-0.0024502000000001,-0.0011013999999987,0.0196683999999999,0.0052792000000005,-0.0450903999999991,0.0013792,0,sub_17
-0.0048284000000001,-0.0018603999999987,0.0207661999999999,0.0054800000000005,-0.0683617999999991,0.0011988,0,sub_17
-0.0062948000000001,-0.0026181999999987,0.0207061999999999,0.0063574000000005,-0.0848125999999991,-0.0002675999999999,0,sub_17
-0.0067716000000001,-0.0034089999999987,0.0201605999999999,0.0073926000000005,-0.0943935999999991,-0.0028117999999999,0,sub_17
-0.0068178000000002,-0.0047275999999987,0.0206443999999999,0.0080000000000005,-0.1041859999999991,-0.0053587999999999,0,sub_17
-0.0094812000000002,-0.0052921999999987,0.0214089999999999,0.0077502000000005,-0.1146153999999991,-0.0076971999999999,0,sub_17
-0.0151384000000002,-0.0056763999999987,0.0223749999999999,0.0062598000000005,-0.1251129999999991,-0.0098123999999999,0,sub_17
-0.0220202000000002,-0.0060879999999986,0.0231943999999999,0.0045656000000005,-0.1332671999999991,-0.0117183999999999,0,sub_17
-0.0287416000000002,-0.0066047999999986,0.0250591999999999,0.0031192000000005,-0.1335399999999991,-0.0134191999999999,0,sub_17
-0.0334138000000002,-0.0074151999999986,0.0280733999999999,0.0032106000000005,-0.1242297999999991,-0.0153351999999999,0,sub_17
-0.0336576000000002,-0.0083227999999986,0.0311839999999999,0.0031048000000004,-0.1106603999999991,-0.0166171999999999,0,sub_17
-0.0309700000000001,-0.0085329999999986,0.0352705999999999,0.0031642000000004,-0.0966023999999991,-0.0157803999999999,0,sub_17
-0.0301204000000001,-0.0082291999999987,0.0382439999999999,0.0027892000000005,-0.0817007999999991,-0.0123837999999999,0,sub_17
-0.0300968000000001,-0.0090651999999987,0.0385117999999999,0.0005108000000005,-0.0695935999999991,-0.0076925999999999,0,sub_17
-0.0303532000000001,-0.0087239999999987,0.0370097999999999,-0.0028393999999994,-0.0591845999999991,-0.0036475999999999,0,sub_17
-0.0324626000000001,-0.0083825999999987,0.0353421999999999,-0.0046547999999994,-0.0402559999999991,-0.0002437999999999,0,sub_17
-0.0346612000000002,-0.0083023999999987,0.0327447999999999,-0.0064509999999994,-0.0187639999999991,0.0014478,0,sub_17
-0.0333264000000002,-0.0083889999999987,0.0301709999999999,-0.0080461999999994,-0.0023767999999991,0.0007972,0,sub_17
-0.0290074000000002,-0.0077481999999987,0.0283497999999999,-0.0081971999999994,0.0101992000000008,-0.0005019999999999,0,sub_17
-0.0252664000000002,-0.0070801999999987,0.0270477999999999,-0.0077223999999994,0.0202138000000008,-0.0011525999999999,0,sub_17
-0.0225218000000002,-0.0065643999999986,0.0253567999999999,-0.0081317999999994,0.0240502000000008,-0.0011603999999999,0,sub_17
-0.0207068000000002,-0.0061267999999987,0.0240259999999999,-0.0083459999999994,0.0236256000000008,-0.0013749999999999,0,sub_17
-0.0201084000000002,-0.0058275999999986,0.0238977999999999,-0.0076825999999994,0.0225702000000008,-0.0013641999999999,0,sub_17
-0.0203706000000002,-0.0054281999999986,0.0238989999999999,-0.0070201999999994,0.0210896000000008,-0.0015663999999999,0,sub_17
-0.0205232000000002,-0.0056551999999986,0.0234821999999999,-0.0065789999999994,0.0179054000000008,-0.0017679999999999,0,sub_17
-0.0202966000000002,-0.0047647999999986,0.0245643999999999,-0.0057165999999994,0.0136534000000008,-0.0017515999999999,0,sub_17
-0.0209224000000002,-0.0045531999999986,0.0241573999999999,-0.0044169999999994,0.0132292000000008,-0.0002415999999999,0,sub_17
-0.0243480000000002,-0.0041765999999987,0.0226115999999999,-0.0025129999999994,0.0108738000000008,0.0010566,0,sub_17
-0.0289244000000002,-0.0049123999999987,0.0213111999999999,3.5800000000508345e-05,0.0085204000000008,0.001291,0,sub_17
-0.0328444000000002,-0.0049915999999987,0.0210535999999999,0.0017640000000005,0.0125650000000008,0.000657,0,sub_17
-0.0355744000000002,-0.0040121999999987,0.0184505999999999,0.0030970000000005,0.0221566000000008,-0.0014823999999999,0,sub_17
-0.0354688000000002,-0.0038643999999987,0.0169955999999999,0.0044672000000005,0.0295494000000008,-0.0064123999999999,0,sub_17
-0.0273502000000002,-0.0044413999999987,0.0186907999999999,0.0047830000000005,0.0388670000000008,-0.0122067999999999,0,sub_17
-0.0173556000000002,-0.0039945999999987,0.0213035999999999,0.0052930000000005,0.0471058000000008,-0.0147937999999999,0,sub_17
-0.0088490000000002,-0.0035547999999987,0.0241493999999999,0.0057540000000005,0.0472374000000008,-0.0145933999999999,0,sub_17
-0.0049496000000002,-0.0055681999999987,0.0289749999999999,0.0070158000000005,0.0375578000000008,-0.012452,0,sub_17
-0.0040818000000002,-0.0058427999999987,0.0333119999999999,0.0056694000000005,0.0271056000000008,-0.0081751999999999,0,sub_17
-0.0081856000000002,-0.0067739999999987,0.0354309999999999,0.0030456000000005,0.0172970000000008,-0.0039081999999999,0,sub_17
-0.0115646000000002,-0.0075737999999987,0.0368425999999999,5.460000000050806e-05,0.0160116000000008,-0.0024339999999999,0,sub_17
-0.0140702000000002,-0.0078499999999987,0.0377591999999999,-0.0016369999999994,0.0177096000000008,-0.0022363999999999,0,sub_17
-0.0143698000000001,-0.0064891999999987,0.0359343999999999,-0.0048107999999994,0.0217574000000008,-0.0022659999999999,0,sub_17
-0.0139364000000001,-0.0051465999999987,0.0334327999999999,-0.0060833999999994,0.0215374000000008,-0.0022765999999999,0,sub_17
-0.0144492000000001,-0.0032683999999987,0.0300013999999999,-0.0052163999999994,0.0230126000000008,-0.0018471999999999,0,sub_17
-0.0158534000000001,-0.0027757999999987,0.0273549999999999,-0.0041523999999994,0.0227942000000008,-0.0014121999999999,0,sub_17
-0.0165512000000001,-0.0023067999999987,0.0250431999999999,-0.0035065999999994,0.0232216000000008,-0.0022627999999999,0,sub_17
-0.0156970000000002,-0.0026711999999987,0.0240229999999999,-0.0020053999999994,0.0230110000000008,-0.0041747999999999,0,sub_17
-0.0135214000000002,-0.0034609999999987,0.0237825999999999,0.0005562000000005,0.0200048000000008,-0.0071233999999999,0,sub_17
-0.0115392000000002,-0.0028293999999987,0.0236873999999999,0.0026690000000005,0.0135854000000008,-0.0085749999999999,0,sub_17
-0.0128392000000002,-0.0024375999999987,0.0228449999999999,0.0049636000000005,0.0016198000000008,-0.0085227999999999,0,sub_17
-0.0156830000000002,-0.0034289999999987,0.0217325999999999,0.0066162000000005,-0.0099209999999991,-0.0076211999999999,0,sub_17
-0.0189028000000002,-0.0046113999999987,0.0218431999999999,0.0084976000000005,-0.0180535999999991,-0.0067221999999999,0,sub_17
-0.0227902000000002,-0.0054701999999987,0.0223075999999999,0.0086958000000005,-0.0201899999999991,-0.0054361999999999,0,sub_17
-0.0252684000000002,-0.0067151999999987,0.0237463999999999,0.0084892000000005,-0.0186979999999991,-0.0054395999999999,0,sub_17
-0.0248814000000001,-0.0070711999999987,0.0252099999999999,0.0074396000000005,-0.0159203999999991,-0.0065187999999999,0,sub_17
-0.0234382000000001,-0.0068713999999987,0.0264427999999999,0.0066126000000005,-0.0145151999999991,-0.0075779999999999,0,sub_17
-0.0219932000000001,-0.0063123999999987,0.0275775999999999,0.0059932000000005,-0.0137523999999991,-0.0079941999999999,0,sub_17
-0.0209404000000001,-0.0065663999999987,0.0277021999999999,0.0058006000000005,-0.0125667999999991,-0.0079803999999999,0,sub_17
-0.0197508000000001,-0.0074975999999986,0.0268673999999999,0.0047344000000005,-0.0154277999999991,-0.0075403999999999,0,sub_17
-0.0194450000000001,-0.0073609999999986,0.0256083999999999,0.0043112000000005,-0.0168031999999991,-0.0062431999999999,0,sub_17
-0.0210290000000001,-0.0068577999999986,0.0246959999999999,0.0045208000000005,-0.0163829999999991,-0.0049603999999999,0,sub_17
-0.0221048000000002,-0.0074229999999986,0.0235237999999999,0.0034568000000005,-0.0153157999999991,-0.0045417999999999,0,sub_17
-0.0217230000000002,-0.0075765999999986,0.0239501999999999,0.0026230000000005,-0.0142021999999991,-0.0047475999999999,0,sub_17
-0.0217234000000002,-0.0068153999999986,0.0254991999999999,0.0024466000000005,-0.0084071999999991,-0.0041001999999999,0,sub_17
-0.0223426000000002,-0.0067557999999986,0.0269205999999999,0.0014100000000005,-0.0045247999999991,-0.0038833999999999,0,sub_17
-0.0217292000000002,-0.0074549999999987,0.0278487999999999,-0.0002799999999994,-0.0042595999999991,-0.0043075999999999,0,sub_17
-0.0207172000000001,-0.0066269999999987,0.0277741999999999,-0.0013307999999994,-0.0039975999999991,-0.0045137999999999,0,sub_17
-0.0201320000000001,-0.0056055999999987,0.0276341999999999,-0.0019611999999994,-0.0010159999999991,-0.0036673999999999,0,sub_17
-0.0196262000000001,-0.0057447999999987,0.0262505999999999,-0.0021697999999994,0.0006866000000008,-0.0030299999999999,0,sub_17
-0.0203290000000001,-0.0055389999999987,0.0245647999999999,-0.0019621999999994,4.4000000000872246e-05,-0.0023867999999999,0,sub_17
-0.0209360000000001,-0.0046995999999987,0.0226379999999999,-0.0009039999999994,-0.0016649999999991,-0.0021635999999999,0,sub_17
-0.0207874000000002,-0.0044207999999986,0.0227037999999999,0.0003888000000005,0.0012738000000008,-0.0014897999999999,0,sub_17
-0.0207114000000002,-0.0046167999999987,0.0233025999999999,0.0006156000000005,0.0044292000000008,-0.0008237999999999,0,sub_17
-0.0207878000000001,-0.0041687999999986,0.0248595999999999,0.0010396000000005,0.0035376000000008,-0.0005785999999999,0,sub_17
-0.0190568000000001,-0.0033545999999986,0.0272811999999999,0.0003948000000005,0.0024358000000008,-0.0001269999999999,0,sub_17
-0.0186820000000001,-0.0033541999999986,0.0292491999999999,-2.899999999949141e-05,0.0034622000000008,0.0007508,0,sub_17
-0.0188872000000001,-0.0044027999999986,0.0289671999999999,-0.0004749999999994,-0.0005851999999991,0.0009664,0,sub_17
-0.0186064000000001,-0.0049557999999986,0.0286771999999999,-0.0002779999999994,-0.0048443999999991,0.0003322,0,sub_17
-0.0188904000000002,-0.0055903999999986,0.0283079999999999,-0.0002621999999994,-0.0032053999999991,-0.0002851999999999,0,sub_17
-0.0188724000000002,-0.0066523999999987,0.0274187999999999,-3.859999999949134e-05,-0.0030577999999991,-0.0011127999999999,0,sub_17
-0.0172534000000002,-0.0065221999999986,0.0269519999999999,0.0005924000000005,-0.0071727999999991,-0.0019321999999999,0,sub_17
-0.0181196000000002,-0.0052317999999986,0.0268803999999999,0.0018694000000004,-0.0087383999999991,-0.0014681999999999,0,sub_17
-0.0207214000000001,-0.0042979999999986,0.0257821999999999,0.0033608000000004,-0.0105161999999991,-0.0014297999999999,0,sub_17
-0.0233636000000001,-0.0036379999999986,0.0235621999999999,0.0050526000000004,-0.0147799999999991,-0.0022669999999999,0,sub_17
-0.0229228000000001,-0.0038325999999986,0.0234595999999999,0.0071988000000004,-0.0130787999999991,-0.0033223999999999,0,sub_17
-0.0228564000000001,-0.0043393999999987,0.0241813999999999,0.0085174000000004,-0.0045611999999991,-0.0033239999999999,0,sub_17
-0.0214106000000001,-0.0049633999999987,0.0255895999999999,0.0083068000000004,-0.0047701999999991,-0.0041797999999999,0,sub_17
-0.0192730000000002,-0.0055565999999987,0.0255311999999999,0.0080694000000004,-0.0082023999999991,-0.0045721999999999,0,sub_17
-0.0163106000000002,-0.0058595999999987,0.0262935999999999,0.0078338000000004,-0.0103595999999991,-0.0041115999999999,0,sub_17
-0.0172548000000002,-0.0051885999999987,0.0261521999999999,0.0069620000000004,-0.0110257999999991,-0.0030165999999999,0,sub_17
-0.0183992000000002,-0.0050221999999987,0.0262277999999999,0.0058722000000004,-0.0136053999999991,-0.0027751999999999,0,sub_17
-0.0191916000000002,-0.0059937999999987,0.0264009999999999,0.0056550000000004,-0.0119267999999991,-0.0025331999999999,0,sub_17
-0.0193150000000002,-0.0060469999999987,0.0268969999999999,0.0043728000000004,-0.0121361999999991,-0.0023283999999999,0,sub_17
-0.0205022000000002,-0.0059881999999987,0.0266141999999999,0.0024468000000004,-0.0123467999999991,-0.0012733999999999,0,sub_17
-0.0209992000000002,-0.0058515999999987,0.0250425999999999,0.0018000000000004,-0.0134113999999991,-0.0008491999999999,0,sub_17
-0.0205894000000002,-0.0052909999999987,0.0244045999999999,0.0017874000000004,-0.0123371999999991,-0.0003899999999999,0,sub_17
-0.0205582000000002,-0.0045569999999987,0.0236917999999999,0.0015624000000005,-0.0108371999999991,0.0002808,0,sub_17
-0.0215794000000002,-0.0046871999999987,0.0238755999999999,0.0019756000000005,-0.0093409999999991,0.0013836,0,sub_17
-0.0214736000000002,-0.0055013999999987,0.0243385999999999,0.0028118000000005,-0.0101839999999991,0.0009966,0,sub_17
-0.0200888000000002,-0.0060071999999987,0.0254329999999999,0.0027992000000005,-0.0101709999999991,0.000389,0,sub_17
-0.0184368000000002,-0.0061913999999987,0.0256071999999999,0.0013008000000005,-0.0118675999999991,-0.0002601999999999,0,sub_17
-0.0162676000000002,-0.0058463999999987,0.0260317999999999,7.200000000508969e-06,-0.0152701999999991,-0.0006919999999999,0,sub_17
-0.0150944000000002,-0.0053609999999987,0.0264851999999999,-0.0015035999999994,-0.0193121999999991,-0.0009111999999999,0,sub_17
-0.0158930000000002,-0.0037321999999987,0.0265627999999999,-0.0025883999999994,-0.0207907999999991,-0.0004613999999999,0,sub_17
-0.0183978000000002,-0.0036165999999987,0.0257143999999999,-0.0043227999999994,-0.0241853999999991,0.0002,0,sub_17
-0.0201490000000002,-0.0047589999999987,0.0256337999999999,-0.0051941999999994,-0.0258769999999991,0.000438,0,sub_17
-0.0215310000000002,-0.0045323999999987,0.0251331999999999,-0.0058195999999994,-0.0201131999999991,0.0008816,0,sub_17
-0.0200788000000002,-0.0043527999999987,0.0253523999999999,-0.0062171999999994,-0.0113665999999991,0.0011096,0,sub_17
-0.0183528000000002,-0.0047931999999987,0.0262731999999999,-0.0061941999999994,-0.0060409999999991,0.0013166,0,sub_17
-0.0171820000000002,-0.0049367999999987,0.0268365999999999,-0.0066199999999994,-0.0064629999999991,0.0006732,0,sub_17
-0.0155148000000001,-0.0049413999999987,0.0254473999999999,-0.0068551999999994,-0.0100713999999991,0.0004816,0,sub_17
-0.0126400000000001,-0.0052547999999987,0.0242759999999999,-0.0066683999999994,-0.0153831999999991,-0.0003457999999999,0,sub_17
-0.0103228000000001,-0.0041893999999987,0.0226471999999999,-0.0090353999999994,-0.0194067999999991,-0.0014063999999999,0,sub_17
-0.0053520000000001,-0.0034705999999987,0.0194671999999999,-0.0137609999999994,-0.0272519999999991,-0.0037603999999999,0,sub_17
0.0031127999999997,-0.0023859999999987,0.0166061999999999,-0.0155185999999994,-0.0387321999999991,-0.0054481999999999,0,sub_17
0.0092535999999997,1.5400000001277412e-05,0.0149327999999999,-0.0155875999999994,-0.0559817999999991,-0.0073493999999999,0,sub_17
0.0138243999999997,0.0025232000000012,0.0121609999999999,-0.0152683999999994,-0.0821793999999991,-0.0096635999999999,0,sub_17
0.0174511999999997,0.0038460000000012,0.0106791999999999,-0.0094455999999994,-0.1192577999999991,-0.0129937999999999,0,sub_17
0.0188399999999997,0.0058346000000012,0.0116047999999999,0.0008668000000005,-0.1527367999999991,-0.0145879999999999,0,sub_17
0.0117793999999997,0.0055684000000012,0.0172671999999999,0.0122688000000005,-0.1759709999999991,-0.0146737999999999,0,sub_17
-0.0050054000000002,0.0011264000000012,0.0273785999999999,0.0237332000000005,-0.1838713999999991,-0.0132835999999999,0,sub_17
-0.0220750000000002,-0.0042405999999987,0.0386355999999999,0.0339586000000004,-0.1796353999999991,-0.0089265999999999,0,sub_17
-0.0490032000000002,-0.0119923999999987,0.0499105999999999,0.0395722000000004,-0.1559993999999991,-0.0035581999999999,0,sub_17
-0.0742510000000002,-0.0213213999999987,0.0602401999999999,0.0392756000000004,-0.1187045999999991,0.0011104,0,sub_17
-0.0920442000000002,-0.0276283999999987,0.0663415999999999,0.0343608000000004,-0.0690607999999991,0.004858,0,sub_17
-0.0982996000000002,-0.0294329999999987,0.0671569999999999,0.0273516000000004,-0.0106743999999991,0.00858,0,sub_17
-0.0967458000000002,-0.0298291999999987,0.0648911999999999,0.0188528000000004,0.0520250000000008,0.0112338,0,sub_17
-0.0830864000000002,-0.0273855999999987,0.0603407999999999,0.0107530000000005,0.1091810000000008,0.0145382,0,sub_17
-0.0666360000000002,-0.0214413999999987,0.0521807999999999,0.0017470000000005,0.1558952000000008,0.0191316,0,sub_17
-0.0466448000000002,-0.0161123999999987,0.0394823999999999,-0.0088283999999994,0.1845102000000008,0.0224554,0,sub_17
-0.0240240000000002,-0.0083147999999987,0.0256169999999999,-0.0186309999999994,0.1914064000000008,0.0219668,0,sub_17
-0.0042762000000002,-0.0004317999999987,0.0122881999999999,-0.0235805999999994,0.1778052000000008,0.0176768,0,sub_17
0.0186333999999997,0.0093722000000012,-0.002044,-0.0234715999999994,0.1482156000000008,0.0113062,0,sub_17
0.0400363999999997,0.0148258000000012,-0.0125,-0.0157445999999994,0.1043256000000008,0.0047934,0,sub_17
0.0524771999999997,0.0172158000000012,-0.0133232,-0.0029789999999994,0.0468380000000008,5.240000000002079e-05,0,sub_17
0.0549543999999997,0.0148702000000012,-0.0119402,0.0082584000000005,-0.0153435999999991,-0.0017023999999999,0,sub_17
0.0500527999999998,0.0108102000000012,-0.0072086,0.0137242000000005,-0.0794241999999991,-0.0030677999999999,0,sub_17
0.0365791999999998,0.0049846000000012,0.0022445999999999,0.0151714000000005,-0.1375173999999991,-0.0063915999999999,0,sub_17
0.0205555999999997,0.0003630000000012,0.0130157999999999,0.0141118000000004,-0.1868537999999991,-0.0129488,0,sub_17
0.0077687999999997,-0.0019261999999987,0.0193853999999999,0.0099234000000004,-0.2230329999999991,-0.0193411999999999,0,sub_17
-0.0068700000000002,-0.0027773999999987,0.0257723999999999,0.0032170000000004,-0.2477069999999991,-0.0236293999999999,0,sub_17
-0.0208226000000001,-0.0042957999999987,0.0320169999999999,-0.0010179999999995,-0.2440555999999991,-0.0272955999999999,0,sub_17
-0.0364200000000001,-0.0073163999999987,0.0342171999999999,-0.0028597999999994,-0.2246687999999991,-0.0254105999999999,0,sub_17
-0.0526026000000001,-0.0113547999999987,0.0372803999999999,-0.0059259999999994,-0.1915781999999991,-0.0209817999999999,0,sub_17
-0.0670214000000001,-0.0142329999999987,0.0407533999999999,-0.0082829999999994,-0.1433621999999991,-0.0167809999999999,0,sub_17
-0.0713810000000001,-0.0159911999999987,0.0455161999999999,-0.0096897999999994,-0.0729941999999991,-0.0119609999999999,0,sub_17
-0.0732788000000002,-0.0169005999999987,0.0492035999999999,-0.0130185999999994,-0.0002869999999991,-0.0043801999999999,0,sub_17
-0.0668700000000002,-0.0169013999999987,0.0550293999999999,-0.0176603999999994,0.0626344000000008,0.0006402,0,sub_17
-0.0581874000000001,-0.0145291999999987,0.0578435999999999,-0.0221331999999994,0.1184444000000008,0.0071604,0,sub_17
-0.0495716000000001,-0.0131239999999987,0.0582985999999999,-0.0240971999999994,0.1618916000000008,0.0128594,0,sub_17
-0.0420458000000001,-0.0109607999999987,0.0538987999999999,-0.0232005999999994,0.1750834000000008,0.0164806,0,sub_17
-0.0320122000000001,-0.0096015999999987,0.0473619999999999,-0.0195903999999994,0.1717002000000008,0.0188834,0,sub_17
-0.0216434000000001,-0.0057887999999987,0.0390851999999999,-0.0123651999999994,0.1632004000000008,0.018968,0,sub_17
