userAcceleration.x,userAcceleration.y,userAcceleration.z,rotationRate.x,rotationRate.y,rotationRate.z,label,subject
0.0099055999999996,0.0015566000000013,-0.0252245999999999,0.0167928000000006,0.0383840000000007,0.0017293999999998,0,sub_3
0.0098157999999996,0.0012302000000013,-0.0251863999999999,0.0210688000000006,0.0404986000000007,0.0019701999999998,0,sub_3
0.0097073999999996,0.0007228000000013,-0.0253849999999999,0.0270442000000006,0.0402664000000007,0.0015847999999998,0,sub_3
0.0094733999999996,0.0004356000000013,-0.0256011999999999,0.0306514000000006,0.0364164000000007,0.0022557999999998,0,sub_3
0.0107333999999996,0.0023630000000013,-0.0261157999999999,0.0340376000000006,0.0312868000000007,0.0033543999999998,0,sub_3
0.0105213999999996,0.0029824000000013,-0.0267273999999999,0.0355570000000006,0.0251020000000007,0.0040223999999998,0,sub_3
0.0099327999999996,0.0033326000000013,-0.0261753999999999,0.0349726000000006,0.0244684000000007,0.0036003999999998,0,sub_3
0.0094227999999996,0.0047230000000013,-0.0265521999999999,0.0329096000000006,0.0295814000000007,0.0012463999999998,0,sub_3
0.0090645999999995,0.0055326000000013,-0.0272731999999999,0.0325928000000006,0.0423624000000007,-0.0021734,0,sub_3
0.0080397999999995,0.0039574000000013,-0.0270965999999999,0.0316532000000005,0.0594052000000007,-0.0051758,0,sub_3
0.0089003999999995,0.0033662000000013,-0.0280451999999999,0.0319498000000005,0.0800606000000007,-0.0073282,0,sub_3
0.0094859999999995,0.0033420000000013,-0.0288901999999999,0.0345770000000005,0.0985712000000007,-0.007966,0,sub_3
0.0113125999999995,0.0025292000000013,-0.0301631999999999,0.0384838000000006,0.1147438000000007,-0.0064638,0,sub_3
0.0134853999999996,0.0015518000000013,-0.0315985999999999,0.0440822000000006,0.1285628000000007,-0.0038786,0,sub_3
0.0151031999999996,0.0009478000000013,-0.0340085999999999,0.0506428000000006,0.1405716000000007,-0.0016212,0,sub_3
0.0157211999999996,8.400000000130517e-05,-0.0355067999999999,0.0576244000000006,0.1504518000000007,-0.0002126,0,sub_3
0.0167667999999996,-0.0009429999999986,-0.0371229999999999,0.0641630000000006,0.1562872000000008,0.0007707999999999,0,sub_3
0.0171233999999996,-0.0018817999999986,-0.0372891999999999,0.0674780000000006,0.1561716000000007,0.0008845999999999,0,sub_3
0.0168117999999996,-0.0015351999999986,-0.0376055999999999,0.0712122000000006,0.1541378000000007,0.0007901999999999,0,sub_3
0.0164235999999996,-0.0010503999999986,-0.0375517999999999,0.0748280000000005,0.1509320000000008,0.0001785999999999,0,sub_3
0.0161783999999996,-0.0006559999999986,-0.0375515999999999,0.0769426000000005,0.1464512000000007,-1.4600000000088478e-05,0,sub_3
0.0169241999999995,-0.0010291999999986,-0.0374451999999999,0.0777780000000005,0.1413392000000007,-0.0010704,0,sub_3
0.0180083999999996,-0.0015729999999986,-0.0377415999999999,0.0784284000000005,0.1372860000000008,-0.0011192,0,sub_3
0.0196991999999995,-0.0026309999999986,-0.0380969999999999,0.0754436000000005,0.1309044000000007,-0.0018314,0,sub_3
0.0219267999999995,-0.0034485999999986,-0.0384531999999999,0.0709682000000006,0.1243182000000007,-0.0034084,0,sub_3
0.0240289999999995,-0.0044055999999986,-0.0385733999999999,0.0652174000000006,0.1175286000000007,-0.0062758,0,sub_3
0.0256287999999996,-0.0045787999999986,-0.0387051999999999,0.0584006000000006,0.1109558000000007,-0.009151,0,sub_3
0.0274781999999996,-0.0041021999999986,-0.0391721999999999,0.0526252000000005,0.1048092000000007,-0.0121746,0,sub_3
0.0287671999999996,-0.0042295999999986,-0.0388829999999999,0.0468374000000006,0.0971662000000007,-0.0139144,0,sub_3
0.0303629999999995,-0.0034623999999986,-0.0392353999999999,0.0420982000000006,0.0875936000000007,-0.0135078,0,sub_3
0.0303885999999996,-0.0038693999999986,-0.0384851999999999,0.0397228000000006,0.0771498000000007,-0.0116678,0,sub_3
0.0297727999999995,-0.0052125999999986,-0.0386481999999999,0.0371140000000006,0.0635056000000007,-0.0085434,0,sub_3
0.0303977999999995,-0.0057397999999986,-0.0387075999999999,0.0336334000000006,0.0458166000000007,-0.00542,0,sub_3
0.0316027999999996,-0.0051469999999986,-0.0387959999999999,0.0305844000000006,0.0279182000000007,-0.0035752,0,sub_3
0.0310855999999995,-0.0060501999999986,-0.0375245999999999,0.0247750000000006,0.0104656000000007,-0.004314,0,sub_3
0.0324129999999995,-0.0075817999999986,-0.0376109999999999,0.0142364000000006,-0.0110043999999992,-0.0073512,0,sub_3
0.0340647999999996,-0.0072061999999986,-0.0366045999999999,0.0028556000000006,-0.0316121999999992,-0.0121046,0,sub_3
0.0319701999999995,-0.0070637999999986,-0.0358087999999999,-0.0089355999999993,-0.0479599999999992,-0.0162252,0,sub_3
0.0283493999999995,-0.0078317999999986,-0.0347229999999999,-0.0218385999999993,-0.0628993999999992,-0.0185594,0,sub_3
0.0259771999999995,-0.0058159999999986,-0.0334411999999999,-0.0317591999999993,-0.0759435999999992,-0.0178842,0,sub_3
0.0238659999999995,-0.0021211999999987,-0.0323769999999999,-0.0367615999999993,-0.0839027999999992,-0.0144038,0,sub_3
0.0203209999999995,6.980000000126563e-05,-0.0317401999999999,-0.0389833999999993,-0.0876217999999992,-0.008132,0,sub_3
0.0181501999999995,0.0002340000000012,-0.0308973999999999,-0.0394913999999993,-0.0894309999999992,-0.0014234,0,sub_3
0.0174077999999995,0.0008424000000012,-0.0301971999999999,-0.0375919999999993,-0.0896687999999992,0.0030765999999999,0,sub_3
0.0173633999999995,-0.0007231999999986,-0.0302759999999999,-0.0363299999999993,-0.0911747999999992,0.0056509999999999,0,sub_3
0.0164897999999996,-0.0020413999999986,-0.0302907999999999,-0.0372045999999993,-0.0937369999999992,0.0077845999999999,0,sub_3
0.0160683999999995,-0.0024349999999986,-0.0301607999999999,-0.0396923999999993,-0.0982715999999992,0.0074091999999999,0,sub_3
0.0159921999999995,-0.0010629999999987,-0.0296639999999999,-0.0434605999999993,-0.1042871999999992,0.0055311999999999,0,sub_3
0.0153001999999995,-0.0002355999999987,-0.0294505999999999,-0.0476563999999993,-0.1098775999999992,0.0042905999999999,0,sub_3
0.0130319999999995,0.0006926000000012,-0.0299461999999999,-0.0514071999999993,-0.1114215999999991,0.0030479999999999,0,sub_3
0.0106527999999995,0.0024440000000012,-0.0308307999999999,-0.0532145999999993,-0.1076467999999992,0.0020257999999999,0,sub_3
0.0099069999999995,0.0035216000000012,-0.0318321999999999,-0.0525409999999993,-0.0999799999999992,0.0022343999999999,0,sub_3
0.0090887999999995,0.0030944000000013,-0.0299891999999999,-0.0497305999999993,-0.0904081999999992,0.0037371999999999,0,sub_3
0.0077723999999995,0.0028886000000013,-0.0273869999999999,-0.0462897999999993,-0.0812715999999992,0.0069541999999999,0,sub_3
0.0060111999999995,0.0027402000000013,-0.0235943999999999,-0.0454103999999993,-0.0727635999999992,0.0097267999999999,0,sub_3
0.0004475999999996,0.0059482000000013,-0.0180637999999999,-0.0445601999999993,-0.0609537999999992,0.0112257999999999,0,sub_3
-0.0056968000000003,0.0073958000000012,-0.0125417999999999,-0.0387599999999993,-0.0410599999999992,0.0114669999999999,0,sub_3
-0.0098138000000003,0.0106208000000012,-0.0112079999999999,-0.0297103999999993,-0.0098873999999992,0.0121437999999998,0,sub_3
-0.0068536000000003,0.0103660000000013,-0.0137625999999999,-0.0221449999999993,0.0206622000000007,0.0100335999999998,0,sub_3
-0.0025260000000003,0.0114574000000013,-0.0176461999999999,-0.0126781999999993,0.0448222000000007,0.0058083999999998,0,sub_3
0.0060985999999996,0.0067546000000013,-0.0237681999999999,-0.0074995999999993,0.0512214000000007,-0.0005730000000001,0,sub_3
0.0126617999999996,0.0040226000000013,-0.0306937999999999,-0.0126493999999993,0.0365718000000007,-0.0089224000000001,0,sub_3
0.0172017999999996,0.0011274000000013,-0.0366441999999999,-0.0229987999999993,0.0042576000000007,-0.017499,0,sub_3
0.0151043999999996,0.0018232000000013,-0.0404955999999999,-0.0327279999999993,-0.0295619999999992,-0.0230782,0,sub_3
0.0126683999999996,0.0022818000000013,-0.0426165999999999,-0.0409967999999993,-0.0587761999999992,-0.023733,0,sub_3
0.0104013999999996,0.0045442000000013,-0.0434635999999999,-0.0415485999999993,-0.0737681999999992,-0.017943,0,sub_3
0.0105527999999995,0.0056680000000013,-0.0433965999999999,-0.0343881999999993,-0.0760275999999992,-0.0061334,0,sub_3
0.0114407999999995,0.0050938000000013,-0.0433377999999999,-0.0240031999999993,-0.0719109999999992,0.0067587999999999,0,sub_3
0.0123627999999995,0.0045806000000013,-0.0417211999999999,-0.0135981999999993,-0.0641689999999992,0.0187917999999998,0,sub_3
0.0131977999999995,0.0012556000000013,-0.0416829999999999,-0.0061349999999993,-0.0552867999999992,0.0288737999999998,0,sub_3
0.0150881999999995,-0.0014169999999986,-0.0430537999999999,-0.0046299999999993,-0.0480669999999992,0.0335751999999999,0,sub_3
0.0159491999999996,-0.0031395999999986,-0.0440595999999999,-0.0090839999999993,-0.0437833999999992,0.0318295999999998,0,sub_3
0.0162807999999996,-0.0040693999999986,-0.0454007999999999,-0.0175805999999993,-0.0426583999999992,0.0242913999999999,0,sub_3
0.0134451999999996,-0.0033835999999986,-0.0482369999999999,-0.0266687999999993,-0.0432817999999992,0.0153129999999999,0,sub_3
0.0121419999999996,-0.0008027999999986,-0.0504155999999999,-0.0333991999999993,-0.0417819999999991,0.0061347999999999,0,sub_3
0.0109415999999996,0.0006106000000013,-0.0511557999999999,-0.0341543999999993,-0.0369069999999992,0.0001985999999999,0,sub_3
0.0119647999999996,0.0011768000000013,-0.0517541999999999,-0.0319481999999993,-0.0318533999999991,0.0002647999999999,0,sub_3
0.0134417999999996,0.0026566000000013,-0.0517607999999999,-0.0272171999999993,-0.0287499999999991,0.0063331999999999,0,sub_3
0.0175911999999996,0.0030158000000013,-0.0500655999999999,-0.0199951999999993,-0.0266823999999992,0.0157813999999999,0,sub_3
0.0195747999999996,0.0018528000000013,-0.0480219999999999,-0.0113025999999993,-0.0282477999999992,0.0267397999999998,0,sub_3
0.0192601999999996,0.0011536000000013,-0.0455907999999999,-0.0050013999999993,-0.0348869999999992,0.0379337999999998,0,sub_3
0.0165957999999996,0.0005694000000013,-0.0435265999999999,0.0017428000000006,-0.0406643999999992,0.0463523999999998,0,sub_3
0.0132385999999995,0.0006830000000013,-0.0408479999999999,0.0072432000000006,-0.0421607999999992,0.0509111999999998,0,sub_3
0.0109749999999996,-0.0001223999999986,-0.0380281999999999,0.0108644000000006,-0.0408551999999991,0.0490439999999998,0,sub_3
0.0098563999999995,0.0001832000000013,-0.0353879999999999,0.0130236000000006,-0.0367577999999991,0.0428901999999998,0,sub_3
0.0105045999999995,0.0004656000000013,-0.0337433999999999,0.0137328000000006,-0.0311813999999991,0.0330603999999998,0,sub_3
0.0125609999999995,0.0010582000000013,-0.0308555999999999,0.0127224000000006,-0.0296419999999991,0.0219417999999998,0,sub_3
0.0153639999999995,0.0002624000000013,-0.0285961999999999,0.0114682000000006,-0.0334341999999992,0.0123237999999998,0,sub_3
0.0169507999999995,0.0011296000000013,-0.0266801999999999,0.0100344000000006,-0.0409341999999992,0.0082681999999998,0,sub_3
0.0188119999999995,0.0019772000000013,-0.0238033999999999,0.0085690000000006,-0.0518573999999992,0.0078485999999998,0,sub_3
0.0194511999999996,0.0027256000000013,-0.0205947999999999,0.0068728000000006,-0.0636439999999992,0.0104195999999999,0,sub_3
0.0189539999999996,0.0017558000000013,-0.0192369999999999,0.0043462000000006,-0.0690411999999992,0.0142585999999999,0,sub_3
0.0209379999999996,0.0035324000000012,-0.0197627999999999,0.0014196000000006,-0.0682591999999992,0.0183003999999999,0,sub_3
0.0237661999999995,0.0041660000000012,-0.0207337999999999,-0.0039165999999993,-0.0648469999999991,0.0221043999999999,0,sub_3
0.0235695999999996,0.0035046000000012,-0.0217553999999999,-0.0115885999999993,-0.0605677999999991,0.0241817999999999,0,sub_3
0.0241237999999996,0.0033764000000012,-0.0230261999999999,-0.0194593999999993,-0.0554261999999991,0.0239065999999999,0,sub_3
0.0247541999999995,0.0052488000000012,-0.0239367999999999,-0.0258395999999993,-0.0519897999999991,0.0225755999999999,0,sub_3
0.0225667999999996,0.0033246000000012,-0.0241477999999999,-0.0306265999999993,-0.0511955999999991,0.0206377999999999,0,sub_3
0.0194311999999996,0.0023846000000012,-0.0247443999999999,-0.0328511999999993,-0.0516817999999992,0.0170101999999999,0,sub_3
0.0183755999999995,0.0028590000000013,-0.0264953999999999,-0.0320835999999993,-0.0509007999999992,0.0136155999999999,0,sub_3
0.0159179999999996,0.0020978000000013,-0.0287997999999999,-0.0291815999999993,-0.0486409999999992,0.0115157999999999,0,sub_3
0.0153833999999995,0.0024614000000013,-0.0305481999999999,-0.0243753999999993,-0.0481001999999992,0.0113545999999998,0,sub_3
0.0149169999999995,0.0027538000000013,-0.0318743999999999,-0.0194917999999993,-0.0519581999999992,0.0128891999999998,0,sub_3
0.0185121999999995,0.0032874000000013,-0.0323879999999999,-0.0139815999999993,-0.0581645999999992,0.0150721999999998,0,sub_3
0.0182117999999995,0.0034694000000013,-0.0340661999999999,-0.0081547999999993,-0.0658779999999992,0.0187329999999998,0,sub_3
0.0180319999999995,0.0040592000000013,-0.0347189999999999,-0.0034003999999993,-0.0735925999999992,0.0236681999999998,0,sub_3
0.0164927999999995,0.0033034000000013,-0.0360209999999999,-0.0016159999999993,-0.0778861999999991,0.0281507999999998,0,sub_3
0.0180989999999995,0.0048232000000013,-0.0350715999999999,0.0024858000000006,-0.0858219999999991,0.0356451999999998,0,sub_3
0.0126535999999995,0.0036868000000013,-0.0356597999999999,0.0034676000000006,-0.0798819999999991,0.0390407999999998,0,sub_3
0.0117963999999995,0.0022354000000013,-0.0349981999999999,0.0026526000000006,-0.0696591999999991,0.0407309999999999,0,sub_3
0.0106791999999995,0.0018428000000013,-0.0342447999999999,0.0005726000000006,-0.0581451999999991,0.0402743999999999,0,sub_3
0.0116229999999995,0.0025710000000013,-0.0333317999999999,-0.0014911999999993,-0.0451311999999992,0.0376793999999999,0,sub_3
0.0085923999999995,0.0020948000000013,-0.0337953999999999,-0.0057091999999993,-0.0197295999999992,0.0294337999999999,0,sub_3
0.0093531999999995,0.0030598000000013,-0.0325063999999999,-0.0054989999999993,-0.0028785999999992,0.0244347999999999,0,sub_3
0.0077775999999995,0.0060098000000012,-0.0283601999999999,-0.0008177999999993,0.0111894000000007,0.0188295999999999,0,sub_3
0.0048745999999995,0.0081914000000012,-0.0252637999999999,0.0083366000000006,0.0250228000000007,0.0147513999999999,0,sub_3
-0.0005514000000003,0.0090422000000012,-0.0231571999999999,0.0217634000000006,0.0420286000000007,0.0128355999999999,0,sub_3
-0.0041200000000003,0.0099396000000012,-0.0216609999999999,0.0374432000000006,0.0637106000000007,0.0116355999999999,0,sub_3
-0.0046258000000003,0.0089764000000012,-0.0208741999999999,0.0529200000000006,0.0866760000000007,0.0093641999999999,0,sub_3
-0.0013362000000003,0.0044232000000013,-0.0245619999999999,0.0613576000000006,0.1090312000000007,0.0059761999999999,0,sub_3
0.0045959999999996,0.0015192000000013,-0.0297415999999999,0.0625762000000006,0.1258950000000007,0.0011617999999999,0,sub_3
0.0103937999999995,-0.0076653999999986,-0.0347853999999999,0.0584250000000006,0.1336212000000007,-0.0049602,0,sub_3
0.0163063999999995,-0.0086213999999986,-0.0375691999999999,0.0484522000000006,0.1300672000000007,-0.008972,0,sub_3
0.0202621999999996,-0.0104747999999986,-0.0414271999999999,0.0375550000000006,0.1147820000000007,-0.008916,0,sub_3
0.0222657999999996,-0.0076239999999986,-0.0421429999999999,0.0308696000000006,0.0913690000000007,-0.0045472000000001,0,sub_3
0.0253435999999995,-0.0097667999999986,-0.0408167999999999,0.0275366000000006,0.0668594000000007,0.0003747999999998,0,sub_3
0.0277759999999995,0.0016836000000013,-0.0378527999999999,0.0237730000000006,0.0434090000000007,0.0072151999999998,0,sub_3
0.0293815999999995,-0.0010659999999986,-0.0377951999999999,0.0206678000000006,0.0203970000000007,0.0104275999999998,0,sub_3
0.0298915999999995,-0.0006011999999986,-0.0355859999999999,0.0126906000000006,-0.0004441999999992,0.0078347999999998,0,sub_3
0.0277303999999995,-0.0092425999999986,-0.0351217999999999,0.0012134000000006,-0.0171151999999992,-0.0062156,0,sub_3
0.0231005999999996,-0.0049579999999986,-0.0311609999999999,-0.0156181999999993,-0.0312389999999992,-0.0132564,0,sub_3
0.0177077999999995,-0.0082191999999986,-0.0300431999999999,-0.0275219999999993,-0.0411181999999992,-0.0204818,0,sub_3
0.0123397999999995,-0.0055321999999986,-0.0279889999999999,-0.0364175999999993,-0.0435619999999992,-0.0249184,0,sub_3
0.0066979999999995,-0.0027555999999986,-0.0272325999999999,-0.0395281999999993,-0.0364555999999992,-0.0250538,0,sub_3
0.0046307999999995,0.0064844000000012,-0.0268435999999999,-0.0408005999999993,-0.0243489999999992,-0.0146096,0,sub_3
0.0020567999999995,0.0061532000000012,-0.0309091999999999,-0.0358517999999993,-0.0096877999999992,-0.0090390000000001,0,sub_3
0.0012679999999996,0.0086286000000012,-0.0314359999999999,-0.0292809999999993,0.0089334000000007,-0.0119006000000001,0,sub_3
0.0011723999999996,0.0109726000000012,-0.0314211999999999,-0.0229809999999993,0.0215626000000007,-0.0079196000000001,0,sub_3
0.0025401999999996,0.0101912000000012,-0.0326863999999999,-0.0147607999999993,0.0322752000000007,-0.0058456000000001,0,sub_3
0.0042557999999996,0.0087086000000013,-0.0334795999999999,-0.0048499999999993,0.0391478000000007,-0.0039684000000001,0,sub_3
0.0086917999999996,-0.0016223999999986,-0.0360313999999999,0.0059030000000006,0.0415510000000007,-0.0040026000000001,0,sub_3
0.0129297999999996,-0.0141483999999986,-0.0399901999999999,0.0165486000000006,0.0372492000000007,-0.003068,0,sub_3
0.0200013999999996,-0.0190131999999986,-0.0422351999999999,0.0205460000000006,0.0223308000000007,-0.005371,0,sub_3
0.0241743999999996,-0.0220695999999986,-0.0431273999999999,0.0163712000000006,-0.0038629999999992,-0.0047258,0,sub_3
0.0272207999999996,-0.0241515999999986,-0.0438143999999999,0.0049292000000006,-0.0349231999999992,-0.0062614,0,sub_3
0.0229099999999995,-0.0155827999999986,-0.0424243999999999,-0.0122115999999993,-0.0643801999999992,-0.0094672,0,sub_3
0.0186549999999995,-0.0057415999999986,-0.0388085999999999,-0.0353363999999993,-0.0917027999999992,-0.0084448,0,sub_3
0.0108997999999995,-0.0034393999999986,-0.0374723999999999,-0.0519717999999993,-0.1039031999999991,-0.011883,0,sub_3
0.0032723999999996,0.0003792000000013,-0.0341981999999999,-0.0625655999999993,-0.1022717999999991,-0.0163648,0,sub_3
-0.0042974000000003,0.0041688000000013,-0.0310463999999999,-0.0643755999999993,-0.0896047999999992,-0.017595,0,sub_3
-0.0045386000000003,0.0064396000000013,-0.0275931999999999,-0.0593911999999993,-0.0702433999999992,-0.015235,0,sub_3
-0.0032672000000003,0.0076758000000013,-0.0259847999999999,-0.0505815999999993,-0.0504847999999992,-0.0090032,0,sub_3
-0.0012438000000003,0.0069178000000013,-0.0263717999999999,-0.0418367999999993,-0.0321879999999992,-0.001585,0,sub_3
0.0021045999999996,0.0051356000000013,-0.0294439999999999,-0.0339531999999993,-0.0175025999999992,0.0039089999999999,0,sub_3
0.0052605999999996,0.0037990000000013,-0.0335393999999999,-0.0292729999999993,-0.0070525999999992,0.0057541999999999,0,sub_3
0.0079087999999996,0.0024214000000013,-0.0363367999999999,-0.0269573999999993,-0.0029755999999992,0.0050273999999999,0,sub_3
0.0089229999999996,0.0003050000000013,-0.0388287999999999,-0.0252921999999993,-0.0031497999999992,0.0023785999999999,0,sub_3
0.0098575999999996,0.0003896000000013,-0.0390273999999999,-0.0227277999999993,-0.0050651999999992,-0.0003784,0,sub_3
0.0120867999999996,0.0005860000000013,-0.0393555999999999,-0.0203855999999993,-0.0076239999999992,-0.0018542,0,sub_3
0.0147197999999996,0.0002082000000013,-0.0389507999999999,-0.0172013999999993,-0.0110447999999992,-0.0016138,0,sub_3
0.0179971999999996,-0.0016963999999986,-0.0404969999999999,-0.0150887999999993,-0.0155273999999992,-0.0013798,0,sub_3
0.0218499999999996,-0.0028781999999986,-0.0422025999999999,-0.0154241999999993,-0.0237085999999992,-0.0014318,0,sub_3
0.0245267999999996,-0.0037759999999986,-0.0439983999999999,-0.0187639999999993,-0.0365633999999992,-0.0023532,0,sub_3
0.0232947999999996,-0.0030235999999986,-0.0429365999999999,-0.0229677999999993,-0.0521829999999992,-0.0037046,0,sub_3
0.0215071999999996,-0.0019477999999986,-0.0408407999999999,-0.0282431999999993,-0.0675909999999992,-0.0037818,0,sub_3
0.0182229999999996,0.0002102000000013,-0.0373093999999999,-0.0324429999999993,-0.0791753999999992,-0.0019336,0,sub_3
0.0134487999999996,0.0030236000000013,-0.0347137999999999,-0.0363113999999993,-0.0830063999999992,0.0003943999999999,0,sub_3
0.0090579999999995,0.0050362000000013,-0.0315799999999999,-0.0388633999999993,-0.0791699999999992,0.0022943999999999,0,sub_3
0.0083015999999995,0.0047088000000013,-0.0301081999999999,-0.0398897999999993,-0.0694119999999992,0.0028983999999999,0,sub_3
0.0079443999999995,0.0038748000000013,-0.0305643999999999,-0.0402521999999993,-0.0564519999999991,0.0013661999999999,0,sub_3
0.0075871999999995,0.0032638000000013,-0.0314003999999999,-0.0423119999999993,-0.0430529999999991,-0.0018874,0,sub_3
0.0096525999999995,0.0017644000000013,-0.0308103999999999,-0.0420217999999993,-0.0307205999999991,-0.0068324,0,sub_3
0.0121333999999995,0.0010516000000012,-0.0310281999999999,-0.0400359999999993,-0.0211631999999992,-0.0119756,0,sub_3
0.0126315999999995,0.0002698000000012,-0.0334165999999999,-0.0399889999999993,-0.0143309999999992,-0.015616,0,sub_3
0.0132627999999995,-0.0004155999999987,-0.0353345999999999,-0.0416681999999993,-0.0111173999999992,-0.0186228,0,sub_3
0.0121997999999995,0.0001340000000012,-0.0361625999999999,-0.0431531999999993,-0.0108923999999992,-0.0203426,0,sub_3
0.0097349999999995,0.0032048000000012,-0.0401559999999999,-0.0444343999999993,-0.0098277999999992,-0.019071,0,sub_3
0.0058803999999995,0.0060752000000012,-0.0458889999999999,-0.0450543999999993,-0.0058079999999992,-0.016935,0,sub_3
0.0056739999999995,0.0066930000000012,-0.0468059999999999,-0.0428909999999993,-0.0020015999999992,-0.0171294,0,sub_3
0.0078227999999995,0.0042634000000012,-0.0471541999999999,-0.0377509999999993,0.0007240000000007,-0.0160196,0,sub_3
0.0111525999999996,-0.0022371999999987,-0.0489573999999999,-0.0356105999999993,0.0013270000000007,-0.014287,0,sub_3
0.0141711999999995,-0.0089395999999987,-0.0466251999999999,-0.0392465999999993,-0.0010343999999991,-0.0121638,0,sub_3
0.0196639999999996,-0.0144323999999987,-0.0411795999999999,-0.0424845999999993,-0.0076345999999991,-0.0104688,0,sub_3
0.0192573999999996,-0.0103869999999986,-0.0438143999999999,-0.0472315999999993,-0.0150921999999991,-0.0062194,0,sub_3
0.0176367999999996,-0.0124649999999986,-0.0424281999999999,-0.0562363999999993,-0.0208285999999991,-0.0024294,0,sub_3
0.0184153999999996,-0.0089301999999986,-0.0415261999999999,-0.0623541999999993,-0.0249707999999992,0.0014045999999999,0,sub_3
0.0210539999999996,-0.0017747999999986,-0.0429861999999999,-0.0644151999999993,-0.0310345999999992,0.0027057999999998,0,sub_3
0.0154159999999996,-0.0019437999999986,-0.0468105999999999,-0.0692489999999993,-0.0387853999999992,0.0020669999999998,0,sub_3
0.0159109999999996,-0.0062255999999986,-0.0449963999999999,-0.0757637999999993,-0.0418387999999992,0.0003421999999998,0,sub_3
0.0151115999999996,-0.0011195999999986,-0.0472407999999999,-0.0799017999999993,-0.0440251999999992,-0.0071354000000001,0,sub_3
-0.0026888000000003,0.0087766000000013,-0.0570467999999999,-0.0806777999999993,-0.0420433999999992,-0.0225256000000001,0,sub_3
-0.0087204000000003,0.0091708000000013,-0.0533119999999999,-0.0849797999999993,-0.0484251999999992,-0.0212656,0,sub_3
-0.0095136000000003,0.0155428000000013,-0.0473835999999999,-0.0779279999999993,-0.0439841999999992,-0.0190856,0,sub_3
-0.0140210000000003,0.0166952000000013,-0.0416849999999999,-0.0638215999999993,-0.0353117999999992,-0.01558,0,sub_3
-0.0173342000000003,0.0190998000000013,-0.0378979999999999,-0.0452265999999993,-0.0190089999999992,-0.0060708,0,sub_3
-0.0047474000000003,0.0155086000000013,-0.0256011999999999,-0.0245379999999993,-0.0023251999999992,0.0128529999999999,0,sub_3
-0.0075950000000003,0.0181080000000013,-0.0283281999999999,0.0073638000000006,0.0292788000000007,0.0205127999999999,0,sub_3
-0.0083878000000003,0.0140010000000013,-0.0277891999999999,0.0244538000000006,0.0457886000000007,0.0327887999999998,0,sub_3
-0.0073726000000003,0.0113872000000013,-0.0278767999999999,0.0385268000000006,0.0565530000000007,0.0459055999999998,0,sub_3
-0.0067748000000003,0.0099500000000012,-0.0255323999999999,0.0512946000000006,0.0626314000000007,0.0598739999999998,0,sub_3
