userAcceleration.x,userAcceleration.y,userAcceleration.z,rotationRate.x,rotationRate.y,rotationRate.z,label,subject
5.499999999974431e-05,0.0060330000000012,-0.0040974,0.0052972000000005,0.0052284000000007,0.0105866,0,sub_20
0.0011187999999997,0.0069702000000012,-0.0028264,0.0076606000000005,0.0090542000000007,0.0108119999999999,0,sub_20
0.0012701999999997,0.0076590000000012,-0.0021684,0.0106592000000005,0.0122370000000007,0.0114697999999999,0,sub_20
0.0012787999999997,0.0081876000000012,-0.0023818,0.0115222000000005,0.0145768000000007,0.0116863999999999,0,sub_20
0.0014961999999997,0.0084632000000012,-0.0032518,0.0123848000000005,0.0172918000000007,0.0131651999999999,0,sub_20
0.0011555999999997,0.0093880000000012,-0.0046894,0.0147304000000005,0.0193556000000007,0.0163641999999999,0,sub_20
-0.0001966000000002,0.0092316000000012,-0.0059564,0.0157996000000005,0.0227006000000007,0.0199799999999999,0,sub_20
-0.0009024000000002,0.0091166000000012,-0.0063156,0.0166700000000005,0.0283932000000007,0.0227369999999999,0,sub_20
-0.0011196000000002,0.0088666000000012,-0.005668,0.0192452000000005,0.0325926000000007,0.0244395999999999,0,sub_20
-0.0013024000000002,0.0083430000000012,-0.005146,0.0211588000000005,0.0308822000000007,0.0242413999999999,0,sub_20
-0.0016356000000002,0.0068144000000012,-0.0050144,0.0213654000000005,0.0264194000000007,0.0212575999999999,0,sub_20
-0.0011942000000002,0.0053640000000012,-0.0051948,0.0211492000000005,0.0213248000000007,0.0167759999999999,0,sub_20
-0.0008642000000002,0.0050100000000012,-0.0049002,0.0192286000000005,0.0162466000000007,0.0113878,0,sub_20
-0.0007032000000002,0.0053122000000012,-0.004933,0.0141182000000005,0.0135232000000007,0.0059744,0,sub_20
-0.0012002000000002,0.0057822000000012,-0.003996,0.0071064000000005,0.0152798000000007,0.0007558,0,sub_20
-0.0011348000000002,0.0061726000000012,-0.0033234,0.0007426000000005,0.0191628000000007,-0.0040339999999999,0,sub_20
-0.0006298000000002,0.0069314000000012,-0.0033848,-0.0052003999999994,0.0226150000000007,-0.0079655999999999,0,sub_20
9.679999999974433e-05,0.0069718000000012,-0.004314,-0.0092257999999994,0.0260500000000007,-0.0109889999999999,0,sub_20
0.0007583999999997,0.0076370000000012,-0.0056054,-0.0098477999999994,0.0292516000000007,-0.0118519999999999,0,sub_20
0.0023715999999997,0.0079440000000012,-0.0066186,-0.0081243999999994,0.0325252000000007,-0.0120925999999999,0,sub_20
0.0034857999999997,0.0079098000000012,-0.0071884,-0.0059801999999994,0.0360044000000007,-0.0108347999999999,0,sub_20
0.0040983999999997,0.0081448000000012,-0.0071038,-0.0034205999999994,0.0379862000000007,-0.0085039999999999,0,sub_20
0.0043833999999997,0.0082900000000012,-0.0065582,-0.0017269999999994,0.0380502000000007,-0.0053223999999999,0,sub_20
0.0051501999999997,0.0078638000000012,-0.0064278,-0.0002515999999994,0.0364130000000007,-0.0027809999999999,0,sub_20
0.0047565999999997,0.0073684000000012,-0.0065428,0.0001512000000005,0.0332072000000007,-0.0006375999999999,0,sub_20
0.0046751999999997,0.0073976000000012,-0.0058668,0.0001216000000005,0.0283002000000007,0.0010776,0,sub_20
0.0040981999999997,0.0066950000000012,-0.0054838,9.66000000005974e-05,0.0231854000000007,0.0015111999999999,0,sub_20
0.0033799999999997,0.0066302000000012,-0.0052718,0.0005038000000005,0.0182410000000007,0.0006294,0,sub_20
0.0024657999999997,0.0062918000000012,-0.00485,-0.0001509999999994,0.0135168000000007,-0.0011148,0,sub_20
0.0020561999999997,0.0069570000000012,-0.004602,-0.0001667999999994,0.0079404000000007,-0.0034943999999999,0,sub_20
0.0014437999999997,0.0072536000000012,-0.0049878,-0.0006055999999994,0.0027934000000007,-0.0063047999999999,0,sub_20
0.0012689999999997,0.0079944000000012,-0.0050994,-0.0018937999999994,-0.0008617999999992,-0.008482,0,sub_20
0.0012049999999997,0.0082484000000012,-0.0054354,-0.0027577999999994,-0.0044755999999992,-0.0097653999999999,0,sub_20
0.0008115999999997,0.0085558000000012,-0.0053224,-0.0027721999999994,-0.0078835999999992,-0.0099747999999999,0,sub_20
0.0003675999999997,0.0079876000000012,-0.0050598,-0.0023579999999994,-0.0100179999999992,-0.0093282,0,sub_20
-6.760000000025567e-05,0.0076804000000012,-0.0052908,-0.0017423999999994,-0.0107055999999992,-0.0085175999999999,0,sub_20
-2.500000000025568e-05,0.0077618000000012,-0.0054372,-0.0006991999999994,-0.0118183999999992,-0.0083443999999999,0,sub_20
-1.6800000000255684e-05,0.0078016000000012,-0.0055298,-0.0002921999999994,-0.0127133999999992,-0.0088167999999999,0,sub_20
0.0001051999999997,0.0077234000000012,-0.0057728,0.0001186000000005,-0.0133927999999991,-0.0099303999999999,0,sub_20
0.0003567999999997,0.0069156000000012,-0.006038,-0.0007429999999994,-0.0127875999999991,-0.0114819999999999,0,sub_20
0.0004051999999997,0.0064156000000012,-0.0055514,-0.0015877999999994,-0.0123525999999991,-0.0129839999999999,0,sub_20
0.0005443999999997,0.0055674000000012,-0.0054104,-0.0026449999999994,-0.0114915999999991,-0.0142743999999999,0,sub_20
0.0009537999999997,0.0056520000000012,-0.0052346,-0.0039203999999994,-0.0108461999999991,-0.0147113999999999,0,sub_20
0.0011821999999997,0.0061108000000012,-0.0053286,-0.0058841999999994,-0.0098499999999992,-0.0150111999999999,0,sub_20
0.0014583999999997,0.0075490000000012,-0.005316,-0.0065745999999994,-0.0101375999999992,-0.0150867999999999,0,sub_20
0.0020485999999997,0.0081076000000012,-0.0055385999999999,-0.0068381999999994,-0.0106387999999992,-0.0153727999999999,0,sub_20
0.0023115999999997,0.0082224000000012,-0.0057578,-0.0062539999999994,-0.0115723999999992,-0.0147978,0,sub_20
0.0025149999999997,0.0080448000000012,-0.0063264,-0.0056687999999994,-0.0122929999999992,-0.014223,0,sub_20
0.0028095999999997,0.0077302000000012,-0.006559,-0.0050315999999994,-0.0125099999999992,-0.0137909999999999,0,sub_20
0.0032111999999997,0.0077118000000012,-0.0066482,-0.0043961999999994,-0.0120921999999992,-0.0122916,0,sub_20
0.0034349999999997,0.0081748000000012,-0.0066152,-0.0037617999999994,-0.0114629999999992,-0.0103652,0,sub_20
0.0035577999999997,0.0083486000000012,-0.006077,-0.0033407999999994,-0.0112573999999992,-0.0088669999999999,0,sub_20
0.0034309999999997,0.0079332000000012,-0.005471,-0.0029487999999994,-0.0115835999999992,-0.0078309999999999,0,sub_20
0.0035333999999997,0.0074602000000012,-0.0048522,-0.0025595999999994,-0.0125489999999992,-0.0067941999999999,0,sub_20
0.0031883999999997,0.0072244000000012,-0.0049906,-0.0028057999999994,-0.0132955999999992,-0.0066165999999999,0,sub_20
0.0029209999999997,0.0073194000000012,-0.0049318,-0.0028365999999994,-0.0142533999999992,-0.0070781999999999,0,sub_20
0.0030453999999997,0.0079614000000012,-0.0050932,-0.0028657999999994,-0.0152095999999992,-0.0079669999999999,0,sub_20
0.0034291999999997,0.0079048000000012,-0.0045564,-0.0022247999999994,-0.0156353999999992,-0.0086029999999999,0,sub_20
0.0033391999999997,0.0080608000000012,-0.004386,-0.0020085999999994,-0.0152091999999992,-0.0088155999999999,0,sub_20
0.0032921999999997,0.0082056000000012,-0.0039794,-0.0020245999999994,-0.0153367999999992,-0.008619,0,sub_20
0.0031929999999997,0.0079366000000012,-0.0037436,-0.0024683999999994,-0.0152517999999992,-0.0079982,0,sub_20
0.0030115999999997,0.0076368000000012,-0.0032368,-0.0029139999999994,-0.0149561999999992,-0.0067369999999999,0,sub_20
0.0023805999999997,0.0075316000000012,-0.0032274,-0.0035777999999994,-0.0155129999999992,-0.0052623999999999,0,sub_20
0.0017769999999997,0.0069232000000012,-0.0025736,-0.0029671999999994,-0.0175645999999992,-0.0039907999999999,0,sub_20
0.0013583999999997,0.0060566000000012,-0.0017554,-0.0021261999999994,-0.0197007999999992,-0.0033411999999999,0,sub_20
0.0015665999999997,0.0059062000000012,-0.0016698,-0.0012851999999994,-0.0224733999999992,-0.0033317999999999,0,sub_20
0.0020391999999997,0.0062594000000012,-0.002637,-0.0010755999999994,-0.0241751999999992,-0.0041825999999999,0,sub_20
0.0027489999999997,0.0069194000000012,-0.0036642,-0.0010727999999994,-0.0245969999999992,-0.0052501999999999,0,sub_20
0.0037945999999997,0.0076970000000012,-0.005168,-0.0019219999999994,-0.0231737999999992,-0.0061049999999999,0,sub_20
0.0044235999999997,0.0076030000000012,-0.0061364,-0.0025567999999994,-0.0209015999999992,-0.0063186,0,sub_20
0.0046029999999997,0.0072620000000012,-0.0067512,-0.0036173999999994,-0.0175661999999992,-0.005682,0,sub_20
0.0038303999999997,0.0079866000000012,-0.006518,-0.0044713999999994,-0.0150861999999992,-0.0044018,0,sub_20
0.0037057999999997,0.0080522000000012,-0.0055356,-0.0044775999999994,-0.0138875999999992,-0.0031141999999999,0,sub_20
0.0029525999999997,0.0084824000000012,-0.0047144,-0.0034125999999994,-0.0134687999999992,-0.0022528,0,sub_20
0.0025373999999997,0.0082808000000012,-0.0050326,-0.0027725999999994,-0.0128345999999992,-0.0016082,0,sub_20
0.0025281999999997,0.0077656000000012,-0.0048314,-0.0008437999999994,-0.0113743999999992,-0.0011343999999999,0,sub_20
0.0031645999999997,0.0062542000000012,-0.0046162,0.0006602000000005,-0.0092743999999992,-0.0004509999999999,0,sub_20
0.0035747999999997,0.0063984000000012,-0.0054388,0.0013176000000005,-0.0058921999999992,1.1400000000000082e-05,0,sub_20
0.0043137999999997,0.0065558000000012,-0.0059168,0.0013330000000005,-0.0022971999999992,0.0011099999999999,0,sub_20
0.0049361999999997,0.0078908000000012,-0.0054504,0.0013484000000005,0.0010856000000007,0.0019951999999999,0,sub_20
0.0048837999999997,0.0090456000000012,-0.0054442,0.0009236000000005,0.0021498000000007,0.0026317999999999,0,sub_20
0.0049481999999997,0.0095344000000012,-0.0055972,0.0011370000000005,0.0021490000000007,0.0026333999999999,0,sub_20
0.0043297999999997,0.0088346000000012,-0.0051042,0.0007082000000005,0.0019366000000007,0.0028443999999999,0,sub_20
0.0041699999999997,0.0077060000000012,-0.004842,0.0004938000000005,0.0012998000000007,0.0024164,0,sub_20
0.0044045999999996,0.0071950000000012,-0.0048812,8.120000000053727e-05,0.0008912000000008,0.0018232,0,sub_20
0.0047289999999997,0.0068338000000012,-0.004924,-0.0005369999999994,0.0017634000000008,0.0007993999999999,0,sub_20
0.0050865999999997,0.0065378000000012,-0.0051764,-0.0013637999999994,0.0043382000000007,0.000413,0,sub_20
0.0055811999999997,0.0068986000000012,-0.0057996,-0.0011265999999994,0.0064822000000007,0.0002481999999999,0,sub_20
0.0060741999999997,0.0075336000000012,-0.0059146,-0.0015305999999994,0.0088398000000007,0.000506,0,sub_20
0.0063081999999997,0.0080358000000012,-0.0062,-0.0006741999999994,0.0101126000000007,0.0011511999999999,0,sub_20
0.0064921999999997,0.0086092000000012,-0.0065174,0.0003936000000005,0.0115950000000007,0.0024387999999999,0,sub_20
0.0067013999999997,0.0091280000000012,-0.006876,0.0012652000000005,0.0126982000000007,0.0031353999999999,0,sub_20
0.0067373999999997,0.0093262000000012,-0.0066848,0.0019254000000005,0.0142282000000007,0.0038299999999999,0,sub_20
0.0066933999999997,0.0090464000000012,-0.0065844,0.0030114000000005,0.0151194000000007,0.0041011999999999,0,sub_20
0.0068155999999997,0.0084486000000012,-0.0064446,0.0030276000000005,0.0151628000000007,0.0041523999999999,0,sub_20
0.0068549999999997,0.0079186000000012,-0.0060046,0.0023960000000005,0.0130798000000007,0.0037743999999999,0,sub_20
0.0064819999999997,0.0069810000000012,-0.0051052,0.0019588000000005,0.0101010000000007,0.0031344,0,sub_20
0.0065335999999997,0.0068992000000012,-0.0053154,0.0008832000000005,0.0071264000000007,0.0020626,0,sub_20
0.0064001999999997,0.0064810000000012,-0.0053078,0.0002354000000005,0.0047876000000007,0.0014202,0,sub_20
0.0063447999999997,0.0068774000000012,-0.0051004,0.0002464000000005,0.0031590000000007,0.000826,0,sub_20
0.0064237999999997,0.0071982000000012,-0.0054576,0.0013320000000005,0.0034432000000007,0.0004506,0,sub_20
0.0068153999999997,0.0078470000000012,-0.0056968,0.0026290000000005,0.0039372000000007,0.0007172,0,sub_20
0.0073719999999997,0.0072828000000012,-0.0056854,0.0041348000000005,0.0031530000000007,0.0007734,0,sub_20
0.0078383999999997,0.0075878000000012,-0.0059802,0.0047802000000005,0.0008804000000007,0.0008254,0,sub_20
0.0080135999999997,0.0082718000000012,-0.0066084,0.0047726000000005,-0.0014605999999992,0.0001874,0,sub_20
0.0082013999999997,0.0090720000000012,-0.0061204,0.0045496000000005,-0.0044391999999992,-0.0006647999999999,0,sub_20
0.0082209999999997,0.0095334000000012,-0.006676,0.0041124000000005,-0.0080543999999992,-0.001945,0,sub_20
0.0077711999999997,0.0091322000000012,-0.0066894,0.0028318000000005,-0.0124405999999991,-0.002982,0,sub_20
0.0073403999999997,0.0082652000000012,-0.0070398,0.0019828000000005,-0.0159749999999991,-0.0042305999999999,0,sub_20
0.0072405999999997,0.0072638000000012,-0.0069318,0.0011308000000005,-0.0195121999999991,-0.0048384,0,sub_20
0.0070963999999997,0.0064770000000012,-0.0073862,-0.0003621999999994,-0.0230477999999992,-0.0052372,0,sub_20
0.0068761999999997,0.0056380000000012,-0.0067276,-0.0016333999999994,-0.0248789999999992,-0.0058502,0,sub_20
0.0067933999999997,0.0068820000000012,-0.0062944,-0.0018439999999994,-0.0244511999999992,-0.0060658,0,sub_20
0.0068767999999997,0.0080568000000012,-0.006168,-0.0007761999999994,-0.0244541999999992,-0.006272,0,sub_20
0.0069083999999997,0.0083434000000012,-0.0068018,0.0002984000000005,-0.0229655999999991,-0.00648,0,sub_20
0.0072769999999997,0.0084118000000012,-0.007169,0.0013806000000005,-0.0197725999999991,-0.0066902,0,sub_20
0.0075595999999997,0.0089474000000012,-0.0075112,0.0016142000000005,-0.0167397999999991,-0.0062458,0,sub_20
0.0078237999999997,0.0084592000000012,-0.0078548,0.0020544000000005,-0.0149869999999991,-0.0055848,0,sub_20
0.0076519999999997,0.0084334000000012,-0.0075482,0.0009980000000005,-0.0134435999999991,-0.0045066,0,sub_20
0.0071785999999997,0.0075338000000012,-0.0063134,-0.0004879999999994,-0.0125377999999992,-0.0034306,0,sub_20
0.0061971999999997,0.0067872000000012,-0.0056734,-0.0015499999999994,-0.0126971999999992,-0.0027773999999999,0,sub_20
0.0052395999999997,0.0062012000000012,-0.0060202,-0.0024073999999994,-0.0137585999999992,-0.0029955999999999,0,sub_20
0.0048855999999997,0.0066494000000012,-0.0065092,-0.0032541999999994,-0.0129007999999991,-0.0036435999999999,0,sub_20
0.0049531999999997,0.0065736000000012,-0.0071202,-0.0036585999999994,-0.0101103999999991,-0.0049241999999999,0,sub_20
0.0050345999999997,0.0070462000000012,-0.0080626,-0.0029933999999994,-0.0062601999999991,-0.0057713999999999,0,sub_20
0.0058225999999997,0.0076650000000012,-0.0084954,-0.0025463999999994,-0.0028379999999991,-0.0059785999999999,0,sub_20
0.0068071999999997,0.0079878000000012,-0.008374,-0.0016801999999994,-0.0006971999999991,-0.005754,0,sub_20
0.0070819999999997,0.0073782000000012,-0.0080794,-0.0012493999999994,-4.799999999920623e-05,-0.0051032,0,sub_20
0.0071503999999997,0.0070192000000012,-0.007451,-0.0012493999999994,0.0010130000000007,-0.0040364,0,sub_20
0.0076407999999997,0.0067306000000012,-0.0066484,-0.0016741999999994,0.0022894000000007,-0.0031864,0,sub_20
0.0073465999999997,0.0062744000000012,-0.0071528,-0.0018827999999994,0.0039920000000007,-0.0025492,0,sub_20
0.0070871999999997,0.0068140000000012,-0.0072034,-0.0020893999999994,0.0061208000000007,-0.0019124,0,sub_20
0.0065105999999997,0.0075068000000012,-0.0068436,-0.0016555999999994,0.0078150000000007,-0.0021266,0,sub_20
0.0067845999999997,0.0078958000000012,-0.006521,-0.0010151999999994,0.0073804000000007,-0.0029775999999999,0,sub_20
0.0070249999999997,0.0075586000000012,-0.0065544,-0.0010215999999994,0.0054566000000007,-0.0038312,0,sub_20
0.0074019999999997,0.0077378000000012,-0.0057416,-0.0025223999999994,0.0031128000000007,-0.0049084,0,sub_20
0.0076409999999997,0.0081030000000012,-0.0054708,-0.0042377999999994,0.0014054000000007,-0.0051334,0,sub_20
0.0082281999999997,0.0082294000000012,-0.0051888,-0.0055209999999994,0.0009828000000007,-0.0049282,0,sub_20
0.0080369999999997,0.0084416000000012,-0.0056398,-0.0057371999999994,0.0007688000000007,-0.0045022,0,sub_20
0.0078039999999997,0.0084966000000012,-0.005883,-0.0055309999999994,0.0005600000000007,-0.0044995999999999,0,sub_20
0.0081653999999997,0.0081250000000012,-0.006119,-0.0040485999999994,-0.0005053999999992,-0.0044869999999999,0,sub_20
0.0084541999999997,0.0071782000000012,-0.005888,-0.0027783999999993,-0.0015691999999992,-0.0046895999999999,0,sub_20
0.0089417999999997,0.0066412000000012,-0.0060806,-0.0023665999999993,-0.0032707999999992,-0.0044699999999999,0,sub_20
0.0094809999999997,0.0066412000000012,-0.0060914,-0.0030197999999993,-0.0043303999999992,-0.0040449999999999,0,sub_20
0.0099225999999997,0.0075620000000012,-0.0064604,-0.0028141999999993,-0.0053989999999992,-0.0034014,0,sub_20
0.0097447999999997,0.0086290000000012,-0.0064098,-0.0017567999999994,-0.0058355999999992,-0.0016844,0,sub_20
0.0096483999999997,0.0090734000000012,-0.0067316,-0.0002717999999994,-0.0062727999999992,-0.0001779999999999,0,sub_20
0.0093279999999997,0.0091502000000012,-0.0068676,0.0005706000000005,-0.0068707999999992,0.000695,0,sub_20
0.0091637999999997,0.0090682000000012,-0.0066066,0.0011948000000005,-0.0085333999999992,0.0015678,0,sub_20
0.0083063999999997,0.0088880000000012,-0.0060962,0.0007512000000005,-0.0104051999999992,0.0024336,0,sub_20
0.0078583999999997,0.0079160000000012,-0.0061278,-0.0005373999999994,-0.0114175999999992,0.0022242,0,sub_20
0.0074299999999997,0.0074846000000012,-0.0061002,-0.0013963999999994,-0.0120045999999992,0.0018036,0,sub_20
0.0070763999999997,0.0074582000000012,-0.0064802,-0.0020335999999994,-0.0119997999999992,0.0011581999999999,0,sub_20
0.0063949999999997,0.0076974000000012,-0.0064668,-0.0020287999999994,-0.0109343999999992,0.001157,0,sub_20
0.0065453999999997,0.0076142000000012,-0.0066574,-0.0007409999999994,-0.0094465999999992,0.0009503999999999,0,sub_20
0.0063743999999997,0.0083136000000012,-0.00606,0.0001130000000005,-0.0085413999999992,0.0014006,0,sub_20
0.0064499999999997,0.0086204000000012,-0.0056154,0.0005394000000005,-0.0076355999999992,0.0020614,0,sub_20
0.0067171999999997,0.0084282000000012,-0.0053718,0.0007504000000005,-0.0065185999999992,0.0033613999999999,0,sub_20
0.0070235999999997,0.0076642000000012,-0.0057716,0.0005404000000005,-0.0047583999999992,0.0040166,0,sub_20
0.0069601999999997,0.0070614000000012,-0.0055236,-0.0003095999999994,-0.0025715999999992,0.0050942,0,sub_20
0.0073041999999997,0.0064658000000012,-0.00573,-0.0005133999999994,-1.599999999920623e-05,0.0055168,0,sub_20
0.0075453999999997,0.0061746000000012,-0.0060426,-0.0005047999999994,0.0021138000000007,0.0057278,0,sub_20
0.0074577999999997,0.0064496000000012,-0.0059008,0.0001430000000005,0.0038160000000007,0.0057301999999999,0,sub_20
0.0074549999999997,0.0071414000000012,-0.0052192,0.0007870000000005,0.0050904000000007,0.0061603999999999,0,sub_20
0.0080409999999997,0.0073982000000012,-0.005218,0.0010062000000005,0.0059768000000007,0.0063955999999999,0,sub_20
0.0083805999999997,0.0070388000000012,-0.0053334,0.0012216000000005,0.0062232000000007,0.0068451999999999,0,sub_20
0.0082563999999997,0.0071092000000012,-0.00497,0.0012208000000005,0.0062556000000007,0.0077207999999999,0,sub_20
0.0083449999999997,0.0079172000000012,-0.0045702,0.0012180000000005,0.0060740000000007,0.0088104,0,sub_20
0.0081975999999997,0.0082298000000012,-0.0046122,0.0016440000000005,0.0056804000000007,0.0092622,0,sub_20
0.0076165999999997,0.0091830000000012,-0.0043956,0.0024938000000005,0.0050374000000007,0.0094825999999999,0,sub_20
0.0075383999999997,0.0090418000000012,-0.004449,0.0024900000000005,0.0043974000000007,0.009697,0,sub_20
0.0077205999999997,0.0087232000000012,-0.0048042,0.0027136000000005,0.0037798000000007,0.0090829999999999,0,sub_20
0.0077733999999997,0.0077526000000012,-0.0051898,0.0029352000000005,0.0025240000000008,0.0082559999999999,0,sub_20
0.0085053999999997,0.0074404000000012,-0.0056768,0.0025108000000005,0.0004166000000008,0.0078529999999999,0,sub_20
0.0089091999999997,0.0073776000000012,-0.0063068,0.0022998000000005,-0.0014793999999991,0.0076647999999999,0,sub_20
0.0090735999999997,0.0084768000000012,-0.0063214,0.0031558000000005,-0.0038035999999991,0.0070571999999999,0,sub_20
0.0090309999999997,0.0088524000000012,-0.0069518,0.0042130000000005,-0.0057255999999991,0.0072806,0,sub_20
0.0090637999999997,0.0094336000000012,-0.0077324,0.0057038000000005,-0.0061577999999991,0.0075052,0,sub_20
0.0087937999999997,0.0093230000000012,-0.0081408,0.0072004000000005,-0.0050995999999991,0.0079416,0,sub_20
0.0087671999999997,0.0086798000000012,-0.0080664,0.0078550000000005,-0.0040125999999991,0.0081774,0,sub_20
0.0083957999999997,0.0078710000000012,-0.0077764,0.0080838000000005,-0.0024987999999991,0.0086234,0,sub_20
0.0082345999999997,0.0075068000000012,-0.0067198,0.0074628000000005,-0.0009787999999991,0.0082088,0,sub_20
0.0083235999999997,0.0063890000000012,-0.0058776,0.0059844000000005,-0.0005199999999992,0.0075758,0,sub_20
0.0083661999999997,0.0062802000000012,-0.0058992,0.0042928000000005,-0.0011213999999992,0.0058744,0,sub_20
0.0084703999999997,0.0067286000000012,-0.006525,0.0025906000000005,-0.0017477999999992,0.004154,0,sub_20
0.0084721999999997,0.0074464000000012,-0.0074364,0.0017446000000005,-0.0017379999999992,0.0024388,0,sub_20
0.0087061999999997,0.0083616000000012,-0.0084368,0.0019648000000005,-0.0013083999999992,0.0013716,0,sub_20
0.0086861999999997,0.0092546000000012,-0.0089388,0.0028326000000005,-0.0006345999999992,0.000745,0,sub_20
0.0084289999999997,0.0092942000000012,-0.008733,0.0043402000000005,0.0006736000000007,0.0007632,0,sub_20
0.0082957999999997,0.0085958000000012,-0.008323,0.0056306000000005,0.0019792000000007,0.0016344,0,sub_20
0.0082017999999997,0.0077478000000012,-0.0077944,0.0058554000000005,0.0032894000000007,0.0022844,0,sub_20
0.0080201999999997,0.0068524000000012,-0.0075902,0.0047998000000005,0.0043918000000007,0.002712,0,sub_20
0.0077443999999997,0.0070540000000012,-0.0074259999999999,0.0039492000000005,0.0052462000000007,0.0029186,0,sub_20
0.0077209999999997,0.0077756000000012,-0.0075843999999999,0.0030976000000005,0.0058874000000007,0.0031254,0,sub_20
0.0073349999999997,0.0082604000000012,-0.007478,0.0026748000000005,0.0063166000000007,0.0026946,0,sub_20
0.0070437999999997,0.0084062000000012,-0.0075512,0.0026792000000005,0.0057020000000007,0.0020482,0,sub_20
0.0068103999999997,0.0084390000000012,-0.0070732,0.0028940000000005,0.0042354000000007,0.0011906,0,sub_20
0.0066771999999997,0.0074910000000012,-0.0071052,0.0024706000000005,0.0025604000000008,-0.0003119999999999,0,sub_20
0.0067087999999997,0.0060066000000012,-0.007195,0.0016226000000005,0.0011008000000008,-0.0020315999999999,0,sub_20
0.0069135999999996,0.0053682000000012,-0.0076708,0.0009906000000005,6.760000000081375e-05,-0.0039637999999999,0,sub_20
