userAcceleration.x,userAcceleration.y,userAcceleration.z,rotationRate.x,rotationRate.y,rotationRate.z,label,subject
-0.0434326000000003,0.0190898000000013,0.0668106,0.0216498000000006,0.0980140000000007,-0.0007508000000001,0,sub_8
-0.0480288000000003,0.0200156000000013,0.0721384,0.0363642000000006,0.1401614000000007,-0.0041204000000001,0,sub_8
-0.0474934000000003,0.0184294000000013,0.0722106,0.0474936000000005,0.1906348000000007,-0.0085938000000001,0,sub_8
-0.0379026000000003,0.0156094000000013,0.0651506,0.0519310000000005,0.2375948000000007,-0.0159056000000001,0,sub_8
-0.0231622000000003,0.0125312000000013,0.0541526,0.0477952000000005,0.2741528000000007,-0.0251868000000001,0,sub_8
-0.0073500000000003,0.0086334000000013,0.0428742,0.0339810000000005,0.2947610000000006,-0.0334468000000001,0,sub_8
0.0071345999999996,0.0041490000000013,0.0293834,0.0183438000000005,0.2925666000000007,-0.0386994000000001,0,sub_8
0.0202099999999996,0.0026556000000013,0.017938,0.0036516000000005,0.2671304000000006,-0.0400700000000001,0,sub_8
0.0263153999999996,0.0036304000000012,0.011929,-0.0042339999999994,0.2258088000000007,-0.0360128000000001,0,sub_8
0.0289167999999996,0.0062958000000012,0.0011524,-0.0014729999999994,0.1865522000000007,-0.0248336000000001,0,sub_8
0.0311987999999996,0.0056226000000012,-0.0053599999999999,0.0001038000000005,0.1448618000000007,-0.0042940000000001,0,sub_8
0.0318073999999996,0.0046880000000012,-0.0086597999999999,0.0099754000000005,0.0986622000000006,0.0178049999999998,0,sub_8
0.0304145999999996,0.0019950000000012,-0.0106809999999999,0.0226238000000005,0.0492724000000007,0.0360817999999998,0,sub_8
0.0294235999999996,6.100000000129734e-05,-0.0134849999999999,0.0370030000000005,0.0007468000000007,0.0498829999999998,0,sub_8
0.0299677999999996,-0.0039301999999986,-0.0070105999999999,0.0372718000000005,-0.0592131999999992,0.0582593999999998,0,sub_8
0.0299867999999996,-0.0042775999999986,-0.0039253999999999,0.0340190000000005,-0.1205525999999992,0.0559651999999998,0,sub_8
0.0302079999999996,-0.0035199999999986,-0.0003359999999999,0.0169344000000005,-0.1805371999999992,0.0465223999999998,0,sub_8
0.0280263999999996,-0.0020637999999986,0.0041346,-0.0050375999999994,-0.2377279999999992,0.0353325999999998,0,sub_8
0.0232771999999996,-0.0009417999999986,0.011252,-0.0318969999999994,-0.2866079999999992,0.0279437999999998,0,sub_8
0.0152139999999996,0.0008878000000013,0.019172,-0.0531741999999994,-0.3259275999999992,0.0225043999999998,0,sub_8
0.0060739999999996,0.0046326000000013,0.029631,-0.0648169999999994,-0.3565515999999992,0.0186167999999998,0,sub_8
-0.0046092000000003,0.0078790000000012,0.040369,-0.0674291999999993,-0.3695327999999993,0.0171195999999998,0,sub_8
-0.0119014000000003,0.0116328000000012,0.0483744,-0.0665449999999994,-0.3603837999999993,0.0194641999999998,0,sub_8
-0.0165556000000003,0.0138566000000013,0.0539442,-0.0628283999999994,-0.3388849999999992,0.0211717999999998,0,sub_8
-0.0192982000000003,0.0142912000000013,0.0564116,-0.0577885999999994,-0.3086519999999992,0.0220227999999998,0,sub_8
-0.0201428000000003,0.0129356000000013,0.0547664,-0.0540011999999994,-0.2732971999999992,0.0217903999999998,0,sub_8
-0.0186540000000003,0.0125840000000013,0.052472,-0.0510767999999994,-0.2400697999999992,0.0215545999999998,0,sub_8
-0.0163400000000003,0.0109952000000013,0.0495112,-0.0485983999999994,-0.2119507999999992,0.0204675999999998,0,sub_8
-0.0137214000000003,0.0097304000000013,0.0452456,-0.0480451999999994,-0.1861633999999992,0.0180881999999998,0,sub_8
-0.0105684000000003,0.0095062000000013,0.0401816,-0.0483587999999994,-0.1646291999999992,0.0144263999999998,0,sub_8
-0.0096274000000003,0.0101092000000013,0.0375688,-0.0482609999999994,-0.1469295999999992,0.0103449999999998,0,sub_8
-0.0094260000000003,0.0089950000000013,0.0345026,-0.0471097999999994,-0.1313677999999992,0.0071283999999998,0,sub_8
-0.0105472000000003,0.0093042000000013,0.0327876,-0.0451193999999994,-0.1192167999999992,0.0037085999999998,0,sub_8
-0.0124254000000003,0.0106498000000013,0.0327136,-0.0420797999999994,-0.1098191999999992,0.0011509999999998,0,sub_8
-0.0143670000000003,0.0112102000000013,0.0326172,-0.0360519999999994,-0.0983089999999992,0.0005343999999998,0,sub_8
-0.0167308000000003,0.0109464000000013,0.032101,-0.0300155999999994,-0.0836081999999992,0.0011955999999998,0,sub_8
-0.0183546000000003,0.0114670000000013,0.032971,-0.0233245999999994,-0.0652893999999992,0.0022839999999998,0,sub_8
-0.0185610000000003,0.0113824000000013,0.0347486,-0.0151257999999994,-0.0431433999999992,0.0040189999999998,0,sub_8
-0.0180428000000003,0.0107982000000013,0.0357042,-0.0073473999999994,-0.0201663999999992,0.0055393999999998,0,sub_8
-0.0182698000000003,0.0100930000000013,0.0372732,-0.0023419999999994,0.0013356000000007,0.0053331999999998,0,sub_8
-0.0174922000000002,0.0093278000000013,0.0383636,0.0022406000000005,0.0228426000000006,0.0042695999999998,0,sub_8
-0.0155522000000002,0.0093604000000013,0.0384808,0.0053246000000005,0.0424408000000006,0.0023433999999999,0,sub_8
-0.0141408000000002,0.0095988000000013,0.0371802,0.0069008000000005,0.0586360000000006,0.0001971999999999,0,sub_8
-0.0133614000000003,0.0095962000000013,0.0374136,0.0084644000000005,0.0720616000000007,-0.0019454,0,sub_8
-0.0118348000000003,0.0095222000000013,0.0381716,0.0106624000000005,0.0848434000000006,-0.003442,0,sub_8
-0.0087132000000003,0.0093486000000013,0.0390108,0.0120000000000005,0.0959246000000007,-0.0051560000000001,0,sub_8
-0.0072542000000003,0.0085690000000013,0.0389406,0.0116202000000005,0.1042436000000007,-0.0073058000000001,0,sub_8
-0.0056102000000003,0.0078382000000012,0.0389934,0.0112288000000005,0.1100060000000007,-0.0094524000000001,0,sub_8
-0.0029644000000003,0.0078702000000012,0.0379142,0.0104020000000005,0.1149134000000007,-0.0105328000000001,0,sub_8
-0.0009346000000003,0.0082146000000012,0.0364618,0.0099858000000005,0.1170462000000007,-0.0107520000000001,0,sub_8
-0.0003794000000003,0.0078028000000012,0.036048,0.0101944000000005,0.1161924000000007,-0.0105358000000001,0,sub_8
0.0003599999999996,0.0080922000000012,0.03557,0.0110346000000005,0.1138434000000007,-0.0098860000000001,0,sub_8
0.0011689999999996,0.0087106000000013,0.0355868,0.0118632000000005,0.1093622000000007,-0.0088062,0,sub_8
0.0011957999999996,0.0088780000000012,0.035432,0.0131100000000005,0.1023254000000007,-0.0083612,0,sub_8
0.0015275999999996,0.0082778000000012,0.0350554,0.0128620000000005,0.0952928000000007,-0.007713,0,sub_8
0.0018307999999996,0.0084458000000013,0.0342498,0.0119692000000005,0.0874094000000007,-0.0068546,0,sub_8
0.0025323999999996,0.0087660000000013,0.034402,0.0125690000000005,0.0784588000000007,-0.006839,0,sub_8
0.0027811999999996,0.0090530000000013,0.034132,0.0129594000000005,0.0699368000000006,-0.0072528000000001,0,sub_8
0.0035197999999996,0.0076514000000012,0.0326262,0.0118590000000005,0.0629080000000006,-0.0068242000000001,0,sub_8
0.0040945999999996,0.0071914000000012,0.0312862,0.0109682000000005,0.0546020000000006,-0.0068198000000001,0,sub_8
0.0057261999999996,0.0073630000000012,0.029467,0.0113490000000005,0.0445862000000006,-0.0065908000000001,0,sub_8
0.0066347999999996,0.0067992000000012,0.0281134,0.0091492000000005,0.0326518000000006,-0.0038134000000001,0,sub_8
0.0072283999999996,0.0060704000000012,0.0269354,0.0065062000000005,0.0179456000000007,-0.0001810000000001,0,sub_8
0.0052507999999996,0.0068764000000012,0.0284142,0.0047176000000005,0.0034496000000007,0.0034571999999998,0,sub_8
0.0015815999999996,0.0069388000000012,0.0301866,0.0057164000000005,-0.0082855999999992,0.0068975999999998,0,sub_8
-0.0027956000000003,0.0066070000000012,0.0338194,0.0071658000000005,-0.0155449999999992,0.0094807999999998,0,sub_8
-0.0084702000000003,0.0079504000000012,0.0389042,0.0105740000000005,-0.0174719999999992,0.0088659999999998,0,sub_8
-0.0149716000000003,0.0088462000000012,0.0431796,0.0140312000000005,-0.0108673999999992,0.0058905999999999,0,sub_8
-0.0181786000000003,0.0095044000000013,0.0438802,0.0164570000000005,0.0019262000000007,0.0011909999999999,0,sub_8
-0.0184074000000003,0.0096782000000012,0.0430246,0.0150544000000005,0.0181396000000007,-0.0028988,0,sub_8
-0.0172012000000003,0.0089514000000013,0.0402864,0.0106666000000005,0.0358506000000007,-0.0059432,0,sub_8
-0.0113710000000003,0.0089586000000012,0.0348398,0.0064690000000005,0.0501452000000007,-0.0072726,0,sub_8
-0.0036638000000003,0.0081022000000012,0.0292492,0.0043562000000005,0.0556886000000006,-0.0064398000000001,0,sub_8
0.0026287999999996,0.0069390000000012,0.0244612,0.0041034000000005,0.0501372000000006,-0.0032298000000001,0,sub_8
0.0082021999999996,0.0068880000000013,0.0203146,0.0065680000000005,0.0332792000000006,0.0012953999999998,0,sub_8
0.0127983999999996,0.0078532000000013,0.0186968,0.0111166000000005,0.0057594000000006,0.0062763999999998,0,sub_8
0.0133581999999996,0.0069636000000013,0.018957,0.0147972000000005,-0.0255897999999992,0.0106151999999998,0,sub_8
0.0099757999999996,0.0065444000000013,0.0213728,0.0170054000000005,-0.0541563999999992,0.0130173999999998,0,sub_8
0.0039015999999996,0.0075170000000013,0.0262888,0.0192586000000005,-0.0735583999999992,0.0145533999999998,0,sub_8
-0.0030998000000003,0.0080292000000013,0.0338466,0.0217740000000005,-0.0823077999999992,0.0158641999999998,0,sub_8
-0.0097612000000003,0.0084318000000012,0.0401408,0.0219998000000005,-0.0795387999999992,0.0158621999999998,0,sub_8
-0.0156742000000003,0.0092132000000012,0.044608,0.0199266000000005,-0.0669577999999992,0.0149769999999998,0,sub_8
-0.0172108000000003,0.0100738000000012,0.0471955999999999,0.0163874000000005,-0.0484051999999992,0.0138601999999998,0,sub_8
-0.0155060000000003,0.0094890000000012,0.0470093999999999,0.0113594000000005,-0.0302675999999992,0.0112381999999998,0,sub_8
-0.0131876000000003,0.0096862000000012,0.0444933999999999,0.0046352000000005,-0.0148633999999992,0.0062575999999998,0,sub_8
-0.0118738000000003,0.0093654000000012,0.0407487999999999,0.0008808000000005,-0.0028801999999992,0.0017295999999998,0,sub_8
-0.0088752000000003,0.0090354000000012,0.0369694,0.0015822000000005,0.0050332000000007,-0.0012666000000001,0,sub_8
-0.0049266000000003,0.0095034000000012,0.0337272,0.0048170000000005,0.0084426000000007,-0.0021032000000001,0,sub_8
-0.0022186000000003,0.0098058000000012,0.0326982,0.0092966000000005,0.0058744000000007,-0.0010006000000001,0,sub_8
-0.0010762000000003,0.0086712000000012,0.0303968,0.0143806000000005,-0.0001325999999992,0.0018197999999998,0,sub_8
0.0002357999999996,0.0081698000000012,0.0285838,0.0175376000000005,-0.0074121999999992,0.0048417999999998,0,sub_8
0.0019147999999996,0.0073300000000013,0.0286562,0.0183496000000005,-0.0151059999999992,0.0069933999999998,0,sub_8
0.0016869999999996,0.0058520000000013,0.0290064,0.0178798000000005,-0.0232065999999992,0.0084959999999998,0,sub_8
0.0010389999999996,0.0056782000000013,0.0290004,0.0161384000000005,-0.0308705999999992,0.0084935999999998,0,sub_8
0.0007085999999996,0.0069188000000013,0.0313454,0.0137674000000005,-0.0368253999999992,0.0078437999999998,0,sub_8
-0.0007360000000003,0.0074224000000013,0.0341048,0.0122606000000005,-0.0411767999999992,0.0071925999999998,0,sub_8
-0.0045720000000003,0.0077280000000013,0.0355018,0.0113946000000005,-0.0444687999999992,0.0073991999999998,0,sub_8
-0.0084652000000003,0.0084658000000013,0.0366084,0.0113974000000005,-0.0445669999999992,0.0073939999999998,0,sub_8
-0.0112520000000003,0.0079926000000013,0.0379828,0.0133408000000005,-0.0393489999999992,0.0082499999999998,0,sub_8
-0.0117636000000003,0.0088930000000013,0.0383228,0.0172208000000005,-0.0313645999999992,0.0082613999999998,0,sub_8
-0.0107984000000003,0.0087662000000013,0.038093,0.0200396000000005,-0.0228461999999992,0.0067745999999998,0,sub_8
-0.0088828000000003,0.0081060000000013,0.0384241999999999,0.0215754000000005,-0.0141135999999992,0.0061331999999998,0,sub_8
-0.0069260000000003,0.0071914000000013,0.0389723999999999,0.0218224000000005,-0.0068695999999992,0.0059119999999998,0,sub_8
-0.0057124000000003,0.0066678000000013,0.0372877999999999,0.0184142000000005,-0.0026959999999992,0.0043841999999998,0,sub_8
-0.0059162000000003,0.0048722000000013,0.0356877999999999,0.0128676000000005,-0.0008533999999992,0.0015623999999998,0,sub_8
-0.0060868000000003,0.0052626000000013,0.0342864,0.0085954000000005,0.0005550000000007,-0.0003952000000001,0,sub_8
-0.0061958000000003,0.0062156000000013,0.0327558,0.0051778000000005,0.0015370000000007,-0.0029874000000001,0,sub_8
-0.0060500000000003,0.0069334000000013,0.0310048,0.0019620000000005,0.0001738000000007,-0.0053614000000001,0,sub_8
-0.0056368000000003,0.0077358000000013,0.0306258,0.0015352000000005,-0.0008855999999992,-0.0064312000000001,0,sub_8
-0.0047532000000003,0.0080074000000013,0.0302126,0.0019534000000005,-0.0019557999999992,-0.0055722,0,sub_8
-0.0037830000000003,0.0066332000000013,0.029692,0.0019390000000005,-0.0040905999999992,-0.0045014,0,sub_8
-0.0018162000000003,0.0058546000000013,0.0287864,0.0016646000000005,-0.0066543999999992,-0.0038818,0,sub_8
0.0003175999999996,0.0061168000000013,0.0274002,0.0018200000000005,-0.0090047999999992,-0.0036868,0,sub_8
0.0033377999999996,0.0052468000000013,0.0265368,0.0017592000000005,-0.0119937999999992,-0.0034924,0,sub_8
0.0050889999999996,0.0040808000000013,0.0260958,0.0008506000000005,-0.0137013999999992,-0.0033056,0,sub_8
0.0065675999999996,0.0049274000000013,0.0270244,-0.0021925999999994,-0.0156143999999992,-0.0031334,0,sub_8
0.0063051999999996,0.0052162000000012,0.0282314,-0.0054055999999994,-0.0185849999999992,-0.0033656,0,sub_8
0.0052891999999996,0.0051984000000012,0.0302934,-0.0090367999999994,-0.0200611999999992,-0.00403,0,sub_8
0.0036731999999996,0.0070256000000012,0.0326778,-0.0124477999999994,-0.0202587999999992,-0.0049082,0,sub_8
0.0014503999999996,0.0083432000000012,0.0353574,-0.0150101999999994,-0.0206757999999992,-0.0049256,0,sub_8
-0.0015008000000003,0.0088344000000012,0.0354868,-0.0159085999999994,-0.0187185999999992,-0.0049614,0,sub_8
-0.0041234000000003,0.0096298000000013,0.0360668,-0.0159447999999994,-0.0150589999999992,-0.0052070000000001,0,sub_8
-0.0065970000000003,0.0103282000000013,0.0364524,-0.0153381999999994,-0.0105501999999992,-0.0052354000000001,0,sub_8
-0.0098514000000003,0.0097926000000013,0.0355388,-0.0134407999999994,-0.0041267999999992,-0.0056846000000001,0,sub_8
-0.0120124000000003,0.0099624000000013,0.0340318,-0.0108955999999994,0.0039988000000007,-0.0061314000000001,0,sub_8
-0.0126474000000003,0.0098888000000013,0.0331716,-0.0061677999999994,0.0116516000000007,-0.0058944000000001,0,sub_8
-0.0121040000000003,0.0092386000000013,0.031416,-0.0018639999999994,0.0199450000000007,-0.0056612000000001,0,sub_8
-0.0112456000000003,0.0083506000000012,0.0297734,0.0030092000000005,0.0276796000000007,-0.0052404000000001,0,sub_8
-0.0095270000000003,0.0081960000000012,0.0289425999999999,0.0055324000000005,0.0347834000000007,-0.0048352,0,sub_8
-0.0067942000000003,0.0081822000000012,0.0271012,0.0078354000000005,0.0393356000000007,-0.0054964,0,sub_8
-0.0044332000000003,0.0073612000000012,0.0263714,0.0088476000000005,0.0406998000000007,-0.0070172,0,sub_8
-0.0022822000000003,0.0067176000000012,0.025973,0.0094206000000005,0.0403568000000007,-0.0074706,0,sub_8
-0.0002630000000003,0.0065102000000012,0.025523,0.0089832000000005,0.0382270000000007,-0.0072572,0,sub_8
0.0023031999999996,0.0065968000000013,0.0260108,0.0091620000000005,0.0318296000000007,-0.0059658000000001,0,sub_8
0.0026817999999996,0.0062148000000013,0.0272312,0.0084808000000005,0.0239436000000007,-0.0046786000000001,0,sub_8
0.0018437999999996,0.0066990000000012,0.0291654,0.0068734000000005,0.0174352000000006,-0.0034302000000001,0,sub_8
0.0002931999999996,0.0074430000000012,0.0305682,0.0048450000000005,0.0119944000000006,-0.0023998000000001,0,sub_8
-0.0013172000000003,0.0073844000000012,0.03201,0.0030396000000005,0.0080468000000006,-0.0020106,0,sub_8
-0.0039586000000003,0.0071148000000012,0.0320452,0.0010324000000005,0.0064442000000006,-0.0018396,0,sub_8
-0.0046374000000003,0.0078468000000012,0.0322056,-0.0005395999999994,0.0073944000000006,-0.0010278,0,sub_8
-0.0053820000000003,0.0076724000000012,0.031362,-0.0007491999999994,0.0093084000000006,3.659999999990902e-05,0,sub_8
-0.0064704000000003,0.0072276000000012,0.0312366,-0.0003079999999994,0.0125026000000006,3.5599999999929e-05,0,sub_8
-0.0066772000000003,0.0077870000000012,0.0308564,-0.0007135999999994,0.0171912000000006,2.679999999990897e-05,0,sub_8
-0.0066742000000003,0.0086410000000012,0.030557,-0.0007527999999994,0.0208900000000006,-0.0008456,0,sub_8
-0.0077472000000003,0.0080968000000012,0.0304146,0.0002722000000005,0.0235214000000006,-0.0021366,0,sub_8
-0.0081594000000003,0.0076690000000012,0.0299336,0.0008762000000005,0.0280692000000006,-0.0027922,0,sub_8
-0.0076768000000003,0.0074894000000012,0.0289926,0.0014716000000005,0.0321850000000006,-0.0019516000000001,0,sub_8
-0.0066898000000003,0.0073592000000012,0.02785,0.0035452000000005,0.0330990000000006,-0.0008832000000001,0,sub_8
-0.0068878000000003,0.0063666000000012,0.0279892,0.0058818000000005,0.0330814000000006,0.0014831999999998,0,sub_8
-0.0075314000000003,0.0062062000000012,0.0275582,0.0067352000000005,0.0345638000000006,0.0029827999999998,0,sub_8
-0.0081596000000003,0.0067856000000012,0.0270202,0.0063084000000005,0.0358384000000006,0.0042599999999998,0,sub_8
-0.0084258000000003,0.0079894000000012,0.026929,0.0071436000000005,0.0374068000000006,0.0051193999999998,0,sub_8
-0.0097968000000003,0.0078264000000012,0.0274276,0.0077770000000005,0.0419570000000006,0.0064009999999998,0,sub_8
-0.0107468000000003,0.0076974000000012,0.0251596,0.0073608000000005,0.0494970000000007,0.0068167999999998,0,sub_8
-0.0106134000000003,0.0080688000000013,0.023642,0.0063026000000005,0.0580986000000007,0.0087221999999998,0,sub_8
-0.0088664000000003,0.0079052000000013,0.022267,0.0093004000000005,0.0671122000000007,0.0106555999999998,0,sub_8
-0.0058896000000003,0.0063496000000013,0.0225808,0.0129624000000005,0.0768914000000007,0.0128051999999998,0,sub_8
-0.0064578000000003,0.0071016000000013,0.0262058,0.0159506000000005,0.0807014000000007,0.0164531999999998,0,sub_8
-0.0071236000000003,0.0096792000000013,0.0327098,0.0193148000000005,0.0761890000000007,0.0231053999999998,0,sub_8
-0.0103466000000003,0.0137238000000013,0.0413114,0.0266966000000005,0.0654762000000007,0.0317163999999998,0,sub_8
-0.0151724000000003,0.0147900000000013,0.051608,0.0334254000000005,0.0537240000000007,0.0418339999999998,0,sub_8
-0.0220646000000003,0.0165384000000013,0.0601014,0.0377926000000005,0.0404818000000007,0.0536461999999998,0,sub_8
-0.0206100000000003,0.0235028000000013,0.065744,0.0364150000000005,0.0272742000000007,0.0617863999999998,0,sub_8
-0.0156628000000003,0.0191806000000013,0.0612433999999999,0.0341380000000005,0.0019332000000007,0.0680129999999998,0,sub_8
-0.0078624000000003,0.0124200000000013,0.0514673999999999,0.0156312000000005,-0.0326997999999992,0.0677287999999999,0,sub_8
-0.0003576000000003,0.0082626000000013,0.0347582,-0.0127113999999994,-0.0783821999999992,0.0611801999999998,0,sub_8
0.0094451999999996,0.0029990000000013,0.0188926,-0.0500327999999994,-0.1327487999999992,0.0496659999999998,0,sub_8
0.0119465999999996,-0.0090449999999986,0.0042644,-0.0854777999999994,-0.1979835999999992,0.0371105999999998,0,sub_8
0.0080727999999996,-0.0085601999999986,0.0014194,-0.1202391999999994,-0.2502657999999992,0.0247781999999998,0,sub_8
-0.0021590000000003,-0.0034115999999986,0.003718,-0.1396069999999994,-0.2866593999999992,0.0217197999999998,0,sub_8
-0.0144986000000003,0.0023678000000013,0.0119468,-0.1446213999999994,-0.2999219999999992,0.0292003999999998,0,sub_8
-0.0318622000000003,0.0107710000000013,0.0227432,-0.1318367999999994,-0.2894007999999993,0.0408341999999998,0,sub_8
-0.0466900000000003,0.0190704000000013,0.0330576,-0.1065365999999994,-0.2456951999999992,0.0546491999999998,0,sub_8
-0.0556532000000003,0.0247726000000013,0.0430572,-0.0702359999999994,-0.1794007999999992,0.0678501999999998,0,sub_8
-0.0604986000000003,0.0244570000000013,0.0517058,-0.0257773999999994,-0.1035413999999992,0.0796001999999998,0,sub_8
-0.0580866000000003,0.0254078000000013,0.0604472,0.0163446000000005,-0.0287799999999992,0.0857977999999998,0,sub_8
-0.0511552000000003,0.0233776000000013,0.067195,0.0514502000000005,0.0498478000000007,0.0902321999999998,0,sub_8
-0.0427500000000003,0.0192848000000013,0.0725906,0.0793164000000005,0.1276660000000007,0.0903441999999998,0,sub_8
-0.0292950000000003,0.0167266000000013,0.0750898,0.0965110000000005,0.1980918000000007,0.0835543999999998,0,sub_8
-0.0129268000000003,0.0154592000000013,0.0759016,0.1034236000000005,0.2540880000000006,0.0711565999999998,0,sub_8
-0.0023628000000003,0.0123794000000013,0.0751078,0.1029972000000005,0.2892934000000007,0.0587169999999998,0,sub_8
0.0090615999999996,0.0086010000000013,0.067716,0.0945350000000005,0.2938442000000006,0.0469015999999998,0,sub_8
0.0230555999999996,0.0062112000000013,0.0557836,0.0780066000000005,0.2632568000000007,0.0380659999999998,0,sub_8
0.0313317999999996,0.0032152000000013,0.0418504,0.0551332000000005,0.2015702000000006,0.0330715999999998,0,sub_8
0.0382245999999995,-6.719999999866043e-05,0.0292958,0.0294032000000005,0.1227362000000007,0.0255209999999998,0,sub_8
0.0432209999999996,-0.0043911999999986,0.0179326,0.0025786000000005,0.0358178000000007,0.0160501999999998,0,sub_8
0.0431669999999996,-0.0074061999999986,0.0118764,-0.0212797999999994,-0.0536761999999992,0.0087397999999998,0,sub_8
0.0362483999999996,-0.0019079999999986,0.015211,-0.0344553999999994,-0.1347065999999993,0.0068343999999998,0,sub_8
0.0315877999999996,0.0030278000000013,0.0219398,-0.0391913999999994,-0.1878631999999993,0.0066613999999998,0,sub_8
0.0278137999999996,0.0035828000000013,0.0257586,-0.0385075999999994,-0.2185737999999992,0.0137557999999998,0,sub_8
0.0254507999999996,0.0077062000000013,0.0305992,-0.0360909999999994,-0.2344133999999992,0.0300299999999998,0,sub_8
0.0250843999999996,0.0103352000000013,0.0340438,-0.0314571999999994,-0.2329979999999993,0.0450157999999998,0,sub_8
0.0218943999999996,0.0083410000000013,0.0359852,-0.0298475999999994,-0.2321993999999992,0.0558757999999999,0,sub_8
0.0088331999999996,0.0066962000000013,0.0377946,-0.0335905999999994,-0.2396739999999992,0.0624359999999998,0,sub_8
-0.0093766000000003,0.0107326000000013,0.0408876,-0.0360245999999994,-0.2430957999999992,0.0666501999999998,0,sub_8
-0.0313376000000003,0.0107890000000013,0.0435902,-0.0343305999999994,-0.2333097999999992,0.0676715999999998,0,sub_8
-0.0464524000000003,0.0122194000000013,0.0458164,-0.0315525999999994,-0.2182069999999993,0.0701891999999998,0,sub_8
-0.0536506000000003,0.0099000000000013,0.0404736,-0.0303111999999994,-0.1830423999999992,0.0665207999999998,0,sub_8
-0.0534976000000003,0.0065388000000013,0.0337254,-0.0277175999999993,-0.1355107999999992,0.0592141999999998,0,sub_8
-0.0491958000000003,0.0024082000000013,0.0283488,-0.0325191999999993,-0.0840279999999993,0.0463725999999998,0,sub_8
