userAcceleration.x,userAcceleration.y,userAcceleration.z,rotationRate.x,rotationRate.y,rotationRate.z,label,subject
0.0040699999999998,-0.0243965999999987,0.0800188,0.0199344000000004,-0.0469679999999993,0.0114949999999999,0,sub_12
-0.0036556000000001,-0.0118671999999987,0.0913643999999999,-0.0223319999999995,-0.1108997999999993,-0.0013234,0,sub_12
-0.0084026000000001,-0.0105647999999987,0.1008907999999999,-0.0694963999999995,-0.1745935999999993,-0.0160992,0,sub_12
-0.0097096000000001,-0.0185349999999987,0.1048635999999999,-0.1181063999999995,-0.2263563999999993,-0.0296182,0,sub_12
-0.0105514000000001,-0.0280793999999987,0.1021545999999999,-0.1642821999999995,-0.2557687999999993,-0.040158,0,sub_12
-0.0088906000000001,-0.0416285999999987,0.094144,-0.2090175999999995,-0.2472715999999993,-0.0483862,0,sub_12
-0.0090092000000001,-0.0581911999999987,0.0832436,-0.2531975999999995,-0.2131975999999993,-0.0596342,0,sub_12
-0.0074858000000002,-0.0462917999999987,0.0745604,-0.2976495999999995,-0.1961509999999993,-0.0749216,0,sub_12
-0.0078680000000002,-0.0163135999999987,0.0678678,-0.3479167999999996,-0.2423461999999993,-0.0940144,0,sub_12
-0.0079492000000002,0.0187690000000012,0.0717642,-0.4088625999999996,-0.3377217999999994,-0.1126914,0,sub_12
-0.0081042000000002,0.0439090000000012,0.0691974,-0.4809009999999995,-0.4444529999999993,-0.1254568,0,sub_12
-0.0093236000000002,0.0794050000000012,0.0498946,-0.5275565999999995,-0.5459755999999993,-0.1307876,0,sub_12
-0.0102080000000001,0.1144614000000012,0.0112134,-0.5360095999999995,-0.5905633999999994,-0.1282332,0,sub_12
0.0022519999999998,0.1325832000000012,-0.0463255999999999,-0.5121779999999996,-0.4981679999999994,-0.0976414,0,sub_12
0.0137435999999998,0.1332746000000012,-0.1135607999999999,-0.4211117999999995,-0.2203773999999994,-0.028148,0,sub_12
0.0125545999999998,0.1073982000000012,-0.1461796,-0.1214343999999995,0.1244228000000005,0.0123865999999999,0,sub_12
0.0100327999999998,0.0707394000000012,-0.1363671999999999,0.1876936000000004,0.3527912000000006,0.0174577999999999,0,sub_12
0.0121973999999998,0.0131236000000012,-0.0782802,0.4052710000000005,0.5137970000000006,0.0046705999999999,0,sub_12
0.0131271999999998,-0.0301581999999987,0.002254,0.4967070000000005,0.5610890000000006,-0.0197478,0,sub_12
0.0284939999999998,-0.0567825999999987,0.0696126,0.5166088000000004,0.3739758000000006,-0.0774802,0,sub_12
0.0530929999999998,-0.0430423999999987,0.1004758,0.3239432000000005,0.0751614000000006,-0.0957482,0,sub_12
0.0743599999999998,-0.0162519999999987,0.1018954,0.0884056000000004,-0.1248375999999993,-0.0663722,0,sub_12
0.0729163999999998,0.0069486000000012,0.070056,-0.0917993999999995,-0.2874089999999993,-0.0142252,0,sub_12
0.0515185999999998,0.0151294000000012,0.0274908,-0.1595097999999995,-0.4102469999999993,0.0207105999999999,0,sub_12
0.0170577999999998,0.0209572000000012,-0.0032549999999999,-0.1882475999999995,-0.4227965999999993,0.0403947999999999,0,sub_12
-0.0145706000000001,0.0287390000000012,-0.0251757999999999,-0.1703511999999995,-0.3316803999999994,0.0427531999999999,0,sub_12
-0.0290622000000001,0.0317854000000012,-0.0496603999999999,-0.1025031999999995,-0.1993615999999993,0.0342979999999999,0,sub_12
-0.0301264000000001,0.0340116000000011,-0.0675187999999999,0.0174834000000004,-0.0595179999999993,0.0170107999999999,0,sub_12
-0.0223178000000001,0.0319688000000012,-0.0594712,0.1673804000000004,0.0844994000000006,-0.0043456,0,sub_12
-0.0024028000000001,0.0232444000000012,-0.0302918,0.2751388000000004,0.2209316000000006,-0.0103906,0,sub_12
0.0154687999999998,0.0110326000000012,-0.003772,0.3179658000000004,0.2603872000000006,-0.0043736,0,sub_12
0.0204947999999998,-0.0038995999999987,0.0303373999999999,0.3047354000000005,0.2180140000000006,0.0009293999999999,0,sub_12
0.0213991999999998,-0.0149641999999987,0.0563831999999999,0.2304688000000004,0.1728728000000006,0.0053823999999999,0,sub_12
0.0221815999999998,-0.0187341999999987,0.0618042,0.1237334000000004,0.1250540000000006,0.0149529999999999,0,sub_12
0.0134865999999998,-0.0161011999999987,0.0485044,0.0501746000000004,0.0424330000000006,0.0143313999999999,0,sub_12
0.0102177999999998,-0.0121765999999987,0.0442754,0.0154146000000004,-0.0098195999999993,0.0047551999999999,0,sub_12
0.0100681999999998,-0.0081473999999987,0.0424568,-0.0082409999999995,-0.0120455999999993,-0.0041666,0,sub_12
0.0123405999999998,-0.0068993999999987,0.0454538,-0.0221253999999995,-0.0215597999999993,-0.010447,0,sub_12
0.0142191999999998,-0.0034419999999987,0.0452052,-0.0375869999999995,-0.0466335999999993,-0.0137276,0,sub_12
0.0170031999999998,0.0007946000000012,0.041392,-0.0534905999999995,-0.0700219999999993,-0.011886,0,sub_12
0.0177289999999997,0.0052232000000012,0.0314642,-0.0614755999999995,-0.0853529999999993,-0.007222,0,sub_12
0.0165389999999997,0.0088822000000012,0.01735,-0.0591639999999995,-0.0881511999999993,-0.0020748,0,sub_12
0.0157515999999997,0.0136394000000012,0.004102,-0.0482695999999995,-0.0815997999999993,0.0018383999999999,0,sub_12
0.0163381999999997,0.0151958000000012,-0.0019055999999999,-0.0294497999999995,-0.0688949999999993,0.0051581999999999,0,sub_12
0.0177549999999997,0.0146904000000012,-0.0030393999999999,-0.0071775999999995,-0.0491653999999993,0.0069975999999999,0,sub_12
0.0185807999999997,0.0147258000000012,-0.0009365999999999,0.0133752000000004,-0.0311385999999993,0.0098953999999999,0,sub_12
0.0191509999999997,0.0146252000000011,0.0058654,0.0311138000000004,-0.0212015999999993,0.0136385999999998,0,sub_12
0.0189811999999997,0.0129658000000011,0.0144414,0.0445274000000004,-0.0229717999999993,0.0184347999999998,0,sub_12
0.0177437999999997,0.0115794000000012,0.0210872,0.0523580000000004,-0.0321811999999993,0.0236287999999998,0,sub_12
0.0158839999999997,0.0106628000000012,0.0266352,0.0560932000000004,-0.0501131999999993,0.0292327999999998,0,sub_12
0.0134329999999997,0.0095938000000012,0.0319532,0.0585444000000004,-0.0703783999999993,0.0333351999999998,0,sub_12
0.0102315999999997,0.0104428000000012,0.0372142,0.0593068000000004,-0.0878627999999993,0.0361401999999999,0,sub_12
0.0062587999999998,0.0096816000000012,0.0425358,0.0564946000000004,-0.0951019999999993,0.0374115999999998,0,sub_12
0.0027577999999998,0.0065524000000012,0.0471914,0.0488400000000004,-0.0899583999999993,0.0364969999999999,0,sub_12
0.0003079999999998,0.0015052000000012,0.0520662,0.0401790000000004,-0.0735107999999993,0.0334243999999998,0,sub_12
-0.0010718000000001,-0.0053049999999987,0.0564018,0.0292140000000004,-0.0485285999999993,0.0292565999999999,0,sub_12
-0.0019780000000001,-0.0134257999999987,0.0592412,0.0171746000000004,-0.0260959999999993,0.0242299999999998,0,sub_12
-0.0027504000000001,-0.0171699999999987,0.060379,0.0076688000000004,-0.0111231999999993,0.0177351999999999,0,sub_12
-0.0021132000000001,-0.0175239999999987,0.061286,0.0024102000000004,-0.0008515999999993,0.0110623999999999,0,sub_12
-0.0006572000000001,-0.0170233999999987,0.0638328,-0.0035269999999995,0.0057912000000006,0.0058801999999999,0,sub_12
0.0008955999999998,-0.0144871999999987,0.0705014,-0.0099493999999995,0.0005002000000006,0.0017781999999999,0,sub_12
0.0020055999999998,-0.0108559999999987,0.0777428,-0.0230429999999995,-0.0160643999999993,-0.001074,0,sub_12
0.0027887999999998,-0.0093255999999987,0.0842378,-0.0451421999999995,-0.0411249999999993,-0.0026964,0,sub_12
0.0032217999999998,-0.0101169999999987,0.0822659999999999,-0.0709155999999995,-0.0766125999999993,-0.0043312,0,sub_12
0.0028679999999998,-0.0093351999999987,0.0764585999999999,-0.0967071999999995,-0.1210391999999993,-0.0074454,0,sub_12
0.0033367999999998,-0.0074581999999987,0.0648141999999999,-0.1213627999999995,-0.1490685999999993,-0.0095046,0,sub_12
0.0046041999999998,-0.0008721999999987,0.0472949999999999,-0.1382249999999995,-0.1500757999999993,-0.0094074,0,sub_12
0.0068375999999998,0.0055724000000012,0.0275265999999999,-0.1422455999999995,-0.1426047999999993,-0.0094452,0,sub_12
0.0074981999999998,0.0146818000000012,0.0118184,-0.1357811999999995,-0.1289899999999993,-0.0098448,0,sub_12
0.0094245999999998,0.0244508000000012,-0.0055677999999999,-0.1181139999999995,-0.0894301999999993,-0.008063,0,sub_12
0.0123175999999998,0.0315482000000012,-0.0208591999999999,-0.0849671999999995,-0.0222339999999993,-0.0044992,0,sub_12
0.0151611999999998,0.0317038000000012,-0.0272261999999999,-0.0396127999999995,0.0523868000000006,-0.0034236,0,sub_12
0.0185959999999998,0.0287622000000012,-0.0245419999999999,0.0067806000000004,0.1204010000000006,-0.0027594,0,sub_12
0.0239893999999998,0.0237364000000012,-0.0158885999999999,0.0443174000000004,0.1658562000000006,-0.0006326,0,sub_12
0.0288311999999998,0.0158416000000012,-4.319999999995855e-05,0.0669244000000004,0.1655556000000006,0.0016621999999999,0,sub_12
0.0284301999999998,0.0090164000000012,0.0143778,0.0705350000000004,0.1158948000000006,0.0032465999999999,0,sub_12
0.0262695999999998,0.0046000000000012,0.0233524,0.0595212000000004,0.0413550000000006,0.0054017999999999,0,sub_12
0.0221885999999998,0.0046352000000012,0.0233926,0.0433914000000004,-0.0265459999999993,0.0075129999999999,0,sub_12
0.0177127999999997,0.0061532000000012,0.021146,0.0316642000000004,-0.0644215999999993,0.0096163999999999,0,sub_12
0.0123251999999997,0.0095690000000012,0.0149708,0.0282004000000004,-0.0682351999999993,0.0113063999999999,0,sub_12
0.0113439999999997,0.0117032000000012,0.0115708,0.0322930000000004,-0.0543837999999993,0.0111037999999999,0,sub_12
0.0126547999999997,0.0120056000000012,0.0110956,0.0410960000000004,-0.0375635999999993,0.0102893999999999,0,sub_12
0.0162935999999997,0.0096138000000012,0.0138984,0.0484006000000004,-0.0260857999999993,0.0107529999999999,0,sub_12
0.0173181999999997,0.0062312000000012,0.0190084,0.0524566000000004,-0.0246127999999993,0.0118475999999999,0,sub_12
0.0161017999999997,0.0024586000000012,0.0237306,0.0539368000000004,-0.0271763999999993,0.0122885999999999,0,sub_12
0.0143395999999997,3.100000000121981e-05,0.026966,0.0537092000000004,-0.0316447999999993,0.0110107999999999,0,sub_12
0.0119349999999997,-0.0011025999999987,0.0298076,0.0511536000000004,-0.0331169999999993,0.0084309999999999,0,sub_12
0.0080547999999997,-0.0022631999999987,0.0323518,0.0475770000000004,-0.0245711999999993,0.0056175999999999,0,sub_12
0.0067439999999998,-0.0039021999999987,0.0326372,0.0423194000000004,-0.0111157999999993,0.0019315999999999,0,sub_12
0.0084797999999998,-0.0054205999999987,0.0333168,0.0362084000000004,0.0019182000000006,-0.002187,0,sub_12
0.0101545999999998,-0.0051097999999987,0.0340708,0.0279606000000004,0.0158060000000005,-0.004826,0,sub_12
0.0118609999999998,-0.0048579999999987,0.0337686,0.0177600000000004,0.0235176000000005,-0.0064026,0,sub_12
0.0127105999999998,-0.0027819999999987,0.0323094,0.0075114000000004,0.0203644000000006,-0.0081794,0,sub_12
0.0133051999999998,0.0010752000000012,0.0297492,0.0004240000000004,0.0084648000000006,-0.0099228,0,sub_12
0.0125147999999997,0.0040886000000012,0.026105,-0.0051735999999995,-0.0034433999999993,-0.0108012,0,sub_12
0.0107683999999997,0.0057520000000012,0.022331,-0.0081961999999995,-0.0113159999999993,-0.0108122,0,sub_12
0.0095091999999997,0.0071686000000012,0.0200214,-0.0090631999999995,-0.0147199999999993,-0.0112412,0,sub_12
0.0101889999999997,0.0081298000000012,0.0186216,-0.0082287999999995,-0.0196205999999993,-0.01187,0,sub_12
0.0115595999999997,0.0073632000000012,0.0196656,-0.0078153999999995,-0.0217559999999993,-0.0110098,0,sub_12
0.0125763999999997,0.0071526000000012,0.021618,-0.0067801999999995,-0.0273049999999993,-0.0095,0,sub_12
0.0135381999999997,0.0056820000000012,0.0236934,-0.0053325999999995,-0.0364755999999993,-0.00841,0,sub_12
0.0134203999999997,0.0048230000000012,0.0255717999999999,-0.0023923999999995,-0.0450159999999993,-0.0064558,0,sub_12
0.0121305999999997,0.0040836000000012,0.0292651999999999,-6.919999999953023e-05,-0.0480163999999993,-0.0040856,0,sub_12
0.0101385999999997,0.0031780000000012,0.031381,0.0011948000000004,-0.0499451999999993,-0.0023652,0,sub_12
0.0083605999999997,0.0027334000000012,0.0339454,0.0018254000000004,-0.0499559999999993,-0.0002244,0,sub_12
0.0075887999999997,0.0017872000000012,0.0356374,0.0005442000000004,-0.0480425999999993,0.0019005999999999,0,sub_12
0.0076499999999998,0.0006002000000012,0.0362926,-0.0028677999999995,-0.0456945999999993,0.0037965999999998,0,sub_12
0.0089267999999998,-0.0014213999999987,0.035071,-0.0047671999999995,-0.0395151999999993,0.0052709999999998,0,sub_12
0.0090927999999998,-0.0008861999999987,0.0360552,-0.0047249999999995,-0.0290797999999993,0.0063261999999998,0,sub_12
0.0096793999999998,0.0006356000000012,0.0367324,-0.0038283999999995,-0.0197075999999993,0.0061067999999998,0,sub_12
0.0094093999999998,0.0033362000000012,0.0379134,-0.0023107999999995,-0.0148109999999993,0.0056837999999998,0,sub_12
0.0091805999999998,0.0047330000000012,0.0380366,-0.0023647999999995,-0.0117609999999993,0.0041773999999998,0,sub_12
0.0087473999999998,0.0059890000000012,0.0379084,-0.0030627999999995,-0.0097731999999993,0.0024541999999998,0,sub_12
0.0097503999999998,0.0051836000000011,0.0362608,-0.0050487999999995,-0.0099095999999993,0.0002973999999998,0,sub_12
0.0123525999999998,0.0031714000000011,0.0334737999999999,-0.0091913999999995,-0.0151517999999993,-0.0018678000000001,0,sub_12
0.0146329999999998,0.0016272000000011,0.0305723999999999,-0.0139971999999995,-0.0259293999999993,-0.0044578,0,sub_12
0.0166623999999998,0.0023442000000011,0.0283267999999999,-0.0168169999999995,-0.0374193999999993,-0.0057446,0,sub_12
0.0186087999999998,0.0037050000000012,0.0264406,-0.0183679999999995,-0.0504095999999993,-0.0059524,0,sub_12
0.0199649999999998,0.0058306000000012,0.0253404,-0.0173749999999995,-0.0644841999999993,-0.0035772,0,sub_12
0.0179323999999998,0.0085124000000012,0.0252322,-0.0118809999999995,-0.0715539999999993,0.0013839999999999,0,sub_12
0.0157801999999997,0.0106118000000012,0.0251958,-0.0027357999999995,-0.0716125999999993,0.0080707999999999,0,sub_12
0.0127477999999997,0.0106972000000012,0.0259228,0.0091968000000004,-0.0689103999999993,0.0145599999999999,0,sub_12
0.0099257999999997,0.0086832000000012,0.0282665999999999,0.0224306000000004,-0.0621619999999993,0.0204119999999999,0,sub_12
0.0069683999999997,0.0067924000000012,0.0305869999999999,0.0339768000000004,-0.0530563999999993,0.0243263999999998,0,sub_12
0.0054343999999997,0.0043096000000012,0.0332351999999999,0.0412468000000004,-0.0494607999999993,0.0245861999999999,0,sub_12
0.0051485999999997,0.0012020000000012,0.0362075999999999,0.0440254000000004,-0.0503149999999993,0.0226839999999998,0,sub_12
0.0061073999999997,-0.0015049999999987,0.0389227999999999,0.0408190000000004,-0.0543405999999993,0.0198893999999998,0,sub_12
0.0064839999999997,-0.0019283999999987,0.0398407999999999,0.0324668000000004,-0.0640999999999993,0.0168525999999998,0,sub_12
0.0070149999999997,-0.0017817999999987,0.0397887999999999,0.0219722000000004,-0.0768303999999993,0.0127363999999999,0,sub_12
0.0077411999999997,-0.0013291999999987,0.0383756,0.0114824000000004,-0.0878587999999993,0.0092589999999999,0,sub_12
0.0082421999999997,-0.0004173999999987,0.0364966,0.0025104000000004,-0.0935661999999993,0.0057853999999999,0,sub_12
0.0086361999999997,0.0008498000000012,0.0349268,-0.0026075999999995,-0.0958799999999993,0.0027615999999999,0,sub_12
0.0103603999999998,0.0023900000000011,0.0344894,-0.0049383999999995,-0.0952205999999993,-0.0002466,0,sub_12
0.0119249999999998,0.0023126000000011,0.0345876,-0.0053381999999995,-0.0915877999999993,-0.002604,0,sub_12
0.0125021999999997,0.0019278000000011,0.0361208,-0.0055265999999995,-0.0871087999999993,-0.0036792,0,sub_12
0.0133747999999997,0.0022940000000011,0.0375412,-0.0057409999999995,-0.0879577999999993,-0.0043206,0,sub_12
0.0143487999999997,0.0025588000000011,0.0383994,-0.0061897999999995,-0.0934931999999993,-0.0049576,0,sub_12
0.0135757999999997,0.0020660000000012,0.0383608,-0.0061993999999995,-0.0951993999999993,-0.004528,0,sub_12
0.0127665999999997,0.0021830000000012,0.0374856,-0.0064195999999995,-0.0954167999999993,-0.0032474,0,sub_12
0.0117411999999997,0.0021096000000012,0.0353764,-0.0053705999999995,-0.0966821999999993,-0.0028142,0,sub_12
0.0123697999999997,0.0030402000000012,0.0326702,-0.0036813999999995,-0.0983741999999993,-0.0028032,0,sub_12
0.0146953999999997,0.0038924000000012,0.0313514,-0.0011339999999995,-0.0981549999999993,-0.001934,0,sub_12
0.0173789999999997,0.0043556000000012,0.0308214,0.0020258000000004,-0.1043287999999993,-0.001266,0,sub_12
0.0191233999999997,0.0038662000000012,0.0317658,0.0060094000000004,-0.1171103999999993,-0.0005838,0,sub_12
0.0198155999999998,0.0043660000000012,0.0337684,0.0089364000000004,-0.1296943999999993,0.0003073999999999,0,sub_12
0.0167913999999998,0.0038596000000012,0.0362284,0.0103868000000004,-0.1384381999999993,0.0011833999999999,0,sub_12
0.0104241999999998,0.0027788000000012,0.0371088,0.0097246000000004,-0.1433361999999993,0.0011849999999998,0,sub_12
0.0049455999999998,0.0018804000000011,0.036814,0.0076178000000004,-0.1375755999999993,0.0009491999999998,0,sub_12
0.0008317999999998,0.0024522000000011,0.0355508,0.0047178000000004,-0.1183895999999993,0.0006905999999998,0,sub_12
-0.0014944000000001,0.0020430000000011,0.0337718,0.0041860000000004,-0.0953731999999993,-0.0004108,0,sub_12
-0.0007310000000002,0.0014432000000011,0.0326314,0.0057852000000004,-0.0732157999999993,-0.00171,0,sub_12
0.0018507999999997,0.0011310000000011,0.0324592,0.0075900000000004,-0.0521269999999993,-0.0023654,0,sub_12
0.0043731999999997,0.0010706000000011,0.032775,0.0089364000000004,-0.0382795999999993,-0.0032284,0,sub_12
0.0063109999999997,0.0009186000000011,0.0329494,0.0104674000000004,-0.0318855999999993,-0.0051486,0,sub_12
0.0077247999999997,0.0012648000000011,0.0331274,0.0098502000000004,-0.0274067999999993,-0.0057996,0,sub_12
0.0071377999999998,0.0009012000000011,0.0326606,0.0075290000000004,-0.0212217999999993,-0.0053964,0,sub_12
0.0057011999999998,0.0005418000000011,0.031617,0.0056470000000004,-0.0122685999999993,-0.0049936,0,sub_12
0.0042411999999998,0.0006018000000011,0.0309839999999999,0.0039994000000004,0.0011590000000006,-0.0048086,0,sub_12
0.0033489999999998,0.0003220000000011,0.0308852,0.0019262000000004,0.0156498000000006,-0.0037734,0,sub_12
0.0043577999999998,0.0005850000000011,0.0305827999999999,6.340000000044964e-05,0.0284396000000005,-0.0038028,0,sub_12
0.0059169999999998,0.0021378000000011,0.0306353999999999,-0.0015917999999995,0.0393138000000005,-0.0044692,0,sub_12
0.0084087999999998,0.0041702000000011,0.0307121999999999,-0.0034651999999995,0.0484870000000006,-0.005776,0,sub_12
0.0101105999999998,0.0052014000000012,0.0307323999999999,-0.0042915999999995,0.0553286000000006,-0.0066468,0,sub_12
0.0122699999999998,0.0064410000000012,0.0299281999999999,-0.0038405999999995,0.0613146000000006,-0.0077214,0,sub_12
0.0141541999999998,0.0069208000000012,0.0293266,-0.0010481999999995,0.0670750000000006,-0.007711,0,sub_12
0.0157129999999998,0.0069422000000012,0.0294568,0.0043238000000004,0.0779364000000006,-0.0068346,0,sub_12
0.0174893999999997,0.0067012000000012,0.0304288,0.0133510000000004,0.0951756000000006,-0.0057272,0,sub_12
0.0204271999999997,0.0069630000000011,0.0318772,0.0236764000000004,0.1149486000000005,-0.0043986,0,sub_12
0.0224209999999997,0.0077718000000012,0.0354578,0.0316354000000004,0.1313176000000006,-0.0022274,0,sub_12
0.0230513999999997,0.0069046000000012,0.0377702,0.0352944000000003,0.1406700000000006,0.0001361999999999,0,sub_12
0.0227117999999997,0.0066354000000011,0.0370206,0.0365410000000003,0.1361794000000006,0.0031417999999999,0,sub_12
0.0195301999999998,0.0052732000000012,0.0347178,0.0343276000000003,0.1223232000000006,0.0069897999999998,0,sub_12
0.0139349999999998,0.0029896000000012,0.0317342,0.0302160000000004,0.1125250000000006,0.0099645999999998,0,sub_12
0.0078091999999998,0.0013872000000012,0.027968,0.0291356000000004,0.1106070000000006,0.0110275999999998,0,sub_12
0.0036847999999998,0.0005058000000012,0.0265032,0.0295680000000004,0.1118838000000006,0.0110289999999998,0,sub_12
-5.680000000016817e-05,0.0005736000000012,0.0279055999999999,0.0272534000000004,0.1189236000000006,0.0107901999999998,0,sub_12
-0.0020246000000001,-0.0009079999999987,0.0297074,0.0230406000000004,0.1308702000000006,0.0105317999999998,0,sub_12
-0.0026818000000001,-0.0009505999999987,0.0321018,0.0179742000000004,0.1426078000000006,0.0100541999999998,0,sub_12
-0.0022768000000001,0.0001322000000012,0.0341536,0.0120488000000004,0.1530698000000006,0.0095721999999998,0,sub_12
-0.0041342000000001,0.0030216000000012,0.0364996,0.0065624000000004,0.1673612000000005,0.0101565999999999,0,sub_12
-0.0052174000000001,0.0010374000000012,0.0377486,0.0019526000000004,0.1861264000000006,0.0101001999999998,0,sub_12
-0.0060994000000001,0.0031280000000012,0.0389358,-0.0009519999999995,0.2044594000000005,0.0100563999999998,0,sub_12
-0.0066542000000001,0.0045818000000012,0.0371768,-0.0019785999999995,0.2148966000000006,0.0115313999999998,0,sub_12
-0.0070480000000001,0.0040770000000011,0.0345922,-0.0017335999999995,0.2242608000000006,0.0138711999999998,0,sub_12
-0.0049828000000001,0.0025332000000011,0.0311472,0.0008768000000004,0.2374526000000006,0.0160089999999998,0,sub_12
-0.0019094000000001,0.0046670000000011,0.0284124,0.0068714000000004,0.2448766000000006,0.0190323999999999,0,sub_12
0.0001837999999998,0.0048480000000011,0.026119,0.0124018000000004,0.2444176000000006,0.0224899999999999,0,sub_12
0.0012009999999998,0.0051094000000011,0.025151,0.0153584000000004,0.2399238000000006,0.0248663999999999,0,sub_12
0.0006229999999998,0.0050856000000012,0.0239477999999999,0.0153104000000004,0.2305444000000006,0.0261599999999998,0,sub_12
-0.0020974000000001,0.0039462000000012,0.0222323999999999,0.0139852000000004,0.2201110000000006,0.0257367999999999,0,sub_12
-0.0059528000000001,0.0009898000000012,0.0204098,0.0111970000000004,0.2116198000000006,0.0203871999999998,0,sub_12
-0.0099272000000001,-0.0007105999999987,0.0232884,0.0096918000000004,0.2012168000000006,0.0124851999999999,0,sub_12
-0.0124578000000001,-0.0014231999999987,0.0276732,0.0052226000000004,0.1946644000000006,0.0032755999999999,0,sub_12
-0.0116318000000001,-0.0015723999999987,0.0319404,-0.0003461999999995,0.1810842000000006,-0.005719,0,sub_12
-0.0086786000000001,-0.0004805999999987,0.0354796,-0.0070375999999995,0.1555750000000006,-0.0142788,0,sub_12
-0.0045364000000001,0.0021216000000012,0.0383332,-0.0129003999999995,0.1309172000000006,-0.0185618,0,sub_12
0.0010341999999998,0.0040448000000012,0.0362996,-0.0185189999999995,0.1149862000000006,-0.0209314,0,sub_12
0.0064047999999998,0.0056148000000012,0.0326578,-0.0192445999999995,0.0973276000000006,-0.021769,0,sub_12
0.0098991999999998,0.0066880000000012,0.0301464,-0.0171741999999995,0.0860450000000006,-0.0210998,0,sub_12
0.0119169999999998,0.0065386000000012,0.0299494,-0.0150701999999995,0.0839168000000006,-0.018733,0,sub_12
