userAcceleration.x,userAcceleration.y,userAcceleration.z,rotationRate.x,rotationRate.y,rotationRate.z,label,subject
-0.0288144000000002,0.0012452000000012,-0.0181956,-0.0017113999999993,-0.0130055999999992,-0.0031324,0,sub_21
-0.0284902000000002,0.0013782000000012,-0.01583,-0.0078933999999993,-0.0117055999999992,-0.0031772,0,sub_21
-0.0275512000000002,0.0017846000000012,-0.0146154,-0.0113083999999993,-0.0114821999999992,-0.002774,0,sub_21
-0.0280636000000002,0.0019422000000012,-0.0137574,-0.0145021999999993,-0.0093429999999992,-0.0021579999999999,0,sub_21
-0.0281938000000002,0.0025438000000012,-0.0145408,-0.0158047999999993,-0.0065267999999992,-0.0023955999999999,0,sub_21
-0.0284100000000002,0.0028306000000012,-0.014657,-0.0136875999999993,-0.0022321999999992,-0.0023977999999999,0,sub_21
-0.0283506000000002,0.0025150000000012,-0.0141958,-0.0107303999999993,-0.0002865999999992,-0.0017499999999999,0,sub_21
-0.0282682000000002,0.0020604000000012,-0.0132672,-0.0109621999999993,0.0035902000000007,-0.0017679999999999,0,sub_21
-0.0284326000000002,0.0021194000000012,-0.0139677999999999,-0.0090565999999993,0.0080996000000007,-0.0019853999999999,0,sub_21
-0.0285626000000002,0.0023422000000012,-0.0147446,-0.0064767999999993,0.0121394000000007,-0.0021861999999999,0,sub_21
-0.0281822000000002,0.0028808000000012,-0.0153836,-0.0028417999999993,0.0129824000000007,-0.0030163999999999,0,sub_21
-0.0269042000000002,0.0025354000000012,-0.0146896,-0.0015403999999993,0.0172408000000007,-0.0034401999999999,0,sub_21
-0.0260606000000002,0.0026712000000012,-0.0141106,-0.0007057999999993,0.0210452000000007,-0.0032373999999999,0,sub_21
-0.0262224000000002,0.0020086000000012,-0.0146242,-0.0013771999999993,0.0220850000000007,-0.0030415999999999,0,sub_21
-0.0259534000000002,0.0022508000000012,-0.0160186,-0.0014095999999993,0.0222730000000007,-0.0034811999999999,0,sub_21
-0.0249952000000002,0.0023906000000012,-0.0170938,-0.0014487999999993,0.0207574000000007,-0.0041323999999999,0,sub_21
-0.0237754000000002,0.0034400000000012,-0.0181962,0.0006382000000006,0.0183786000000007,-0.0039127999999999,0,sub_21
-0.0242060000000002,0.0033760000000012,-0.01921,0.0042434000000006,0.0143144000000007,-0.0030277999999999,0,sub_21
-0.0241560000000002,0.0036972000000012,-0.0186644,0.0065780000000006,0.0115366000000007,-0.0030079999999999,0,sub_21
-0.0238120000000002,0.0024310000000012,-0.017207,0.0063474000000006,0.0077024000000007,-0.0030047999999999,0,sub_21
-0.0236992000000002,0.0016530000000012,-0.016841,0.0035692000000006,0.0046366000000007,-0.0032375999999999,0,sub_21
-0.0243504000000002,0.0017128000000012,-0.0172842,0.0014310000000006,0.0017808000000007,-0.0032527999999999,0,sub_21
-0.0241018000000002,0.0028396000000012,-0.0179304,0.0012104000000006,-0.0019331999999992,-0.0034669999999999,0,sub_21
-0.0241122000000002,0.0034612000000012,-0.0188882,0.0037646000000006,-0.0052315999999992,-0.0034487999999999,0,sub_21
-0.0243838000000002,0.0032874000000012,-0.019262,0.0065446000000006,-0.0057609999999992,-0.0034325999999999,0,sub_21
-0.0247532000000002,0.0032432000000012,-0.0167862,0.0063256000000006,-0.0066141999999992,-0.0030057999999999,0,sub_21
-0.0254156000000002,0.0025214000000012,-0.0159372,0.0048148000000006,-0.0104439999999992,-0.0030113999999999,0,sub_21
-0.0261732000000002,0.0017106000000012,-0.0146936,0.0020352000000006,-0.0121369999999992,-0.0034559999999999,0,sub_21
-0.0263750000000002,0.0010294000000012,-0.0162314,-0.0005435999999993,-0.0141185999999992,-0.0038881999999999,0,sub_21
-0.0260520000000002,0.0016020000000012,-0.01785,-0.0018403999999993,-0.0156783999999992,-0.0043119999999999,0,sub_21
-0.0250414000000002,0.0010018000000012,-0.0186632,-0.0009967999999993,-0.0149055999999992,-0.0038691999999999,0,sub_21
-0.0240868000000002,0.0015070000000012,-0.0181898,-0.0012169999999993,-0.0130653999999992,-0.0030079999999999,0,sub_21
-0.0250822000000002,0.0019552000000012,-0.0198406,-0.0016563999999993,-0.0129271999999992,-0.0025733999999999,0,sub_21
-0.0257790000000002,0.0025926000000012,-0.0190318,-0.0025013999999993,-0.0103699999999992,-0.0019415999999999,0,sub_21
-0.0262722000000002,0.0028768000000012,-0.017899,-0.0027021999999993,-0.0071751999999992,-0.0015197999999999,0,sub_21
-0.0265730000000002,0.0035830000000012,-0.017011,-0.0024859999999993,-0.0061123999999992,-0.0010923999999999,0,sub_21
-0.0273974000000002,0.0032470000000012,-0.016596,-0.0022639999999993,-0.0055713999999992,-0.0010779999999999,0,sub_21
-0.0266858000000002,0.0023228000000012,-0.0160846,-0.0018169999999993,-0.0020499999999992,-0.0006385999999999,0,sub_21
-0.0274344000000002,0.0019738000000012,-0.0164898,-0.0007279999999993,0.0014708000000007,-0.0006219999999999,0,sub_21
-0.0266980000000002,0.0022932000000012,-0.016438,-0.0007221999999993,0.0013734000000007,-0.0006081999999999,0,sub_21
-0.0269826000000002,0.0026804000000012,-0.0171292,0.0003526000000006,0.0023352000000007,5.260000000000698e-05,0,sub_21
-0.0279644000000002,0.0025242000000012,-0.0180326,0.0027054000000006,0.0038176000000007,0.0002807999999999,0,sub_21
-0.0283240000000002,0.0027668000000012,-0.0176608,0.0048440000000006,0.0046632000000007,8.099999999998698e-05,0,sub_21
-0.0273168000000002,0.0020986000000012,-0.0152664,0.0037848000000006,0.0063714000000007,7.139999999998692e-05,0,sub_21
-0.0272678000000002,0.0013298000000012,-0.015966,0.0025018000000006,0.0061612000000007,0.0004899999999999,0,sub_21
-0.0280896000000002,0.0011156000000012,-0.0167252,0.0016644000000006,0.0066366000000007,0.0009259999999999,0,sub_21
-0.0272288000000002,0.0019544000000012,-0.0169706,0.0012452000000006,0.0047686000000007,0.0009405999999999,0,sub_21
-0.0262934000000002,0.0025554000000012,-0.0161564,0.0008182000000006,0.0011962000000007,0.0009573999999999,0,sub_21
-0.0257082000000002,0.0028376000000012,-0.0169664,0.0018908000000006,-0.0011031999999992,0.0009829999999999,0,sub_21
-0.0268826000000002,0.0030720000000012,-0.015376,0.0021250000000006,0.0004338000000007,0.0014251999999999,0,sub_21
-0.0257676000000002,0.0030832000000012,-0.0160234,0.0025470000000006,-0.0019061999999992,0.0001492,0,sub_21
-0.0253448000000002,0.0023246000000012,-0.0172156,0.0025498000000006,-0.0014791999999992,-6.479999999999325e-05,0,sub_21
-0.0250492000000002,0.0021386000000012,-0.0175092,0.0019068000000006,-0.0012671999999992,0.000785,0,sub_21
-0.0252460000000002,0.0029458000000012,-0.017439,0.0014680000000006,-0.0038217999999992,0.0020847999999999,0,sub_21
-0.0248114000000002,0.0031092000000012,-0.0182748,0.0031734000000006,-0.0051013999999992,0.0023295999999999,0,sub_21
-0.0257342000000002,0.0029622000000012,-0.0184278,0.0040416000000006,-0.0025437999999992,0.0027771999999999,0,sub_21
-0.0257660000000002,0.0029318000000012,-0.0174706,0.0053338000000006,-0.0016879999999992,0.0021615999999999,0,sub_21
-0.0245768000000002,0.0028240000000012,-0.017334,0.0042770000000006,-0.0006135999999992,0.0021703999999999,0,sub_21
-0.0242412000000002,0.0025564000000012,-0.0182916,0.0025700000000006,-0.0008197999999992,0.001945,0,sub_21
-0.0242212000000002,0.0026862000000012,-0.0192448,0.0012850000000006,-0.0018805999999992,0.0019374,0,sub_21
-0.0242554000000002,0.0030140000000012,-0.0185652,0.0015024000000006,-0.0005829999999992,0.0019566,0,sub_21
-0.0239418000000002,0.0034920000000012,-0.0182626,0.0023476000000006,-0.0012083999999992,0.0028371999999999,0,sub_21
-0.0248606000000002,0.0027626000000012,-0.0173574,0.0034090000000006,-0.0022563999999992,0.0026515999999999,0,sub_21
-0.0249376000000002,0.0026144000000012,-0.0162218,0.0031920000000006,-0.0030861999999992,0.0022431999999999,0,sub_21
-0.0258320000000002,0.0024368000000012,-0.013607,0.0012814000000006,-0.0002905999999992,0.0024591999999999,0,sub_21
-0.0256406000000002,0.0024008000000012,-0.0141462,-0.0006485999999993,-0.0024143999999992,0.0024483999999999,0,sub_21
-0.0260520000000002,0.0024980000000012,-0.0151654,-0.0021327999999993,-0.0007029999999992,0.0020086,0,sub_21
-0.0252596000000002,0.0032828000000012,-0.0171988,-0.0017023999999993,-6.439999999926348e-05,0.0017972,0,sub_21
-0.0240666000000002,0.0033854000000012,-0.0178504,-0.0001901999999993,0.0035792000000007,0.0020326,0,sub_21
-0.0223026000000002,0.0037394000000012,-0.0184174,0.0021622000000006,0.0040248000000007,0.0020641999999999,0,sub_21
-0.0223508000000002,0.0036444000000012,-0.0187156,0.0030200000000006,0.0040504000000007,0.0018723999999999,0,sub_21
-0.0222638000000002,0.0035316000000012,-0.0185788,0.0021688000000006,0.0040802000000007,0.0020957999999999,0,sub_21
-0.0233904000000002,0.0032690000000012,-0.0167568,0.0011044000000006,0.0041108000000007,0.0023177999999999,0,sub_21
-0.0257204000000002,0.0032050000000012,-0.016239,0.0004528000000006,0.0017686000000007,0.0025297999999999,0,sub_21
-0.0276650000000002,0.0028458000000012,-0.0161442,2.3200000000612315e-05,0.0007066000000007,0.0021007999999999,0,sub_21
-0.0273900000000002,0.0028554000000012,-0.0152608,0.0004566000000006,0.0017720000000007,0.0016751999999999,0,sub_21
-0.0270996000000002,0.0031190000000012,-0.0144958,0.0017314000000006,0.0007154000000007,0.0012663999999999,0,sub_21
-0.0272798000000002,0.0038250000000012,-0.0151974,0.0040758000000006,0.0011430000000007,0.0017175999999999,0,sub_21
-0.0271204000000002,0.0031776000000012,-0.0146834,0.0060022000000006,0.0030652000000007,0.0017367999999999,0,sub_21
-0.0268446000000002,0.0034078000000012,-0.015299,0.0070722000000006,0.0037146000000007,0.0011108,0,sub_21
-0.0260616000000002,0.0035422000000012,-0.0150008,0.0060046000000006,0.0035194000000007,0.0004708,0,sub_21
-0.0259422000000002,0.0029728000000012,-0.014684,0.0034394000000006,0.0026752000000007,0.0006676,0,sub_21
-0.0263274000000002,0.0026052000000012,-0.0151368,0.0008742000000006,0.0014066000000007,0.0004376,0,sub_21
-0.0263654000000002,0.0036768000000012,-0.016896,2.060000000063244e-05,0.0011974000000007,0.0002182,0,sub_21
-0.0255300000000002,0.0034562000000012,-0.0173322,0.0010734000000006,-0.0002919999999992,0.0004434,0,sub_21
-0.0260260000000002,0.0029270000000012,-0.017139,0.0034180000000006,0.0011952000000007,0.0011012,0,sub_21
-0.0263268000000002,0.0029846000000012,-0.0167254,0.0072580000000006,0.0020424000000007,0.000702,0,sub_21
-0.0257844000000002,0.0027256000000012,-0.016637,0.0096016000000005,0.0020434000000007,8.000000000000669e-05,0,sub_21
-0.0243142000000002,0.0020374000000012,-0.0162464,0.0093694000000005,-0.0009309999999992,-0.0001289999999999,0,sub_21
-0.0247612000000002,0.0015790000000012,-0.0164556,0.0072346000000005,-0.0007121999999992,0.0002832,0,sub_21
-0.0244194000000002,0.0023332000000012,-0.0180306,0.0061572000000006,-0.0032641999999992,6.520000000000665e-05,0,sub_21
-0.0245714000000002,0.0033406000000012,-0.0193666,0.0059420000000006,-0.0034773999999992,0.0002776,0,sub_21
-0.0240552000000002,0.0035580000000012,-0.0206316,0.0072070000000006,-0.0045387999999992,0.000285,0,sub_21
-0.0243620000000002,0.0036782000000012,-0.0201816,0.0091208000000006,-0.0034729999999992,0.0005077999999999,0,sub_21
-0.0246414000000002,0.0035984000000012,-0.0195306,0.0114624000000005,-0.0026199999999992,0.0003066,0,sub_21
-0.0252386000000002,0.0032556000000012,-0.0179256,0.0112358000000005,-0.0028259999999992,0.0007298,0,sub_21
-0.0251076000000002,0.0025038000000012,-0.0171896,0.0084392000000005,-0.0053655999999992,0.0009244,0,sub_21
-0.0263400000000002,0.0025668000000012,-0.0170246,0.0050348000000005,-0.0030109999999992,0.0011112,0,sub_21
-0.0268262000000002,0.0021378000000012,-0.0174774,0.0039746000000006,-0.0019403999999992,0.000675,0,sub_21
-0.0259992000000002,0.0024554000000012,-0.017626,0.0035546000000006,-0.0006595999999992,0.0004568,0,sub_21
-0.0253632000000002,0.0024710000000012,-0.0188718,0.0046206000000006,-0.0008763999999992,0.0004646,0,sub_21
-0.0255300000000002,0.0027452000000012,-0.0190482,0.0054672000000006,-2.499999999928289e-05,0.00089,0,sub_21
-0.0253608000000002,0.0023392000000012,-0.0175948,0.0060978000000006,0.0001878000000007,0.0013147999999999,0,sub_21
-0.0264776000000002,0.0026704000000012,-0.0168412,0.0054530000000006,0.0010462000000007,0.0013025999999999,0,sub_21
-0.0264536000000002,0.0027906000000012,-0.0175376,0.0039460000000006,-0.0006465999999992,0.0006465999999999,0,sub_21
-0.0259878000000002,0.0025026000000012,-0.017881,0.0026656000000005,0.0006426000000007,-1.1600000000013425e-05,0,sub_21
-0.0249136000000002,0.0020358000000012,-0.0176098,0.0016142000000005,0.0040552000000007,-2.32000000000134e-05,0,sub_21
-0.0250824000000002,0.0026368000000012,-0.0188012,0.0005464000000005,0.0040582000000007,0.000183,0,sub_21
-0.0248568000000002,0.0029966000000012,-0.0194036,-0.0003201999999993,0.0038440000000007,0.0005968,0,sub_21
-0.0252214000000002,0.0033590000000012,-0.0182816,-0.0005465999999993,0.0034154000000007,0.0008016,0,sub_21
-0.0257288000000002,0.0036352000000012,-0.0179352,-0.0014139999999993,0.0034128000000007,0.0016424,0,sub_21
-0.0265616000000002,0.0035058000000012,-0.0170492,-0.0014259999999993,0.0031966000000007,0.0018484,0,sub_21
-0.0266450000000002,0.0029312000000012,-0.0175098,-0.0008093999999993,-0.0002151999999992,0.001422,0,sub_21
-0.0262996000000002,0.0027002000000012,-0.0174132,-0.0012303999999993,0.0006402000000007,0.0009908,0,sub_21
-0.0263118000000002,0.0028246000000012,-0.0182734,-0.0010199999999993,0.0006368000000007,0.0016332,0,sub_21
-0.0276600000000002,0.0030496000000012,-0.017091,0.0004736000000006,0.0004192000000007,0.0014302,0,sub_21
-0.0282766000000002,0.0036174000000012,-0.0176094,0.0028072000000005,-0.0027839999999992,0.001237,0,sub_21
-0.0274096000000002,0.0033912000000012,-0.0154856,0.0043110000000005,0.0029568000000007,0.0014472,0,sub_21
-0.0266062000000002,0.0025052000000012,-0.0137708,0.0049336000000005,0.0020976000000007,0.0012324,0,sub_21
-0.0261428000000002,0.0018094000000012,-0.0119576,0.0025748000000005,0.0016784000000007,0.0001418,0,sub_21
-0.0257776000000002,0.0022522000000012,-0.0134912,0.0008426000000006,-0.0008769999999992,-8.719999999997332e-05,0,sub_21
-0.0257078000000002,0.0023836000000012,-0.0156304,0.0012672000000006,0.0012490000000007,-0.0007343999999999,0,sub_21
-0.0255858000000002,0.0033714000000012,-0.0174668,0.0031866000000006,0.0001804000000007,-0.0015741999999999,0,sub_21
-0.0253140000000002,0.0036034000000012,-0.018357,0.0053174000000006,-0.0006783999999992,-0.0017719999999999,0,sub_21
-0.0248436000000002,0.0040158000000012,-0.0184776,0.0061390000000006,-0.0006833999999992,-0.0009169999999999,0,sub_21
-0.0245998000000002,0.0035436000000012,-0.0175938,0.0061168000000006,0.0010208000000007,-0.0004971999999999,0,sub_21
-0.0248614000000002,0.0036456000000012,-0.0163166,0.0052380000000006,0.0012400000000007,-0.0009361999999999,0,sub_21
-0.0250206000000002,0.0036310000000012,-0.0171944,0.0043516000000006,-0.0002451999999992,-0.0013729999999999,0,sub_21
-0.0249306000000002,0.0038692000000012,-0.0188858,0.0036912000000006,0.0020996000000007,-0.0007447999999999,0,sub_21
-0.0252138000000002,0.0035684000000012,-0.0195266,0.0045504000000006,0.0033750000000007,-0.0007403999999999,0,sub_21
-0.0251474000000002,0.0031790000000012,-0.0198812,0.0056144000000006,0.0023078000000007,-0.0011589999999999,0,sub_21
-0.0240078000000002,0.0030976000000012,-0.02113,0.0053982000000006,0.0018816000000007,-0.0009463999999999,0,sub_21
-0.0246538000000002,0.0027156000000012,-0.0209552,0.0060056000000006,0.0023092000000007,-0.0005209999999999,0,sub_21
-0.0254052000000002,0.0024164000000012,-0.0189614,0.0057538000000006,0.0006126000000007,-0.0009533999999999,0,sub_21
-0.0256308000000002,0.0022344000000012,-0.0187034,0.0050762000000006,-0.0002327999999992,-0.000749,0,sub_21
-0.0251642000000002,0.0029872000000012,-0.019448,0.0039774000000006,-1.079999999926244e-05,-0.0007624,0,sub_21
-0.0258020000000002,0.0027256000000012,-0.0188618,0.0035218000000006,0.0014848000000007,-0.000132,0,sub_21
-0.0263648000000002,0.0018552000000012,-0.0182528,0.0024560000000006,0.0021260000000007,0.0002869999999999,0,sub_21
-0.0256196000000002,0.0020820000000012,-0.0186322,0.0024472000000006,-0.0002159999999992,-0.0001374,0,sub_21
-0.0249172000000002,0.0030926000000012,-0.020045,0.0033016000000006,-0.0008547999999992,-0.0009851999999999,0,sub_21
-0.0243354000000002,0.0023670000000012,-0.0193064,0.0033102000000006,0.0010628000000007,-0.0009876,0,sub_21
-0.0253286000000002,0.0030308000000012,-0.0197036,0.0041258000000006,-0.0019215999999992,-0.0016237999999999,0,sub_21
-0.0244450000000002,0.0028214000000012,-0.0201322,0.0028116000000006,-0.0040463999999992,-0.0022759999999999,0,sub_21
-0.0245520000000002,0.0023974000000012,-0.020524,0.0008650000000006,-0.0038277999999992,-0.0022945999999999,0,sub_21
-0.0250186000000002,0.0026172000000012,-0.0202836,-8.999999999347248e-06,-0.0019103999999992,-0.0018806,0,sub_21
-0.0268394000000002,0.0031326000000012,-0.0218912,0.0014622000000006,-0.0008517999999992,-0.0018766,0,sub_21
-0.0260534000000002,0.0020652000000012,-0.0224066,0.0025340000000006,-0.0002147999999992,-0.0022972,0,sub_21
-0.0252502000000002,0.0023112000000012,-0.0217462,0.0021034000000006,-0.0008533999999992,-0.0020856,0,sub_21
-0.0252014000000002,0.0030788000000012,-0.0206252,0.0012490000000006,0.0002096000000007,-0.0008112,0,sub_21
-0.0264060000000002,0.0025128000000012,-0.0204418,0.0003650000000006,-0.0017093999999992,-0.0003942,0,sub_21
-0.0260204000000002,0.0020358000000012,-0.020042,-0.0003007999999993,-0.0029881999999993,-0.0004035999999999,0,sub_21
-0.0255464000000002,0.0023442000000012,-0.019316,-0.0020191999999993,-0.0010673999999993,-0.0004245999999999,0,sub_21
-0.0256160000000002,0.0025030000000012,-0.0188746,-0.0026697999999993,0.0016992000000006,0.0002016,0,sub_21
-0.0266418000000002,0.0023640000000012,-0.0199074,-0.0024753999999993,0.0021210000000007,0.0004096,0,sub_21
-0.0264342000000002,0.0029146000000012,-0.0205196,-0.0033211999999993,0.0038284000000007,0.0004015999999999,0,sub_21
-0.0264456000000002,0.0032480000000012,-0.0199364,-0.0048117999999993,0.0046850000000007,0.0006035999999999,0,sub_21
-0.0258294000000002,0.0028272000000012,-0.0189636,-0.0069445999999993,0.0063908000000007,0.0020819999999999,0,sub_21
-0.0265938000000002,0.0028382000000012,-0.0186654,-0.0082519999999993,0.0053260000000007,0.0024981999999999,0,sub_21
-0.0268732000000002,0.0025134000000012,-0.0191002,-0.0089127999999993,0.0049016000000007,0.0020635999999999,0,sub_21
-0.0264766000000002,0.0021826000000012,-0.0182166,-0.0078627999999993,0.0059602000000007,0.0022797999999999,0,sub_21
-0.0258402000000002,0.0017440000000012,-0.0169586,-0.0076643999999993,0.0078722000000007,0.0029163999999999,0,sub_21
-0.0264014000000002,0.0017320000000012,-0.0164998,-0.0083327999999993,0.0061678000000007,0.0029105999999999,0,sub_21
-0.0266810000000002,0.0016672000000012,-0.0171562,-0.0083337999999993,0.0061670000000007,0.0031244,0,sub_21
-0.0260786000000002,0.0018540000000012,-0.0169488,-0.0100329999999993,0.0078774000000007,0.0031102,0,sub_21
-0.0256682000000002,0.0019874000000012,-0.0168592,-0.0104857999999993,0.0070226000000007,0.002467,0,sub_21
-0.0252206000000002,0.0024830000000012,-0.0187828,-0.0105147999999993,0.0055272000000007,0.0018276,0,sub_21
-0.0249666000000002,0.0030218000000012,-0.0200864,-0.0084099999999993,0.0044488000000007,0.0016298,0,sub_21
-0.0243884000000002,0.0034226000000012,-0.0193408,-0.0077969999999993,0.0042262000000007,0.0018476,0,sub_21
-0.0243532000000002,0.0033898000000012,-0.0191196,-0.0061257999999993,0.0025068000000007,0.0025022,0,sub_21
-0.0249642000000002,0.0024362000000012,-0.01767,-0.0065611999999993,0.0010154000000007,0.0029284,0,sub_21
-0.0264288000000002,0.0023028000000012,-0.016485,-0.0082777999999993,-0.0011091999999992,0.002919,0,sub_21
-0.0271798000000002,0.0023706000000012,-0.0166294,-0.0093457999999993,-0.0019549999999992,0.0022716,0,sub_21
-0.0266880000000002,0.0030700000000012,-0.0173058,-0.0078493999999993,-0.0019575999999992,0.0016412,0,sub_21
-0.0264958000000002,0.0031396000000012,-0.0179924,-0.0048763999999993,-0.0006907999999992,0.000808,0,sub_21
-0.0254966000000002,0.0039798000000012,-0.0199836,-0.0021291999999993,-0.0017685999999992,0.0004034,0,sub_21
-0.0243916000000002,0.0028368000000012,-0.0184862,0.0001962000000006,-0.0007183999999992,0.0010614,0,sub_21
-0.0240946000000002,0.0023418000000012,-0.0179828,-0.0013257999999993,-0.0007217999999992,0.0021211999999999,0,sub_21
-0.0245294000000002,0.0026734000000012,-0.0179732,-0.0022135999999993,-0.0032789999999992,0.0019067999999999,0,sub_21
-0.0253764000000002,0.0033360000000012,-0.017831,-0.0041377999999993,-0.0041243999999992,0.0018943999999999,0,sub_21
-0.0267480000000002,0.0029518000000012,-0.017781,-0.0047711999999993,-0.0028429999999992,0.0016748,0,sub_21
-0.0273000000000002,0.0035530000000012,-0.0193708,-0.0054303999999993,-0.0039027999999992,0.0010366,0,sub_21
-0.0271102000000002,0.0040810000000012,-0.0197826,-0.0045967999999993,-0.0049687999999992,0.0006224,0,sub_21
-0.0270366000000002,0.0028762000000012,-0.0197158,-0.0065283999999993,-0.0034709999999992,0.0008266,0,sub_21
-0.0262378000000002,0.0026790000000012,-0.020047,-0.0091057999999993,-0.0032491999999992,0.0010278,0,sub_21
-0.0256588000000002,0.0030884000000012,-0.021186,-0.0112545999999993,-0.0021781999999992,0.0016581999999999,0,sub_21
-0.0255046000000002,0.0040268000000012,-0.0217,-0.0103961999999993,-0.0006915999999992,0.0020895999999999,0,sub_21
-0.0244878000000002,0.0035960000000012,-0.0205726,-0.0091197999999993,-0.0013359999999992,0.0023129999999999,0,sub_21
-0.0245014000000002,0.0033194000000012,-0.0194804,-0.0093435999999993,-0.0024055999999992,0.0035945999999999,0,sub_21
-0.0262206000000002,0.0022590000000013,-0.0191248,-0.0080681999999993,-0.0026265999999992,0.0044583999999999,0,sub_21
-0.0272120000000002,0.0019518000000013,-0.018144,-0.0067785999999993,-0.0005031999999992,0.0040395999999999,0,sub_21
-0.0264160000000002,0.0018870000000013,-0.018189,-0.0061377999999993,-0.0009313999999992,0.0029785999999999,0,sub_21
-0.0268818000000002,0.0017432000000013,-0.0172644,-0.0065599999999993,0.0009816000000007,0.0034027999999999,0,sub_21
-0.0281888000000002,0.0018190000000012,-0.0179534,-0.0067745999999993,0.0011910000000007,0.0034031999999999,0,sub_21
-0.0274046000000002,0.0023760000000012,-0.0186276,-0.0080549999999993,0.0014050000000007,0.0031826,0,sub_21
-0.0258646000000002,0.0030532000000012,-0.0195536,-0.0091179999999993,0.0026854000000007,0.0036008,0,sub_21
-0.0264960000000002,0.0028220000000012,-0.0188708,-0.0108047999999993,0.0084386000000007,0.0048636,0,sub_21
-0.0262872000000002,0.0032444000000012,-0.0192868,-0.0103559999999993,0.0096970000000007,0.0050748,0,sub_21
-0.0252366000000002,0.0018652000000012,-0.0164482,-0.0071247999999993,0.0124390000000007,0.0048764,0,sub_21
-0.0250912000000002,0.0016926000000012,-0.0113332,-0.0034649999999993,0.0143324000000007,0.0034002,0,sub_21
-0.0264092000000002,0.0009976000000012,-0.0069562,0.0001832000000006,0.0130324000000007,0.001287,0,sub_21
