userAcceleration.x,userAcceleration.y,userAcceleration.z,rotationRate.x,rotationRate.y,rotationRate.z,label,subject
0.0018957999999997,0.0050506000000012,0.0105267999999999,0.0060790000000005,0.0854058000000007,-0.0026544,0,sub_20
0.0032233999999996,0.0064210000000012,0.0080325999999999,0.0035052000000005,0.0887298000000007,-0.0048547999999999,0,sub_20
0.0048769999999996,0.0078986000000012,0.0066907999999999,0.0020164000000005,0.0891636000000007,-0.0055065999999999,0,sub_20
0.0065791999999996,0.0079998000000012,0.0063451999999999,0.0026394000000005,0.0857508000000007,-0.0050705999999999,0,sub_20
0.0057751999999997,0.0087866000000012,0.0067331999999999,0.0051644000000005,0.0799808000000007,-0.0029091999999999,0,sub_20
0.0035259999999997,0.0086874000000012,0.0078285999999999,0.0081208000000005,0.0761234000000007,0.0001074,0,sub_20
0.0006343999999997,0.0076656000000012,0.0087771999999999,0.0089500000000005,0.0759978000000007,0.0017756,0,sub_20
-0.0019424000000002,0.0063614000000012,0.0088417999999999,0.0076638000000005,0.0792912000000008,0.0027838,0,sub_20
-0.0044260000000002,0.0060612000000012,0.0082089999999999,0.0034122000000005,0.0851610000000007,0.0014178,0,sub_20
-0.0051372000000002,0.0052472000000012,0.0063801999999999,-0.0025413999999993,0.0906166000000008,-0.0014549999999999,0,sub_20
-0.0048316000000002,0.0059128000000012,0.0054379999999999,-0.0087131999999993,0.0933102000000008,-0.0060349999999999,0,sub_20
-0.0041388000000002,0.0061948000000012,0.0044841999999999,-0.0127489999999993,0.0924918000000007,-0.0109759999999999,0,sub_20
-0.0040200000000002,0.0061116000000012,0.0038523999999999,-0.0165773999999994,0.0901820000000007,-0.0161273999999999,0,sub_20
-0.0034480000000002,0.0058270000000012,0.0027019999999999,-0.0201949999999993,0.0895666000000008,-0.0189291999999999,0,sub_20
-0.0031058000000002,0.0082514000000012,0.0031185999999999,-0.0229939999999993,0.0928102000000008,-0.0194459999999999,0,sub_20
-0.0028608000000002,0.0093706000000012,0.0030049999999999,-0.0238743999999993,0.0977428000000008,-0.0178151999999999,0,sub_20
-0.0038860000000002,0.0100462000000012,0.0043869999999999,-0.0232737999999994,0.1005372000000008,-0.0155301999999999,0,sub_20
-0.0058162000000002,0.0104170000000012,0.0047921999999999,-0.0218407999999993,0.0988538000000007,-0.0130199999999999,0,sub_20
-0.0084512000000002,0.0109094000000012,0.0058035999999999,-0.0191323999999994,0.0954640000000007,-0.0111395999999999,0,sub_20
-0.0103420000000002,0.0102398000000012,0.0059217999999999,-0.0146697999999994,0.0924612000000007,-0.0100363999999999,0,sub_20
-0.0106588000000002,0.0097054000000012,0.0056629999999999,-0.0089155999999994,0.0913742000000007,-0.0095673999999999,0,sub_20
-0.0099298000000002,0.0098474000000012,0.0053135999999999,-0.0015149999999994,0.0930364000000007,-0.0087345999999999,0,sub_20
-0.0089072000000002,0.0088620000000012,0.0068139999999999,0.0076052000000005,0.0980990000000008,-0.0072531999999999,0,sub_20
-0.0077522000000002,0.0084520000000012,0.0091457999999999,0.0139438000000005,0.1014668000000008,-0.0057891999999999,0,sub_20
-0.0066950000000002,0.0070054000000012,0.0108943999999999,0.0145002000000005,0.1003800000000008,-0.0041459999999999,0,sub_20
-0.0064982000000002,0.0057614000000012,0.0125971999999999,0.0097108000000005,0.0959062000000008,-0.0033905999999999,0,sub_20
-0.0065294000000002,0.0047200000000012,0.0131543999999999,0.0007272000000005,0.0912496000000007,-0.0032337999999999,0,sub_20
-0.0062118000000002,0.0052194000000012,0.0129913999999999,-0.0095299999999994,0.0870276000000007,-0.0041545999999999,0,sub_20
-0.0063220000000002,0.0058544000000012,0.0115033999999999,-0.0167923999999994,0.0842876000000008,-0.0052699999999999,0,sub_20
-0.0059796000000002,0.0067552000000012,0.0104985999999999,-0.0187155999999994,0.0819574000000008,-0.0069895999999999,0,sub_20
-0.0062358000000002,0.0076402000000012,0.0102777999999999,-0.0159473999999994,0.0796084000000008,-0.0080353999999999,0,sub_20
-0.0050880000000002,0.0087380000000012,0.0103271999999999,-0.0116933999999994,0.0763986000000008,-0.0082151999999999,0,sub_20
-0.0035736000000002,0.0102450000000012,0.0097763999999999,-0.0083015999999994,0.0719110000000008,-0.0077583999999999,0,sub_20
-0.0020270000000002,0.0097522000000012,0.0097827999999999,-0.0061947999999994,0.0669990000000008,-0.0066691999999999,0,sub_20
-0.0012528000000002,0.0096900000000012,0.0104397999999999,-0.0051577999999994,0.0627250000000008,-0.0043063999999999,0,sub_20
5.9799999999744606e-05,0.0085304000000012,0.0109327999999999,-0.0056199999999994,0.0576022000000008,-0.0015255999999999,0,sub_20
0.0003595999999997,0.0070204000000012,0.0102951999999999,-0.0063023999999993,0.0503520000000008,0.0006154,0,sub_20
-0.0003540000000002,0.0073130000000012,0.0108065999999999,-0.0071961999999993,0.0424678000000008,0.0016874,0,sub_20
-0.0004862000000002,0.0088884000000012,0.0113853999999999,-0.0072295999999993,0.0347988000000007,0.0014834,0,sub_20
1.4599999999744656e-05,0.0082062000000012,0.0111945999999999,-0.0072515999999993,0.0277764000000008,-0.0006441999999999,0,sub_20
-0.0006046000000002,0.0081346000000012,0.0113231999999999,-0.0074831999999993,0.0213948000000007,-0.0029877999999999,0,sub_20
-0.0013472000000002,0.0084358000000012,0.0126131999999999,-0.0079223999999993,0.0160802000000007,-0.0055477999999999,0,sub_20
-0.0014522000000002,0.0075844000000012,0.0125063999999999,-0.0085805999999993,0.0097002000000007,-0.0078941999999999,0,sub_20
-0.0011022000000002,0.0068988000000012,0.0120083999999998,-0.0105297999999994,0.0009812000000007,-0.0102467999999999,0,sub_20
-0.0012540000000002,0.0068558000000012,0.0117427999999998,-0.0126941999999994,-0.0075265999999992,-0.0119601999999999,0,sub_20
-0.0007814000000002,0.0075406000000012,0.0109677999999998,-0.0139983999999993,-0.0143337999999992,-0.0134559999999999,0,sub_20
-0.0003768000000002,0.0087220000000012,0.0101889999999998,-0.0142337999999994,-0.0200819999999992,-0.0143047999999999,0,sub_20
0.0009509999999997,0.0095342000000012,0.0096835999999998,-0.0129709999999994,-0.0243457999999992,-0.0147179999999999,0,sub_20
0.0012499999999997,0.0101610000000012,0.0101389999999999,-0.0102105999999993,-0.0269139999999992,-0.0142679999999999,0,sub_20
0.0015683999999997,0.0109648000000012,0.0103145999999999,-0.0072377999999994,-0.0290591999999991,-0.0131761999999999,0,sub_20
0.0013873999999997,0.0115252000000012,0.0107053999999999,-0.0042687999999994,-0.0314199999999992,-0.0114433999999999,0,sub_20
0.0009013999999997,0.0110576000000012,0.0101553999999999,-0.0010843999999994,-0.0337799999999992,-0.0101361999999999,0,sub_20
0.0003513999999997,0.0093376000000012,0.0102033999999999,0.0033764000000005,-0.0367843999999992,-0.0086055999999999,0,sub_20
7.259999999972472e-05,0.0078510000000012,0.0095361999999999,0.0069864000000005,-0.0389343999999992,-0.0068685999999999,0,sub_20
-0.0007512000000002,0.0075938000000012,0.0093921999999999,0.0095306000000005,-0.0408675999999992,-0.0051391999999999,0,sub_20
-0.0011624000000002,0.0063434000000012,0.0096783999999999,0.0103716000000005,-0.0423669999999992,-0.0038495999999999,0,sub_20
-0.0009976000000002,0.0062238000000012,0.0110103999999999,0.0092998000000005,-0.0423673999999992,-0.0027889999999999,0,sub_20
-0.0012510000000002,0.0071352000000012,0.0120577999999999,0.0054638000000005,-0.0406521999999992,-0.0021769999999999,0,sub_20
-0.0017816000000002,0.0088270000000012,0.0118563999999999,0.0014194000000005,-0.0385073999999992,-0.0022079999999999,0,sub_20
-0.0018962000000002,0.0084416000000012,0.0117459999999999,-0.0004913999999994,-0.0361579999999992,-0.0020107999999999,0,sub_20
-0.0019048000000002,0.0086632000000012,0.0111061999999999,0.0014366000000005,-0.0342481999999992,-0.0017859999999999,0,sub_20
-0.0027496000000002,0.0088238000000012,0.0109691999999999,0.0046470000000005,-0.0330275999999992,-0.0011269999999999,0,sub_20
-0.0034494000000002,0.0080658000000012,0.0105705999999999,0.0074306000000005,-0.0318053999999991,-0.0004711999999999,0,sub_20
-0.0040974000000002,0.0066332000000012,0.0118871999999999,0.0085052000000005,-0.0303667999999991,0.0008136,0,sub_20
-0.0049334000000002,0.0063690000000012,0.0124937999999999,0.0072396000000005,-0.0278529999999991,0.0016532,0,sub_20
-0.0058592000000002,0.0065918000000012,0.0122413999999999,0.0032058000000005,-0.0242633999999991,0.0022583999999999,0,sub_20
-0.0050646000000002,0.0066454000000012,0.0115861999999999,-0.0004109999999994,-0.0212703999999991,0.0028701999999999,0,sub_20
-0.0048684000000002,0.0081092000000012,0.0109025999999998,-0.0012587999999994,-0.0193523999999991,0.0035027999999999,0,sub_20
-0.0054978000000002,0.0088188000000012,0.0104647999999998,0.0002406000000005,-0.0180791999999991,0.0035115999999999,0,sub_20
-0.0055574000000002,0.0089350000000012,0.0109875999999998,0.0023810000000005,-0.0172317999999991,0.0028845999999999,0,sub_20
-0.0057976000000002,0.0084342000000012,0.0119087999999998,0.0045156000000005,-0.0176627999999991,0.0022592,0,sub_20
-0.0071132000000002,0.0077206000000012,0.0119175999999998,0.0043070000000005,-0.0176577999999991,0.0011896,0,sub_20
-0.0076868000000002,0.0071328000000012,0.0115317999999999,0.0021838000000005,-0.0161555999999991,0.0003184,0,sub_20
-0.0067696000000002,0.0072646000000012,0.0105507999999999,6.060000000058189e-05,-0.0144411999999991,-0.0003395999999999,0,sub_20
-0.0062084000000002,0.0070416000000012,0.0093951999999999,-0.0012119999999994,-0.0133689999999991,-0.0009907999999999,0,sub_20
-0.0054398000000002,0.0071254000000012,0.0092627999999999,-0.0026931999999994,-0.0116549999999991,-0.0020715999999999,0,sub_20
-0.0042868000000002,0.0082518000000012,0.0101721999999999,-0.0035205999999994,-0.0106335999999992,-0.0031379999999999,0,sub_20
-0.0040208000000002,0.0087310000000012,0.0110131999999999,-0.0043527999999994,-0.0111019999999991,-0.0046299999999999,0,sub_20
-0.0041702000000002,0.0088452000000012,0.0109625999999999,-0.0051887999999994,-0.0117859999999991,-0.0054805999999999,0,sub_20
-0.0038584000000002,0.0092466000000012,0.0107041999999999,-0.0053875999999994,-0.0124745999999991,-0.0056857999999999,0,sub_20
-0.0040452000000002,0.0101834000000012,0.0103685999999999,-0.0032391999999994,-0.0129593999999991,-0.0056611999999999,0,sub_20
-0.0042734000000002,0.0101240000000012,0.0093743999999999,0.0006052000000005,-0.0123329999999991,-0.0058487999999999,0,sub_20
-0.0033436000000002,0.0091890000000012,0.0093807999999999,0.0044536000000005,-0.0106419999999991,-0.0058239999999999,0,sub_20
-0.0025460000000002,0.0082570000000012,0.0094105999999999,0.0070674000000005,-0.0081191999999991,-0.0059729999999999,0,sub_20
-0.0024178000000002,0.0088878000000012,0.0092413999999998,0.0086124000000005,-0.0055943999999991,-0.0057021999999999,0,sub_20
-0.0019576000000002,0.0084618000000012,0.0084561999999998,0.0084446000000005,-0.0039173999999992,-0.0050149999999999,0,sub_20
-0.0020780000000002,0.0077496000000012,0.0085843999999998,0.0082644000000005,-0.0047979999999992,-0.0041107999999999,0,sub_20
-0.0026614000000002,0.0070634000000012,0.0093515999999998,0.0095788000000005,-0.0056829999999992,-0.0034097999999999,0,sub_20
-0.0032750000000002,0.0074144000000012,0.0109349999999999,0.0112838000000005,-0.0054783999999992,-0.0027571999999999,0,sub_20
-0.0034914000000002,0.0073886000000012,0.0117335999999999,0.0115010000000005,-0.0039903999999992,-0.0021165999999999,0,sub_20
-0.0036494000000002,0.0072922000000012,0.0128037999999999,0.0100122000000005,-0.0024955999999992,-0.0017015999999999,0,sub_20
-0.0032986000000002,0.0076488000000012,0.0128807999999999,0.0079044000000005,0.0004122000000007,-0.0010373999999999,0,sub_20
-0.0031324000000002,0.0087020000000012,0.0119991999999999,0.0055832000000005,0.0033208000000007,-0.0003745999999999,0,sub_20
-0.0029316000000002,0.0086374000000012,0.0104481999999999,0.0041086000000005,0.0043104000000007,-0.0001305999999999,0,sub_20
-0.0024332000000002,0.0080604000000012,0.0099787999999999,0.0047668000000005,0.0046552000000007,-0.0002981999999999,0,sub_20
-0.0017260000000002,0.0077638000000012,0.0092139999999999,0.0071310000000005,0.0054176000000007,0.0001866,0,sub_20
-0.0015564000000002,0.0073496000000012,0.0096971999999999,0.0088398000000005,0.0062622000000007,0.0006248,0,sub_20
-0.0017032000000002,0.0067040000000012,0.0104093999999999,0.0084140000000005,0.0062644000000007,0.0004082,0,sub_20
-0.0014664000000002,0.0063894000000012,0.0111515999999999,0.0056422000000005,0.0060636000000007,-0.0002517999999999,0,sub_20
-0.0018426000000002,0.0068772000000012,0.0113719999999999,0.0013766000000005,0.0048068000000008,-0.0013231999999999,0,sub_20
-0.0024772000000002,0.0078472000000012,0.0115587999999999,-0.0020315999999994,0.0041870000000007,-0.0026029999999999,0,sub_20
-0.0026618000000002,0.0086094000000012,0.0113689999999999,-0.0041537999999994,0.0048410000000007,-0.0038753999999999,0,sub_20
-0.0023698000000002,0.0092184000000012,0.0114671999999999,-0.0037195999999994,0.0052706000000007,-0.0044887999999999,0,sub_20
-0.0025936000000002,0.0088420000000012,0.0114811999999999,-0.0024355999999994,0.0052694000000007,-0.0046683999999999,0,sub_20
-0.0026368000000002,0.0077292000000012,0.0110851999999999,-0.0007285999999994,0.0056878000000007,-0.0042295999999999,0,sub_20
-0.0017954000000002,0.0067084000000012,0.0107923999999999,-0.0009457999999994,0.0052608000000007,-0.0038033999999999,0,sub_20
-0.0011450000000002,0.0062348000000012,0.0097303999999999,-0.0024471999999994,0.0039860000000007,-0.0033849999999999,0,sub_20
-0.0011118000000002,0.0062232000000012,0.0086327999999999,-0.0050093999999994,0.0033914000000007,-0.0029575999999999,0,sub_20
-0.0009252000000002,0.0077302000000012,0.0082637999999999,-0.0071401999999994,0.0034362000000007,-0.0029553999999999,0,sub_20
-0.0004038000000002,0.0087472000000012,0.0087259999999999,-0.0079935999999994,0.0026252000000007,-0.0031567999999999,0,sub_20
-0.0008404000000002,0.0091148000000012,0.0087681999999999,-0.0073551999999994,0.0011706000000007,-0.0035603999999999,0,sub_20
-0.0015000000000002,0.0096104000000012,0.0089047999999999,-0.0056517999999994,-0.0007137999999992,-0.0039561999999999,0,sub_20
-0.0014856000000002,0.0098536000000012,0.0086815999999999,-0.0033103999999994,-0.0022123999999992,-0.0041515999999999,0,sub_20
-0.0016282000000002,0.0089716000000012,0.0090189999999999,-0.0001135999999994,-0.0028635999999992,-0.0039147999999999,0,sub_20
-0.0020480000000002,0.0083668000000012,0.0090243999999999,0.0011658000000005,-0.0026565999999992,-0.0034787999999999,0,sub_20
-0.0022252000000001,0.0078206000000012,0.0097377999999999,0.0007410000000005,-0.0022289999999991,-0.0034823999999999,0,sub_20
-0.0019130000000001,0.0075444000000012,0.0097623999999999,-0.0003223999999994,-0.0015309999999991,-0.0036853999999999,0,sub_20
-0.0019356000000001,0.0074898000000012,0.0102817999999999,-0.0024535999999994,-0.0014667999999991,-0.0043223999999999,0,sub_20
-0.0018836000000001,0.0080086000000012,0.0100643999999999,-0.0050115999999994,-0.0018253999999991,-0.0053889999999999,0,sub_20
-0.0021542000000001,0.0083296000000012,0.0099185999999999,-0.0069255999999994,-0.0017585999999991,-0.0068789999999999,0,sub_20
-0.0021116000000002,0.0087562000000012,0.0089291999999999,-0.0082013999999994,-0.0019077999999992,-0.0081505999999999,0,sub_20
-0.0019848000000002,0.0087608000000012,0.0088115999999999,-0.0086233999999994,-0.0014775999999992,-0.0087949999999999,0,sub_20
-0.0015842000000002,0.0083084000000012,0.0087829999999999,-0.0079785999999993,-0.0004145999999992,-0.0087917999999999,0,sub_20
-0.0013796000000002,0.0085184000000012,0.0086857999999999,-0.0069273999999993,0.0004732000000007,-0.0085533999999999,0,sub_20
-0.0010358000000002,0.0086262000000012,0.0087807999999999,-0.0048131999999993,0.0005052000000007,-0.0083065999999999,0,sub_20
-0.0015236000000002,0.0084432000000012,0.0101329999999999,-0.0033361999999993,0.0007542000000007,-0.0084917999999999,0,sub_20
-0.0026124000000002,0.0086620000000012,0.0108229999999999,-0.0029279999999993,0.0005808000000007,-0.0086837999999999,0,sub_20
-0.0031430000000002,0.0089008000000012,0.0110751999999999,-0.0027329999999994,0.0001960000000007,-0.0090905999999999,0,sub_20
-0.0034792000000002,0.0083958000000012,0.0112307999999999,-0.0020917999999994,0.0004068000000007,-0.0090863999999999,0,sub_20
-0.0035686000000002,0.0077804000000012,0.0114603999999999,-0.0025147999999994,0.0016850000000007,-0.0086635999999999,0,sub_20
-0.0028940000000002,0.0074756000000012,0.0113005999999999,-0.0018671999999994,0.0040238000000007,-0.0080209999999999,0,sub_20
-0.0017360000000002,0.0061020000000012,0.0108125999999999,-0.0018555999999994,0.0065804000000007,-0.0080241999999999,0,sub_20
-0.0013826000000002,0.0059722000000012,0.0101341999999999,-0.0037917999999994,0.0080932000000007,-0.0078127999999999,0,sub_20
-0.0012434000000002,0.0065952000000012,0.0096141999999999,-0.0059471999999994,0.0085408000000007,-0.0073877999999999,0,sub_20
-0.0009576000000002,0.0069456000000012,0.0093729999999999,-0.0064011999999994,0.0074918000000007,-0.0071625999999999,0,sub_20
-0.0018200000000002,0.0081368000000012,0.0092263999999999,-0.0057911999999994,0.0060120000000008,-0.0067157999999999,0,sub_20
-0.0036472000000002,0.0093650000000012,0.0110495999999999,-0.0030551999999994,0.0036692000000007,-0.0053985999999999,0,sub_20
-0.0054556000000002,0.0094970000000012,0.0126691999999999,0.0016284000000005,0.0019458000000007,-0.0047225999999999,0,sub_20
-0.0066950000000002,0.0085966000000012,0.0142219999999999,0.0061074000000005,0.0021406000000007,-0.0040505999999999,0,sub_20
-0.0076478000000002,0.0078730000000012,0.0146835999999999,0.0084588000000005,0.0057504000000007,-0.0029529999999999,0,sub_20
-0.0070934000000002,0.0061228000000012,0.0144371999999999,0.0088928000000005,0.0100062000000007,-0.0018697999999999,0,sub_20
-0.0058682000000002,0.0056390000000012,0.0127863999999999,0.0069834000000005,0.0140614000000007,-0.0018705999999999,0,sub_20
-0.0039600000000002,0.0058556000000012,0.0111403999999999,0.0033670000000005,0.0183348000000007,-0.0016701999999999,0,sub_20
-0.0029562000000002,0.0060296000000012,0.0101017999999999,-0.0017467999999994,0.0211246000000007,-0.0021191999999999,0,sub_20
-0.0025832000000002,0.0067624000000012,0.0100479999999999,-0.0055873999999993,0.0213504000000007,-0.0019327999999999,0,sub_20
-0.0030782000000002,0.0076856000000012,0.0100419999999999,-0.0066619999999993,0.0202864000000007,-0.0012979999999999,0,sub_20
-0.0032002000000002,0.0079260000000012,0.0097573999999999,-0.0045377999999994,0.0194216000000007,-1.9999999996671985e-07,0,sub_20
-0.0038578000000002,0.0082394000000012,0.0105931999999999,-0.0013495999999994,0.0179140000000007,0.0013058,0,sub_20
-0.0041472000000002,0.0083496000000012,0.0108825999999999,0.0024786000000005,0.0159798000000007,0.0024238,0,sub_20
-0.0044210000000002,0.0084000000000012,0.0112383999999999,0.0054580000000005,0.0136284000000007,0.002041,0,sub_20
-0.0040668000000002,0.0083328000000012,0.0112147999999999,0.0056674000000005,0.0115022000000007,0.0009976,0,sub_20
-0.0043726000000002,0.0084496000000012,0.0117659999999999,0.0031058000000005,0.0104494000000007,0.0003606,0,sub_20
-0.0038094000000002,0.0078136000000012,0.0109151999999999,0.0003318000000005,0.0100348000000007,0.0001488,0,sub_20
-0.0028202000000002,0.0076280000000012,0.0101967999999999,-0.0007351999999994,0.0100384000000007,0.0001414,0,sub_20
-0.0018804000000002,0.0079622000000012,0.0093799999999999,-0.0015925999999994,0.0096134000000007,0.0005632,0,sub_20
-0.0011904000000002,0.0086210000000012,0.0085223999999999,-0.0013753999999994,0.0081222000000007,0.0010236,0,sub_20
-0.0001666000000002,0.0090078000000012,0.0079903999999999,-0.0003075999999994,0.0059888000000007,0.0014908,0,sub_20
-0.0005896000000002,0.0095344000000012,0.0082117999999999,0.0020376000000005,0.0036360000000007,0.0023944,0,sub_20
-0.0014890000000002,0.0099370000000012,0.0082873999999999,0.0033130000000005,0.0010724000000007,0.0037179999999999,0,sub_20
-0.0024720000000002,0.0093762000000012,0.0089769999999999,0.0058696000000005,-0.0012825999999992,0.0050503999999999,0,sub_20
-0.0035984000000002,0.0081518000000012,0.0101473999999999,0.0088396000000005,-0.0032181999999992,0.0069963999999999,0,sub_20
-0.0046516000000002,0.0073050000000012,0.0105485999999999,0.0111752000000005,-0.0045097999999992,0.0082961999999999,0,sub_20
-0.0043878000000002,0.0071688000000012,0.0099947999999999,0.0118086000000005,-0.0053667999999992,0.0089425999999999,0,sub_20
-0.0042982000000002,0.0068862000000012,0.0096999999999999,0.0116090000000005,-0.0057981999999992,0.0091927999999999,0,sub_20
-0.0036724000000002,0.0070834000000012,0.0090905999999999,0.0105540000000005,-0.0060159999999992,0.0100777999999999,0,sub_20
-0.0034838000000002,0.0078334000000012,0.0088961999999999,0.0090750000000005,-0.0060175999999992,0.0105321999999999,0,sub_20
-0.0031786000000002,0.0081774000000012,0.0098485999999999,0.0078076000000005,-0.0068705999999992,0.0105619999999999,0,sub_20
-0.0035050000000002,0.0079944000000012,0.0109669999999999,0.0069592000000005,-0.0092171999999992,0.0108102,0,sub_20
-0.0031638000000002,0.0074906000000012,0.0114383999999999,0.0060932000000005,-0.0119837999999992,0.0108077999999999,0,sub_20
-0.0034236000000002,0.0066708000000012,0.0111281999999999,0.0041632000000005,-0.0147443999999991,0.0101567999999999,0,sub_20
-0.0032936000000002,0.0066478000000012,0.0111011999999999,0.0009578000000005,-0.0166471999999991,0.0092823999999999,0,sub_20
-0.0027662000000002,0.0065906000000012,0.0101625999999999,-0.0022433999999994,-0.0189981999999991,0.0090843999999999,0,sub_20
-0.0023124000000002,0.0065754000000012,0.0099731999999999,-0.0054387999999994,-0.0204953999999991,0.0084581999999999,0,sub_20
-0.0017792000000002,0.0081168000000012,0.0102889999999999,-0.0073615999999994,-0.0226405999999991,0.00891,0,sub_20
-0.0007750000000002,0.0100100000000012,0.0113769999999998,-0.0065143999999994,-0.0256475999999991,0.0093822,0,sub_20
-0.0002462000000002,0.0104346000000012,0.0120747999999998,-0.0035323999999994,-0.0286613999999992,0.0096556,0,sub_20
-0.0009742000000002,0.0109938000000012,0.0126323999999998,8.720000000056252e-05,-0.0308029999999992,0.0092563999999999,0,sub_20
-0.0016584000000002,0.0108972000000012,0.0131167999999998,0.0024392000000005,-0.0305947999999992,0.0084179999999999,0,sub_20
-0.0019156000000002,0.0098338000000012,0.0124609999999999,0.0037358000000005,-0.0286749999999992,0.0067153999999999,0,sub_20
-0.0018880000000002,0.0088480000000012,0.0108779999999999,0.0033272000000005,-0.0265351999999992,0.0047869999999999,0,sub_20
-0.0019320000000002,0.0080070000000012,0.0094881999999999,0.0033434000000005,-0.0259415999999991,0.0035285999999999,0,sub_20
-0.0010390000000002,0.0070326000000012,0.0090187999999999,0.0042074000000005,-0.0259927999999992,0.0029178,0,sub_20
-0.0001296000000002,0.0074298000000012,0.0082459999999999,0.0069784000000005,-0.0283967999999992,0.0029644,0,sub_20
0.0003083999999997,0.0073164000000012,0.0086021999999999,0.0097436000000005,-0.0312303999999992,0.003866,0,sub_20
0.0001241999999997,0.0070760000000012,0.0089301999999999,0.0114410000000005,-0.0334245999999992,0.005614,0,sub_20
0.0003795999999997,0.0074484000000012,0.0088225999999999,0.0112210000000005,-0.0338541999999992,0.0066812,0,sub_20
-4.100000000025568e-05,0.0083188000000012,0.0086645999999999,0.0099438000000005,-0.0325739999999992,0.0073116,0,sub_20
-0.0005092000000002,0.0082842000000012,0.0084333999999999,0.0084628000000005,-0.0298551999999992,0.0077388,0,sub_20
-0.0008192000000002,0.0082154000000012,0.0083583999999999,0.0074134000000005,-0.0271335999999992,0.0071007999999999,0,sub_20
-0.0012108000000002,0.0087956000000012,0.0083899999999999,0.0063718000000005,-0.0235563999999992,0.0056071999999999,0,sub_20
-0.0014602000000002,0.0091294000000012,0.0085057999999999,0.0057558000000005,-0.0199817999999991,0.0043301999999999,0,sub_20
-0.0012486000000001,0.0088008000000012,0.0079613999999999,0.0053456000000005,-0.0174755999999991,0.0036969999999999,0,sub_20
-0.0012514000000002,0.0086668000000012,0.0078517999999999,0.0057810000000005,-0.0157717999999991,0.0034841999999999,0,sub_20
-0.0019236000000002,0.0092532000000012,0.0076785999999999,0.0068528000000005,-0.0142859999999991,0.003917,0,sub_20
-0.0024640000000002,0.0087144000000012,0.0080023999999999,0.0085646000000005,-0.0128023999999991,0.0043542,0,sub_20
-0.0031430000000002,0.0081824000000012,0.0091273999999998,0.0098374000000005,-0.0107071999999991,0.004568,0,sub_20
-0.0038522000000002,0.0077704000000012,0.0099723999999998,0.0104776000000005,-0.0073295999999991,0.0043484,0,sub_20
-0.0041388000000002,0.0077576000000012,0.0101965999999998,0.0098376000000005,-0.0037355999999992,0.0043332,0,sub_20
-0.0044034000000002,0.0072988000000012,0.0104081999999998,0.0081316000000005,-0.0003489999999992,0.0038836,0,sub_20
-0.0041216000000002,0.0075654000000012,0.0095847999999998,0.0070658000000005,0.0034598000000007,0.0038652,0,sub_20
