userAcceleration.x,userAcceleration.y,userAcceleration.z,rotationRate.x,rotationRate.y,rotationRate.z,label,subject
0.0009367999999995,0.0051596000000013,0.0233479999999999,-0.0214079999999994,0.0201684000000006,-0.012559,0,sub_11
-0.0007860000000004,0.0053954000000013,0.0233981999999999,-0.0224797999999994,0.0188948000000006,-0.0127784,0,sub_11
-0.0016718000000004,0.0052230000000013,0.0243475999999999,-0.0231333999999994,0.0154898000000006,-0.0132058,0,sub_11
-0.0025908000000004,0.0047698000000013,0.0247635999999999,-0.0223555999999994,0.0114686000000006,-0.014285,0,sub_11
-0.0036244000000004,0.0045204000000013,0.0239517999999999,-0.0213739999999994,0.0057404000000006,-0.014933,0,sub_11
-0.0017380000000004,0.0048946000000013,0.0233253999999999,-0.0201893999999994,-0.0010589999999993,-0.0142966,0,sub_11
-5.040000000040706e-05,0.0040956000000013,0.0229555999999999,-0.0187857999999994,-0.0061563999999993,-0.0132334,0,sub_11
0.0012569999999995,0.0040936000000013,0.0222695999999999,-0.0171581999999994,-0.0086985999999993,-0.0119584,0,sub_11
0.0025009999999995,0.0042330000000013,0.0222687999999999,-0.0148301999999994,-0.0104215999999993,-0.0093762,0,sub_11
0.0039893999999995,0.0044296000000013,0.0209441999999999,-0.0127107999999994,-0.0112905999999993,-0.0070102,0,sub_11
0.0036463999999995,0.0044766000000012,0.0201217999999999,-0.0101609999999994,-0.0123697999999993,-0.005709,0,sub_11
0.0020071999999995,0.0043732000000012,0.0205197999999999,-0.0070279999999994,-0.0123613999999993,-0.0048502,0,sub_11
0.0021167999999995,0.0052982000000012,0.0200839999999999,-0.0047475999999994,-0.0123491999999993,-0.004211,0,sub_11
0.0027635999999995,0.0066734000000012,0.0200755999999999,-0.0037425999999994,-0.0121159999999993,-0.0044354,0,sub_11
0.0027763999999995,0.0070896000000012,0.0215055999999999,-0.0027357999999994,-0.0110321999999993,-0.0042338,0,sub_11
0.0024793999999995,0.0068872000000012,0.0230395999999999,-0.0019325999999994,-0.0082415999999993,-0.0044632,0,sub_11
0.0034567999999995,0.0072500000000012,0.0230229999999999,-0.0021411999999994,-0.0071755999999993,-0.0044662,0,sub_11
0.0034563999999995,0.0069238000000012,0.0243853999999999,-0.0023517999999994,-0.0067477999999993,-0.0046818,0,sub_11
0.0030325999999995,0.0073516000000012,0.0251753999999999,-0.0021365999999994,-0.0061101999999993,-0.0044676,0,sub_11
0.0029639999999995,0.0082592000000012,0.0260461999999999,-0.0019629999999994,-0.0056611999999993,-0.0044708,0,sub_11
0.0025539999999995,0.0073870000000012,0.0245821999999999,-0.0020075999999994,-0.0056399999999993,-0.0038338,0,sub_11
0.0025317999999995,0.0068096000000012,0.0238829999999999,-0.0007671999999994,-0.0049823999999993,-0.003616,0,sub_11
0.0023277999999995,0.0065826000000012,0.0231397999999999,0.0017516000000005,-0.0045431999999993,-0.0031754,0,sub_11
0.0024315999999995,0.0053448000000012,0.0223415999999999,0.0038426000000005,-0.0045275999999993,-0.0029508,0,sub_11
0.0023769999999995,0.0041574000000012,0.0220027999999999,0.0051228000000004,-0.0041075999999993,-0.002515,0,sub_11
0.0028971999999995,0.0048612000000012,0.0235607999999999,0.0057724000000004,-0.0021915999999993,-0.0027266,0,sub_11
0.0023487999999995,0.0059430000000012,0.0236709999999999,0.0053524000000004,-0.0004863999999993,-0.002518,0,sub_11
0.0019965999999995,0.0061480000000013,0.0234143999999999,0.0042826000000004,0.0001592000000006,-0.0022976,0,sub_11
0.0013877999999995,0.0058254000000013,0.0237987999999999,0.0038578000000004,0.0012310000000006,-0.0027142,0,sub_11
0.0010469999999995,0.0059224000000013,0.0228809999999999,0.0040654000000004,0.0005964000000006,-0.0031242,0,sub_11
0.0006669999999995,0.0066180000000013,0.0226513999999999,0.0044748000000004,-0.0021711999999993,-0.0031026,0,sub_11
0.0012807999999995,0.0053390000000013,0.0229771999999999,0.0046708000000005,-0.0049381999999993,-0.0030826,0,sub_11
0.0015263999999995,0.0045712000000013,0.0230295999999998,0.0044652000000005,-0.0042941999999993,-0.004153,0,sub_11
0.0029711999999995,0.0051014000000013,0.0218045999999998,0.0040374000000005,-0.0042933999999993,-0.0039422,0,sub_11
0.0038251999999995,0.0051446000000012,0.0221173999999999,0.0042498000000005,-0.0036583999999993,-0.0030868,0,sub_11
0.0042039999999995,0.0043774000000012,0.0220329999999999,0.0053624000000005,-0.0021955999999993,-0.0026165999999999,0,sub_11
0.0039365999999995,0.0045296000000012,0.0219105999999999,0.0069046000000005,0.0001172000000006,-0.0019307999999999,0,sub_11
0.0034769999999995,0.0044700000000012,0.0217785999999999,0.0088532000000005,-0.0009845999999993,-0.0001696,0,sub_11
0.0018441999999995,0.0045978000000012,0.0227997999999999,0.0110154000000005,-0.0027237999999993,0.0009527999999999,0,sub_11
0.0007677999999995,0.0048484000000013,0.0228613999999999,0.0123298000000005,-0.0040305999999993,0.0012141999999999,0,sub_11
0.0011477999999995,0.0047896000000013,0.0237671999999999,0.0129670000000005,-0.0044597999999993,0.0014327999999999,0,sub_11
0.0010729999999995,0.0048262000000012,0.0239719999999999,0.0136052000000005,-0.0051003999999993,0.0012243999999999,0,sub_11
0.0014123999999995,0.0055880000000012,0.0241057999999999,0.0133938000000005,-0.0048857999999993,0.0010089999999999,0,sub_11
0.0019881999999995,0.0056796000000012,0.0237549999999999,0.0131880000000005,-0.0033929999999993,0.0007919999999999,0,sub_11
0.0019341999999995,0.0049276000000012,0.0238071999999999,0.0130396000000005,-0.0021085999999993,0.0001913999999999,0,sub_11
0.0008535999999995,0.0052932000000012,0.0224819999999999,0.0124500000000005,-0.0031697999999993,0.0004451999999999,0,sub_11
0.0003959999999995,0.0059760000000012,0.0218235999999999,0.0114318000000005,-0.0046555999999993,0.0006965999999999,0,sub_11
0.0008551999999995,0.0055594000000012,0.0216317999999999,0.0116986000000005,-0.0055049999999993,0.0005287999999999,0,sub_11
0.0013255999999995,0.0054618000000012,0.0216049999999999,0.0115426000000005,-0.0059249999999993,-6.960000000003881e-05,0,sub_11
0.0022337999999995,0.0064424000000013,0.0212927999999999,0.0106842000000005,-0.0069873999999993,-7.420000000003882e-05,0,sub_11
0.0019211999999995,0.0070362000000013,0.0228385999999999,0.0096184000000005,-0.0069827999999993,-0.0002952,0,sub_11
0.0015707999999995,0.0079006000000013,0.0228065999999999,0.0083758000000005,-0.0093005999999993,-0.0013312,0,sub_11
0.0005243999999995,0.0087026000000013,0.0226589999999999,0.0064808000000005,-0.0150223999999993,-0.0030082,0,sub_11
0.0001417999999995,0.0088874000000013,0.0225219999999999,0.0045858000000005,-0.0211685999999993,-0.005112,0,sub_11
0.0010869999999995,0.0079844000000013,0.0236981999999999,0.0033416000000004,-0.0256099999999993,-0.0078544,0,sub_11
0.0036413999999995,0.0068086000000013,0.0238237999999999,0.0027402000000004,-0.0294143999999993,-0.0105932,0,sub_11
0.0064117999999995,0.0057410000000013,0.0248735999999999,0.0023078000000004,-0.0315399999999993,-0.011448,0,sub_11
0.0080499999999995,0.0046742000000013,0.0238155999999999,0.0018830000000004,-0.0313245999999993,-0.0116648,0,sub_11
0.0092257999999995,0.0040208000000013,0.0224589999999999,0.0029430000000004,-0.0321831999999993,-0.0110154,0,sub_11
0.0086303999999995,0.0039644000000013,0.0201233999999999,0.0059148000000004,-0.0339049999999993,-0.0092831999999999,0,sub_11
0.0081643999999995,0.0039822000000013,0.0181077999999998,0.0097582000000004,-0.0364633999999993,-0.0077256,0,sub_11
0.0074303999999995,0.0039430000000013,0.0168119999999998,0.0142532000000004,-0.0379525999999993,-0.0076604,0,sub_11
0.0076145999999995,0.0044552000000013,0.0174693999999998,0.0178946000000004,-0.0392265999999993,-0.0073878,0,sub_11
0.0067827999999995,0.0050694000000012,0.0185707999999998,0.0196206000000004,-0.0402773999999993,-0.0079834,0,sub_11
0.0062181999999995,0.0057892000000012,0.0200205999999999,0.0194300000000004,-0.0421667999999993,-0.0103006,0,sub_11
0.0065029999999995,0.0070056000000012,0.0218605999999999,0.0183708000000004,-0.0432171999999993,-0.013084,0,sub_11
0.0051937999999995,0.0079592000000012,0.0260013999999999,0.0154306000000004,-0.0351013999999993,-0.015465,0,sub_11
0.0061139999999995,0.0080650000000012,0.0259555999999999,0.0124588000000004,-0.0342285999999993,-0.0180506,0,sub_11
0.0065179999999995,0.0083248000000012,0.0266057999999999,0.0107694000000004,-0.0329189999999993,-0.0201732,0,sub_11
0.0083023999999995,0.0083900000000012,0.0264881999999999,0.0094980000000005,-0.0318307999999993,-0.0205834,0,sub_11
0.0082711999999995,0.0076960000000013,0.0257697999999999,0.0086562000000005,-0.0296805999999993,-0.0205648,0,sub_11
0.0092255999999995,0.0065256000000013,0.0219441999999999,0.0096964000000005,-0.0364835999999993,-0.0209488,0,sub_11
0.0094077999999995,0.0067184000000013,0.0228805999999999,0.0122638000000005,-0.0354103999999993,-0.020905,0,sub_11
0.0122235999999995,0.0065322000000013,0.0229491999999999,0.0148280000000005,-0.0345671999999993,-0.0208882,0,sub_11
0.0121419999999995,0.0057920000000013,0.0232985999999999,0.0169772000000005,-0.0324389999999993,-0.0221578,0,sub_11
0.0113399999999995,0.0050560000000013,0.0231839999999999,0.0188774000000005,-0.0324211999999993,-0.023412,0,sub_11
0.0113173999999995,0.0056216000000013,0.0232427999999999,0.0201336000000005,-0.0336779999999993,-0.0250964,0,sub_11
0.0104781999999995,0.0059894000000013,0.0227077999999999,0.0209630000000005,-0.0359943999999993,-0.0278506,0,sub_11
0.0077183999999995,0.0065110000000013,0.0217471999999999,0.0200864000000005,-0.0387281999999993,-0.031257,0,sub_11
0.0069155999999995,0.0082712000000013,0.0209507999999999,0.0187772000000004,-0.0427389999999993,-0.0346648,0,sub_11
0.0089079999999995,0.0098172000000013,0.0216323999999999,0.0168654000000004,-0.0446345999999993,-0.0385212,0,sub_11
0.0105427999999995,0.0097732000000012,0.0223391999999999,0.0143202000000004,-0.0448241999999993,-0.0421706,0,sub_11
0.0126673999999995,0.0095914000000012,0.0218835999999999,0.0102786000000004,-0.0450109999999993,-0.0451896,0,sub_11
0.0156487999999995,0.0099978000000012,0.0213375999999999,0.0068352000000004,-0.0447469999999993,-0.0469112,0,sub_11
0.0181777999999995,0.0095974000000012,0.0209617999999999,0.0044826000000005,-0.0389479999999993,-0.0484186,0,sub_11
0.0191625999999995,0.0091200000000012,0.0184461999999999,0.0023452000000004,-0.0325113999999993,-0.0497116,0,sub_11
0.0207479999999995,0.0090632000000012,0.0172947999999999,0.0010642000000004,-0.0256509999999993,-0.0512128,0,sub_11
0.0191187999999995,0.0096342000000012,0.0179353999999999,0.0006368000000004,-0.0198545999999993,-0.0537748,0,sub_11
0.0168353999999995,0.0094970000000012,0.0196481999999999,0.0004694000000004,-0.0134467999999993,-0.0576298,0,sub_11
0.0137657999999995,0.0077456000000012,0.0206587999999999,-0.0001389999999995,-0.0102335999999993,-0.0614838,0,sub_11
0.0104349999999995,0.0067480000000012,0.0215301999999999,-0.0003417999999994,-0.0114967999999993,-0.0651156,0,sub_11
0.0063501999999995,0.0058666000000013,0.0214159999999999,-0.0023367999999994,-0.0207725999999993,-0.0665863999999999,0,sub_11
0.0037001999999995,0.0055864000000013,0.0199521999999999,-0.0056369999999994,-0.0338857999999993,-0.0663524,0,sub_11
0.0016639999999995,0.0042912000000013,0.0184019999999999,-0.0123701999999994,-0.0497625999999993,-0.0646431999999999,0,sub_11
0.0002231999999995,0.0059150000000013,0.0201233999999999,-0.0214371999999994,-0.0622239999999993,-0.0625274,0,sub_11
0.0015357999999995,0.0054756000000013,0.0193369999999999,-0.0326685999999994,-0.0829809999999993,-0.0619116,0,sub_11
0.0016461999999995,0.0011652000000013,0.0206343999999999,-0.0425823999999994,-0.1055275999999993,-0.062593,0,sub_11
0.0030417999999995,-0.0012681999999986,0.0235253999999999,-0.0467083999999994,-0.1227655999999993,-0.0638816,0,sub_11
0.0078475999999995,-0.0051907999999986,0.0247639999999999,-0.0455355999999994,-0.1466319999999993,-0.0638428,0,sub_11
0.0067835999999995,-0.0069209999999986,0.0263379999999999,-0.0320341999999994,-0.1780103999999993,-0.0607172,0,sub_11
-7.200000000446433e-06,-0.0050803999999986,0.0307895999999999,0.0038476000000005,-0.2122469999999993,-0.054868,0,sub_11
-0.0055964000000004,-0.0004583999999986,0.0303615999999999,0.0428526000000005,-0.2175137999999993,-0.0503158,0,sub_11
-0.0037408000000004,0.0023924000000013,0.0255357999999999,0.0832524000000005,-0.2404861999999993,-0.0414584,0,sub_11
-0.0054136000000004,0.0077384000000012,0.0220637999999999,0.1160436000000005,-0.2476641999999993,-0.0331016,0,sub_11
-0.0014498000000004,0.0094408000000013,0.0172761999999999,0.1334808000000005,-0.2541441999999994,-0.026135,0,sub_11
0.0051813999999995,0.0126630000000013,0.0125753999999999,0.1247822000000004,-0.2426105999999993,-0.0257832,0,sub_11
0.0137369999999995,0.0161888000000013,0.0113621999999999,0.1081352000000004,-0.2461631999999993,-0.0286724,0,sub_11
0.0135413999999995,0.0154904000000012,0.0166067999999999,0.0837566000000004,-0.2198351999999993,-0.038063,0,sub_11
0.0118943999999995,0.0134884000000012,0.0228437999999999,0.0642636000000004,-0.1967269999999993,-0.0457064,0,sub_11
0.0096397999999995,0.0114626000000012,0.0306249999999999,0.0503334000000004,-0.1659853999999993,-0.0490476,0,sub_11
0.0038053999999995,0.0038810000000012,0.0384161999999999,0.0408670000000004,-0.1323039999999993,-0.045525,0,sub_11
-0.0015288000000004,0.0017076000000012,0.0475147999999999,0.0384628000000004,-0.0922625999999993,-0.040252,0,sub_11
-0.0096242000000004,0.0036176000000013,0.0542487999999999,0.0386142000000004,-0.0552049999999993,-0.0368802,0,sub_11
-0.0179408000000004,0.0062784000000012,0.0594313999999999,0.0379408000000004,-0.0172701999999993,-0.03907,0,sub_11
-0.0320910000000004,0.0044600000000013,0.0568283999999999,0.0344668000000005,0.0115260000000006,-0.0444724,0,sub_11
-0.0417226000000003,0.0047110000000013,0.0506695999999999,0.0324126000000005,0.0268828000000006,-0.0468564,0,sub_11
-0.0523452000000003,0.0002984000000013,0.0417213999999999,0.0321446000000005,0.0174982000000006,-0.0440688,0,sub_11
-0.0584272000000003,-0.0062945999999986,0.0316585999999999,0.0391990000000005,-0.0127097999999993,-0.0373296,0,sub_11
-0.0620272000000003,-0.0127985999999986,0.0217203999999999,0.0555220000000005,-0.0632161999999993,-0.0240903999999999,0,sub_11
-0.0596510000000003,-0.0129885999999986,0.0156663999999999,0.0771620000000005,-0.1152419999999993,-0.0084619999999999,0,sub_11
-0.0547116000000003,-0.0110545999999986,0.0148713999999999,0.1020744000000005,-0.1529977999999993,0.0054617999999999,0,sub_11
-0.0496022000000003,-0.0119189999999986,0.0157787999999999,0.1213534000000005,-0.1611239999999993,0.0205901999999999,0,sub_11
-0.0404134000000003,-0.0041783999999986,0.0171425999999999,0.1338752000000005,-0.1620765999999993,0.0347793999999999,0,sub_11
-0.0347992000000003,0.0033318000000013,0.0221571999999999,0.1362558000000005,-0.1440179999999993,0.0454551999999999,0,sub_11
-0.0299694000000004,0.0052066000000013,0.0296941999999999,0.1312280000000005,-0.1146337999999993,0.0541417999999999,0,sub_11
-0.0283384000000004,0.0059654000000013,0.0354203999999999,0.1186832000000005,-0.0943913999999993,0.0644967999999999,0,sub_11
-0.0296280000000004,0.0057350000000013,0.0400615999999999,0.1079696000000005,-0.0952429999999993,0.0736095999999999,0,sub_11
-0.0364132000000004,0.0012564000000013,0.0417327999999999,0.0993764000000005,-0.0992969999999993,0.0825277999999999,0,sub_11
-0.0396862000000004,-0.0022429999999986,0.0384517999999999,0.0937368000000005,-0.1129401999999993,0.0893423999999999,0,sub_11
-0.0344510000000004,-0.0002169999999986,0.0361295999999999,0.0951402000000005,-0.1312747999999993,0.0910849999999999,0,sub_11
-0.0275756000000004,-0.0033851999999986,0.0299457999999999,0.0944014000000005,-0.1551267999999993,0.0891875999999999,0,sub_11
-0.0168160000000004,0.0021882000000013,0.0184345999999999,0.0889730000000005,-0.1819289999999993,0.0832019999999999,0,sub_11
-0.0021038000000004,0.0108920000000013,0.0093455999999999,0.0846930000000004,-0.1959303999999993,0.0718667999999999,0,sub_11
0.0175233999999995,0.0172008000000013,-0.000958,0.0815384000000004,-0.1975757999999993,0.0598827999999999,0,sub_11
0.0321765999999996,0.0180336000000013,-0.0116588,0.0724200000000005,-0.1928249999999993,0.0519081999999999,0,sub_11
0.0468131999999996,0.0241474000000013,-0.0148924,0.0659320000000005,-0.1740157999999993,0.0424383999999999,0,sub_11
0.0573237999999996,0.0248574000000013,-0.0093936,0.0606000000000004,-0.1364571999999993,0.0318845999999999,0,sub_11
0.0630899999999995,0.0195550000000013,-0.00159,0.0499202000000004,-0.0963455999999993,0.0268447999999999,0,sub_11
0.0615577999999995,0.0150024000000013,0.0098417999999999,0.0366454000000004,-0.0581655999999993,0.0275577999999999,0,sub_11
0.0564001999999995,0.0146984000000013,0.0205185999999999,0.0222962000000004,-0.0206251999999993,0.0293321999999999,0,sub_11
0.0486271999999995,0.0129640000000013,0.0282245999999999,0.0094252000000004,0.0137132000000006,0.0313347999999999,0,sub_11
0.0367905999999995,0.0111980000000013,0.0296673999999999,0.0009710000000005,0.0348224000000006,0.0344531999999999,0,sub_11
0.0273261999999995,0.0092062000000013,0.0257343999999999,-0.0054329999999994,0.0380252000000006,0.0382499999999999,0,sub_11
0.0222595999999995,0.0090856000000013,0.0183943999999999,-0.0080469999999994,0.0246178000000006,0.0367533999999999,0,sub_11
0.0218035999999995,0.0083548000000013,0.0113751999999999,-0.0034333999999994,0.0007632000000006,0.0308341999999999,0,sub_11
0.0252151999999995,0.0074922000000013,0.0048451999999999,0.0041358000000004,-0.0290713999999993,0.0260113999999999,0,sub_11
0.0349273999999995,0.0087834000000013,0.0012029999999999,0.0102008000000004,-0.0582735999999993,0.0241683999999999,0,sub_11
0.0429109999999995,0.0097176000000012,0.0014735999999999,0.0126788000000004,-0.0770293999999993,0.0237823999999999,0,sub_11
0.0426603999999995,0.0089564000000012,0.0037233999999999,0.0102980000000004,-0.0829927999999993,0.0252689999999999,0,sub_11
0.0364465999999995,0.0089736000000012,0.0041321999999999,0.0045158000000004,-0.0849011999999993,0.0280083999999999,0,sub_11
0.0224335999999995,0.0099326000000012,0.0021127999999999,-0.0034009999999995,-0.0887127999999993,0.0290261999999999,0,sub_11
0.0076141999999995,0.0095080000000012,0.0001371999999999,-0.0117493999999994,-0.0980443999999993,0.0255615999999999,0,sub_11
-0.0062772000000004,0.0099804000000013,-0.0012178,-0.0173171999999994,-0.1114115999999993,0.0165667999999999,0,sub_11
-0.0137988000000004,0.0044976000000013,0.0016975999999999,-0.0262643999999994,-0.1194309999999993,0.0051913999999999,0,sub_11
-0.0153136000000004,0.0076980000000013,0.0059791999999999,-0.0339189999999994,-0.1272315999999993,-0.008739,0,sub_11
-0.0087352000000004,0.0086652000000013,0.0116481999999999,-0.0428193999999994,-0.1282067999999993,-0.0235414,0,sub_11
-0.0019386000000004,0.0082006000000013,0.0203209999999999,-0.0467745999999994,-0.1198289999999993,-0.037253,0,sub_11
0.0052385999999995,0.0055784000000013,0.0283099999999999,-0.0462519999999994,-0.1080741999999993,-0.0468784,0,sub_11
0.0115407999999995,0.0105176000000013,0.0346161999999999,-0.0353229999999994,-0.1038263999999993,-0.0530032,0,sub_11
0.0149387999999995,0.0069174000000013,0.0373875999999999,-0.0231223999999994,-0.0976809999999993,-0.055276,0,sub_11
0.0170141999999995,0.0048480000000013,0.0395353999999999,-0.0083755999999994,-0.0898595999999993,-0.0526192,0,sub_11
0.0190253999999995,0.0034988000000013,0.0356545999999999,0.0022920000000005,-0.0820463999999993,-0.0444362,0,sub_11
0.0201203999999995,0.0035110000000012,0.0307333999999999,0.0086884000000004,-0.0720995999999993,-0.0332948,0,sub_11
0.0192623999999995,0.0046852000000012,0.0223119999999999,0.0099936000000004,-0.0563791999999993,-0.023051,0,sub_11
0.0178667999999995,0.0072242000000012,0.0160849999999999,0.0068352000000004,-0.0389301999999993,-0.0149768,0,sub_11
0.0141205999999995,0.0104064000000012,0.0106063999999999,0.0002954000000004,-0.0193181999999993,-0.0120566,0,sub_11
0.0117791999999995,0.0134850000000012,0.0078865999999999,-0.0079197999999995,0.0028744000000006,-0.013638,0,sub_11
0.0094487999999995,0.0153226000000012,0.0066569999999999,-0.0173959999999994,0.0269982000000006,-0.0175806,0,sub_11
0.0072233999999995,0.0145702000000012,0.0070065999999999,-0.0275161999999994,0.0498478000000006,-0.0219534,0,sub_11
0.0052373999999995,0.0126878000000013,0.0072493999999999,-0.0327547999999994,0.0620188000000006,-0.026502,0,sub_11
0.0054439999999995,0.0118564000000013,0.0092311999999999,-0.0401061999999994,0.0803698000000006,-0.0295778,0,sub_11
0.0060047999999995,0.0094206000000012,0.0135975999999999,-0.0463991999999994,0.0951020000000006,-0.0343506,0,sub_11
0.0134373999999995,0.0103450000000012,0.0174841999999999,-0.0516081999999994,0.1119678000000006,-0.0408278,0,sub_11
0.0222721999999995,0.0073582000000012,0.0206215999999999,-0.0583165999999994,0.1292580000000006,-0.0456068,0,sub_11
0.0284911999999995,0.0099466000000012,0.0220593999999999,-0.0716247999999994,0.1606178000000006,-0.0442444,0,sub_11
0.0263341999999995,0.0079950000000012,0.0205825999999999,-0.0798657999999994,0.1808774000000006,-0.0419778,0,sub_11
0.0184199999999995,0.0079530000000013,0.0133255999999999,-0.0821621999999994,0.1957848000000006,-0.038381,0,sub_11
0.0040281999999995,0.0045676000000013,0.0068571999999999,-0.0806675999999994,0.2012976000000006,-0.0330364,0,sub_11
-0.0112530000000003,0.0012810000000013,0.0020017999999999,-0.0726139999999994,0.1948546000000006,-0.0272034,0,sub_11
-0.0231176000000003,-0.0029435999999986,0.0001963999999999,-0.0590339999999994,0.1822196000000006,-0.0228194,0,sub_11
-0.0275192000000003,-0.0046151999999986,0.0020599999999999,-0.0439783999999994,0.1676536000000006,-0.0162862,0,sub_11
-0.0253344000000003,-0.0049753999999986,0.0099285999999999,-0.0327625999999994,0.1552238000000005,-0.0078598,0,sub_11
-0.0220222000000003,-0.0034711999999986,0.0176465999999999,-0.0266695999999994,0.1423858000000006,0.0005311999999999,0,sub_11
-0.0171612000000004,0.0026606000000013,0.0252853999999999,-0.0260907999999994,0.1349020000000006,0.0067403999999999,0,sub_11
-0.0161354000000004,0.0029372000000013,0.0309071999999999,-0.0289373999999994,0.1202052000000006,0.0082347999999999,0,sub_11
-0.0168742000000004,0.0047862000000013,0.0342525999999999,-0.0352085999999994,0.0989326000000006,0.0054407999999999,0,sub_11
-0.0196014000000004,0.0048706000000013,0.0348299999999999,-0.0434105999999994,0.0736254000000006,0.0009293999999999,0,sub_11
-0.0241030000000003,0.0014090000000013,0.0323477999999999,-0.0490895999999994,0.0402126000000006,-0.0033402,0,sub_11
-0.0269190000000003,0.0017516000000013,0.0271099999999999,-0.0553933999999994,0.0112718000000006,-0.0065518,0,sub_11
-0.0256322000000003,0.0019538000000013,0.0238567999999999,-0.0587099999999995,-0.0164061999999993,-0.0084624,0,sub_11
-0.0216156000000003,0.0010664000000013,0.0207653999999999,-0.0579581999999994,-0.0389927999999993,-0.0084282,0,sub_11
-0.0166196000000003,0.0015016000000013,0.0181391999999999,-0.0559041999999994,-0.0568957999999993,-0.0086044,0,sub_11
-0.0099394000000004,0.0062682000000012,0.0199557999999999,-0.0527333999999994,-0.0656335999999993,-0.0107076,0,sub_11
-0.0052722000000004,0.0047824000000012,0.0217405999999999,-0.0473981999999994,-0.0694709999999993,-0.0147246,0,sub_11
-0.0014824000000004,0.0029124000000012,0.0226215999999999,-0.0454749999999994,-0.0703239999999993,-0.0162054,0,sub_11
0.0006965999999995,0.0012482000000012,0.0238113999999999,-0.0433527999999994,-0.0726757999999993,-0.0159738,0,sub_11
-0.0006170000000004,0.0012440000000012,0.0255229999999999,-0.0371841999999994,-0.0744119999999993,-0.0133648,0,sub_11
-0.0031724000000004,-0.0012607999999986,0.0258805999999999,-0.0303523999999994,-0.0691273999999993,-0.0088372,0,sub_11
-0.0034642000000004,-0.0013475999999986,0.0272241999999999,-0.0229139999999994,-0.0687553999999993,-0.0017354,0,sub_11
-0.0029540000000004,0.0004940000000013,0.0302667999999999,-0.0139821999999994,-0.0690253999999993,0.0047365999999999,0,sub_11
