userAcceleration.x,userAcceleration.y,userAcceleration.z,rotationRate.x,rotationRate.y,rotationRate.z,label,subject
-0.0520930000000002,-0.0084383999999986,0.1098625999999999,-0.0189179999999994,0.0347896000000007,0.0066904,0,sub_19
-0.0528116000000002,-0.0076537999999987,0.1089881999999999,-0.0283093999999994,0.0348200000000008,0.0072656,0,sub_19
-0.0533956000000002,-0.0083693999999987,0.1074129999999999,-0.0370519999999994,0.0348556000000007,0.0059226,0,sub_19
-0.0540636000000002,-0.0083151999999986,0.1062429999999999,-0.0447237999999994,0.0351032000000007,0.003946,0,sub_19
-0.0545984000000002,-0.0090205999999986,0.1053025999999999,-0.0479099999999994,0.0366126000000007,0.0022126,0,sub_19
-0.0553132000000002,-0.0094323999999986,0.1046459999999999,-0.0461867999999994,0.0398042000000007,0.0017934,0,sub_19
-0.0546280000000002,-0.0097403999999986,0.1040863999999999,-0.0406189999999994,0.0461686000000007,0.003747,0,sub_19
-0.0535500000000002,-0.0091395999999986,0.1030439999999999,-0.0341909999999994,0.0555070000000007,0.0071982,0,sub_19
-0.0530510000000002,-0.0084941999999986,0.1026967999999999,-0.0284021999999994,0.0654850000000008,0.0110714,0,sub_19
-0.0520986000000002,-0.0079155999999986,0.1030107999999999,-0.0230391999999994,0.0754652000000008,0.014728,0,sub_19
-0.0514644000000002,-0.0068055999999987,0.1040951999999999,-0.0165995999999994,0.0858748000000008,0.0166824,0,sub_19
-0.0512552000000002,-0.0066133999999987,0.1043047999999999,-0.0112335999999994,0.0933114000000008,0.0171376,0,sub_19
-0.0519830000000001,-0.0067689999999987,0.1051745999999999,-0.0073793999999994,0.0960684000000008,0.0169474,0,sub_19
-0.0522408000000001,-0.0071359999999987,0.1058425999999999,-0.0046055999999994,0.0954222000000008,0.0163266,0,sub_19
-0.0532660000000001,-0.0062557999999987,0.1055693999999999,-0.0044045999999994,0.0913786000000008,0.0150514,0,sub_19
-0.0534048000000002,-0.0060083999999987,0.1052215999999999,-0.0080655999999994,0.0820246000000008,0.013115,0,sub_19
-0.0542268000000002,-0.0055351999999987,0.1058737999999999,-0.0121589999999994,0.0703328000000007,0.0101104,0,sub_19
-0.0551194000000002,-0.0050549999999987,0.1074187999999999,-0.0145425999999994,0.0580010000000007,0.0058366,0,sub_19
-0.0560046000000002,-0.0052161999999987,0.1084689999999999,-0.0141521999999994,0.0443862000000007,0.000302,0,sub_19
-0.0564286000000002,-0.0070725999999987,0.1099203999999999,-0.0109965999999994,0.0299054000000007,-0.0041439999999999,0,sub_19
-0.0571566000000002,-0.0085731999999987,0.1107009999999999,-0.0061359999999994,0.0166900000000007,-0.0068705999999999,0,sub_19
-0.0560092000000002,-0.0093403999999987,0.1105237999999999,-0.0021259999999994,0.0060266000000007,-0.0076835999999999,0,sub_19
-0.0546848000000002,-0.0092735999999987,0.1101009999999999,0.0003828000000005,-0.0033651999999992,-0.0055175999999999,0,sub_19
-0.0533098000000002,-0.0097021999999987,0.1103913999999999,0.0011874000000005,-0.0102019999999992,-0.0014437999999999,0,sub_19
-0.0524284000000002,-0.0090577999999987,0.1110611999999999,0.0022188000000005,-0.0138447999999992,0.002841,0,sub_19
-0.0521578000000002,-0.0087059999999987,0.1113641999999999,0.0041142000000005,-0.0145101999999992,0.007769,0,sub_19
-0.0525674000000002,-0.0096639999999986,0.1121663999999998,0.0062258000000005,-0.0143251999999992,0.012911,0,sub_19
-0.0529988000000002,-0.0111861999999986,0.1129369999999998,0.0102636000000005,-0.0132927999999991,0.0176382,0,sub_19
-0.0545646000000002,-0.0126553999999986,0.1131655999999999,0.0157892000000005,-0.0129073999999991,0.0230174,0,sub_19
-0.0564506000000002,-0.0145901999999986,0.1131089999999999,0.0217366000000005,-0.0133763999999991,0.0286144,0,sub_19
-0.0573664000000002,-0.0170175999999986,0.1138923999999999,0.0268192000000005,-0.0155503999999991,0.035062,0,sub_19
-0.0584556000000002,-0.0176125999999987,0.1146653999999999,0.0306150000000005,-0.0194233999999991,0.0412892,0,sub_19
-0.0592648000000002,-0.0173617999999987,0.1156921999999999,0.0316434000000005,-0.0228563999999992,0.0464282,0,sub_19
-0.0589768000000002,-0.0156803999999987,0.1163159999999999,0.0303354000000005,-0.0247863999999992,0.0506944,0,sub_19
-0.0577990000000002,-0.0132083999999986,0.1167151999999999,0.0281806000000005,-0.0264953999999992,0.0536724,0,sub_19
-0.0573870000000002,-0.0109999999999986,0.1167101999999999,0.0262498000000005,-0.0279835999999992,0.0545154,0,sub_19
-0.0569940000000002,-0.0095723999999986,0.1154747999999999,0.0262526000000005,-0.0288689999999992,0.052799,0,sub_19
-0.0572802000000001,-0.0080963999999986,0.1137161999999999,0.0260386000000005,-0.0295315999999992,0.0500196,0,sub_19
-0.0574786000000001,-0.0069885999999986,0.1121433999999999,0.0254016000000005,-0.0306137999999992,0.045956,0,sub_19
-0.0577078000000002,-0.0063735999999986,0.1100279999999999,0.0215708000000005,-0.0310419999999992,0.0410148,0,sub_19
-0.0571886000000002,-0.0043061999999986,0.1079127999999999,0.0160406000000005,-0.0316695999999992,0.034139,0,sub_19
-0.0567290000000002,-0.0020921999999986,0.1070181999999999,0.0103028000000005,-0.0320401999999992,0.0264154,0,sub_19
-0.0562118000000002,-0.0013365999999987,0.1060881999999999,0.0069290000000005,-0.0322045999999991,0.0172054,0,sub_19
-0.0554262000000002,-0.0015279999999987,0.1055539999999999,0.0061252000000005,-0.0313083999999991,0.0069436,0,sub_19
-0.0548882000000002,-0.0022237999999987,0.1063703999999999,0.0078830000000005,-0.0299959999999991,-0.0030871999999999,0,sub_19
-0.0541630000000002,-0.0037979999999986,0.1073779999999999,0.0083066000000005,-0.0279131999999991,-0.0116045999999999,0,sub_19
-0.0537168000000002,-0.0047555999999986,0.1086249999999999,0.0063812000000005,-0.0243383999999991,-0.0182177999999999,0,sub_19
-0.0529292000000002,-0.0049693999999986,0.1093693999999999,0.0021068000000005,-0.0194839999999991,-0.0231397999999999,0,sub_19
-0.0524496000000002,-0.0045703999999986,0.1098419999999999,-0.0036677999999994,-0.0144179999999991,-0.0263631999999999,0,sub_19
-0.0520706000000002,-0.0050009999999986,0.1113427999999999,-0.0085891999999994,-0.0085061999999991,-0.0287271999999999,0,sub_19
-0.0524032000000002,-0.0054179999999987,0.1123001999999999,-0.0108979999999994,-0.0010367999999991,-0.0298211999999999,0,sub_19
-0.0522652000000002,-0.0072889999999987,0.1127101999999999,-0.0110787999999994,0.0059956000000007,-0.0300449999999999,0,sub_19
-0.0525026000000002,-0.0093251999999987,0.1141287999999999,-0.0112749999999994,0.0113168000000007,-0.0285575999999999,0,sub_19
-0.0530712000000002,-0.0113891999999987,0.1153109999999999,-0.0115053999999994,0.0141526000000007,-0.0259839999999999,0,sub_19
-0.0534154000000002,-0.0120623999999986,0.1153075999999999,-0.0128169999999994,0.0142206000000008,-0.0229871999999999,0,sub_19
-0.0540982000000002,-0.0116955999999986,0.1146243999999999,-0.0139285999999994,0.0115174000000007,-0.0197717999999999,0,sub_19
-0.0550626000000002,-0.0115213999999986,0.1138135999999999,-0.0150479999999994,0.0075342000000008,-0.0161275999999999,0,sub_19
-0.0552750000000002,-0.0112281999999986,0.1130531999999999,-0.0136029999999994,0.0037576000000007,-0.0131065999999999,0,sub_19
-0.0550502000000002,-0.0111281999999986,0.1123415999999999,-0.0112855999999993,0.0007520000000007,-0.0094545999999999,0,sub_19
-0.0549338000000002,-0.0115013999999986,0.1115207999999999,-0.0100359999999993,-0.0020381999999991,-0.0053829999999999,0,sub_19
-0.0545744000000002,-0.0119059999999986,0.1118013999999999,-0.0100619999999994,-0.0026977999999991,-0.0002547999999999,0,sub_19
-0.0543608000000002,-0.0112599999999986,0.1118071999999999,-0.0094747999999994,-0.0012925999999991,0.0046374,0,sub_19
-0.0546212000000002,-0.0108111999999986,0.1113419999999999,-0.0090979999999994,0.0009646000000008,0.0097406,0,sub_19
-0.0551536000000002,-0.0093607999999986,0.1109525999999999,-0.0089279999999994,0.0038652000000008,0.0139868,0,sub_19
-0.0556524000000002,-0.0078305999999986,0.1100719999999999,-0.0087655999999994,0.0050612000000008,0.0182352,0,sub_19
-0.0559632000000002,-0.0074247999999986,0.1092537999999999,-0.0077543999999994,0.0020060000000008,0.0192904,0,sub_19
-0.0567092000000002,-0.0068083999999986,0.1088821999999999,-0.0071429999999994,-0.0052365999999991,0.0184494,0,sub_19
-0.0569740000000002,-0.0057677999999986,0.1079975999999999,-0.0063163999999994,-0.0150245999999991,0.0146222,0,sub_19
-0.0576688000000002,-0.0047481999999986,0.1072843999999999,-0.0044237999999994,-0.0275757999999991,0.0082422,0,sub_19
-0.0584572000000002,-0.0031613999999987,0.1079083999999999,-0.0011085999999994,-0.0403213999999991,-0.0010219999999999,0,sub_19
-0.0579768000000002,-0.0021979999999987,0.1093453999999999,0.0020152000000005,-0.0485903999999991,-0.0107205999999999,0,sub_19
-0.0564088000000002,-0.0028097999999987,0.1115665999999999,0.0049410000000005,-0.0526011999999991,-0.0195715999999999,0,sub_19
-0.0550930000000001,-0.0044053999999986,0.1147587999999999,0.0068048000000005,-0.0527843999999991,-0.0256575999999999,0,sub_19
-0.0539092000000001,-0.0069885999999986,0.1179713999999999,0.0071808000000005,-0.0487131999999991,-0.0287681999999999,0,sub_19
-0.0526796000000001,-0.0100109999999986,0.1198849999999999,0.0052950000000005,-0.0416731999999992,-0.0294313999999998,0,sub_19
-0.0527804000000001,-0.0125035999999986,0.1210803999999999,0.0023298000000006,-0.0359137999999992,-0.0286049999999999,0,sub_19
-0.0540152000000001,-0.0142739999999986,0.1211431999999999,-0.0008601999999993,-0.0327101999999992,-0.0277767999999999,0,sub_19
-0.0555460000000001,-0.0152635999999986,0.1207323999999998,-0.0039305999999993,-0.0332667999999992,-0.0274753999999999,0,sub_19
-0.0577258000000001,-0.0154119999999986,0.1207423999999999,-0.0050911999999993,-0.0359615999999992,-0.0269443999999999,0,sub_19
-0.0594876000000002,-0.0150459999999986,0.1198205999999999,-0.0021977999999993,-0.0380339999999992,-0.0257449999999999,0,sub_19
-0.0605966000000002,-0.0142121999999986,0.1183363999999999,0.0026152000000005,-0.0390529999999992,-0.0232515999999999,0,sub_19
-0.0604094000000002,-0.0132981999999986,0.1178293999999999,0.0076424000000005,-0.0377375999999992,-0.0186231999999999,0,sub_19
-0.0591844000000002,-0.0126137999999986,0.1170003999999999,0.0121146000000005,-0.0343657999999991,-0.0132551999999999,0,sub_19
-0.0569182000000002,-0.0119273999999986,0.1159105999999998,0.0144616000000005,-0.0299177999999991,-0.0087579999999999,0,sub_19
-0.0546144000000002,-0.0118579999999986,0.1155665999999998,0.0146722000000005,-0.0261015999999991,-0.0042747999999999,0,sub_19
-0.0527818000000002,-0.0116859999999987,0.1158459999999999,0.0142044000000005,-0.0239279999999991,-0.0008787999999999,0,sub_19
-0.0519018000000002,-0.0113927999999987,0.1153613999999999,0.0141644000000005,-0.0236647999999991,0.0003862,0,sub_19
-0.0520804000000002,-0.0106599999999987,0.1151783999999999,0.0145608000000005,-0.0216969999999992,0.0012248,0,sub_19
-0.0522804000000002,-0.0099065999999986,0.1143159999999999,0.0170976000000005,-0.0173963999999992,0.0029298,0,sub_19
-0.0522756000000002,-0.0078695999999986,0.1132853999999999,0.0181474000000005,-0.0115991999999992,0.0046226,0,sub_19
-0.0524292000000002,-0.0070227999999986,0.1133281999999999,0.0183810000000005,-0.0052159999999992,0.0065388,0,sub_19
-0.0522036000000002,-0.0071019999999986,0.1131299999999999,0.0175514000000005,0.0026596000000007,0.0090866,0,sub_19
-0.0516184000000002,-0.0067683999999986,0.1130497999999999,0.0154396000000005,0.0090528000000008,0.010559,0,sub_19
-0.0507748000000002,-0.0069985999999986,0.1135949999999999,0.0109682000000005,0.0110158000000008,0.0109578,0,sub_19
-0.0509548000000002,-0.0087501999999986,0.1156285999999999,0.0071302000000005,0.0108486000000008,0.0107228,0,sub_19
-0.0505264000000002,-0.0096431999999986,0.1162233999999999,0.0037274000000005,0.0117486000000008,0.0096349999999999,0,sub_19
-0.0511304000000002,-0.0094711999999986,0.1171327999999999,0.0022452000000005,0.0124296000000008,0.0083471999999999,0,sub_19
-0.0506788000000002,-0.0101631999999987,0.1169181999999999,0.0013964000000005,0.0122536000000008,0.007706,0,sub_19
-0.0509876000000002,-0.0102955999999987,0.1169807999999999,0.0001228000000005,0.0124762000000008,0.006415,0,sub_19
-0.0504006000000002,-0.0095015999999987,0.1169047999999999,-0.0011497999999994,0.0126996000000008,0.0049104,0,sub_19
-0.0507784000000002,-0.0087465999999987,0.1172497999999999,-0.0013563999999994,0.0127064000000008,0.0034134,0,sub_19
-0.0501458000000002,-0.0081889999999987,0.1167901999999999,-0.0023993999999994,0.0132018000000008,0.0016872,0,sub_19
-0.0503870000000002,-0.0079223999999987,0.1169489999999999,-0.0034393999999994,0.0149728000000008,0.0006004,0,sub_19
-0.0505614000000002,-0.0071915999999987,0.1168689999999999,-0.0038335999999994,0.0192930000000008,0.0007966,0,sub_19
-0.0508078000000002,-0.0071085999999986,0.1162875999999999,-0.0048621999999994,0.0255306000000008,0.0016268,0,sub_19
-0.0506322000000002,-0.0070929999999986,0.1152267999999999,-0.0071719999999994,0.0328326000000008,0.0037288,0,sub_19
-0.0502130000000002,-0.0072027999999986,0.1154851999999999,-0.0095007999999994,0.0396474000000008,0.0064812,0,sub_19
-0.0502076000000002,-0.0071589999999986,0.1162879999999999,-0.0111877999999994,0.0464616000000007,0.0088106,0,sub_19
-0.0504090000000002,-0.0075123999999986,0.1158305999999999,-0.0128755999999994,0.0522140000000007,0.010287,0,sub_19
-0.0510224000000002,-0.0069663999999986,0.1154159999999999,-0.0143419999999994,0.0570314000000007,0.010746,0,sub_19
-0.0511116000000002,-0.0066219999999986,0.1144653999999999,-0.0164485999999994,0.0603656000000007,0.0097068,0,sub_19
-0.0523452000000002,-0.0057597999999986,0.1130869999999999,-0.0185533999999994,0.0628528000000007,0.0073868,0,sub_19
-0.0535800000000002,-0.0044951999999986,0.1113619999999999,-0.0212951999999994,0.0647082000000007,0.0037814,0,sub_19
-0.0537600000000002,-0.0034695999999986,0.1109291999999999,-0.0248885999999994,0.0659318000000007,-0.0008973999999999,0,sub_19
-0.0545202000000002,-0.0038983999999987,0.1110759999999999,-0.0289205999999994,0.0646924000000008,-0.0071195999999999,0,sub_19
-0.0555538000000002,-0.0042181999999986,0.1120057999999999,-0.0312503999999994,0.0625940000000007,-0.0131153999999999,0,sub_19
-0.0562404000000002,-0.0056751999999986,0.1126659999999999,-0.0329437999999994,0.0594288000000008,-0.0193187999999999,0,sub_19
-0.0561924000000002,-0.0066911999999986,0.1141095999999999,-0.0325259999999994,0.0553412000000007,-0.0248071999999999,0,sub_19
-0.0572170000000002,-0.0083645999999986,0.1151209999999999,-0.0308393999999993,0.0506020000000007,-0.0283631999999999,0,sub_19
-0.0575826000000002,-0.0097051999999986,0.1154365999999999,-0.0285135999999993,0.0473452000000007,-0.0302075999999999,0,sub_19
-0.0577002000000002,-0.0115511999999987,0.1154809999999999,-0.0274765999999994,0.0430244000000007,-0.0312047999999999,0,sub_19
-0.0571546000000002,-0.0124085999999987,0.1156261999999999,-0.0277275999999994,0.0384890000000007,-0.0307153999999999,0,sub_19
-0.0572546000000002,-0.0143755999999987,0.1159135999999999,-0.0288259999999993,0.0327352000000008,-0.0294337999999999,0,sub_19
-0.0568936000000002,-0.0158489999999986,0.1161745999999999,-0.0282193999999994,0.0263372000000008,-0.0283531999999999,0,sub_19
-0.0565624000000002,-0.0167161999999986,0.1164345999999999,-0.0259163999999994,0.0190750000000007,-0.0257639999999999,0,sub_19
-0.0565298000000002,-0.0166941999999986,0.1167989999999999,-0.0221609999999994,0.0123390000000007,-0.0222853999999999,0,sub_19
-0.0572242000000002,-0.0168919999999986,0.1172003999999999,-0.0173367999999994,0.0062376000000007,-0.0185863999999999,0,sub_19
-0.0571264000000002,-0.0159763999999986,0.1167825999999999,-0.0123001999999994,0.0005590000000007,-0.0142455999999999,0,sub_19
-0.0573046000000002,-0.0151299999999987,0.1157015999999999,-0.0081191999999994,-0.0051181999999992,-0.0094833999999999,0,sub_19
-0.0571030000000002,-0.0145231999999987,0.1145613999999999,-0.0047895999999994,-0.0103663999999992,-0.0047277999999999,0,sub_19
-0.0566382000000002,-0.0131583999999987,0.1133731999999999,-0.0016273999999994,-0.0142313999999992,-5.999999999301703e-07,0,sub_19
-0.0555682000000002,-0.0116895999999987,0.1125999999999999,0.0023940000000005,-0.0163965999999992,0.0051578,0,sub_19
-0.0547814000000002,-0.0102399999999986,0.1120625999999999,0.0070670000000005,-0.0157951999999991,0.0105306,0,sub_19
-0.0535652000000002,-0.0088979999999986,0.1123983999999999,0.0104372000000005,-0.0140827999999991,0.015898,0,sub_19
-0.0529354000000002,-0.0075177999999986,0.1123789999999999,0.0118926000000005,-0.0110853999999991,0.0212504,0,sub_19
-0.0530082000000002,-0.0076221999999986,0.1134855999999999,0.0129232000000005,-0.0074479999999991,0.0268126,0,sub_19
-0.0527342000000002,-0.0084423999999986,0.1140539999999999,0.0133128000000005,-0.0040213999999992,0.0323706,0,sub_19
-0.0532950000000002,-0.0098169999999986,0.1146563999999999,0.0137062000000005,-0.0005915999999992,0.0370742,0,sub_19
-0.0536258000000002,-0.0105081999999986,0.1146651999999999,0.0156332000000005,0.0047126000000007,0.0409266,0,sub_19
-0.0538670000000001,-0.0106515999999986,0.1145901999999999,0.0197026000000005,0.0102294000000007,0.0430844,0,sub_19
-0.0541176000000002,-0.0098629999999986,0.1138809999999999,0.0237788000000005,0.0140544000000007,0.0420398,0,sub_19
-0.0543096000000002,-0.0083083999999987,0.1133031999999999,0.0274380000000005,0.0163350000000007,0.0382048,0,sub_19
-0.0542452000000002,-0.0069347999999987,0.1133191999999999,0.0304580000000005,0.0169214000000007,0.0324446,0,sub_19
-0.0545882000000002,-0.0063501999999987,0.1140241999999999,0.0326208000000005,0.0158096000000007,0.025826,0,sub_19
-0.0551280000000002,-0.0062917999999987,0.1150703999999999,0.0328604000000005,0.0140654000000007,0.0191948,0,sub_19
-0.0549340000000002,-0.0077113999999987,0.1159219999999999,0.0298944000000005,0.0129646000000007,0.0142496,0,sub_19
-0.0555278000000002,-0.0086837999999987,0.1173677999999999,0.0252126000000005,0.0119312000000008,0.0103726,0,sub_19
-0.0560052000000002,-0.0096185999999987,0.1176681999999999,0.0194612000000005,0.0108988000000008,0.0071292,0,sub_19
-0.0567528000000002,-0.0099407999999987,0.1171383999999999,0.0139192000000005,0.0090136000000007,0.0038882,0,sub_19
-0.0567300000000002,-0.0106031999999987,0.1173631999999999,0.0090728000000005,0.0060958000000008,0.0008796,0,sub_19
-0.0572224000000002,-0.0103929999999987,0.1175321999999999,0.0076444000000005,0.0038062000000007,-0.0023195999999999,0,sub_19
-0.0573218000000002,-0.0098977999999987,0.1169821999999999,0.0072884000000005,0.0038520000000007,-0.0044459999999999,0,sub_19
-0.0572600000000002,-0.0091307999999987,0.1168039999999999,0.0067200000000005,0.0047482000000007,-0.0059341999999999,0,sub_19
-0.0566946000000002,-0.0089313999999987,0.1173965999999999,0.0057258000000005,0.0062834000000007,-0.0069987999999999,0,sub_19
-0.0568956000000002,-0.0084799999999987,0.1174989999999999,0.0044600000000005,0.0084226000000007,-0.0080785999999999,0,sub_19
-0.0564728000000002,-0.0083241999999987,0.1175813999999999,0.0023396000000005,0.0103518000000007,-0.0091639999999999,0,sub_19
-0.0563762000000002,-0.0094861999999987,0.1177735999999999,-0.0002149999999994,0.0103658000000007,-0.0104637999999999,0,sub_19
-0.0559288000000002,-0.0109251999999987,0.1182095999999999,-0.0026779999999994,0.0091308000000007,-0.0116973999999999,0,sub_19
-0.0560068000000002,-0.0120937999999987,0.1187063999999999,-0.0051475999999994,0.0074654000000007,-0.0118623999999999,0,sub_19
-0.0561442000000002,-0.0133715999999987,0.1186517999999999,-0.0065571999999994,0.0049416000000007,-0.0113777999999999,0,sub_19
-0.0571040000000002,-0.0141569999999987,0.1177267999999999,-0.0077611999999994,0.0009248000000007,-0.0106763999999999,0,sub_19
-0.0576660000000002,-0.0139557999999987,0.1174555999999999,-0.0083287999999994,-0.0041585999999992,-0.0101827999999999,0,sub_19
-0.0585366000000002,-0.0134165999999987,0.1170881999999999,-0.0077163999999994,-0.0097027999999992,-0.0095305999999999,0,sub_19
-0.0592426000000002,-0.0128255999999987,0.1154387999999999,-0.0062457999999994,-0.0150335999999992,-0.0097269999999999,0,sub_19
-0.0592850000000002,-0.0114127999999986,0.1145083999999999,-0.0041341999999994,-0.0203657999999992,-0.0101327999999999,0,sub_19
-0.0588940000000001,-0.0098209999999986,0.1142949999999998,-0.0017415999999994,-0.0253779999999992,-0.0102867999999999,0,sub_19
-0.0579578000000001,-0.0086699999999986,0.1139909999999999,0.0010882000000005,-0.0284723999999991,-0.0108673999999999,0,sub_19
-0.0573930000000001,-0.0076945999999986,0.1135585999999999,0.0037122000000005,-0.0298615999999991,-0.0114515999999999,0,sub_19
-0.0564820000000001,-0.0068743999999986,0.1136475999999999,0.0050626000000005,-0.0297547999999991,-0.0120467999999999,0,sub_19
-0.0561248000000002,-0.0070935999999986,0.1135547999999999,0.0053530000000005,-0.0281529999999991,-0.0126511999999999,0,sub_19
-0.0556898000000002,-0.0072705999999986,0.1139325999999999,0.0049436000000005,-0.0247407999999991,-0.0130855999999999,0,sub_19
-0.0561422000000002,-0.0068575999999986,0.1134097999999999,0.0045284000000005,-0.0215459999999991,-0.0124515999999999,0,sub_19
-0.0562500000000002,-0.0062069999999986,0.1127773999999999,0.0032596000000005,-0.0179237999999991,-0.0113967999999999,0,sub_19
-0.0564450000000002,-0.0062871999999986,0.1126127999999999,0.0022030000000005,-0.0148069999999991,-0.0103883999999999,0,sub_19
-0.0560714000000002,-0.0063535999999986,0.1126009999999999,0.0011464000000005,-0.0121145999999991,-0.0098067999999999,0,sub_19
-0.0553250000000002,-0.0074333999999986,0.1125217999999999,0.0011478000000005,-0.0115555999999991,-0.0094287999999999,0,sub_19
-0.0549860000000002,-0.0092035999999987,0.1125469999999999,0.0022104000000005,-0.0127029999999991,-0.0094685999999999,0,sub_19
-0.0541230000000002,-0.0112063999999987,0.1121335999999999,0.0036902000000005,-0.0153457999999991,-0.0088625999999999,0,sub_19
-0.0531624000000001,-0.0118059999999987,0.1114195999999999,0.0058066000000005,-0.0177027999999991,-0.0073493999999999,0,sub_19
-0.0521646000000002,-0.0117239999999987,0.1110559999999999,0.0081384000000005,-0.0185733999999991,-0.0047681999999999,0,sub_19
-0.0514098000000002,-0.0103677999999987,0.1103971999999998,0.0106932000000005,-0.0173143999999991,-0.0021881999999999,0,sub_19
-0.0502868000000002,-0.0090819999999987,0.1098313999999998,0.0108646000000005,-0.0135623999999991,0.0003152,0,sub_19
-0.0497474000000002,-0.0080041999999987,0.1099207999999999,0.0104036000000005,-0.0087403999999991,0.0021718,0,sub_19
-0.0490738000000002,-0.0079427999999987,0.1101577999999999,0.0082394000000005,-0.0032721999999991,0.003802,0,sub_19
-0.0493186000000002,-0.0083393999999987,0.1101697999999999,0.0060704000000005,0.0004940000000008,0.0047934,0,sub_19
-0.0497752000000002,-0.0095969999999987,0.1102019999999999,0.0041090000000005,0.0021324000000007,0.0049344,0,sub_19
-0.0511522000000002,-0.0100119999999987,0.1092205999999999,0.0028288000000005,0.0023492000000008,0.0051388,0,sub_19
-0.0527874000000002,-0.0101353999999987,0.1086345999999999,0.0024022000000005,0.0017142000000008,0.0044958,0,sub_19
-0.0544442000000002,-0.0098179999999987,0.1076869999999999,0.0036806000000005,0.0002226000000008,0.0034384,0,sub_19
-0.0549996000000002,-0.0085789999999987,0.1062681999999999,0.0044948000000005,-0.0009017999999991,0.0023554,0,sub_19
-0.0551004000000002,-0.0071359999999987,0.1051499999999999,0.0029658000000005,-0.0005291999999991,0.001895,0,sub_19
-0.0537866000000002,-0.0064105999999987,0.1056625999999999,0.0008042000000005,0.0007012000000007,0.0005746,0,sub_19
-0.0525528000000002,-0.0061791999999986,0.1062329999999999,-0.0022117999999994,0.0021460000000007,-0.0003247999999999,0,sub_19
-0.0520560000000002,-0.0061293999999986,0.1072233999999999,-0.0056525999999994,0.0040184000000007,-0.0012275999999999,0,sub_19
-0.0523628000000002,-0.0075037999999986,0.1086169999999999,-0.0088407999999994,0.0063750000000007,-0.0016801999999999,0,sub_19
-0.0533344000000002,-0.0082803999999986,0.1095993999999999,-0.0111791999999994,0.0085130000000007,-0.0014855999999999,0,sub_19
-0.0544322000000002,-0.0088873999999986,0.1101881999999999,-0.0126737999999994,0.0095784000000007,-0.0002155999999999,0,sub_19
-0.0549954000000002,-0.0092073999999986,0.1100421999999999,-0.0135497999999994,0.0104120000000007,0.0019224,0,sub_19
-0.0550116000000002,-0.0090971999999986,0.1101055999999999,-0.0142191999999994,0.0103900000000007,0.004704,0,sub_19
-0.0539882000000002,-0.0088749999999986,0.1101321999999999,-0.0148885999999994,0.0105802000000007,0.007699,0,sub_19
