userAcceleration.x,userAcceleration.y,userAcceleration.z,rotationRate.x,rotationRate.y,rotationRate.z,label,subject
0.0093429999999996,0.0051510000000012,-0.0088004,-0.0058355999999994,-0.0665051999999992,-0.0149943999999999,0,sub_7
0.0082473999999996,0.0059876000000012,-0.0100286,-0.0058287999999994,-0.0635283999999992,-0.0135025999999999,0,sub_7
0.0066535999999995,0.0060150000000012,-0.010124,-0.0056125999999994,-0.0597069999999992,-0.0103011999999999,0,sub_7
0.0049525999999995,0.0067082000000012,-0.0097694,-0.0049657999999994,-0.0548227999999992,-0.0068845999999999,0,sub_7
0.0035093999999996,0.0068128000000012,-0.0100614,-0.0028089999999994,-0.0467461999999992,-0.0038887999999999,0,sub_7
0.0027501999999996,0.0064040000000012,-0.0096094,-0.0006369999999994,-0.0352605999999992,-0.0008973999999999,0,sub_7
0.0037349999999996,0.0052574000000012,-0.0097934,0.0011140000000005,-0.0231319999999992,0.0014494,0,sub_7
0.0055213999999996,0.0052668000000012,-0.0107748,0.0022270000000005,-0.0114237999999992,0.0029376,0,sub_7
0.0070165999999996,0.0052748000000012,-0.0099908,0.0026950000000005,-0.0022639999999993,0.0029292,0,sub_7
0.0076529999999996,0.0047438000000012,-0.0084466,0.0018956000000005,0.0032980000000006,0.0022888,0,sub_7
0.0074363999999996,0.0045278000000012,-0.0078332,-0.0012631999999994,0.0058862000000006,0.0014222,0,sub_7
0.0053881999999996,0.0047794000000012,-0.0072306,-0.0031437999999994,0.0080440000000006,0.0005652,0,sub_7
0.0027859999999996,0.0046542000000012,-0.0066304,-0.0050157999999994,0.0131802000000006,0.0007726,0,sub_7
0.0013339999999996,0.0045352000000012,-0.0065322,-0.0058131999999994,0.0208660000000006,0.0018388,0,sub_7
0.0009689999999996,0.0051048000000012,-0.0071854,-0.0055595999999994,0.0302378000000006,0.002256,0,sub_7
0.0021673999999996,0.0056484000000012,-0.008116,-0.0044495999999994,0.0404580000000006,0.0028916,0,sub_7
0.0036079999999996,0.0059858000000012,-0.0085732,-0.0035615999999994,0.0491858000000006,0.0039548,0,sub_7
0.0056123999999996,0.0057514000000012,-0.0087132,-0.0031107999999994,0.0545106000000006,0.0039512,0,sub_7
0.0068383999999996,0.0053866000000012,-0.0091962,-0.0039499999999994,0.0572850000000006,0.0035144,0,sub_7
0.0085521999999996,0.0053590000000012,-0.0091898,-0.0052225999999994,0.0592062000000006,0.0037165999999999,0,sub_7
0.0090615999999996,0.0043166000000012,-0.0086978,-0.0058577999999994,0.0598494000000007,0.0032839999999999,0,sub_7
0.0096495999999996,0.0039694000000012,-0.0074968,-0.0071369999999994,0.0585816000000006,0.0017811999999999,0,sub_7
0.0102283999999996,0.0044044000000012,-0.0068262,-0.0088469999999994,0.0564630000000006,0.0002763999999999,0,sub_7
0.0106777999999996,0.0049676000000012,-0.0065526,-0.0088477999999994,0.0551888000000006,-0.0007901999999999,0,sub_7
0.0110371999999996,0.0058990000000012,-0.0066112,-0.0092753999999994,0.0534918000000006,-0.0022863999999999,0,sub_7
0.0108693999999996,0.0059624000000012,-0.0074844,-0.0097031999999994,0.0526436000000006,-0.0029291999999999,0,sub_7
0.0111937999999996,0.0055706000000012,-0.009368,-0.0094821999999994,0.0547716000000006,-0.0025031999999999,0,sub_7
0.0115483999999996,0.0055304000000012,-0.0097668,-0.0084103999999994,0.0571064000000006,-0.0012167999999999,0,sub_7
0.0121179999999996,0.0051712000000012,-0.0099624,-0.0088343999999994,0.0581716000000006,-0.0007937999999999,0,sub_7
0.0127473999999996,0.0038376000000012,-0.0102546,-0.0086257999999994,0.0575300000000006,-0.0003643999999999,0,sub_7
0.0137887999999996,0.0044138000000012,-0.0102464,-0.0084267999999994,0.0539090000000006,-0.0007855999999999,0,sub_7
0.0149793999999996,0.0056144000000012,-0.0095588,-0.0084487999999994,0.0475234000000006,-0.0022729999999999,0,sub_7
0.0149895999999996,0.0053620000000012,-0.0099994,-0.0086843999999994,0.0407140000000006,-0.0041887999999999,0,sub_7
0.0154887999999996,0.0051236000000012,-0.0099706,-0.0084959999999994,0.0341128000000006,-0.0052471999999999,0,sub_7
0.0146075999999996,0.0052842000000012,-0.0096432,-0.0089515999999994,0.0266616000000006,-0.0063089999999999,0,sub_7
0.0142337999999996,0.0048430000000012,-0.0090508,-0.0094031999999994,0.0206994000000006,-0.0067317999999999,0,sub_7
0.0134193999999996,0.0047168000000012,-0.0083528,-0.0096347999999994,0.0160156000000006,-0.0073683999999999,0,sub_7
0.0128611999999996,0.0048108000000012,-0.0071574,-0.0096413999999994,0.0147364000000006,-0.0071531999999999,0,sub_7
0.0121581999999996,0.0047118000000012,-0.0070882,-0.0094307999999994,0.0145208000000006,-0.0067241999999999,0,sub_7
0.0119509999999996,0.0044982000000012,-0.0073176,-0.0089991999999994,0.0160090000000006,-0.0062957999999999,0,sub_7
0.0116863999999996,0.0049344000000012,-0.0068542,-0.0089925999999994,0.0166516000000006,-0.0071511999999999,0,sub_7
0.0114973999999996,0.0048424000000012,-0.0064516,-0.0081389999999994,0.0172852000000006,-0.0065051999999999,0,sub_7
0.0115543999999996,0.0048780000000012,-0.0059962,-0.0075083999999994,0.0147282000000006,-0.0069247999999999,0,sub_7
0.0110139999999996,0.0050302000000012,-0.0052136,-0.0066635999999994,0.0117468000000006,-0.0079831999999999,0,sub_7
0.0107317999999996,0.0052416000000012,-0.004778,-0.0053881999999994,0.0096160000000006,-0.0090397999999999,0,sub_7
0.0106521999999996,0.0056948000000012,-0.0052928,-0.0047479999999994,0.0085528000000006,-0.0101021999999999,0,sub_7
0.0104831999999996,0.0051808000000012,-0.006399,-0.0058101999999994,0.0072876000000006,-0.0124579999999999,0,sub_7
0.0105545999999996,0.0045558000000012,-0.0071396,-0.0081515999999994,0.0068764000000006,-0.0141829999999999,0,sub_7
0.0111867999999996,0.0050614000000012,-0.0080632,-0.0109225999999994,0.0068886000000006,-0.0148433999999999,0,sub_7
0.0112999999999996,0.0058230000000012,-0.0084336,-0.0139097999999994,0.0071114000000006,-0.0146507999999999,0,sub_7
0.0114783999999996,0.0057324000000012,-0.0082738,-0.0156149999999994,0.0075434000000006,-0.0146631999999999,0,sub_7
0.0124709999999996,0.0058280000000012,-0.0082312,-0.0175265999999994,0.0088310000000006,-0.0153191999999999,0,sub_7
0.0135321999999996,0.0066498000000012,-0.0094492,-0.0166635999999994,0.0113830000000006,-0.0148889999999999,0,sub_7
0.0143851999999996,0.0061404000000012,-0.0093608,-0.0166587999999994,0.0126606000000006,-0.0146769999999999,0,sub_7
0.0155185999999996,0.0062070000000012,-0.0092932,-0.0162415999999994,0.0109530000000006,-0.0142445999999999,0,sub_7
0.0154383999999996,0.0066104000000012,-0.008726,-0.0166969999999994,0.0088070000000006,-0.0099721999999999,0,sub_7
0.0136669999999996,0.0079232000000012,-0.0080254,-0.0141691999999994,0.0066470000000006,-0.0048241999999999,0,sub_7
0.0117521999999996,0.0082130000000012,-0.0060322,-0.0130835999999994,0.0032340000000006,-0.0013747999999999,0,sub_7
0.0094267999999996,0.0088988000000012,-0.0053618,-0.0092115999999994,0.0030052000000006,0.0025174,0,sub_7
0.0066745999999996,0.0081726000000012,-0.0048872,-0.0074637999999994,0.0055510000000006,0.007032,0,sub_7
0.0051601999999996,0.0080376000000012,-0.0045338,-0.0035679999999994,0.0085266000000006,0.0087838,0,sub_7
0.0036355999999996,0.0066284000000012,-0.0045192,-0.0024477999999994,0.0098126000000006,0.0092363999999999,0,sub_7
0.0020565999999996,0.0051674000000012,-0.0041204,0.0005404000000005,0.0127738000000006,0.0120309999999999,0,sub_7
0.0017759999999996,0.0049172000000012,-0.0037688,0.0016110000000005,0.0146834000000006,0.0131043999999999,0,sub_7
0.0021969999999995,0.0048474000000012,-0.0034672,0.0048220000000005,0.0159548000000006,0.0120569999999999,0,sub_7
0.0021849999999995,0.0041994000000012,-0.0039914,0.0050498000000005,0.0168156000000006,0.0097073999999999,0,sub_7
0.0033207999999995,0.0043690000000012,-0.0040704,0.0055316000000005,0.0178918000000006,0.0086616,0,sub_7
0.0047669999999995,0.0053222000000012,-0.004718,0.0036740000000005,0.0179218000000006,0.0048232,0,sub_7
0.0051511999999995,0.0051660000000012,-0.0047734,0.0022346000000005,0.0164574000000006,0.0014168,0,sub_7
0.0045527999999996,0.0055326000000012,-0.0042834,-0.0004859999999994,0.0154210000000006,-0.0013579999999999,0,sub_7
0.0042137999999996,0.0056216000000012,-0.0031470000000001,-0.0021407999999994,0.0150166000000006,-0.0032713999999999,0,sub_7
0.0033663999999996,0.0057266000000012,-0.0021324,-0.0036209999999994,0.0167314000000006,-0.0045657999999999,0,sub_7
0.0023857999999996,0.0058492000000012,-0.0013902,-0.0048915999999994,0.0180176000000006,-0.0054309999999999,0,sub_7
0.0020127999999996,0.0058104000000012,-0.0016126,-0.0070117999999994,0.0201590000000006,-0.0063029999999999,0,sub_7
0.0026601999999996,0.0057974000000012,-0.0011962,-0.0071631999999994,0.0231144000000006,-0.0062797999999999,0,sub_7
0.0037389999999996,0.0059194000000012,-0.0014628,-0.0056171999999994,0.0243578000000006,-0.0058153999999999,0,sub_7
0.0045433999999996,0.0057612000000012,-0.0021256,-0.0036481999999994,0.0245352000000006,-0.0055603999999999,0,sub_7
0.0055635999999996,0.0054660000000012,-0.0031154,-0.0010409999999994,0.0242844000000006,-0.0053001999999999,0,sub_7
0.0065577999999996,0.0056218000000012,-0.0030326,0.0009222000000005,0.0231834000000006,-0.0050433999999999,0,sub_7
0.0072241999999996,0.0054720000000012,-0.003685,0.0011232000000005,0.0199886000000006,-0.0054651999999999,0,sub_7
0.0074071999999996,0.0058280000000012,-0.005289,-0.0001617999999994,0.0185034000000006,-0.0058995999999999,0,sub_7
0.0079557999999996,0.0057384000000012,-0.0050154,-0.0018735999999994,0.0165952000000006,-0.0067635999999999,0,sub_7
0.0088639999999996,0.0066548000000012,-0.0052796,-0.0031053999999994,0.0148584000000006,-0.0071509999999999,0,sub_7
0.0090721999999996,0.0068060000000012,-0.0058078,-0.0030569999999994,0.0139660000000006,-0.0066761999999999,0,sub_7
0.0101055999999996,0.0067726000000012,-0.0066898,-0.0021511999999994,0.0137106000000006,-0.0064097999999999,0,sub_7
0.0108995999999996,0.0063888000000012,-0.0064026,-0.0014681999999994,0.0121742000000006,-0.0052885999999999,0,sub_7
0.0112591999999996,0.0065816000000012,-0.0069726,-0.0007881999999994,0.0108474000000006,-0.0033131999999999,0,sub_7
0.0107257999999996,0.0064146000000012,-0.007299,5.280000000053012e-05,0.0095602000000006,-0.0018101999999999,0,sub_7
0.0104861999999996,0.0062998000000012,-0.008233,0.0013264000000005,0.0087010000000006,-0.0011591999999999,0,sub_7
0.0104439999999996,0.0062404000000012,-0.0079774,0.0015312000000005,0.0080560000000006,0.0001249999999999,0,sub_7
0.0103453999999996,0.0064480000000012,-0.0080696,0.0013778000000005,0.0073722000000006,0.0005965999999999,0,sub_7
0.0103101999999996,0.0066548000000012,-0.0090226,0.0022940000000005,0.0066874000000006,0.0004347999999999,0,sub_7
0.0105403999999996,0.0060980000000012,-0.008733,0.0029970000000005,0.0060032000000006,0.0002715999999999,0,sub_7
0.0103019999999996,0.0059446000000012,-0.0083194,0.0022024000000005,0.0044720000000006,9.899999999998278e-05,0,sub_7
0.0094329999999996,0.0064026000000012,-0.0085766,0.0024796000000005,0.0037902000000006,-0.0002807999999999,0,sub_7
0.0089575999999996,0.0059846000000012,-0.0086096,0.0039780000000005,0.0046380000000006,-0.0004849999999999,0,sub_7
0.0085337999999996,0.0054622000000012,-0.008169,0.0042000000000005,0.0065546000000006,-0.0004857999999999,0,sub_7
0.0087443999999996,0.0055534000000012,-0.0084084,0.0033542000000005,0.0086864000000006,-6.720000000001716e-05,0,sub_7
0.0088613999999996,0.0057538000000012,-0.0080948,0.0036188000000005,0.0113952000000006,0.0005831999999999,0,sub_7
0.0083805999999996,0.0053510000000012,-0.0080952,0.0040938000000005,0.0136762000000006,0.0014491999999999,0,sub_7
0.0081775999999996,0.0051574000000012,-0.008339,0.0026446000000005,0.0153240000000006,0.0025161999999999,0,sub_7
0.0083679999999996,0.0059982000000012,-0.007692,0.0009832000000005,0.0176102000000006,0.0040081999999999,0,sub_7
0.0081209999999996,0.0062998000000012,-0.0070946,0.0014554000000005,0.0196766000000006,0.0053018,0,sub_7
0.0083657999999996,0.0061010000000012,-0.0075878,0.0020936000000005,0.0207336000000006,0.0068004,0,sub_7
0.0090885999999996,0.0060802000000012,-0.0083312,0.0018716000000005,0.0198780000000006,0.0078682,0,sub_7
0.0086809999999996,0.0063360000000012,-0.0081896,0.0025296000000005,0.0172378000000006,0.0085294,0,sub_7
0.0073545999999995,0.0058820000000012,-0.0089008,0.0036134000000005,0.0139586000000006,0.0087671999999999,0,sub_7
0.0055013999999995,0.0055712000000012,-0.0092472,0.0036304000000005,0.0102586000000006,0.0085707999999999,0,sub_7
0.0032473999999995,0.0054086000000012,-0.009091,0.0040846000000005,0.0074154000000006,0.0068807999999999,0,sub_7
-0.0011042000000004,0.0057246000000012,-0.009649,0.0043428000000005,0.0081956000000006,0.0049709999999999,0,sub_7
-0.0043254000000003,0.0059282000000012,-0.0106504,0.0041564000000005,0.0116154000000006,0.0024015999999999,0,sub_7
-0.0073586000000003,0.0053584000000012,-0.0119862,0.0035478000000005,0.0158898000000006,-0.0003855999999999,0,sub_7
-0.0099080000000003,0.0049646000000012,-0.0135398,0.0014524000000005,0.0227218000000006,-0.0021181999999999,0,sub_7
-0.0109436000000003,0.0044830000000012,-0.0146586,-0.0006419999999994,0.0310402000000006,-0.0025707999999999,0,sub_7
-0.0103080000000003,0.0049312000000012,-0.0150432,-0.0016531999999994,0.0381920000000006,-0.0023529999999999,0,sub_7
-0.0100606000000003,0.0042012000000012,-0.0158742,-0.0020251999999994,0.0459774000000006,-0.0012769999999999,0,sub_7
-0.0096404000000003,0.0045060000000012,-0.0171756,-0.0017607999999994,0.0539692000000006,0.0008714,0,sub_7
-0.0095598000000003,0.0039732000000012,-0.0187892,-0.0017107999999994,0.0623854000000006,0.0036586,0,sub_7
-0.0103816000000003,0.0041092000000012,-0.0196766,-0.0023103999999994,0.0703708000000006,0.0081509999999999,0,sub_7
-0.0109390000000003,0.0033756000000012,-0.019578,-0.0037847999999994,0.0795178000000006,0.0130427999999999,0,sub_7
-0.0120938000000003,0.0035636000000012,-0.0189786,-0.0067557999999994,0.0888796000000006,0.0187783999999999,0,sub_7
-0.0132810000000003,0.0042710000000012,-0.0187494,-0.0099323999999994,0.1003708000000006,0.0249371999999999,0,sub_7
-0.0122270000000003,0.0046250000000012,-0.0189796,-0.0120263999999994,0.1115628000000007,0.0306947999999999,0,sub_7
-0.0101368000000003,0.0037558000000012,-0.0205204,-0.0141269999999994,0.1214756000000006,0.0366675999999999,0,sub_7
-0.0076404000000003,0.0037478000000012,-0.0217958,-0.0183843999999994,0.1277680000000007,0.0441255999999999,0,sub_7
-0.0043090000000003,0.0034888000000012,-0.0237564,-0.0224417999999994,0.1302282000000006,0.0507353999999999,0,sub_7
-0.0005030000000003,0.0036400000000012,-0.0237788,-0.0269421999999994,0.1275826000000006,0.0558529999999999,0,sub_7
0.0014331999999996,0.0032524000000012,-0.022339,-0.0295553999999994,0.1224518000000006,0.0624643999999999,0,sub_7
0.0017273999999996,0.0053862000000012,-0.0190874,-0.0340937999999994,0.1173236000000006,0.0701306,0,sub_7
0.0002969999999996,0.0055394000000012,-0.0164758,-0.0388419999999994,0.1102152000000006,0.0756726,0,sub_7
-0.0009336000000003,0.0057284000000012,-0.0150778,-0.0386653999999994,0.1062880000000006,0.080604,0,sub_7
-0.0013358000000003,0.0036020000000012,-0.0130722,-0.0397575999999994,0.1059830000000006,0.0865902,0,sub_7
-0.0026050000000003,0.0036096000000012,-0.0129594,-0.0421127999999994,0.1082444000000006,0.0912824,0,sub_7
-0.0041248000000003,0.0020010000000012,-0.0126262,-0.0463643999999994,0.1113824000000007,0.0914736,0,sub_7
-0.0035806000000003,0.0018242000000012,-0.0132534,-0.0471679999999994,0.1199178000000007,0.0888934,0,sub_7
-0.0041248000000003,0.0025222000000012,-0.0109722,-0.0513693999999994,0.1325114000000007,0.0867116,0,sub_7
-0.0053618000000003,0.0025498000000012,-0.0089114,-0.0515109999999994,0.1442472000000006,0.0824225999999999,0,sub_7
-0.0034360000000003,0.0036446000000012,-0.006553,-0.0544175999999994,0.1532416000000007,0.0734178,0,sub_7
-0.0002432000000003,0.0032048000000012,-0.0070206,-0.0541147999999994,0.1621558000000006,0.061439,0,sub_7
0.0026415999999996,0.0025438000000012,-0.004387,-0.0538149999999994,0.1695820000000006,0.0486074,0,sub_7
0.0079101999999996,0.0026482000000012,-0.0077538,-0.0499143999999994,0.1699690000000006,0.0347416,0,sub_7
0.0135009999999996,0.0042744000000012,-0.0112392,-0.0562805999999994,0.1650646000000006,0.0210248,0,sub_7
0.0178709999999996,0.0033472000000012,-0.0136276,-0.0565223999999994,0.1528676000000006,0.0141964,0,sub_7
0.0217093999999996,0.0051032000000012,-0.014879,-0.0662399999999994,0.1271218000000006,0.0141614,0,sub_7
0.0250163999999996,0.0073356000000012,-0.0195538,-0.0721791999999994,0.0985486000000006,0.025266,0,sub_7
0.0237681999999996,0.0074258000000012,-0.0175212,-0.0826049999999994,0.0703136000000006,0.0363314,0,sub_7
0.0217965999999996,0.0082390000000012,-0.019025,-0.0821315999999994,0.0441780000000006,0.045761,0,sub_7
0.0177787999999996,0.0091668000000012,-0.020081,-0.0905489999999994,0.0287466000000006,0.0499874,0,sub_7
0.0140387999999996,0.0083562000000012,-0.0208464,-0.0877943999999994,0.0256524000000006,0.0495757999999999,0,sub_7
0.0118683999999996,0.0066118000000012,-0.0183018,-0.0896983999999994,0.0245160000000006,0.043147,0,sub_7
0.0114609999999996,0.0080644000000012,-0.0166828,-0.0888335999999994,0.0202792000000006,0.0363218,0,sub_7
0.0123155999999995,0.0080560000000012,-0.0113644,-0.0918093999999994,0.0188144000000006,0.0322436,0,sub_7
0.0148423999999996,0.0077902000000012,-0.006313,-0.0860511999999994,0.0113648000000006,0.0254568,0,sub_7
0.0190225999999996,-0.0067507999999987,0.0007023999999999,-0.0769003999999994,0.0025664000000006,0.0244218,0,sub_7
0.0257857999999996,0.0003108000000012,0.0034595999999998,-0.0589573999999994,-0.0057989999999993,0.0140474,0,sub_7
0.0325077999999996,-0.0006015999999987,0.0048951999999998,-0.0476355999999994,-0.0169055999999993,0.0023484,0,sub_7
0.0385937999999996,-0.0021567999999987,0.0053305999999998,-0.0367663999999994,-0.0339753999999993,-0.0095597999999999,0,sub_7
0.0446501999999996,-0.0030773999999987,0.0068123999999998,-0.0306297999999994,-0.0536093999999993,-0.0155157999999999,0,sub_7
0.0480385999999996,0.0125626000000012,0.0053243999999998,-0.0324019999999994,-0.0755179999999993,-0.0229775999999999,0,sub_7
0.0453603999999996,0.0036906000000012,0.0063839999999999,-0.0414853999999994,-0.0968147999999993,-0.0172453999999999,0,sub_7
0.0391965999999996,0.0019604000000012,0.0079263999999999,-0.0471145999999994,-0.1123585999999993,-0.0147009999999999,0,sub_7
0.0334355999999996,0.0032770000000012,0.0086151999999999,-0.0527141999999994,-0.1202365999999993,-0.011098,0,sub_7
0.0253113999999996,0.0054614000000012,0.0076575999999999,-0.0541771999999994,-0.1181511999999993,-0.0077773999999999,0,sub_7
0.0188947999999996,0.0054538000000012,0.0062931999999999,-0.0464231999999994,-0.1065113999999992,-0.0041909999999999,0,sub_7
0.0154969999999996,0.0083806000000012,0.0039881999999999,-0.0373563999999994,-0.0903909999999992,-0.0033786,0,sub_7
0.0184339999999996,0.0088452000000012,0.0020393999999999,-0.0270369999999994,-0.0719653999999992,0.0059852,0,sub_7
0.0202627999999996,0.0085106000000012,0.0003161999999999,-0.0158803999999994,-0.0565281999999992,0.0159995999999999,0,sub_7
0.0228139999999996,0.0069722000000012,-0.0016152,-0.0096887999999994,-0.0450875999999993,0.0267103999999999,0,sub_7
0.0239989999999996,0.0060418000000012,-0.0025514,-0.0097117999999994,-0.0387419999999993,0.0382387999999999,0,sub_7
0.0231541999999996,0.0060342000000012,-0.0041534,-0.0131745999999994,-0.0383491999999993,0.0495371999999999,0,sub_7
0.0205603999999996,0.0070928000000012,-0.0048124,-0.0147131999999994,-0.0383839999999992,0.0595677999999999,0,sub_7
0.0180195999999995,0.0067838000000012,-0.0056454,-0.0164671999999994,-0.0388441999999992,0.0695973999999999,0,sub_7
0.0173207999999996,0.0071422000000012,-0.0076458,-0.0148033999999994,-0.0395251999999992,0.0785827999999999,0,sub_7
0.0162793999999995,0.0070938000000012,-0.0094626,-0.0125021999999994,-0.0429695999999992,0.08544,0,sub_7
0.0148687999999995,0.0064766000000012,-0.0099446,-0.0078319999999994,-0.0466145999999992,0.0871865999999999,0,sub_7
0.0120819999999995,0.0049602000000012,-0.0115612,-0.0054877999999994,-0.0493839999999992,0.08507,0,sub_7
0.0093355999999996,0.0045888000000012,-0.0130698,-0.0044015999999994,-0.0510683999999992,0.0790978,0,sub_7
0.0055175999999995,0.0031558000000012,-0.0116196,-0.0062893999999994,-0.0527301999999992,0.0701137999999999,0,sub_7
0.0040117999999995,0.0037964000000012,-0.0110684,-0.0100793999999994,-0.0526715999999992,0.058764,0,sub_7
0.0047211999999995,0.0034930000000012,-0.0109594,-0.0151523999999994,-0.0519745999999992,0.0486864,0,sub_7
0.0076843999999996,0.0039782000000012,-0.0100618,-0.0198129999999994,-0.0529893999999993,0.0401094,0,sub_7
0.0115179999999996,0.0046100000000012,-0.0085686,-0.0229867999999994,-0.0548639999999992,0.0321848,0,sub_7
0.0151723999999996,0.0062534000000012,-0.0080636,-0.0246803999999994,-0.0586657999999992,0.0253411999999999,0,sub_7
0.0152747999999996,0.0053328000000012,-0.0054656,-0.0223217999999994,-0.0620589999999992,0.01938,0,sub_7
0.0123225999999996,0.0053782000000012,-0.0031984,-0.0210241999999994,-0.0628969999999992,0.0146898,0,sub_7
0.0079629999999996,0.0053796000000012,-0.0017064,-0.0216423999999994,-0.0611775999999993,0.0114786,0,sub_7
0.0035297999999996,0.0048300000000012,-0.000661,-0.0231109999999994,-0.0566939999999993,0.0103944,0,sub_7
0.0015273999999996,0.0039904000000012,4.719999999991191e-05,-0.0245719999999994,-0.0479595999999993,0.0118686,0,sub_7
0.0026127999999996,0.0051156000000012,-0.000492,-0.0279647999999994,-0.0402895999999993,0.014826,0,sub_7
0.0065325999999996,0.0060126000000012,-0.0012384,-0.0290249999999994,-0.0356113999999993,0.0180174,0,sub_7
0.0110721999999996,0.0065558000000012,-0.0024364,-0.0269093999999994,-0.0358471999999993,0.0218781999999999,0,sub_7
0.0143705999999996,0.0068648000000012,-0.003443,-0.0209781999999994,-0.0405749999999993,0.0268393999999999,0,sub_7
0.0153465999999996,0.0075900000000012,-0.0044784,-0.0137837999999994,-0.0480809999999993,0.0328811999999999,0,sub_7
0.0151425999999996,0.0067704000000012,-0.0052442,-0.0061617999999994,-0.0549511999999993,0.0393525999999999,0,sub_7
0.0138117999999996,0.0059268000000012,-0.0060188,0.0010324000000005,-0.0613961999999993,0.0464613999999999,0,sub_7
0.0117095999999996,0.0051196000000012,-0.0058352,0.0076038000000005,-0.0657017999999992,0.0518537999999999,0,sub_7
0.0097099999999996,0.0045738000000012,-0.0054976,0.0105680000000005,-0.0676423999999992,0.0550815999999999,0,sub_7
0.0064643999999996,0.0040512000000012,-0.0051394,0.0107746000000005,-0.0697711999999992,0.0544448,0,sub_7
0.0034691999999996,0.0026390000000012,-0.0045328,0.0090762000000005,-0.0716673999999993,0.0505898,0,sub_7
0.0002453999999996,0.0027524000000012,-0.003382,0.0031296000000005,-0.0741681999999992,0.0417919999999999,0,sub_7
