userAcceleration.x,userAcceleration.y,userAcceleration.z,rotationRate.x,rotationRate.y,rotationRate.z,label,subject
-0.0192704000000001,0.0055240000000011,0.003905,0.0067396000000004,-0.0301125999999994,0.0038383999999998,0,sub_13
-0.0174888000000001,0.0059144000000011,0.0039965999999999,0.0063348000000004,-0.0264841999999994,0.0025489999999998,0,sub_13
-0.0167190000000001,0.0052684000000011,0.0037539999999999,0.0063568000000004,-0.0224327999999994,0.0016893999999998,0,sub_13
-0.0161702000000001,0.0035630000000011,0.002715,0.0053110000000004,-0.0181663999999994,0.0012491999999999,0,sub_13
-0.0171640000000001,0.0033554000000011,0.002708,0.0044768000000004,-0.0139023999999993,0.0012377999999998,0,sub_13
-0.0181306000000001,0.0035360000000012,0.0021308,0.0036400000000004,-0.0094155999999993,0.0010115999999998,0,sub_13
-0.0188042000000001,0.0034846000000012,0.0009588,0.0064324000000004,-0.0051519999999993,0.0001701999999998,0,sub_13
-0.0193032000000001,0.0046650000000012,0.001154,0.0079408000000004,-0.0013119999999994,-0.0002524000000001,0,sub_13
-0.0199992000000001,0.0066460000000012,0.0027566,0.0079632000000004,0.0038134000000005,-0.0011142000000001,0,sub_13
-0.0205592000000001,0.0059952000000012,0.0024398,0.0069110000000004,0.0074504000000005,-0.001768,0,sub_13
-0.0203734000000001,0.0047180000000012,0.002909,0.0062756000000004,0.0087300000000005,-0.0015604,0,sub_13
-0.0211928000000001,0.0051264000000011,0.0029622,0.0058604000000004,0.0104392000000005,-0.0024202,0,sub_13
-0.0229534000000002,0.0056804000000011,0.0024086,0.0062962000000004,0.0134216000000005,-0.0045566,0,sub_13
-0.0235596000000002,0.0058206000000011,0.001566,0.0067092000000004,0.0127760000000005,-0.005193,0,sub_13
-0.0227934000000002,0.0065872000000012,0.0017664,0.0068876000000004,0.0091416000000005,-0.004118,0,sub_13
-0.0226480000000001,0.0062114000000012,0.00222,0.0057916000000004,0.0070022000000005,-0.0028402000000001,0,sub_13
-0.0232620000000001,0.0055096000000012,0.002903,0.0042728000000004,0.0052922000000005,-0.0019930000000001,0,sub_13
-0.0239452000000001,0.0048660000000012,0.004379,0.0036280000000004,0.0046536000000005,-0.0015694,0,sub_13
-0.0254048000000001,0.0040844000000012,0.0046876,0.0034298000000004,0.0067900000000005,-0.0028554,0,sub_13
-0.0265886000000001,0.0036528000000012,0.0049257999999999,0.0028166000000004,0.0104234000000005,-0.0052144,0,sub_13
-0.0272428000000001,0.0044212000000012,0.0052993999999999,0.0025944000000004,0.0119394000000005,-0.0067406,0,sub_13
-0.0275462000000001,0.0064620000000012,0.0053283999999999,0.0021454000000004,0.0117466000000005,-0.0069844,0,sub_13
-0.0274788000000001,0.0075434000000012,0.0046387999999999,0.0016696000000004,0.0062248000000005,-0.0065804,0,sub_13
-0.0266586000000001,0.0083588000000012,0.0050879999999999,0.0009584000000003,-0.0024985999999994,-0.004465,0,sub_13
-0.0249862000000002,0.0089326000000012,0.0056564,-0.0001795999999996,-0.0101595999999994,-0.0012858,0,sub_13
-0.0233854000000002,0.0080082000000012,0.005446,-0.0023439999999996,-0.0142111999999994,0.0014815999999998,0,sub_13
-0.0217236000000002,0.0057268000000012,0.0056008,-0.0030071999999996,-0.0163513999999994,0.0044707999999998,0,sub_13
-0.0221564000000002,0.0054014000000012,0.0063217999999999,-0.0032301999999995,-0.0161467999999994,0.0068189999999998,0,sub_13
-0.0224782000000002,0.0042846000000012,0.0066271999999999,-0.0038891999999995,-0.0137341999999994,0.0080543999999999,0,sub_13
-0.0235760000000002,0.0030894000000012,0.0057853999999999,-0.0036909999999995,-0.0121697999999994,0.0075875999999999,0,sub_13
-0.0244058000000002,0.0039040000000012,0.0058457999999999,-0.0022181999999995,-0.0127369999999994,0.0062779999999999,0,sub_13
-0.0252730000000002,0.0052954000000012,0.0059393999999999,-0.0018169999999995,-0.0141535999999994,0.0051753999999998,0,sub_13
-0.0242432000000002,0.0046872000000012,0.0062173999999999,-0.0024817999999995,-0.0147169999999994,0.0047053999999998,0,sub_13
-0.0226094000000002,0.0047364000000012,0.005582,-0.0026855999999995,-0.0134345999999994,0.0038477999999998,0,sub_13
-0.0208520000000002,0.0049842000000012,0.0054594,-0.0024587999999995,-0.0104525999999994,0.0038455999999998,0,sub_13
-0.0198830000000002,0.0041732000000012,0.0055541999999999,-0.0018071999999995,-0.0070493999999994,0.0047001999999998,0,sub_13
-0.0197696000000001,0.0040642000000012,0.0063221999999999,-0.0024625999999995,-0.0037569999999994,0.0048715999999999,0,sub_13
-0.0200138000000001,0.0040004000000011,0.0052403999999999,-0.0026863999999995,0.0001748000000005,0.0046177999999999,0,sub_13
-0.0215552000000001,0.0038250000000011,0.0051467999999999,-0.0018471999999995,0.0030386000000005,0.0041591999999999,0,sub_13
-0.0225758000000001,0.0043676000000012,0.0060213999999999,-0.0012193999999995,0.0054804000000005,0.0028451999999999,0,sub_13
-0.0235882000000001,0.0043130000000012,0.0051588,-0.0012375999999995,0.0064338000000005,0.0013149999999999,0,sub_13
-0.0230286000000002,0.0030026000000012,0.0040166,-0.0012279999999995,0.0075032000000005,0.0002455999999999,0,sub_13
-0.0218344000000002,0.0029530000000012,0.0029018,-0.0005849999999996,0.0068670000000005,-0.001031,0,sub_13
-0.0202154000000002,0.0033952000000012,0.0027676,-0.0007925999999995,0.0072972000000005,-0.0018876,0,sub_13
-0.0200696000000002,0.0036312000000012,0.0027502,-0.0006041999999995,0.0088416000000005,-0.0021202,0,sub_13
-0.0202826000000002,0.0045816000000012,0.0034942,0.0002264000000004,0.0112344000000005,-0.001922,0,sub_13
-0.0212104000000002,0.0047438000000012,0.003426,0.0001956000000004,0.0121380000000005,-0.0015144,0,sub_13
-0.0215276000000002,0.0043698000000012,0.0036868,-0.0017687999999995,0.0109144000000005,-0.0002628,0,sub_13
-0.0225794000000002,0.0039732000000012,0.003952,-0.0033045999999995,0.0094788000000005,0.0003509999999999,0,sub_13
-0.0228614000000002,0.0033114000000012,0.0033526,-0.0039465999999995,0.0086306000000005,-7.960000000006121e-05,0,sub_13
-0.0224102000000002,0.0026182000000012,0.0032633999999999,-0.0037245999999995,0.0088498000000005,-0.0017874,0,sub_13
-0.0214306000000002,0.0035980000000012,0.0031755999999999,-0.0026489999999995,0.0090660000000005,-0.0034892,0,sub_13
-0.0216746000000002,0.0047800000000012,0.0039811999999999,-0.0020251999999995,0.0099414000000005,-0.005625,0,sub_13
-0.0223250000000002,0.0052432000000012,0.0034015999999999,-0.0026929999999995,0.0089012000000005,-0.0071264,0,sub_13
-0.0212602000000002,0.0058226000000012,0.0031633999999999,-0.0033779999999995,0.0052992000000005,-0.0073428,0,sub_13
-0.0200996000000002,0.0061398000000012,0.0035739999999999,-0.0045013999999995,0.0006274000000005,-0.0060654,0,sub_13
-0.0196408000000002,0.0056476000000012,0.0043794,-0.0056141999999995,-0.0014883999999994,-0.0045776,0,sub_13
-0.0202960000000002,0.0043392000000012,0.0051258,-0.0058265999999995,-0.0004257999999994,-0.0037258,0,sub_13
-0.0200268000000002,0.0046542000000012,0.0057314,-0.0060321999999995,0.0017038000000005,-0.0033026,0,sub_13
-0.0211744000000002,0.0045132000000012,0.0055456,-0.0060331999999995,0.0021274000000005,-0.0026622,0,sub_13
-0.0219514000000002,0.0040196000000012,0.004548,-0.0064717999999995,0.0027980000000005,-0.002884,0,sub_13
-0.0221990000000002,0.0040568000000012,0.0038708,-0.0058445999999995,0.0021908000000005,-0.0041648,0,sub_13
-0.0216776000000002,0.0045468000000012,0.0033212,-0.0052135999999995,0.0030724000000005,-0.0048066,0,sub_13
-0.0215036000000002,0.0044142000000012,0.003206,-0.0037301999999995,0.0039502000000005,-0.0052288,0,sub_13
-0.0217896000000002,0.0054314000000012,0.0042616,-0.0028799999999995,0.0061094000000005,-0.0058708,0,sub_13
-0.0219646000000001,0.0069902000000012,0.0048296,-0.0030915999999995,0.0065364000000005,-0.0058728,0,sub_13
-0.0220630000000001,0.0074662000000012,0.0050407999999999,-0.0045899999999995,0.0069618000000005,-0.0043884,0,sub_13
-0.0214270000000001,0.0069308000000012,0.0052535999999999,-0.0054597999999995,0.0050404000000005,-0.002683,0,sub_13
-0.0209472000000001,0.0058770000000012,0.0058295999999999,-0.0050435999999995,0.0041808000000005,-0.0011836,0,sub_13
-0.0210302000000001,0.0047376000000012,0.0059137999999999,-0.0048319999999995,0.0052800000000005,-0.000555,0,sub_13
-0.0215292000000002,0.0037354000000012,0.0059111999999999,-0.0043973999999995,0.0080844000000005,-0.0003544,0,sub_13
-0.0224728000000002,0.0035196000000012,0.0061157999999999,-0.0041761999999995,0.0096164000000005,-0.0014354,0,sub_13
-0.0236572000000001,0.0034832000000012,0.0056473999999999,-0.0035357999999995,0.0096548000000005,-0.002298,0,sub_13
-0.0242664000000001,0.0049176000000012,0.0054435999999999,-0.0033259999999995,0.0084180000000005,-0.0035892,0,sub_13
-0.0243406000000001,0.0058550000000012,0.0056049999999999,-0.0033297999999995,0.0067170000000005,-0.0044416,0,sub_13
-0.0233468000000001,0.0058282000000012,0.0059089999999999,-0.0039785999999995,0.0045896000000005,-0.004657,0,sub_13
-0.0223788000000001,0.0061300000000012,0.0061785999999999,-0.0031245999999995,0.0050204000000005,-0.0040204,0,sub_13
-0.0216052000000001,0.0064494000000012,0.0066299999999999,-0.0029041999999995,0.0067326000000005,-0.0036034,0,sub_13
-0.0214832000000001,0.0050654000000012,0.0059014,-0.0039677999999995,0.0082336000000005,-0.0025542,0,sub_13
-0.0209356000000001,0.0030572000000012,0.0049178,-0.0050351999999995,0.0086702000000005,-0.0017174,0,sub_13
-0.0213152000000001,0.0023524000000011,0.0047292,-0.0046001999999995,0.0097458000000005,-0.0021528,0,sub_13
-0.0221892000000002,0.0022916000000011,0.0049166,-0.0043839999999995,0.0091110000000005,-0.0034324,0,sub_13
-0.0229984000000002,0.0034190000000011,0.0053392,-0.0041705999999995,0.0080492000000005,-0.0044978,0,sub_13
-0.0226928000000002,0.0038380000000012,0.0058868,-0.0035457999999995,0.0046380000000005,-0.0044892,0,sub_13
-0.0221892000000002,0.0053462000000012,0.0061312,-0.0037667999999995,0.0016426000000005,-0.0040614,0,sub_13
-0.0213896000000002,0.0057622000000012,0.0053285999999999,-0.0037773999999995,-0.0015681999999994,-0.0032046,0,sub_13
-0.0197822000000002,0.0045582000000012,0.0041455999999999,-0.0037783999999995,-0.0028607999999994,-0.0025638,0,sub_13
-0.0182762000000002,0.0028810000000012,0.0037939999999999,-0.0033505999999995,-0.0035165999999994,-0.0017072,0,sub_13
-0.0179040000000002,0.0034684000000012,0.0034841999999999,-0.0035409999999995,-0.0005429999999994,-0.0021414,0,sub_13
-0.0183054000000002,0.0028162000000012,0.0033277999999999,-0.0033141999999995,0.0018024000000005,-0.0027838,0,sub_13
-0.0195234000000001,0.0029544000000012,0.0037362,-0.0030891999999995,0.0035094000000005,-0.003639,0,sub_13
-0.0202998000000001,0.0034906000000011,0.0040864,-0.0035139999999995,0.0035126000000005,-0.0040694,0,sub_13
-0.0205416000000001,0.0041900000000011,0.0038114,-0.0043519999999995,0.0028648000000005,-0.0044934,0,sub_13
-0.0206430000000001,0.0041268000000011,0.0040012,-0.0047621999999995,0.0020040000000005,-0.0053414,0,sub_13
-0.0210804000000001,0.0043000000000011,0.0041378,-0.0051599999999995,0.0032764000000005,-0.006833,0,sub_13
-0.0208030000000001,0.0042072000000012,0.0039744,-0.0055617999999995,0.0039088000000005,-0.0081102,0,sub_13
-0.0211610000000001,0.0039494000000012,0.004066,-0.0053165999999995,0.0060302000000005,-0.0093846,0,sub_13
-0.0208626000000001,0.0037618000000012,0.0042608,-0.0044543999999995,0.0070960000000005,-0.0102344,0,sub_13
-0.0210828000000001,0.0032380000000012,0.004615,-0.0038085999999995,0.0085844000000005,-0.010018,0,sub_13
-0.0211140000000001,0.0034202000000012,0.0046558,-0.0033703999999995,0.0115640000000005,-0.0095914,0,sub_13
-0.0220834000000001,0.0038136000000012,0.0048651999999999,-0.0039669999999995,0.0166596000000005,-0.0098018,0,sub_13
-0.0224470000000001,0.0046318000000012,0.0046483999999999,-0.0043531999999995,0.0211154000000005,-0.0100098,0,sub_13
-0.0238828000000001,0.0039254000000012,0.0036905999999999,-0.0049479999999995,0.0266370000000005,-0.0102208,0,sub_13
-0.0250286000000001,0.0041838000000012,0.0034523999999999,-0.0040671999999995,0.0285298000000005,-0.0099896,0,sub_13
-0.0253318000000001,0.0041458000000012,0.0041701999999999,-0.0029923999999995,0.0265852000000005,-0.0093248,0,sub_13
-0.0241850000000001,0.0053040000000012,0.0046647999999999,-0.0023695999999995,0.0240212000000005,-0.0080352,0,sub_13
-0.0227276000000001,0.0055278000000012,0.00541,-0.0023953999999995,0.0208152000000005,-0.0054676,0,sub_13
-0.0215506000000001,0.0070900000000012,0.0069292,-0.0021973999999995,0.0201642000000005,-0.002688,0,sub_13
-0.0212896000000001,0.0070716000000012,0.0071169999999999,-0.0023963999999995,0.0211902000000005,-0.0001116,0,sub_13
-0.0208964000000002,0.0070332000000012,0.0063627999999999,-0.0034525999999995,0.0211546000000005,0.0022463999999999,0,sub_13
-0.0212846000000002,0.0054818000000012,0.0061609999999999,-0.0038695999999995,0.0202672000000005,0.0039689999999999,0,sub_13
-0.0222818000000001,0.0038760000000012,0.0053959999999999,-0.0038541999999995,0.0191712000000005,0.0041993999999999,0,sub_13
-0.0234334000000001,0.0027404000000012,0.0051991999999999,-0.0032109999999995,0.0140302000000005,0.0031573999999999,0,sub_13
-0.0238232000000001,0.0022928000000012,0.0055101999999999,-0.0036463999999995,0.0104166000000005,0.0014497999999999,0,sub_13
-0.0243746000000001,0.0021644000000012,0.0069093999999999,-0.0036443999999995,0.0089330000000005,-0.000471,0,sub_13
-0.0243472000000001,0.0026446000000012,0.0061537999999999,-0.0032251999999995,0.0053174000000005,-0.0023862,0,sub_13
-0.0235258000000001,0.0032276000000012,0.0055985999999999,-0.0040919999999995,0.0006400000000005,-0.0040954,0,sub_13
-0.0218534000000001,0.0036410000000012,0.0051987999999999,-0.0060019999999995,-0.0027909999999994,-0.004728,0,sub_13
-0.0201502000000001,0.0042190000000012,0.0048445999999999,-0.0062085999999995,-0.0070801999999994,-0.0053478,0,sub_13
-0.0191394000000001,0.0043954000000012,0.0037151999999999,-0.0064057999999995,-0.0092387999999994,-0.0059702,0,sub_13
-0.0184458000000001,0.0043242000000012,0.0041231999999999,-0.0068125999999995,-0.0096957999999994,-0.0057416,0,sub_13
-0.0193924000000002,0.0038272000000012,0.0051421999999999,-0.0065849999999995,-0.0110087999999994,-0.0050802,0,sub_13
-0.0209620000000002,0.0030402000000012,0.0048682,-0.0059485999999995,-0.0118633999999994,-0.0050746,0,sub_13
-0.0222930000000002,0.0032728000000012,0.005133,-0.0067963999999995,-0.0107941999999994,-0.0052954,0,sub_13
-0.0234296000000002,0.0037390000000012,0.0044518,-0.0063371999999995,-0.0095373999999994,-0.0061286,0,sub_13
-0.0255010000000002,0.0030988000000012,0.0049338,-0.0052311999999995,-0.0074277999999994,-0.0075994,0,sub_13
-0.0258246000000002,0.0038626000000012,0.0048196,-0.0049699999999995,-0.0040343999999994,-0.0097186,0,sub_13
-0.0249244000000002,0.0045976000000012,0.004812,-0.0064081999999995,0.0004328000000005,-0.012492,0,sub_13
-0.0232148000000001,0.0039822000000012,0.0041264,-0.0080557999999995,0.0053284000000005,-0.0156948,0,sub_13
-0.0212766000000001,0.0015600000000012,0.002901,-0.0099425999999995,0.0098212000000005,-0.0187048,0,sub_13
-0.0182928000000001,0.0012966000000012,0.0013554,-0.0114091999999995,0.0134576000000005,-0.0210698,0,sub_13
-0.0163478000000001,0.0019456000000012,-0.0003357999999999,-0.0109585999999995,0.0172970000000005,-0.0225672,0,sub_13
-0.0152224000000001,0.0019388000000012,-0.0007121999999999,-0.0090049999999995,0.0198058000000005,-0.0218828,0,sub_13
-0.0152402000000002,0.0031178000000012,-0.0008323999999999,-0.0055857999999995,0.0193138000000005,-0.0179796,0,sub_13
-0.0154142000000002,0.0067108000000012,0.0009684,-0.0019721999999995,0.0173188000000005,-0.0112958,0,sub_13
-0.0167124000000001,0.0078522000000012,0.0031324,0.0018412000000004,0.0138256000000005,-0.0031132,0,sub_13
-0.0198128000000001,0.0083406000000012,0.0059608,0.0050040000000004,0.0090520000000005,0.0061347999999999,0,sub_13
-0.0234150000000001,0.0096374000000012,0.0089494,0.0066486000000004,0.0041100000000005,0.0151255999999999,0,sub_13
-0.0265376000000001,0.0086536000000012,0.0108586,0.0042556000000004,-0.0003787999999994,0.0208829999999998,0,sub_13
-0.0301492000000001,0.0050840000000012,0.0108222,0.0010386000000004,-0.0027163999999994,0.0221453999999999,0,sub_13
-0.0319436000000002,0.0025946000000012,0.009959,-0.0027607999999995,-0.0016993999999994,0.0189467999999998,0,sub_13
-0.0315718000000001,0.0005626000000012,0.0093929999999999,-0.0056903999999995,0.0008144000000005,0.0136157999999999,0,sub_13
-0.0310774000000001,-0.0009921999999987,0.0076623999999999,-0.0069035999999995,0.0037554000000005,0.0065871999999999,0,sub_13
-0.0317068000000001,-0.0007261999999987,0.0066489999999999,-0.0051199999999995,0.0090284000000005,-0.0002098,0,sub_13
-0.0308056000000001,0.0013264000000012,0.0064863999999999,-0.0035725999999995,0.0106744000000005,-0.0055084,0,sub_13
-0.0296082000000001,0.0039356000000012,0.0056769999999999,-0.0035725999999995,0.0083402000000005,-0.0078556,0,sub_13
-0.0279886000000002,0.0049184000000012,0.0037916,-0.0057235999999995,0.0034518000000005,-0.0089326,0,sub_13
-0.0248840000000002,0.0048590000000012,0.0020332,-0.0076611999999995,-0.0010131999999994,-0.0095814,0,sub_13
-0.0201538000000002,0.0047880000000012,0.000816,-0.0072291999999995,-0.0051307999999993,-0.00955,0,sub_13
-0.0152990000000001,0.0047254000000012,0.0009102,-0.0072315999999995,-0.0092537999999993,-0.0078124,0,sub_13
-0.0119418000000001,0.0055096000000012,0.001293,-0.0063729999999995,-0.0104019999999993,-0.0047906000000001,0,sub_13
-0.0091440000000001,0.0051480000000012,0.0018506,-0.0035861999999995,-0.0092159999999993,-0.0011174000000001,0,sub_13
-0.0080536000000001,0.0056958000000012,0.0032238,-0.0012385999999995,-0.0088881999999994,0.0044765999999999,0,sub_13
-0.0089424000000001,0.0059150000000012,0.00465,-0.0006309999999995,-0.0099803999999994,0.0106779999999999,0,sub_13
-0.0127156000000001,0.0058280000000012,0.0051154,0.0023408000000004,-0.0085189999999994,0.0156107999999999,0,sub_13
-0.0161906000000002,0.0043780000000012,0.0063462,0.0044650000000004,-0.0078983999999994,0.0184021999999999,0,sub_13
-0.0198380000000002,0.0039998000000012,0.0081676,0.0044856000000003,-0.0087827999999994,0.0194989999999999,0,sub_13
-0.0235228000000002,0.0029244000000012,0.0091614,0.0036682000000003,-0.0094383999999994,0.0173849999999999,0,sub_13
-0.0255160000000001,0.0018354000000012,0.0100974,0.0022306000000003,-0.0085883999999994,0.0122737999999999,0,sub_13
-0.0248658000000001,0.0015440000000012,0.0116898,-0.0007033999999996,-0.0087965999999994,0.0067261999999999,0,sub_13
-0.0238020000000001,0.0017408000000012,0.0114234,-0.0027867999999995,-0.0092227999999994,0.0016119999999999,0,sub_13
-0.0227182000000001,0.0018084000000011,0.0101602,-0.0036067999999995,-0.0066433999999993,-0.0033108,0,sub_13
-0.0198134000000001,0.0016952000000011,0.007825,-0.0037895999999995,-0.0034323999999993,-0.0069482,0,sub_13
-0.0169000000000001,0.0017052000000011,0.0057924,-0.0042009999999995,-0.0010829999999993,-0.0080224,0,sub_13
-0.0141470000000001,0.0022552000000011,0.0023478,-0.0033021999999995,0.0016456000000006,-0.007327,0,sub_13
-0.0122022000000001,0.0017792000000012,0.0016298,-0.0026207999999995,0.0052206000000005,-0.004925,0,sub_13
-0.0115596000000001,0.0018702000000012,0.0011259999999999,-0.0002417999999995,0.0075076000000005,-0.001655,0,sub_13
-0.0137832000000002,0.0029700000000012,0.0019015999999999,0.0023408000000004,0.0083000000000005,0.0022593999999999,0,sub_13
-0.0169676000000001,0.0043130000000012,0.0030493999999999,0.0047062000000004,0.0071800000000005,0.0051063999999999,0,sub_13
-0.0206670000000001,0.0044060000000012,0.0052539999999999,0.0051118000000004,0.0039768000000005,0.0066087999999998,0,sub_13
-0.0243386000000001,0.0052292000000012,0.0061373999999999,0.0048880000000004,0.0007850000000005,0.0057567999999998,0,sub_13
-0.0251640000000001,0.0051016000000012,0.005893,0.0023112000000004,-0.0043133999999994,0.0042497999999998,0,sub_13
-0.0240936000000001,0.0041780000000011,0.0051582,-0.0002335999999995,-0.0079529999999994,0.0021185999999998,0,sub_13
-0.0222474000000001,0.0025396000000011,0.0039619999999999,-0.0012693999999995,-0.0079767999999994,0.0002069999999999,0,sub_13
-0.0207466000000001,0.0011062000000011,0.0033895999999999,-0.0014345999999995,-0.0045931999999994,-0.0021302,0,sub_13
-0.0191298000000002,0.0005110000000011,0.0031019999999999,-0.0007443999999995,-0.0001497999999994,-0.0038218,0,sub_13
-0.0189720000000002,0.0010712000000011,0.0037145999999999,-0.0002607999999995,0.0055736000000005,-0.0057302,0,sub_13
-0.0196708000000002,0.0018718000000012,0.0037299999999999,0.0004072000000004,0.0098400000000005,-0.0076538,0,sub_13
-0.0200450000000002,0.0027694000000012,0.0036043999999999,0.0002092000000004,0.0115518000000005,-0.0093666,0,sub_13
-0.0196058000000001,0.0035714000000012,0.0028281999999999,0.0010646000000004,0.0107018000000005,-0.0106414,0,sub_13
-0.0192824000000001,0.0037168000000012,0.0027143999999999,0.0019410000000004,0.0089710000000005,-0.0114688,0,sub_13
-0.0183742000000001,0.0049384000000012,0.0030035999999999,0.0028106000000003,0.0070220000000005,-0.011014,0,sub_13
-0.0166416000000001,0.0053064000000012,0.0031478,0.0028296000000004,0.0069884000000005,-0.0092858,0,sub_13
-0.0156764000000001,0.0051068000000012,0.004403,0.0024286000000004,0.0090844000000005,-0.0069222,0,sub_13
-0.0161748000000001,0.0051612000000012,0.005144,0.0028850000000004,0.0124538000000005,-0.004127,0,sub_13
-0.0170638000000001,0.0050424000000012,0.0060548,0.0033108000000004,0.0158468000000005,-0.0004964,0,sub_13
-0.0198204000000001,0.0037182000000012,0.0069697999999999,0.0043884000000004,0.0200966000000005,0.0014283999999999,0,sub_13
-0.0235094000000001,0.0027520000000012,0.0081121999999999,0.0054678000000004,0.0228626000000005,0.0014323999999999,0,sub_13
-0.0252878000000001,0.0031592000000012,0.0073557999999999,0.0071814000000004,0.0198790000000005,0.0008003999999999,0,sub_13
-0.0264066000000001,0.0031634000000012,0.0080555999999999,0.0058962000000004,0.0147736000000005,0.0005775999999999,0,sub_13
-0.0271950000000001,0.0028786000000012,0.0079293999999999,0.0044034000000004,0.0092496000000005,-0.0013554,0,sub_13
-0.0258238000000001,0.0029938000000012,0.0081582,0.0029134000000004,0.0043648000000005,-0.003289,0,sub_13
-0.0226632000000001,0.0040394000000012,0.0078654,0.0024998000000004,0.0018190000000005,-0.0050046,0,sub_13
-0.0210316000000001,0.0034730000000012,0.008132,0.0020768000000004,0.0024604000000005,-0.005222,0,sub_13
-0.0205452000000001,0.0034128000000012,0.0082744,0.0022950000000004,0.0043738000000005,-0.0043684000000001,0,sub_13
-0.0201932000000001,0.0034626000000012,0.0073512,0.0020768000000004,0.0052190000000005,-0.0024482000000001,0,sub_13
-0.0209008000000001,0.0031454000000012,0.006195,0.0022912000000004,0.0039422000000005,-0.0007430000000001,0,sub_13
-0.0225598000000001,0.0028576000000012,0.0058037999999999,0.0027134000000004,-0.0003111999999994,-0.0007416000000001,0,sub_13
-0.0231326000000001,0.0028260000000012,0.0058041999999999,0.0016468000000004,-0.0047671999999994,-0.0020322000000001,0,sub_13
-0.0224946000000002,0.0027182000000012,0.0047461999999999,0.0014364000000004,-0.0098603999999994,-0.0045980000000001,0,sub_13
