userAcceleration.x,userAcceleration.y,userAcceleration.z,rotationRate.x,rotationRate.y,rotationRate.z,label,subject
-0.0209662000000003,0.0075822000000012,0.0192311999999999,-0.0112811999999994,-0.1718479999999991,-0.0092572,0,sub_16
-0.0218176000000003,0.0066752000000012,0.0186209999999999,-0.0099635999999994,-0.1614213999999991,-0.007125,0,sub_16
-0.0229688000000003,0.0061342000000012,0.0182701999999999,-0.0084343999999994,-0.1507851999999991,-0.0043506,0,sub_16
-0.0227754000000003,0.0065326000000012,0.0180679999999999,-0.0064747999999994,-0.1392981999999991,-0.0015742,0,sub_16
-0.0219234000000003,0.0070648000000012,0.0182863999999999,-0.0030157999999994,-0.1269623999999991,0.0007841999999999,0,sub_16
-0.0204674000000003,0.0071592000000012,0.0184326,0.0019522000000005,-0.1127083999999991,0.0016553999999999,0,sub_16
-0.0191748000000003,0.0068638000000012,0.016699,0.0058552000000005,-0.0986609999999991,0.0018783999999999,0,sub_16
-0.0175106000000003,0.0054664000000012,0.0135017999999999,0.0069900000000005,-0.0833255999999991,0.0020801999999999,0,sub_16
-0.0164518000000003,0.0046940000000012,0.0102915999999999,0.0083364000000005,-0.0684171999999991,0.0022841999999999,0,sub_16
-0.0150862000000003,0.0039634000000012,0.0097599999999999,0.0100978000000005,-0.0554295999999991,0.0031339999999999,0,sub_16
-0.0140424000000003,0.0022622000000012,0.0087131999999999,0.0122726000000005,-0.0445773999999991,0.0048437999999999,0,sub_16
-0.0135202000000003,0.0008430000000012,0.0083621999999999,0.0140158000000005,-0.0333037999999991,0.0080457999999999,0,sub_16
-0.0137818000000003,0.0007558000000012,0.0104305999999999,0.0170308000000005,-0.0224665999999991,0.0127527999999999,0,sub_16
-0.0138936000000003,0.0026334000000012,0.0131898,0.0206828000000005,-0.0120583999999991,0.0176781999999999,0,sub_16
-0.0143670000000003,0.0058084000000012,0.0130428,0.0211508000000005,-0.0009887999999991,0.0195901999999999,0,sub_16
-0.0170514000000003,0.0090606000000012,0.0136265999999999,0.0186518000000005,0.0107458000000008,0.0176349999999999,0,sub_16
-0.0198384000000003,0.0112268000000012,0.0145415999999999,0.0182932000000005,0.0207814000000008,0.0124919999999999,0,sub_16
-0.0224842000000003,0.0132258000000012,0.0142439999999999,0.0187842000000005,0.0282640000000008,0.0056491999999999,0,sub_16
-0.0252424000000003,0.0144780000000012,0.0140533999999999,0.0160766000000005,0.0349106000000008,-0.0024966,0,sub_16
-0.0265172000000003,0.0145480000000012,0.0150259999999999,0.0140014000000005,0.0411238000000008,-0.0093558,0,sub_16
-0.0254368000000003,0.0140972000000012,0.0162889999999999,0.0132130000000005,0.0494604000000008,-0.0155676,0,sub_16
-0.0232288000000003,0.0134244000000012,0.0174295999999999,0.0107368000000005,0.0607910000000007,-0.0230768,0,sub_16
-0.0195634000000003,0.0116846000000012,0.0162815999999999,0.0065670000000005,0.0719272000000007,-0.0338024,0,sub_16
-0.0139642000000003,0.0080454000000012,0.0130317999999999,0.0015342000000005,0.0794506000000007,-0.046025,0,sub_16
-0.0097360000000003,0.0030006000000012,0.0090119999999999,-0.0043759999999994,0.0812262000000008,-0.0586736,0,sub_16
-0.0060928000000003,-0.0005553999999987,0.0056995999999999,-0.0088289999999994,0.0770226000000008,-0.069168,0,sub_16
-0.0041714000000003,-0.0018049999999987,0.0035748,-0.0120303999999994,0.0698180000000008,-0.0762314,0,sub_16
-0.0039252000000003,-0.0001877999999987,0.0040912,-0.0141763999999994,0.0649338000000008,-0.0783766,0,sub_16
-0.0065920000000003,0.0037820000000012,0.0065296,-0.0135381999999994,0.0649298000000008,-0.0779448,0,sub_16
-0.0098160000000003,0.0088242000000012,0.0096452,-0.0103041999999994,0.0738608000000008,-0.076438,0,sub_16
-0.0133426000000003,0.0141468000000012,0.0117412,-0.0051295999999994,0.0902302000000008,-0.0719362,0,sub_16
-0.0156164000000003,0.0168448000000012,0.0133576,0.0034618000000005,0.1099854000000008,-0.0646376,0,sub_16
-0.0172998000000003,0.0162714000000012,0.014621,0.0131324000000005,0.1346286000000008,-0.0552014,0,sub_16
-0.0174586000000003,0.0129156000000012,0.015325,0.0225890000000005,0.1611814000000008,-0.0436326,0,sub_16
-0.0154630000000003,0.0078280000000012,0.0148246,0.0309500000000005,0.1830440000000008,-0.0303564,0,sub_16
-0.0121738000000003,0.0029110000000012,0.014708,0.0367428000000005,0.2019378000000008,-0.0183762,0,sub_16
-0.0086040000000003,0.0005364000000012,0.0141474,0.0391292000000005,0.2202138000000008,-0.008769,0,sub_16
-0.0049708000000003,-0.0003603999999987,0.014002,0.0404460000000005,0.2346712000000008,-0.002369,0,sub_16
-0.0011674000000003,-0.0011083999999987,0.014194,0.0398460000000005,0.2457436000000008,-0.000251,0,sub_16
0.0013693999999996,0.0003782000000012,0.0151516,0.0371210000000005,0.2540726000000008,-0.0028444,0,sub_16
0.0019915999999996,0.0009396000000012,0.0156695999999999,0.0311944000000005,0.2573190000000008,-0.0103674,0,sub_16
0.0024093999999996,0.0024916000000012,0.0150437999999999,0.0226978000000005,0.2544120000000008,-0.0219598,0,sub_16
0.0028857999999996,0.0040920000000012,0.0137011999999999,0.0139724000000005,0.2463994000000008,-0.0352564,0,sub_16
0.0028707999999996,0.0070664000000012,0.0121549999999999,0.0077962000000005,0.2375188000000008,-0.046825,0,sub_16
0.0029703999999996,0.0096582000000012,0.0107565999999999,0.0056644000000005,0.2309498000000008,-0.0538816,0,sub_16
0.0046127999999996,0.0120604000000012,0.0085104,0.0088516000000005,0.2281682000000008,-0.0536422,0,sub_16
0.0055613999999996,0.0127066000000012,0.0069276,0.0171396000000005,0.2298070000000008,-0.0443998,0,sub_16
0.0067719999999996,0.0134024000000012,0.004944,0.0288262000000005,0.2343910000000008,-0.028728,0,sub_16
0.0082391999999996,0.0112380000000012,0.0027984,0.0411376000000005,0.2381104000000008,-0.010487,0,sub_16
0.0113097999999996,0.0095890000000012,0.000606,0.0504492000000005,0.2384338000000008,0.0070963999999999,0,sub_16
0.0141979999999996,0.0091848000000012,-0.0008613999999999,0.0567554000000005,0.2323854000000008,0.0223169999999999,0,sub_16
0.0189189999999996,0.0070538000000012,-0.0015191999999999,0.0600696000000005,0.2195528000000008,0.0317569999999999,0,sub_16
0.0226735999999996,0.0026660000000012,-0.0016805999999999,0.0584870000000005,0.2022906000000008,0.0343317999999999,0,sub_16
0.0262275999999996,0.0003372000000012,-0.0023381999999999,0.0517938000000005,0.1825092000000008,0.0319603999999999,0,sub_16
0.0282213999999996,-0.0013237999999987,-0.0049101999999999,0.0431880000000005,0.1606192000000008,0.0257325999999999,0,sub_16
0.0294961999999996,-0.0026511999999987,-0.0068183999999999,0.0328800000000005,0.1361932000000008,0.0158641999999999,0,sub_16
0.0275187999999996,-0.0026399999999987,-0.0077919999999999,0.0215022000000005,0.1087974000000008,0.0036419999999999,0,sub_16
0.0257893999999996,-0.0008407999999987,-0.0077977999999999,0.0088326000000005,0.0777884000000008,-0.0096526,0,sub_16
0.0217183999999996,0.0022196000000012,-0.0070395999999999,-0.0027739999999994,0.0454990000000008,-0.0233656,0,sub_16
0.0165763999999996,0.0042116000000012,-0.0044159999999999,-0.0128839999999994,0.0161780000000008,-0.0347218,0,sub_16
0.0089705999999996,0.0048230000000012,-0.0011763999999999,-0.0193445999999994,-0.0042075999999991,-0.041769,0,sub_16
0.0032357999999996,0.0053450000000012,0.001462,-0.0223749999999993,-0.0144049999999991,-0.0421824,0,sub_16
-0.0015810000000003,0.0063712000000012,0.0027686,-0.0196307999999994,-0.0142125999999991,-0.0350912,0,sub_16
-0.0035232000000003,0.0062888000000012,0.004503,-0.0119885999999994,-0.0098017999999991,-0.0215618,0,sub_16
-0.0041154000000003,0.0072720000000012,0.00759,-0.0002981999999994,-0.0032883999999991,-0.0045886,0,sub_16
-0.0023448000000003,0.0063834000000012,0.009042,0.0092422000000005,0.0008676000000008,0.0134187999999999,0,sub_16
0.0014155999999996,0.0070424000000012,0.0099644,0.0166356000000005,-0.0004979999999991,0.0288545999999999,0,sub_16
0.0052661999999996,0.0083788000000012,0.0113494,0.0197556000000005,-0.0063101999999991,0.0410613999999999,0,sub_16
0.0083225999999996,0.0084030000000012,0.010641,0.0196384000000005,-0.0154349999999991,0.0493585999999999,0,sub_16
0.0109631999999996,0.0076564000000012,0.008472,0.0158796000000005,-0.0309257999999991,0.0544339999999999,0,sub_16
0.0127963999999996,0.0090456000000012,0.007608,0.0129666000000005,-0.0521559999999991,0.0554633999999999,0,sub_16
0.0112587999999996,0.0077538000000012,0.0071488,0.0079256000000005,-0.0744345999999991,0.0541291999999999,0,sub_16
0.0074699999999996,0.0047372000000012,0.0073476,0.0020408000000005,-0.0979747999999991,0.0493723999999999,0,sub_16
0.0024779999999996,0.0036810000000012,0.0097036,-0.0025175999999994,-0.1207335999999991,0.0438149999999998,0,sub_16
-0.0027292000000003,0.0027392000000012,0.0122433999999999,-0.0049173999999994,-0.1375361999999991,0.0386921999999999,0,sub_16
-0.0072160000000003,0.0024094000000012,0.0149845999999999,-0.0051575999999994,-0.1456227999999991,0.0365643999999999,0,sub_16
-0.0100690000000003,0.0026388000000012,0.0171633999999999,-0.0026037999999994,-0.1466985999999991,0.0370107999999999,0,sub_16
-0.0115058000000003,0.0031132000000012,0.0189117999999999,0.0008178000000005,-0.1424597999999991,0.0395929999999999,0,sub_16
-0.0115068000000003,0.0030148000000012,0.0196735999999999,0.0021230000000005,-0.1341661999999991,0.0423687999999999,0,sub_16
-0.0110856000000003,0.0031610000000012,0.0197421999999999,0.0019268000000005,-0.1277841999999991,0.0449229999999999,0,sub_16
-0.0106052000000003,0.0027352000000012,0.0190861999999999,-0.0012689999999994,-0.1254345999999991,0.0461793999999999,0,sub_16
-0.0107966000000003,0.0026896000000012,0.0208311999999999,-0.0046849999999994,-0.1262731999999991,0.0457293999999999,0,sub_16
-0.0106440000000003,0.0034578000000012,0.0228507999999999,-0.0066111999999994,-0.1281813999999991,0.0450773999999999,0,sub_16
-0.0112250000000003,0.0050870000000012,0.0250209999999999,-0.0074617999999994,-0.1290247999999991,0.0435769999999999,0,sub_16
-0.0119570000000003,0.0059308000000012,0.0264579999999999,-0.0102029999999994,-0.1268639999999991,0.0384275999999999,0,sub_16
-0.0122622000000003,0.0065542000000012,0.0265787999999999,-0.0148395999999994,-0.1234011999999991,0.0289905999999999,0,sub_16
-0.0108616000000003,0.0074164000000012,0.0241823999999999,-0.0207525999999994,-0.1218403999999991,0.0167695999999999,0,sub_16
-0.0101402000000003,0.0071848000000012,0.0213397999999999,-0.0271077999999994,-0.1245355999999991,0.0036963999999999,0,sub_16
-0.0099710000000003,0.0056210000000012,0.0191409999999999,-0.0322057999999994,-0.1314997999999991,-0.008508,0,sub_16
-0.0110428000000003,0.0038410000000012,0.019171,-0.0347547999999994,-0.1382709999999991,-0.0179174,0,sub_16
-0.0132446000000003,0.0027786000000012,0.0211916,-0.0355823999999994,-0.1390937999999991,-0.0245452,0,sub_16
-0.0165004000000003,0.0010216000000012,0.02302,-0.0361659999999994,-0.1311897999999991,-0.0292596,0,sub_16
-0.0196666000000003,0.0009842000000012,0.025178,-0.0356527999999994,-0.1145629999999991,-0.031841,0,sub_16
-0.0220602000000003,0.0029136000000012,0.0265865999999999,-0.0334173999999994,-0.0924111999999991,-0.032281,0,sub_16
-0.0237810000000003,0.0060228000000012,0.0270747999999999,-0.0307533999999994,-0.0679251999999991,-0.0307984,0,sub_16
-0.0247478000000003,0.0095028000000012,0.0268541999999999,-0.0257547999999994,-0.0451559999999991,-0.028229,0,sub_16
-0.0259976000000003,0.0135602000000012,0.0278257999999999,-0.0201313999999994,-0.0251611999999991,-0.0250106,0,sub_16
-0.0259672000000003,0.0157490000000012,0.0281287999999999,-0.0142945999999994,-0.0062281999999991,-0.0228576,0,sub_16
-0.0236376000000003,0.0160040000000012,0.0284329999999999,-0.0088807999999994,0.0120730000000008,-0.0222024,0,sub_16
-0.0189756000000003,0.0148278000000012,0.026849,-0.0039059999999994,0.0278184000000008,-0.0213332,0,sub_16
-0.0140346000000003,0.0123886000000012,0.0249374,0.0008428000000005,0.0418558000000008,-0.0193952,0,sub_16
-0.0084176000000003,0.0095604000000012,0.0202436,0.0030034000000005,0.0514212000000008,-0.0157604,0,sub_16
-0.0033440000000003,0.0077860000000012,0.0164514,0.0038424000000005,0.0524664000000008,-0.011483,0,sub_16
-0.0011828000000003,0.0065400000000012,0.0134137999999999,0.0040174000000005,0.0479754000000008,-0.0074166,0,sub_16
-0.0015846000000003,0.0047860000000012,0.0134207999999999,0.0050288000000005,0.0417136000000008,-0.005262,0,sub_16
-0.0038430000000003,0.0022576000000012,0.0139577999999999,0.0045638000000005,0.0378066000000008,-0.0046162,0,sub_16
-0.0076266000000003,-0.0005375999999987,0.0169291999999999,0.0049954000000005,0.0413620000000008,-0.0061102,0,sub_16
-0.0125958000000003,-0.0015055999999987,0.0193871999999999,0.0054816000000005,0.0562126000000008,-0.008473,0,sub_16
-0.0172884000000003,-0.0012289999999987,0.0221137999999999,0.0038792000000005,0.0789622000000008,-0.012997,0,sub_16
-0.0210590000000003,0.0034404000000012,0.023319,-2.5399999999425187e-05,0.1047856000000008,-0.0205348,0,sub_16
-0.0219242000000003,0.0095372000000012,0.0239358,-0.0045719999999994,0.1257290000000008,-0.0325574,0,sub_16
-0.0209104000000003,0.0159048000000012,0.024448,-0.0082755999999994,0.1415670000000008,-0.0473452,0,sub_16
-0.0165314000000003,0.0175236000000012,0.0219642,-0.0114427999999994,0.1499632000000008,-0.0607318,0,sub_16
-0.0105752000000003,0.0178966000000012,0.0185058,-0.0097513999999994,0.1544790000000008,-0.0670292,0,sub_16
-0.0049626000000003,0.0143774000000012,0.0147322,-0.0049111999999994,0.1563914000000008,-0.0643284,0,sub_16
-0.0010012000000003,0.0107334000000012,0.0114152,0.0022262000000005,0.1569778000000008,-0.0517822,0,sub_16
0.0018983999999996,0.0084376000000012,0.00887,0.0116694000000005,0.1551854000000008,-0.03238,0,sub_16
0.0027757999999996,0.0071996000000012,0.0094708,0.0218106000000005,0.1535746000000008,-0.0113698,0,sub_16
0.0033077999999996,0.0060338000000012,0.010561,0.0298258000000005,0.1511294000000008,0.0070627999999999,0,sub_16
0.0037465999999996,0.0049026000000012,0.0117446,0.0363712000000005,0.1476496000000008,0.0190771999999999,0,sub_16
0.0043575999999996,0.0035342000000012,0.0122516,0.0386844000000005,0.1445068000000008,0.0232669999999999,0,sub_16
0.0053243999999996,0.0030084000000012,0.0119522,0.0373810000000005,0.1377784000000008,0.0214539999999999,0,sub_16
0.0064107999999996,0.0041458000000012,0.0106598,0.0341522000000005,0.1265964000000008,0.0162149999999999,0,sub_16
0.0070965999999996,0.0054056000000012,0.0094062,0.0296374000000005,0.1122308000000008,0.0090483999999999,0,sub_16
0.0078759999999996,0.0071026000000012,0.0088786,0.0240510000000005,0.0978646000000008,0.0029423999999999,0,sub_16
0.0080797999999996,0.0088562000000012,0.0081126,0.0205854000000005,0.0844618000000008,0.0010125999999999,0,sub_16
0.0072335999999996,0.0084720000000012,0.0066098,0.0188276000000005,0.0759346000000008,0.0037887999999999,0,sub_16
0.0057371999999996,0.0083306000000012,0.0061828,0.0194198000000005,0.0705848000000008,0.0091407999999999,0,sub_16
0.0043607999999996,0.0077142000000012,0.0061382,0.0204958000000005,0.0653610000000008,0.0146969999999999,0,sub_16
0.0030865999999996,0.0068464000000012,0.0060774,0.0219898000000005,0.0575818000000008,0.0196185999999999,0,sub_16
0.0024235999999996,0.0060792000000012,0.006969,0.0228494000000005,0.0485368000000008,0.0219735999999999,0,sub_16
0.0028105999999996,0.0052222000000012,0.0079062,0.0232860000000005,0.0380112000000008,0.0219773999999999,0,sub_16
0.0032369999999996,0.0038176000000012,0.0080916,0.0220262000000005,0.0279254000000008,0.0200461999999999,0,sub_16
0.0030655999999996,0.0031144000000012,0.0067546,0.0192130000000005,0.0175024000000008,0.0183307999999999,0,sub_16
0.0028199999999996,0.0030124000000012,0.0056062,0.0157580000000005,0.0072920000000008,0.0172515999999999,0,sub_16
0.0017329999999996,0.0025544000000012,0.005287,0.0114464000000005,-0.0033423999999991,0.0163805999999999,0,sub_16
0.0001921999999996,0.0023108000000012,0.0053084,0.0067602000000005,-0.0127545999999991,0.0138167999999999,0,sub_16
-4.400000000360886e-06,0.0028028000000012,0.0055288,0.0018634000000005,-0.0223759999999991,0.0103971999999999,0,sub_16
0.0001053999999996,0.0039734000000012,0.0069808,-0.0021741999999994,-0.0311463999999991,0.0065551999999999,0,sub_16
0.0003753999999996,0.0054828000000012,0.0086204,-0.0049239999999994,-0.0375801999999991,0.0033599999999999,0,sub_16
0.0014435999999996,0.0059148000000012,0.0090423999999999,-0.0055437999999994,-0.0433881999999991,0.0016745999999999,0,sub_16
0.0028167999999996,0.0065648000000012,0.0098137999999999,-0.0057869999999994,-0.0497799999999991,0.0018947999999999,0,sub_16
0.0028147999999996,0.0071472000000012,0.0098761999999999,-0.0064633999999994,-0.0568125999999991,0.0029671999999999,0,sub_16
0.0018259999999996,0.0058198000000012,0.0095319999999999,-0.0077751999999994,-0.0636265999999991,0.0031803999999999,0,sub_16
0.0011167999999996,0.0042932000000012,0.0084531999999999,-0.0103293999999994,-0.0705779999999991,0.0021923999999999,0,sub_16
0.0003599999999996,0.0044668000000012,0.0084453999999999,-0.0139409999999994,-0.0764561999999991,0.0001271999999999,0,sub_16
-0.0001272000000003,0.0049948000000012,0.0079957999999999,-0.0171229999999994,-0.0814845999999991,-0.0017224,0,sub_16
-0.0008402000000003,0.0052234000000012,0.0086553999999999,-0.0181673999999994,-0.0843951999999991,-0.0022778,0,sub_16
-0.0008736000000003,0.0058788000000012,0.0089415999999999,-0.0183611999999994,-0.0858257999999991,-0.0006928,0,sub_16
-0.0021906000000003,0.0064492000000012,0.0103394,-0.0179489999999994,-0.0864767999999991,0.0018745999999999,0,sub_16
-0.0034408000000003,0.0068898000000012,0.0101174,-0.0166763999999994,-0.0852149999999991,0.0048727999999999,0,sub_16
-0.0046640000000003,0.0063980000000012,0.0103232,-0.0160371999999994,-0.0824593999999991,0.0078645999999999,0,sub_16
-0.0056900000000003,0.0056554000000012,0.0104484,-0.0169119999999994,-0.0799041999999991,0.0098587999999999,0,sub_16
-0.0064762000000003,0.0051760000000012,0.010397,-0.0186343999999994,-0.0779773999999991,0.0099251999999999,0,sub_16
-0.0065234000000003,0.0045050000000012,0.0097234,-0.0201375999999994,-0.0758339999999991,0.0089245999999999,0,sub_16
-0.0068102000000003,0.0039062000000012,0.00958,-0.0229219999999994,-0.0749601999999991,0.0068485999999999,0,sub_16
-0.0071764000000003,0.0041668000000012,0.0096218,-0.0257053999999994,-0.0747223999999991,0.0039187999999999,0,sub_16
-0.0070446000000003,0.0046646000000012,0.0092537999999999,-0.0278169999999994,-0.0732097999999991,0.0004837999999999,0,sub_16
-0.0067814000000003,0.0051836000000012,0.0093263999999999,-0.0290685999999994,-0.0689357999999991,-0.0016668,0,sub_16
-0.0065100000000003,0.0056878000000012,0.0092763999999999,-0.0303219999999994,-0.0642391999999991,-0.0029634,0,sub_16
-0.0057010000000003,0.0059626000000012,0.0100531999999999,-0.0307237999999994,-0.0584861999999991,-0.00276,0,sub_16
-0.0061290000000003,0.0053124000000012,0.0106005999999999,-0.0309819999999994,-0.0529899999999991,-0.0027386,0,sub_16
-0.0074704000000003,0.0048344000000012,0.0112943999999999,-0.0327317999999994,-0.0474869999999991,-0.003155,0,sub_16
-0.0091550000000003,0.0050640000000012,0.0110819999999999,-0.0355501999999994,-0.0432551999999991,-0.0044318,0,sub_16
-0.0102974000000003,0.0058820000000012,0.0107839999999999,-0.0379391999999994,-0.0388099999999991,-0.0061332,0,sub_16
-0.0109968000000003,0.0067122000000012,0.0105667999999999,-0.0396879999999994,-0.0350037999999991,-0.0084702,0,sub_16
-0.0108050000000003,0.0084846000000012,0.0101233999999999,-0.0403001999999994,-0.0311573999999991,-0.0108296,0,sub_16
-0.0098042000000003,0.0096002000000012,0.0097427999999999,-0.0392111999999994,-0.0288073999999991,-0.0133886,0,sub_16
-0.0085122000000003,0.0089504000000012,0.0113097999999999,-0.0373527999999994,-0.0276487999999991,-0.015316,0,sub_16
-0.0083982000000003,0.0066982000000012,0.0120233999999999,-0.0342129999999994,-0.0254327999999991,-0.0163812,0,sub_16
-0.0079802000000003,0.0057708000000012,0.0125559999999999,-0.0332071999999994,-0.0208749999999991,-0.015114,0,sub_16
-0.0079206000000003,0.0045460000000012,0.0137773999999999,-0.0319993999999994,-0.0161159999999991,-0.0110684,0,sub_16
-0.0078502000000003,0.0027990000000012,0.0145867999999999,-0.0322843999999994,-0.0096533999999991,-0.00554,0,sub_16
-0.0068216000000003,0.0039672000000012,0.0141029999999999,-0.0331283999999994,-0.0024269999999991,-0.0004276,0,sub_16
-0.0051302000000003,0.0058146000000012,0.0145797999999999,-0.0363241999999994,0.0022568000000008,0.0031761999999999,0,sub_16
-0.0047398000000003,0.0061972000000012,0.0146746,-0.0378061999999994,0.0046064000000007,0.0029491999999999,0,sub_16
-0.0042578000000003,0.0057688000000012,0.0145074,-0.0401659999999994,0.0064462000000007,-7.800000000004747e-05,0,sub_16
-0.0037504000000003,0.0064864000000012,0.0147153999999999,-0.0414597999999994,0.0082814000000007,-0.0028842,0,sub_16
-0.0043950000000003,0.0047048000000012,0.0150743999999999,-0.0418971999999994,0.0109650000000008,-0.0054718,0,sub_16
-0.0049884000000003,0.0042846000000012,0.0148483999999999,-0.0421173999999994,0.0155612000000008,-0.0069922,0,sub_16
-0.0054976000000003,0.0043598000000012,0.0150207999999999,-0.0414917999999994,0.0199352000000008,-0.007011,0,sub_16
-0.0061794000000003,0.0051846000000012,0.0149777999999999,-0.0406199999999994,0.0244048000000008,-0.0065834,0,sub_16
-0.0064458000000003,0.0056142000000012,0.0151722,-0.0399605999999994,0.0282394000000007,-0.007011,0,sub_16
-0.0065204000000003,0.0060236000000012,0.0156302,-0.0397183999999993,0.0327204000000007,-0.008938,0,sub_16
-0.0062330000000003,0.0063740000000012,0.015772,-0.0392451999999993,0.0379618000000008,-0.0108862,0,sub_16
-0.0057830000000003,0.0053340000000012,0.0158712,-0.0398407999999994,0.0425688000000008,-0.0130546,0,sub_16
-0.0050458000000003,0.0038938000000012,0.0157508,-0.0412887999999994,0.0476038000000008,-0.015016,0,sub_16
-0.0050450000000003,0.0030448000000012,0.01626,-0.0427415999999994,0.0507248000000008,-0.0178296,0,sub_16
-0.0055398000000003,0.0026200000000012,0.016991,-0.0439857999999994,0.0525678000000008,-0.0208536,0,sub_16
-0.0042348000000003,0.0031652000000012,0.0181334,-0.0452583999999994,0.0513060000000008,-0.023852,0,sub_16
-0.0029652000000003,0.0047294000000012,0.0189238,-0.0473901999999994,0.0487688000000008,-0.0268548,0,sub_16
-0.0018438000000003,0.0058356000000012,0.019933,-0.0482551999999994,0.0436688000000007,-0.029418,0,sub_16
-0.0005510000000003,0.0053770000000012,0.0217516,-0.0482089999999994,0.0377258000000008,-0.029854,0,sub_16
0.0009803999999996,0.0054426000000012,0.0226954,-0.0490325999999994,0.0313470000000008,-0.027091,0,sub_16
0.0007423999999996,0.0052852000000012,0.0230598,-0.0498617999999994,0.0243264000000008,-0.0236862,0,sub_16
0.0007251999999996,0.0057288000000012,0.0230359999999999,-0.0487753999999994,0.0175070000000008,-0.0189864,0,sub_16
0.0004155999999996,0.0065734000000012,0.0231331999999999,-0.0476795999999994,0.0117572000000008,-0.0153562,0,sub_16
0.0005681999999996,0.0086250000000012,0.0219827999999999,-0.0462241999999994,0.0062008000000008,-0.0123478,0,sub_16
0.0011987999999996,0.0104366000000012,0.0219759999999999,-0.0430589999999994,4.200000000847623e-06,-0.0106086,0,sub_16
0.0014409999999996,0.0093050000000012,0.0231889999999999,-0.0386049999999993,-0.0047037999999991,-0.0092896,0,sub_16
