userAcceleration.x,userAcceleration.y,userAcceleration.z,rotationRate.x,rotationRate.y,rotationRate.z,label,subject
-0.0240288000000002,0.0030634000000012,0.0502737999999999,-0.0623297999999994,0.0639054000000008,-0.0031971999999999,0,sub_19
-0.0224604000000002,0.0031858000000012,0.0502221999999999,-0.0599773999999994,0.0675642000000008,-0.0012581999999999,0,sub_19
-0.0212396000000002,0.0036912000000012,0.0512327999999999,-0.0563375999999994,0.0715944000000008,4.380000000003667e-05,0,sub_19
-0.0199108000000002,0.0040176000000012,0.0511889999999999,-0.0518489999999994,0.0739198000000008,0.000713,0,sub_19
-0.0191360000000002,0.0028364000000012,0.0526303999999999,-0.0469403999999994,0.0747524000000008,0.0013872,0,sub_19
-0.0191610000000002,0.0010918000000012,0.0543445999999999,-0.0404825999999994,0.0770048000000008,0.002903,0,sub_19
-0.0193020000000002,-0.0004217999999986,0.0561437999999999,-0.0323195999999994,0.0792494000000008,0.004858,0,sub_19
-0.0206158000000002,-0.0012843999999986,0.0570317999999999,-0.0239577999999994,0.0789342000000008,0.0074588,0,sub_19
-0.0214994000000002,-0.0023817999999986,0.0588295999999999,-0.0143223999999994,0.0773354000000008,0.0102836,0,sub_19
-0.0220484000000002,-0.0024935999999986,0.0591411999999999,-0.0055461999999994,0.0740368000000008,0.0126771999999999,0,sub_19
-0.0227000000000002,-0.0018723999999986,0.0591135999999999,0.0025266000000005,0.0673986000000008,0.0140239999999999,0,sub_19
-0.0241002000000002,-0.0008665999999987,0.0573401999999999,0.0093180000000005,0.0588544000000008,0.0136551999999999,0,sub_19
-0.0248896000000002,0.0006588000000012,0.0555371999999999,0.0141892000000005,0.0490436000000008,0.0119925999999999,0,sub_19
-0.0260388000000002,0.0024830000000012,0.0534219999999999,0.0163886000000005,0.0374312000000008,0.0094205999999999,0,sub_19
-0.0266616000000002,0.0044986000000012,0.0515777999999999,0.0166648000000005,0.0247620000000008,0.0064091999999999,0,sub_19
-0.0263262000000002,0.0061428000000012,0.0503457999999999,0.0135278000000005,0.0112570000000008,0.0023065999999999,0,sub_19
-0.0257138000000002,0.0076296000000012,0.0506107999999999,0.0082582000000005,-0.0020275999999991,-0.0018111999999999,0,sub_19
-0.0238026000000002,0.0078954000000012,0.0520383999999999,0.0040612000000005,-0.0138253999999991,-0.0057095999999999,0,sub_19
-0.0217704000000002,0.0075892000000012,0.0533859999999999,0.0001926000000005,-0.0231733999999991,-0.0089293999999999,0,sub_19
-0.0197876000000002,0.0069532000000012,0.0542799999999999,-0.0036625999999994,-0.0295387999999991,-0.0121527999999999,0,sub_19
-0.0185202000000002,0.0069026000000012,0.0550033999999999,-0.0064449999999994,-0.0333563999999991,-0.0140899999999999,0,sub_19
-0.0168848000000002,0.0056974000000012,0.0549905999999999,-0.0077193999999994,-0.0331345999999991,-0.0151673999999999,0,sub_19
-0.0162208000000002,0.0050280000000012,0.0536555999999999,-0.0094073999999994,-0.0292919999999991,-0.0156113999999999,0,sub_19
-0.0160686000000002,0.0054708000000012,0.0525535999999999,-0.0104521999999994,-0.0246003999999991,-0.0158383999999999,0,sub_19
-0.0164714000000002,0.0063404000000012,0.0521321999999999,-0.0106415999999994,-0.0190609999999991,-0.0156331999999999,0,sub_19
-0.0165708000000002,0.0061504000000012,0.0509565999999999,-0.0094953999999994,-0.0114251999999991,-0.0154415999999999,0,sub_19
-0.0169834000000002,0.0067722000000012,0.0502243999999999,-0.0079271999999994,-0.0044317999999991,-0.0148187999999999,0,sub_19
-0.0176276000000002,0.0067992000000012,0.0498745999999999,-0.0050815999999994,0.0021302000000008,-0.0139729999999999,0,sub_19
-0.0179204000000002,0.0058874000000012,0.0502153999999999,-0.0007317999999994,0.0116674000000008,-0.0124793999999999,0,sub_19
-0.0180296000000002,0.0053150000000012,0.0489387999999999,0.0040542000000005,0.0237578000000008,-0.0105587999999999,0,sub_19
-0.0179138000000002,0.0049638000000012,0.0485875999999999,0.0075046000000005,0.0350248000000008,-0.0073443999999999,0,sub_19
-0.0161736000000002,0.0046714000000012,0.0493105999999999,0.0103072000000005,0.0445898000000007,-0.0041324,0,sub_19
-0.0140222000000002,0.0047290000000012,0.0506905999999999,0.0113942000000005,0.0516066000000007,-0.00157,0,sub_19
-0.0120304000000002,0.0053384000000012,0.0515367999999999,0.0103416000000005,0.0560792000000007,-0.0003012,0,sub_19
-0.0102588000000002,0.0055042000000012,0.0528955999999999,0.0084300000000005,0.0590644000000008,0.0007498,0,sub_19
-0.0087044000000002,0.0062622000000012,0.0540417999999999,0.0067336000000005,0.0612018000000008,0.0005216,0,sub_19
-0.0107260000000002,0.0057498000000012,0.0538517999999999,0.0052544000000005,0.0627052000000008,-0.0011997999999999,0,sub_19
-0.0140954000000002,0.0049898000000012,0.0534423999999999,0.0031218000000005,0.0612282000000008,-0.0029219999999999,0,sub_19
-0.0183768000000002,0.0037950000000012,0.0533749999999999,-0.0003073999999994,0.0561338000000008,-0.0046485999999999,0,sub_19
-0.0230872000000002,0.0021400000000012,0.0542481999999999,-0.0054531999999994,0.0484902000000008,-0.0068111999999999,0,sub_19
-0.0270764000000002,-0.0003557999999987,0.0555863999999999,-0.0108161999999994,0.0406318000000008,-0.0083341999999999,0,sub_19
-0.0285674000000002,-0.0020049999999987,0.0579103999999999,-0.0151191999999994,0.0327638000000008,-0.0083541999999999,0,sub_19
-0.0283428000000002,-0.0025697999999987,0.0600785999999999,-0.0159947999999994,0.0282908000000008,-0.0079271999999999,0,sub_19
-0.0260748000000002,-0.0016817999999987,0.0611593999999999,-0.0123789999999994,0.0263580000000008,-0.0072585999999999,0,sub_19
-0.0229504000000002,-0.0010651999999987,0.0620783999999999,-0.0055529999999994,0.0261204000000008,-0.0069969999999999,0,sub_19
-0.0206600000000002,0.0002098000000012,0.0617891999999999,0.0008606000000005,0.0284434000000008,-0.0073823999999999,0,sub_19
-0.0191622000000002,0.0027148000000012,0.0612005999999999,0.0040890000000005,0.0350350000000008,-0.0069409999999999,0,sub_19
-0.0177520000000002,0.0043964000000012,0.0609083999999999,0.0058390000000005,0.0465264000000008,-0.0050207999999999,0,sub_19
-0.0182172000000002,0.0042542000000012,0.0613801999999999,0.0054524000000005,0.0595080000000008,-0.0009807999999999,0,sub_19
-0.0203504000000002,0.0037034000000012,0.0618657999999999,0.0033416000000005,0.0695092000000008,0.0039056,0,sub_19
-0.0239914000000002,0.0025198000000012,0.0623121999999999,0.0029206000000005,0.0739720000000008,0.0071016,0,sub_19
-0.0276180000000002,0.0001972000000013,0.0618597999999999,0.0057092000000005,0.0702996000000008,0.0066942,0,sub_19
-0.0322334000000002,-0.0028045999999986,0.0603627999999999,0.0095416000000005,0.0579026000000008,0.0026734,0,sub_19
-0.0364084000000002,-0.0046455999999986,0.0594625999999999,0.0165718000000005,0.0425212000000008,-0.0036713999999999,0,sub_19
-0.0390292000000002,-0.0054471999999986,0.0588917999999999,0.0261690000000005,0.0281978000000007,-0.0104269999999999,0,sub_19
-0.0394096000000002,-0.0054199999999987,0.0587271999999999,0.0355674000000005,0.0189808000000008,-0.0152675999999999,0,sub_19
-0.0395140000000002,-0.0047677999999987,0.0588657999999998,0.0440984000000005,0.0153402000000008,-0.0179807999999999,0,sub_19
-0.0390266000000002,-0.0035531999999987,0.0590989999999998,0.0507082000000005,0.0138274000000008,-0.0183599999999999,0,sub_19
-0.0373008000000002,-0.0028191999999986,0.0581661999999998,0.0528352000000005,0.0121162000000008,-0.0185565999999999,0,sub_19
-0.0342880000000002,-0.0009585999999986,0.0562661999999998,0.0533778000000005,0.0107016000000008,-0.0178941999999999,0,sub_19
-0.0318794000000002,0.0010068000000013,0.0543177999999999,0.0530514000000005,0.0067298000000008,-0.0163799999999999,0,sub_19
-0.0284388000000002,0.0030560000000013,0.0527127999999999,0.0488700000000005,0.0002122000000008,-0.0142483999999999,0,sub_19
-0.0255528000000002,0.0063372000000013,0.0516215999999999,0.0416986000000005,-0.0069339999999991,-0.0121369999999999,0,sub_19
-0.0230744000000002,0.0090042000000012,0.0500393999999999,0.0336736000000005,-0.0134405999999991,-0.0093913999999999,0,sub_19
-0.0218362000000002,0.0099926000000012,0.0491861999999999,0.0236010000000005,-0.0208717999999991,-0.0071021999999999,0,sub_19
-0.0210322000000002,0.0095076000000012,0.0486911999999999,0.0133150000000005,-0.0289387999999991,-0.0054545999999999,0,sub_19
-0.0217562000000002,0.0085728000000012,0.0481941999999999,0.0053820000000005,-0.0359479999999991,-0.0040055999999999,0,sub_19
-0.0221518000000002,0.0061070000000012,0.0481029999999999,0.0007384000000005,-0.0397483999999991,-0.0031591999999999,0,sub_19
-0.0231942000000002,0.0037690000000012,0.0498885999999999,-0.0006939999999994,-0.0416407999999991,-0.0027201999999999,0,sub_19
-0.0249394000000002,0.0020444000000012,0.0518461999999999,0.0021438000000005,-0.0424845999999991,-0.0018252,0,sub_19
-0.0268568000000002,0.0015938000000012,0.0541103999999999,0.0086100000000005,-0.0429157999999991,-0.0006918,0,sub_19
-0.0275464000000002,0.0004428000000012,0.0565643999999999,0.0176404000000005,-0.0431401999999991,-0.0001816,0,sub_19
-0.0280026000000002,-0.0005271999999987,0.0591937999999999,0.0285148000000005,-0.0446703999999991,0.0001099999999999,0,sub_19
-0.0281216000000002,-0.0009503999999987,0.0613345999999999,0.0413028000000005,-0.0489719999999991,-0.0008633999999999,0,sub_19
-0.0288646000000002,-0.0012617999999987,0.0635247999999999,0.0551596000000005,-0.0539121999999991,-0.0028967999999999,0,sub_19
-0.0301316000000002,-0.0017519999999987,0.0647491999999999,0.0673780000000005,-0.0577819999999991,-0.0055569999999999,0,sub_19
-0.0309578000000002,-0.0003735999999987,0.0643071999999999,0.0789630000000005,-0.0586727999999991,-0.0067299999999999,0,sub_19
-0.0314066000000002,0.0015736000000012,0.0628583999999999,0.0869320000000005,-0.0563577999999991,-0.0072913999999999,0,sub_19
-0.0317020000000001,0.0050182000000012,0.0599463999999999,0.0863682000000005,-0.0531621999999991,-0.0074861999999999,0,sub_19
-0.0308542000000002,0.0088632000000012,0.0586819999999998,0.0753376000000005,-0.0541843999999991,-0.0094577999999999,0,sub_19
-0.0284800000000002,0.0130116000000012,0.0581713999999998,0.0569866000000005,-0.0594261999999991,-0.0147067999999999,0,sub_19
-0.0268008000000002,0.0148446000000012,0.0576231999999998,0.0333042000000005,-0.0688907999999991,-0.0249013999999999,0,sub_19
-0.0248442000000002,0.0153472000000012,0.0568337999999998,0.0059810000000005,-0.0832351999999991,-0.0370379999999999,0,sub_19
-0.0225824000000002,0.0136286000000012,0.0572507999999998,-0.0181193999999994,-0.0991283999999991,-0.0487017999999999,0,sub_19
-0.0202634000000002,0.0086372000000012,0.0565955999999999,-0.0347459999999994,-0.1112227999999991,-0.0577545999999999,0,sub_19
-0.0184588000000002,0.0013438000000012,0.0567619999999999,-0.0447665999999993,-0.1197405999999991,-0.0612109999999999,0,sub_19
-0.0187562000000002,-0.0057087999999987,0.0577037999999999,-0.0456295999999993,-0.1249105999999991,-0.0573439999999999,0,sub_19
-0.0196498000000002,-0.0114165999999987,0.0585169999999999,-0.0358237999999993,-0.1235395999999991,-0.0467877999999999,0,sub_19
-0.0215042000000002,-0.0152417999999987,0.0580961999999999,-0.0194325999999993,-0.1168405999999991,-0.0312995999999999,0,sub_19
-0.0232448000000002,-0.0150039999999987,0.0567085999999999,-0.0002693999999994,-0.1084553999999991,-0.0136575999999999,0,sub_19
-0.0251176000000002,-0.0113459999999987,0.0542031999999999,0.0203932000000005,-0.1000703999999991,0.0027127999999999,0,sub_19
-0.0246032000000002,-0.0057517999999987,0.0529969999999999,0.0380156000000005,-0.0914531999999991,0.0163261999999999,0,sub_19
-0.0240244000000002,-0.0001769999999987,0.0527573999999999,0.0518098000000005,-0.0845091999999991,0.0254283999999999,0,sub_19
-0.0228236000000002,0.0042904000000012,0.0531391999999999,0.0605022000000005,-0.0783789999999991,0.0293686,0,sub_19
-0.0218004000000002,0.0068796000000012,0.0531965999999999,0.0642966000000005,-0.0739207999999991,0.0294309999999999,0,sub_19
-0.0210970000000002,0.0079124000000012,0.0536137999999998,0.0644664000000005,-0.0709327999999991,0.0273338,0,sub_19
-0.0216658000000002,0.0081096000000012,0.0535613999999999,0.0621384000000005,-0.0709075999999991,0.0230447999999999,0,sub_19
-0.0227982000000002,0.0088124000000012,0.0536253999999999,0.0585282000000005,-0.0730015999999991,0.0170401999999999,0,sub_19
-0.0241738000000002,0.0097482000000012,0.0544373999999999,0.0549230000000005,-0.0750913999999991,0.0099673999999999,0,sub_19
-0.0243984000000002,0.0104504000000012,0.0555971999999999,0.0520878000000005,-0.0747207999999991,0.0029418,0,sub_19
-0.0232046000000002,0.0110926000000012,0.0561077999999999,0.0488344000000005,-0.0724309999999991,-0.0040891999999999,0,sub_19
-0.0219868000000002,0.0107606000000012,0.0569837999999999,0.0434444000000005,-0.0699241999999991,-0.0102807999999999,0,sub_19
-0.0200256000000002,0.0088254000000012,0.0573973999999999,0.0344174000000005,-0.0682619999999991,-0.0152147999999999,0,sub_19
-0.0186272000000002,0.0056118000000012,0.0578017999999999,0.0247330000000005,-0.0687349999999991,-0.0184413999999999,0,sub_19
-0.0191890000000002,0.0031718000000012,0.0582299999999999,0.0159818000000005,-0.0708289999999991,-0.0199951999999999,0,sub_19
-0.0210504000000002,0.0007032000000013,0.0590581999999999,0.0104178000000005,-0.0746437999999991,-0.0202427999999999,0,sub_19
-0.0230096000000002,-0.0004429999999987,0.0586537999999999,0.0093250000000005,-0.0801803999999991,-0.0200297999999999,0,sub_19
-0.0254104000000002,-0.0003343999999987,0.0584027999999999,0.0121300000000005,-0.0871769999999991,-0.0195371999999999,0,sub_19
-0.0275934000000002,0.0005200000000012,0.0579949999999999,0.0177040000000005,-0.0952483999999991,-0.0190239999999999,0,sub_19
-0.0285190000000002,0.0010192000000012,0.0572261999999999,0.0245544000000005,-0.1046009999999991,-0.0189275999999999,0,sub_19
-0.0290118000000002,0.0014522000000012,0.0565967999999999,0.0307600000000005,-0.1145921999999991,-0.0184075999999999,0,sub_19
-0.0288380000000002,0.0019206000000012,0.0562765999999999,0.0359006000000005,-0.1230923999999991,-0.0168285999999999,0,sub_19
-0.0278182000000002,0.0011918000000012,0.0560489999999999,0.0394916000000005,-0.1297155999999991,-0.0152995999999999,0,sub_19
-0.0256358000000002,0.0025368000000012,0.0556091999999999,0.0394620000000005,-0.1352591999999991,-0.0142243999999999,0,sub_19
-0.0236214000000002,0.0049102000000012,0.0558731999999998,0.0356060000000005,-0.1388667999999991,-0.0144603999999999,0,sub_19
-0.0218782000000002,0.0073960000000012,0.0560429999999998,0.0287848000000005,-0.1398979999999992,-0.0170703999999999,0,sub_19
-0.0199072000000002,0.0082004000000012,0.0555675999999999,0.0200606000000005,-0.1392095999999991,-0.0218323999999999,0,sub_19
-0.0186816000000002,0.0101592000000012,0.0544725999999999,0.0113382000000005,-0.1395803999999992,-0.0280883999999999,0,sub_19
-0.0188970000000002,0.0100668000000012,0.0518159999999999,0.0032520000000005,-0.1397447999999991,-0.0332721999999999,0,sub_19
-0.0194682000000002,0.0098670000000012,0.0499429999999999,-0.0031327999999994,-0.1382223999999991,-0.0354551999999999,0,sub_19
-0.0186686000000002,0.0094400000000012,0.0483987999999999,-0.0067437999999994,-0.1337389999999991,-0.0346315999999999,0,sub_19
-0.0169676000000002,0.0102894000000012,0.0475859999999999,-0.0092859999999994,-0.1262867999999991,-0.0312405999999999,0,sub_19
-0.0147218000000002,0.0103780000000012,0.0473091999999999,-0.0118167999999994,-0.1145803999999991,-0.0261459999999999,0,sub_19
-0.0111884000000002,0.0103284000000012,0.0486575999999999,-0.0130479999999994,-0.0990417999999991,-0.0214743999999999,0,sub_19
-0.0071530000000002,0.0086326000000012,0.0481291999999999,-0.0125561999999994,-0.0809483999999991,-0.0178621999999999,0,sub_19
-0.0042732000000002,0.0066750000000012,0.0473657999999999,-0.0103573999999994,-0.0626485999999991,-0.0140245999999999,0,sub_19
-0.0030100000000002,0.0039032000000012,0.0465923999999999,-0.0064659999999994,-0.0467017999999991,-0.0093175999999999,0,sub_19
-0.0032566000000002,0.0020342000000012,0.0465791999999999,-0.0010957999999994,-0.0339597999999991,-0.00268,0,sub_19
-0.0049106000000002,0.0002654000000012,0.0473179999999999,0.0038302000000005,-0.0239901999999991,0.0050261999999999,0,sub_19
-0.0071570000000002,-0.0002091999999987,0.0491431999999999,0.0083220000000005,-0.0152991999999991,0.0131583999999999,0,sub_19
-0.0095382000000002,0.0003834000000012,0.0505711999999999,0.0130224000000005,-0.0078863999999991,0.0210797999999999,0,sub_19
-0.0108958000000002,0.0019214000000012,0.0517745999999999,0.0170750000000005,-0.0032367999999991,0.0279319999999999,0,sub_19
-0.0121734000000002,0.0033842000000012,0.0527709999999999,0.0200496000000005,-0.0013485999999991,0.0326506,0,sub_19
-0.0130302000000002,0.0050846000000012,0.0530483999999999,0.0232378000000005,-0.0009463999999991,0.035877,0,sub_19
-0.0136236000000002,0.0066450000000012,0.0533325999999999,0.0251456000000005,-0.0020251999999991,0.0376008,0,sub_19
-0.0141886000000002,0.0082028000000012,0.0529105999999999,0.0242882000000005,-0.0039353999999991,0.036529,0,sub_19
-0.0155848000000002,0.0104292000000012,0.0525513999999999,0.0215344000000005,-0.0041199999999991,0.0318098,0,sub_19
-0.0161666000000002,0.0133670000000012,0.0513269999999999,0.0173178000000005,-2.7999999999177988e-05,0.0245112,0,sub_19
-0.0160880000000002,0.0161014000000012,0.0497327999999999,0.0109884000000005,0.0076974000000008,0.016125,0,sub_19
-0.0149288000000002,0.0175232000000012,0.0475171999999999,0.0021064000000005,0.0164998000000007,0.0070786,0,sub_19
-0.0134482000000002,0.0186606000000012,0.0469025999999999,-0.0106173999999994,0.0268000000000007,-0.0002873999999999,0,sub_19
-0.0103236000000002,0.0192822000000012,0.0465887999999999,-0.0233371999999994,0.0411354000000007,-0.0044537999999999,0,sub_19
-0.0070790000000002,0.0178896000000012,0.0472639999999999,-0.0369075999999994,0.0586594000000007,-0.0060665999999999,0,sub_19
-0.0034534000000002,0.0162450000000012,0.0489233999999999,-0.0509143999999994,0.0761764000000008,-0.0055459999999999,0,sub_19
-0.0007592000000002,0.0155062000000012,0.0503873999999999,-0.0615081999999994,0.0943172000000007,-0.0041477999999999,0,sub_19
0.0017691999999997,0.0137000000000012,0.0513859999999999,-0.0665725999999994,0.1079662000000008,-0.0031323999999999,0,sub_19
0.0013675999999997,0.0112852000000012,0.0528219999999999,-0.0695205999999994,0.1158630000000008,-0.0040175999999999,0,sub_19
0.0009045999999997,0.0094358000000012,0.0541857999999999,-0.0660845999999994,0.1186292000000008,-0.0061335999999999,0,sub_19
-0.0009754000000002,0.0077800000000012,0.0542383999999999,-0.0562587999999994,0.1177556000000008,-0.0092683999999999,0,sub_19
-0.0030026000000002,0.0063116000000012,0.0549759999999999,-0.0430345999999994,0.1138854000000008,-0.0119483999999999,0,sub_19
-0.0041074000000002,0.0061928000000012,0.0563301999999999,-0.0295967999999994,0.1119244000000008,-0.0127065999999999,0,sub_19
-0.0044348000000002,0.0062362000000012,0.0573051999999999,-0.0174411999999993,0.1116638000000008,-0.0113395999999999,0,sub_19
-0.0047584000000002,0.0068150000000012,0.0581545999999999,-0.0097693999999993,0.1116284000000008,-0.0091495999999999,0,sub_19
-0.0042376000000002,0.0078308000000012,0.0593099999999999,-0.0067879999999994,0.1120372000000008,-0.0074201999999999,0,sub_19
-0.0039504000000002,0.0092300000000012,0.0609205999999999,-0.0087159999999994,0.1107640000000007,-0.0070047999999999,0,sub_19
-0.0049600000000002,0.0099196000000012,0.0617605999999999,-0.0132015999999994,0.1067436000000008,-0.0100219999999999,0,sub_19
-0.0052474000000002,0.0107472000000012,0.0628851999999999,-0.0185427999999994,0.0995414000000008,-0.0158183999999999,0,sub_19
-0.0062016000000002,0.0115894000000012,0.0636319999999999,-0.0230321999999994,0.0910614000000008,-0.0224617999999999,0,sub_19
-0.0072966000000002,0.0117376000000012,0.0649539999999999,-0.0264547999999994,0.0817288000000008,-0.0299513999999999,0,sub_19
-0.0080410000000002,0.0113192000000012,0.0654559999999999,-0.0271025999999994,0.0721752000000008,-0.0378483999999999,0,sub_19
-0.0089190000000002,0.0111718000000012,0.0651149999999999,-0.0258377999999994,0.0613348000000008,-0.0453031999999999,0,sub_19
-0.0098388000000002,0.0115110000000012,0.0634509999999999,-0.0233079999999993,0.0470812000000008,-0.0527447999999999,0,sub_19
-0.0099484000000002,0.0114390000000012,0.0608437999999998,-0.0201697999999993,0.0264312000000008,-0.0595329999999999,0,sub_19
-0.0094058000000002,0.0125722000000012,0.0573301999999998,-0.0192103999999993,-0.0023149999999991,-0.0644031999999999,0,sub_19
-0.0087294000000002,0.0134166000000012,0.0545759999999998,-0.0202181999999993,-0.0397965999999991,-0.0675669999999999,0,sub_19
-0.0073928000000002,0.0139354000000012,0.0510633999999999,-0.0231703999999993,-0.0800511999999991,-0.0681769999999999,0,sub_19
-0.0060550000000002,0.0144618000000012,0.0444949999999999,-0.0312971999999993,-0.1254285999999991,-0.0619799999999999,0,sub_19
-0.0075270000000002,0.0057108000000012,0.0360417999999999,-0.0469735999999993,-0.1797647999999991,-0.0466375999999999,0,sub_19
-0.0087350000000002,-0.0050415999999987,0.0253537999999999,-0.0659031999999994,-0.2349853999999991,-0.0204207999999999,0,sub_19
-0.0124006000000002,-0.0186471999999987,0.0142123999999999,-0.0926081999999994,-0.2972653999999991,0.0196377999999999,0,sub_19
-0.0162688000000002,-0.0354415999999987,0.0113277999999999,-0.1228105999999994,-0.3630027999999992,0.074845,0,sub_19
-0.0214368000000002,-0.0536597999999987,0.0146783999999999,-0.1568669999999994,-0.4140967999999991,0.147739,0,sub_19
-0.0210750000000002,-0.0464275999999987,0.0339815999999999,-0.1930235999999994,-0.4426601999999991,0.2357581999999999,0,sub_19
-0.0176322000000002,-0.0279629999999987,0.0579375999999999,-0.2279321999999994,-0.4349923999999991,0.3196804,0,sub_19
-0.0071636000000002,0.0043360000000012,0.0844971999999999,-0.2372581999999994,-0.3661511999999992,0.3748608,0,sub_19
0.0159189999999997,0.0492750000000012,0.1085165999999999,-0.2103051999999994,-0.2486691999999991,0.3825898,0,sub_19
0.0390005999999997,0.0891144000000012,0.1287761999999999,-0.1619245999999994,-0.1212295999999991,0.332558,0,sub_19
0.0418969999999997,0.0883734000000013,0.1250829999999999,-0.1163431999999994,-0.0122917999999991,0.2263236,0,sub_19
0.0271351999999997,0.0659328000000012,0.1119897999999999,-0.0776855999999994,0.0484154000000008,0.0929696,0,sub_19
-0.0054168000000002,0.0344252000000012,0.0895025999999999,-0.0559903999999994,0.0524514000000008,-0.0261159999999999,0,sub_19
-0.0566598000000002,-0.0016359999999987,0.0587391999999999,-0.0561985999999994,0.0220848000000008,-0.1010861999999999,0,sub_19
-0.0949202000000002,-0.0276625999999987,0.0320155999999999,-0.0568693999999994,-0.0146563999999991,-0.1266995999999999,0,sub_19
-0.1091500000000002,-0.0290789999999987,0.0202805999999999,-0.0322897999999994,-0.0412081999999991,-0.1147435999999999,0,sub_19
-0.1024078000000002,-0.0197565999999987,0.0206229999999999,0.0198072000000005,-0.0523725999999991,-0.0853095999999999,0,sub_19
-0.0699400000000002,-0.0173723999999987,0.0359821999999999,0.0909422000000005,-0.0586799999999991,-0.0615173999999999,0,sub_19
-0.0333026000000002,-0.0222325999999987,0.0552907999999999,0.1593494000000005,-0.0732125999999991,-0.0563207999999999,0,sub_19
-0.0119422000000002,-0.0312913999999987,0.0716893999999999,0.2077284000000006,-0.0952887999999991,-0.0653547999999999,0,sub_19
-0.0048432000000002,-0.0393979999999987,0.0775215999999999,0.2315734000000005,-0.1155783999999991,-0.0737079999999999,0,sub_19
-0.0093446000000002,-0.0422779999999987,0.0740579999999999,0.2282854000000005,-0.1334695999999991,-0.0722125999999999,0,sub_19
-0.0286210000000002,-0.0373449999999987,0.0613253999999999,0.2010394000000005,-0.1494211999999991,-0.0555045999999999,0,sub_19
-0.0476966000000002,-0.0253705999999987,0.0516505999999999,0.1700866000000005,-0.1684015999999991,-0.0240769999999999,0,sub_19
-0.0562600000000002,-0.0107825999999987,0.0473403999999999,0.1504080000000005,-0.1904231999999991,0.0121331999999999,0,sub_19
-0.0535038000000002,0.0040494000000012,0.0510851999999999,0.1397590000000005,-0.2064737999999991,0.0392121999999999,0,sub_19
-0.0421652000000002,0.0163034000000012,0.0645963999999999,0.1343568000000005,-0.2109717999999991,0.0498624,0,sub_19
-0.0301814000000002,0.0240576000000012,0.0785293999999999,0.1303766000000005,-0.2032527999999991,0.0410653999999999,0,sub_19
-0.0183320000000002,0.0263430000000012,0.0883659999999999,0.1235510000000005,-0.1816041999999991,0.014498,0,sub_19
-0.0211766000000002,0.0214104000000012,0.0850093999999999,0.1153200000000005,-0.1482007999999992,-0.0199989999999999,0,sub_19
-0.0323398000000002,0.0131416000000012,0.0750975999999999,0.1062192000000005,-0.1152333999999991,-0.0512967999999999,0,sub_19
-0.0500226000000002,0.0002568000000012,0.0589081999999999,0.0978798000000005,-0.0912633999999991,-0.0710409999999999,0,sub_19
-0.0665786000000002,-0.0135455999999987,0.0445591999999999,0.0870554000000005,-0.0790787999999991,-0.0717731999999999,0,sub_19
