userAcceleration.x,userAcceleration.y,userAcceleration.z,rotationRate.x,rotationRate.y,rotationRate.z,label,subject
-0.0097796000000001,0.0027150000000012,0.0048999999999999,0.0079432000000004,0.0115594000000006,0.0072769999999999,0,sub_13
-0.0111306000000002,0.0031324000000012,0.0060297999999999,0.0092052000000004,0.0092044000000006,0.0089977999999999,0,sub_13
-0.0129106000000002,0.0035458000000012,0.0071267999999999,0.0087566000000004,0.0062154000000006,0.0109211999999999,0,sub_13
-0.0149244000000002,0.0045316000000011,0.0083317999999999,0.0064018000000004,0.0052090000000006,0.0112405999999999,0,sub_13
-0.0157996000000002,0.0039672000000012,0.0079301999999999,0.0044766000000004,0.0035672000000006,0.0102819999999998,0,sub_13
-0.0165584000000002,0.0023434000000012,0.0068175999999999,0.0025468000000004,0.0002236000000006,0.0086845999999998,0,sub_13
-0.0161276000000002,0.0014356000000012,0.0065429999999999,-0.0004335999999995,-0.0014041999999993,0.0051549999999999,0,sub_13
-0.0165282000000002,0.0008464000000012,0.0055385999999999,-0.0025501999999995,-0.0019647999999993,0.0003481999999999,0,sub_13
-0.0158288000000002,5.400000001201059e-06,0.0049399999999999,-0.0040311999999995,-0.0032215999999993,-0.0037198,0,sub_13
-0.0145704000000001,0.0003056000000012,0.0041416,-0.0050825999999995,-0.0038409999999993,-0.0077856,0,sub_13
-0.0130578000000001,0.0013866000000011,0.002932,-0.0061237999999994,-0.0011811999999993,-0.0114784,0,sub_13
-0.0115160000000001,0.0014876000000011,0.0014516,-0.0041881999999994,0.0006100000000006,-0.0136536,0,sub_13
-0.0103676000000001,0.0025602000000011,0.0022314,-0.0011991999999994,0.0015370000000006,-0.013684,0,sub_13
-0.0086546000000001,0.0045058000000011,0.0026924,0.0011390000000004,0.0016078000000006,-0.0122222,0,sub_13
-0.0067108000000001,0.0049462000000011,0.0036102,0.0009062000000004,0.0016784000000006,-0.0084284,0,sub_13
-0.0055380000000002,0.0038672000000012,0.0034847999999999,0.0002412000000004,0.0003854000000006,-0.0041584,0,sub_13
-0.0057134000000002,0.0030308000000012,0.0041229999999999,-0.0002115999999995,-0.0015457999999993,-0.0003136,0,sub_13
-0.0064000000000002,0.0029276000000012,0.0040413999999999,-0.0010851999999995,-0.0026217999999993,0.0030999999999999,0,sub_13
-0.0077046000000001,0.0019022000000012,0.0043377999999999,-0.0023591999999995,-0.0005997999999993,0.0045513999999999,0,sub_13
-0.0104678000000001,0.0014330000000012,0.0046097999999999,-0.0012649999999995,0.0035546000000006,0.0034529999999999,0,sub_13
-0.0134064000000001,0.0016022000000012,0.0061707999999999,0.0002560000000004,0.0070708000000006,0.0017173999999999,0,sub_13
-0.0168670000000001,0.0037668000000012,0.0066541999999999,0.0011350000000004,0.0095266000000006,-0.0006622,0,sub_13
-0.0183394000000001,0.0037498000000012,0.0070112,0.0011518000000004,0.0096436000000006,-0.0034722,0,sub_13
-0.0179166000000002,0.0028132000000012,0.0059274,0.0017766000000004,0.0053836000000006,-0.004317,0,sub_13
-0.0179516000000002,0.0024318000000012,0.0052422,0.0023928000000004,0.0002672000000006,-0.0040926,0,sub_13
-0.0183952000000002,0.0030840000000012,0.0042452,0.0023802000000004,-0.0027145999999993,-0.0043024,0,sub_13
-0.0180036000000002,0.0015878000000012,0.0044797999999999,0.0006860000000004,-0.0026199999999993,-0.005835,0,sub_13
-0.0170932000000002,0.0003056000000012,0.0029607999999999,-0.0024901999999995,-0.0012367999999993,-0.0086614,0,sub_13
-0.0176998000000002,4.5200000001220894e-05,0.0024057999999999,-0.0056567999999995,0.0007916000000006,-0.012984,0,sub_13
-0.0181210000000002,0.0002326000000012,0.0007725999999999,-0.0079719999999994,0.0021786000000005,-0.0175136,0,sub_13
-0.0162678000000002,0.0007936000000012,0.0007591999999999,-0.0083781999999994,0.0018510000000005,-0.0211732,0,sub_13
-0.0138034000000002,0.0016730000000012,-6.240000000001453e-05,-0.0077379999999994,0.0003632000000005,-0.0226622,0,sub_13
-0.0119712000000002,0.0024830000000012,-0.0001363999999999,-0.0060395999999994,-0.0011357999999993,-0.022221,0,sub_13
-0.0106786000000002,0.0042588000000012,0.0006895999999999,-0.0041307999999994,-0.0020015999999993,-0.0204974,0,sub_13
-0.0091522000000002,0.0058934000000012,0.0026831999999999,-0.0018087999999995,-0.0030501999999993,-0.0175204,0,sub_13
-0.0085242000000002,0.0067436000000012,0.0042319999999999,-0.0018471999999995,-0.0055879999999993,-0.0130626,0,sub_13
-0.0075726000000002,0.0066098000000012,0.0044415999999999,-0.0038185999999995,-0.0096155999999993,-0.0073346,0,sub_13
-0.0075202000000002,0.0058458000000012,0.0047199999999999,-0.0055707999999995,-0.0123657999999993,-0.0016068,0,sub_13
-0.0075136000000002,0.0050804000000012,0.0044045999999999,-0.0075229999999995,-0.0129811999999993,0.0032623999999999,0,sub_13
-0.0091188000000002,0.0044204000000012,0.0048041999999999,-0.0101025999999995,-0.0140503999999993,0.0064503999999999,0,sub_13
-0.0091762000000002,0.0018574000000012,0.0039125999999999,-0.0111685999999995,-0.0129847999999993,0.0072961999999999,0,sub_13
-0.0095502000000002,0.0001446000000012,0.0038929999999999,-0.0100825999999995,-0.0095761999999993,0.0064447999999999,0,sub_13
-0.0103138000000002,-0.0004459999999987,0.0043329999999999,-0.0083503999999995,-0.0052909999999993,0.0047251999999999,0,sub_13
-0.0111672000000002,-0.0001263999999987,0.0052267999999999,-0.0059721999999995,-0.0005785999999993,0.0021549999999999,0,sub_13
-0.0096342000000002,-3.719999999877901e-05,0.0056721999999999,-0.0035949999999995,0.0047694000000006,0.0004383999999999,0,sub_13
-0.0093098000000002,0.0010702000000012,0.0058083999999999,-0.0018703999999995,0.0086232000000006,9.999999999303751e-07,0,sub_13
-0.0094752000000001,0.0014740000000012,0.0061731999999999,-0.0014221999999995,0.0133336000000006,-0.0004464,0,sub_13
-0.0091116000000001,0.0020750000000012,0.0063401999999999,-0.0003237999999995,0.0201484000000006,-0.0006612,0,sub_13
-0.0086114000000001,0.0023162000000012,0.0068221999999999,0.0014022000000004,0.0252522000000006,0.0001987999999999,0,sub_13
-0.0073054000000001,0.0027348000000012,0.0065333999999999,0.0014060000000004,0.0275900000000005,0.0016913999999999,0,sub_13
-0.0067518000000001,0.0027874000000012,0.0063019999999999,0.0014118000000004,0.0305658000000005,0.0033967999999999,0,sub_13
-0.0065986000000001,0.0030022000000012,0.0067165999999999,0.0024976000000004,0.0361056000000006,0.0048899999999999,0,sub_13
-0.0072028000000001,0.0049150000000012,0.0070411999999999,0.0035728000000004,0.0388772000000006,0.0059593999999999,0,sub_13
-0.0070260000000001,0.0047928000000012,0.0066565999999999,0.0033564000000004,0.0390968000000006,0.0070229999999999,0,sub_13
-0.0074976000000001,0.0019240000000012,0.0063835999999999,0.0044286000000004,0.0418658000000006,0.0087331999999999,0,sub_13
-0.0091198000000002,-0.0001159999999987,0.0065173999999999,0.0069934000000004,0.0442046000000006,0.0102407999999999,0,sub_13
-0.0123704000000002,-3.6999999998798736e-05,0.0062525999999999,0.0086916000000004,0.0429178000000006,0.0108951999999999,0,sub_13
-0.0133042000000002,-0.0010737999999987,0.0064369999999999,0.0095298000000004,0.0388694000000006,0.0102653999999999,0,sub_13
-0.0141628000000002,-0.0018841999999987,0.0065972,0.0099524000000004,0.0354680000000005,0.0079301999999999,0,sub_13
-0.0159148000000002,-0.0008079999999987,0.0065187999999999,0.0088940000000004,0.0327194000000006,0.0034473999999999,0,sub_13
-0.0170644000000002,0.0027266000000012,0.0066401999999999,0.0063372000000004,0.0282742000000006,-0.0016846,0,sub_13
-0.0161234000000002,0.0049638000000012,0.0067305999999999,0.0050462000000004,0.0216896000000006,-0.0057368,0,sub_13
-0.0139404000000002,0.0053974000000012,0.0068229999999999,0.0039532000000004,0.0150908000000006,-0.0063694,0,sub_13
-0.0115636000000002,0.0057808000000012,0.0062111999999999,0.0017792000000004,0.0082720000000006,-0.0042394,0,sub_13
-0.0097834000000002,0.0060986000000012,0.0059988,0.0002464000000004,0.0027252000000006,-0.0010384,0,sub_13
-0.0081266000000002,0.0044014000000012,0.005176,9.000000000457491e-06,0.0007948000000006,0.0023805999999999,0,sub_13
-0.0071512000000002,0.0030126000000012,0.0047884,0.0002156000000004,-0.0002801999999993,0.0054159999999999,0,sub_13
-0.0086310000000002,0.0016298000000011,0.003947,-0.0008437999999995,0.0007838000000006,0.0073715999999999,0,sub_13
-0.0105514000000002,0.0008488000000011,0.0029806,-0.0008285999999995,0.0022754000000006,0.0080523999999999,0,sub_13
-0.0129778000000002,0.0009258000000011,0.0028828,-0.0005971999999995,0.0031322000000006,0.0074535999999999,0,sub_13
-0.0140448000000002,0.0011346000000012,0.0035124,0.0006888000000004,0.0010034000000006,0.0066523999999999,0,sub_13
-0.0137710000000002,0.0013474000000012,0.0039136,0.0011032000000004,-0.0019799999999993,0.0064455999999999,0,sub_13
-0.0136170000000002,0.0022624000000012,0.0040416,0.0021692000000004,-0.0032577999999993,0.0053863999999999,0,sub_13
-0.0133296000000002,0.0017496000000012,0.0045635999999999,0.0038858000000004,-0.0026185999999993,0.0039019999999999,0,sub_13
-0.0125960000000002,0.0024100000000012,0.0041361999999999,0.0064700000000004,-0.0030329999999993,0.0033065999999999,0,sub_13
-0.0121772000000002,0.0029592000000012,0.0038387999999999,0.0064908000000004,-0.0030165999999993,0.0037609999999999,0,sub_13
-0.0117522000000002,0.0019944000000012,0.0033575999999999,0.0060848000000004,-0.0019377999999993,0.0052791999999999,0,sub_13
-0.0117586000000002,0.0008980000000012,0.0032091999999999,0.0052484000000004,-0.0014971999999993,0.0070089999999999,0,sub_13
-0.0129956000000002,0.0020174000000012,0.0036029999999999,0.0050406000000004,-0.0031911999999993,0.0091729999999999,0,sub_13
-0.0137406000000002,0.0032692000000012,0.0044249999999999,0.0039422000000004,-0.0085205999999993,0.0108811999999999,0,sub_13
-0.0139642000000002,0.0030370000000012,0.0047447999999999,0.0026332000000004,-0.0142709999999993,0.0115201999999999,0,sub_13
-0.0142890000000002,0.0036482000000012,0.0054215999999999,0.0015424000000004,-0.0198057999999993,0.0113059999999999,0,sub_13
-0.0130438000000002,0.0041644000000012,0.0052068,0.0002552000000004,-0.0253699999999993,0.0108901999999999,0,sub_13
-0.0106678000000001,0.0036552000000012,0.0059244,-0.0016807999999995,-0.0320005999999993,0.0113257999999999,0,sub_13
-0.0089278000000001,0.0017382000000012,0.0073576,-0.0025383999999995,-0.0337439999999993,0.0141127999999999,0,sub_13
-0.0095516000000001,-0.0007607999999987,0.0075812,-0.0014563999999994,-0.0314451999999993,0.0166945999999999,0,sub_13
-0.0104136000000001,-0.0029053999999987,0.0076658,-0.0012049999999995,-0.0261519999999993,0.0171301999999999,0,sub_13
-0.0113936000000001,-0.0032495999999987,0.0070447999999999,-0.0001123999999995,-0.0212519999999993,0.0162769999999999,0,sub_13
-0.0127840000000002,-0.0032605999999987,0.0055933999999999,0.0018464000000004,-0.0150707999999993,0.0139327999999999,0,sub_13
-0.0140546000000002,-0.0028449999999987,0.0036493999999999,0.0020952000000004,-0.0118569999999993,0.0092303999999999,0,sub_13
-0.0146466000000002,-0.0005755999999987,0.0034361999999999,0.0016922000000004,-0.0115097999999993,0.0036661999999999,0,sub_13
-0.0142238000000002,0.0022212000000012,0.0033939999999999,0.0017008000000004,-0.0128753999999993,-0.0001838,0,sub_13
-0.0145958000000002,0.0032860000000012,0.0044491999999999,0.0018958000000004,-0.0172361999999993,-0.0010376,0,sub_13
-0.0136118000000001,0.0045616000000012,0.0059173999999999,0.0016524000000004,-0.0226667999999993,-0.0003976,0,sub_13
-0.0116336000000001,0.0040868000000012,0.0063005999999999,0.0007728000000004,-0.0268183999999993,0.0006635999999999,0,sub_13
-0.0094272000000001,0.0029778000000012,0.0058037999999999,-0.0013839999999995,-0.0295899999999993,0.0030021999999999,0,sub_13
-0.0085278000000001,0.0028712000000012,0.0052211999999999,-0.0029149999999995,-0.0349229999999993,0.0059893999999999,0,sub_13
-0.0079930000000001,0.0029694000000012,0.0053729999999999,-0.0040037999999995,-0.0383341999999993,0.0074815999999999,0,sub_13
-0.0079586000000001,0.0014488000000012,0.0053543999999999,-0.0052999999999995,-0.0397027999999993,0.0078953999999999,0,sub_13
-0.0092034000000002,0.0012484000000012,0.0054253999999999,-0.0065761999999995,-0.0372339999999993,0.0076633999999999,0,sub_13
-0.0092768000000002,0.0019230000000012,0.0062026,-0.0065729999999995,-0.0364679999999993,0.0059469999999999,0,sub_13
-0.0095354000000002,0.0008714000000012,0.0051682,-0.0059135999999995,-0.0331433999999993,0.0031637999999999,0,sub_13
-0.0090628000000002,-0.0002931999999987,0.0042128,-0.0035337999999995,-0.0272663999999993,-3.800000000006941e-05,0,sub_13
-0.0090918000000002,0.0005054000000012,0.0038586,-0.0005063999999995,-0.0206627999999993,-0.0023754,0,sub_13
-0.0079404000000002,0.0019574000000012,0.005166,0.0033544000000004,-0.0174753999999993,-0.0036344,0,sub_13
-0.0073756000000002,0.0025488000000012,0.006134,0.0052892000000004,-0.0140741999999993,-0.0034116,0,sub_13
-0.0073328000000002,0.0038364000000012,0.0077342,0.0061368000000004,-0.0117989999999993,-0.0021444,0,sub_13
-0.0074056000000002,0.0050430000000012,0.0090672,0.0044114000000004,-0.0112235999999993,0.0001753999999999,0,sub_13
-0.0069116000000002,0.0034548000000012,0.0092236,0.0014048000000004,-0.0114933999999993,0.0018461999999999,0,sub_13
-0.0075334000000002,0.0022894000000012,0.0083124,-0.0013843999999995,-0.0117603999999993,0.0026641999999999,0,sub_13
-0.0087550000000002,0.0021884000000012,0.0067598,-0.0009635999999995,-0.0107567999999993,0.0026483999999999,0,sub_13
-0.0085056000000001,0.0014132000000012,0.0061199999999999,-0.0007243999999995,-0.0062781999999993,0.0013625999999999,0,sub_13
-0.0071898000000001,-7.419999999877854e-05,0.0046983999999999,0.0012268000000004,-0.0009525999999994,-0.0001262,0,sub_13
-0.0073314000000001,-4.159999999875843e-05,0.0043029999999999,0.0046724000000004,0.0054296000000005,-0.0007512,0,sub_13
-0.0086120000000001,0.0002988000000012,0.0036447999999999,0.0070416000000004,0.0126582000000005,-0.0014178,0,sub_13
-0.0095964000000001,0.0005368000000012,0.0040395999999999,0.0068570000000004,0.0207504000000005,-0.0027442,0,sub_13
-0.0099148000000001,0.0004816000000012,0.0041591999999999,0.0062304000000004,0.0258598000000006,-0.0036428,0,sub_13
-0.0111688000000001,0.0011364000000012,0.0045731999999999,0.0043254000000004,0.0309754000000006,-0.0049774,0,sub_13
-0.0129524000000001,0.0023544000000012,0.0035641999999999,0.0026214000000004,0.0333206000000006,-0.006307,0,sub_13
-0.0133708000000001,0.0030720000000012,0.003385,0.0024080000000004,0.0326848000000006,-0.0069486,0,sub_13
-0.0123940000000001,0.0040520000000012,0.0042422,0.0034634000000004,0.0305490000000006,-0.0065114,0,sub_13
-0.0112770000000002,0.0037014000000012,0.0036398,0.0058076000000004,0.0303260000000006,-0.0060674,0,sub_13
-0.0107706000000002,0.0033414000000012,0.0033882,0.0083604000000004,0.0292492000000006,-0.0054072,0,sub_13
-0.0087122000000002,0.0027744000000012,0.0049,0.0100424000000004,0.0271496000000006,-0.0043686,0,sub_13
-0.0074404000000002,0.0026406000000012,0.0065066,0.0098050000000004,0.0254820000000006,-0.0031304,0,sub_13
-0.0065856000000002,0.0011340000000012,0.0064062,0.0084978000000004,0.0236034000000006,-0.001472,0,sub_13
-0.0072006000000002,0.0009214000000012,0.0071238,0.0059086000000004,0.0208788000000006,-0.0002488,0,sub_13
-0.0080784000000002,0.0010582000000012,0.0073418,0.0037478000000004,0.0173056000000005,-0.0003034,0,sub_13
-0.0090430000000002,0.0010756000000012,0.0068064,0.0018102000000004,0.0128408000000005,-0.0009522,0,sub_13
-0.0083522000000001,0.0004208000000012,0.0056025999999999,0.0011566000000004,0.0092238000000005,-0.001593,0,sub_13
-0.0083892000000001,0.0006118000000012,0.0049849999999999,0.0002958000000004,0.0074062000000005,-0.0024886,0,sub_13
-0.0084602000000001,0.0014158000000012,0.0042409999999999,7.900000000047774e-05,0.0058020000000005,-0.004021,0,sub_13
-0.0077758000000001,0.0012402000000012,0.0036359999999999,0.0004928000000004,0.0027018000000006,-0.0049062,0,sub_13
-0.0077502000000001,0.0008232000000012,0.0037043999999999,0.0004904000000004,0.0021588000000006,-0.005584,0,sub_13
-0.0086434000000002,-8.399999998778395e-06,0.0040831999999999,0.0005024000000004,0.0045992000000006,-0.0064792,0,sub_13
-0.0094002000000002,-0.0001499999999987,0.0040677999999999,0.0017990000000004,0.0060946000000006,-0.0086086,0,sub_13
-0.0095012000000002,0.0007656000000012,0.0046231999999999,0.0026564000000004,0.0054584000000006,-0.0100972,0,sub_13
-0.0095626000000001,0.0015066000000012,0.005341,0.0022364000000004,0.0058902000000006,-0.011169,0,sub_13
-0.0087346000000001,0.0016878000000012,0.004728,0.0011784000000004,0.0072868000000006,-0.0120586,0,sub_13
-0.0075606000000001,0.0042700000000012,0.0026486,0.0003242000000004,0.0061278000000006,-0.0133706,0,sub_13
-0.0064892000000001,0.0053820000000012,0.0013484,-0.0003317999999995,0.0032568000000006,-0.01297,0,sub_13
-0.0050116000000001,0.0037406000000012,0.0011443999999999,0.0002932000000004,0.0027162000000006,-0.010427,0,sub_13
-0.0044190000000002,0.0027464000000012,0.0010355999999999,0.0015576000000004,0.0032336000000006,-0.006599,0,sub_13
-0.0057600000000002,0.0031638000000012,0.0018065999999999,0.0019720000000004,0.0032210000000006,-0.0038186,0,sub_13
-0.0073012000000002,0.0015692000000012,0.0033515999999999,0.0021720000000004,0.0019350000000006,-0.0021064,0,sub_13
-0.0083258000000002,0.0004552000000012,0.0042585999999999,0.0008946000000004,0.0025786000000006,-0.0021162,0,sub_13
-0.0099378000000001,0.0006916000000012,0.0033366,-0.0001709999999995,0.0024488000000006,-0.0038486,0,sub_13
-0.0112010000000001,0.0011536000000012,0.0035946,-0.0010243999999995,0.0004074000000006,-0.007286,0,sub_13
-0.0110418000000001,0.0014188000000012,0.0047788,-0.0010193999999995,-0.0003593999999993,-0.0105054,0,sub_13
-0.0108948000000001,0.0025558000000012,0.0059444,-0.0007913999999995,0.0020646000000006,-0.0126592,0,sub_13
-0.0093492000000001,0.0027008000000012,0.0054616,0.0004890000000004,0.0025622000000006,-0.0135212,0,sub_13
-0.0080576000000001,0.0024502000000012,0.0059508,0.0009128000000004,0.0017094000000006,-0.0137306,0,sub_13
-0.0061956000000001,0.0024772000000011,0.0052662,0.0002640000000004,0.0012796000000006,-0.012239,0,sub_13
-0.0063758000000001,0.0029646000000011,0.0039018,-0.0010315999999995,-2.7999999993783e-06,-0.01011,0,sub_13
-0.0061484000000001,0.0017942000000011,0.0029203999999999,-0.0023449999999995,-0.0013007999999993,-0.0077656,0,sub_13
-0.0070614000000001,0.0012296000000011,0.0036895999999999,-0.0034343999999995,-0.0011047999999993,-0.0062762,0,sub_13
-0.0080552000000001,0.0017080000000011,0.0046377999999999,-0.0045275999999995,-0.0023975999999993,-0.0054258,0,sub_13
-0.0090430000000001,0.0016890000000012,0.0051719999999999,-0.0056023999999995,-0.0015521999999993,-0.0065008,0,sub_13
-0.0077862000000002,0.0009164000000012,0.0041835999999999,-0.0047483999999995,-6.919999999937827e-05,-0.008845,0,sub_13
-0.0072272000000002,0.0003308000000012,0.0032452,-0.0032411999999995,0.0003620000000006,-0.0113988,0,sub_13
-0.0074260000000002,0.0008496000000012,0.003401,-0.0017397999999995,0.0001514000000006,-0.0133108,0,sub_13
-0.0077734000000001,0.0014026000000012,0.004247,-0.0019377999999995,0.0018634000000005,-0.0150236,0,sub_13
-0.0079970000000001,0.0014714000000012,0.0046012,-0.0028033999999995,0.0028894000000005,-0.015878,0,sub_13
-0.0082686000000001,0.0009138000000012,0.0042984,-0.0036793999999995,0.0026328000000005,-0.0156626,0,sub_13
-0.0077820000000001,0.0018662000000012,0.0044163999999999,-0.0047775999999995,0.0015204000000005,-0.0143794,0,sub_13
-0.0072688000000001,0.0024670000000012,0.0038915999999999,-0.0052279999999995,0.0014738000000006,-0.0137338,0,sub_13
-0.0064966000000002,0.0004818000000012,0.0033795999999999,-0.0046017999999995,0.0044026000000006,-0.01223,0,sub_13
-0.0062244000000002,0.0013640000000012,0.0035167999999999,-0.0028861999999995,0.0077996000000006,-0.0107268,0,sub_13
-0.0073316000000002,0.0034242000000012,0.0051933999999999,-0.0028813999999995,0.0099260000000006,-0.0096612,0,sub_13
-0.0075674000000001,0.0032102000000012,0.0062767999999999,-0.0028707999999995,0.0124818000000006,-0.0094506,0,sub_13
-0.0070578000000001,0.0017274000000012,0.0072131999999999,-0.0017893999999995,0.0165226000000006,-0.0085938,0,sub_13
-0.0068554000000001,0.0024038000000012,0.0068237999999999,0.0003206000000004,0.0162532000000006,-0.0072732,0,sub_13
-0.0073742000000001,0.0015540000000012,0.0072295999999999,0.0017830000000004,0.0140694000000006,-0.0061684,0,sub_13
-0.0068616000000001,0.0007130000000012,0.0066935999999999,0.0028338000000004,0.0146592000000006,-0.0057108,0,sub_13
-0.0077016000000002,0.0008024000000012,0.0068269999999999,0.0026074000000004,0.0156806000000006,-0.0054764,0,sub_13
-0.0089956000000001,0.0012538000000012,0.0061837999999999,1.740000000047745e-05,0.0137248000000006,-0.0046136,0,sub_13
-0.0100700000000001,0.0017716000000012,0.0060628,-0.0025429999999995,0.0133094000000006,-0.0050584,0,sub_13
-0.0097938000000001,0.0018888000000012,0.0060284,-0.0029621999999995,0.0139542000000006,-0.0061304,0,sub_13
-0.0095864000000001,0.0014450000000012,0.0057566,-0.0025411999999995,0.0147720000000006,-0.0071654,0,sub_13
-0.0089780000000001,0.0009280000000012,0.0044106,-0.0008485999999995,0.0140922000000006,-0.0077622,0,sub_13
-0.0081740000000001,0.0008744000000012,0.0050108,0.0004154000000004,0.0138366000000005,-0.007508,0,sub_13
-0.0079388000000002,0.0007100000000012,0.0047336,0.0008210000000004,0.0131554000000005,-0.0066182,0,sub_13
-0.0084162000000002,0.0011546000000012,0.0035256,0.0007980000000004,0.0126862000000005,-0.0050906,0,sub_13
-0.0089264000000002,0.0015810000000012,0.0038672,0.0009932000000004,0.0105472000000006,-0.0031636,0,sub_13
-0.0082594000000002,0.0024206000000012,0.0047396,0.0001214000000004,0.0081998000000006,-0.0014576,0,sub_13
-0.0084984000000002,0.0014894000000012,0.003995,-0.0015835999999995,0.0082076000000006,-0.0018968,0,sub_13
-0.0084380000000002,0.0005466000000012,0.0031372,-0.0017953999999995,0.0086136000000006,-0.00335,0,sub_13
-0.0091064000000002,-0.0001357999999987,0.0031402,-0.0028615999999995,0.0083854000000006,-0.0052358,0,sub_13
-0.0085526000000002,-3.079999999877842e-05,0.0031496,-0.0024427999999995,0.0066588000000006,-0.006682,0,sub_13
-0.0092928000000002,-0.0007745999999987,0.0030908,-0.0024371999999995,0.0074920000000006,-0.0085616,0,sub_13
-0.0093942000000002,-0.0002663999999987,0.003316,-0.0013629999999995,0.0093842000000006,-0.0097942,0,sub_13
-0.0091722000000002,0.0001982000000012,0.0044408,-0.0013533999999995,0.0104538000000006,-0.0108636,0,sub_13
-0.0078246000000002,-1.7399999998798232e-05,0.0049272,-0.0017751999999995,0.0113082000000006,-0.0110812,0,sub_13
-0.0069536000000002,-0.0004481999999987,0.0040858,-0.0034649999999995,0.0143004000000006,-0.0119514,0,sub_13
-0.0065426000000002,-0.0010845999999987,0.0037734,-0.0036619999999995,0.0157806000000006,-0.0131814,0,sub_13
-0.0067746000000002,-0.0008237999999987,0.0037422,-0.0023883999999995,0.0125664000000006,-0.0139678,0,sub_13
-0.0058238000000001,0.0016534000000012,0.005945,-0.0004841999999995,0.0076440000000006,-0.0143204,0,sub_13
-0.0056830000000001,0.0037790000000012,0.0075692,-0.0002861999999995,0.0033650000000006,-0.0142584,0,sub_13
-0.0050852000000001,0.0034342000000012,0.0081626,-0.0005089999999995,0.0014268000000006,-0.013134,0,sub_13
-0.0039480000000001,0.0038634000000012,0.0087982,0.0011644000000004,-0.0020043999999993,-0.0090586,0,sub_13
