userAcceleration.x,userAcceleration.y,userAcceleration.z,rotationRate.x,rotationRate.y,rotationRate.z,label,subject
-0.0124902000000002,0.0081270000000012,-0.059946,0.0028830000000004,-0.0097401999999991,0.0028571999999999,0,sub_18
-0.0131884000000002,0.0080948000000012,-0.0594522,0.0029230000000004,-0.0068845999999991,0.0017971999999999,0,sub_18
-0.0137350000000002,0.0076778000000012,-0.0589304,0.0025174000000004,-0.0034691999999991,0.0005081999999999,0,sub_18
-0.0135280000000002,0.0074110000000012,-0.0589,0.0014736000000004,0.0003746000000008,-0.0007858,0,sub_18
-0.0129186000000002,0.0073384000000012,-0.0586842,0.0012794000000004,0.0039998000000008,-0.0014327999999999,0,sub_18
-0.0116864000000002,0.0071122000000012,-0.058706,0.0004650000000004,0.0063976000000008,-0.0020745999999999,0,sub_18
-0.0106936000000002,0.0074884000000012,-0.059225,-0.0005693999999995,0.0079416000000008,-0.0020759999999999,0,sub_18
-0.0096430000000002,0.0072852000000012,-0.0594913999999999,-0.0007533999999995,0.0088434000000008,-0.0020705999999999,0,sub_18
-0.0084622000000002,0.0069868000000012,-0.0593416,0.0003314000000004,0.0073962000000008,-0.0018397999999999,0,sub_18
-0.0079792000000002,0.0068360000000012,-0.0602998,0.0009808000000004,0.0048820000000008,-0.0007557999999999,0,sub_18
-0.0070678000000002,0.0068418000000012,-0.0602508,0.0011808000000004,0.0029596000000008,0.0003161999999999,0,sub_18
-0.0066650000000002,0.0063468000000012,-0.060008,0.0009530000000004,-0.0002353999999991,0.0003187999999999,0,sub_18
-0.0066992000000002,0.0063140000000012,-0.0598248,-0.0001301999999995,-0.0047023999999991,-0.0005376,0,sub_18
-0.0071682000000002,0.0065094000000012,-0.0609036,-0.0029043999999995,-0.0076565999999991,-0.0011886,0,sub_18
-0.0072364000000002,0.0064264000000012,-0.061774,-0.0056785999999995,-0.0101865999999991,-0.001413,0,sub_18
-0.0078298000000002,0.0066770000000012,-0.0617924,-0.0067467999999995,-0.0129355999999991,-0.0016252,0,sub_18
-0.0088532000000002,0.0074636000000012,-0.06138,-0.0058927999999995,-0.0146285999999991,-0.0011844,0,sub_18
-0.0097252000000002,0.0085388000000012,-0.0614668,-0.0039659999999995,-0.0135615999999991,0.0007557999999999,0,sub_18
-0.0108420000000002,0.0085040000000012,-0.059781,-0.0003405999999995,-0.0123027999999991,0.0024885999999999,0,sub_18
-0.0124042000000002,0.0079582000000012,-0.0579792,0.0041422000000005,-0.0112557999999991,0.0031593999999999,0,sub_18
-0.0136676000000002,0.0076806000000012,-0.0568666,0.0071304000000005,-0.0102043999999991,0.0040335999999999,0,sub_18
-0.0151066000000002,0.0070592000000012,-0.0558698,0.0082058000000004,-0.0081097999999991,0.0044651999999999,0,sub_18
-0.0163114000000002,0.0064728000000012,-0.0547496,0.0073646000000004,-0.0064293999999991,0.0036021999999999,0,sub_18
-0.0168954000000002,0.0062830000000012,-0.0540326,0.0050316000000004,-0.0043177999999991,0.0027281999999999,0,sub_18
-0.0162274000000002,0.0052376000000012,-0.0541966,0.0007840000000004,-0.0015575999999991,0.0011991999999999,0,sub_18
-0.0155896000000002,0.0042962000000012,-0.0557422,-0.0049589999999995,0.0005694000000008,-0.0005532,0,sub_18
-0.0143668000000002,0.0040210000000012,-0.0575246,-0.0111353999999995,0.0016622000000008,-0.0020932,0,sub_18
-0.0129716000000002,0.0039928000000012,-0.0594168,-0.0160401999999994,0.0012574000000008,-0.0031952,0,sub_18
-0.0116736000000002,0.0048204000000012,-0.0617972,-0.0194471999999995,-0.0006581999999991,-0.0040724,0,sub_18
-0.0109930000000002,0.0069830000000012,-0.0627418,-0.0200881999999995,-0.0034391999999991,-0.0040748,0,sub_18
-0.0103108000000002,0.0088138000000012,-0.0623606,-0.0168895999999995,-0.0055977999999991,-0.0031966,0,sub_18
-0.0098724000000002,0.0099242000000012,-0.0621418,-0.0111351999999995,-0.0079817999999991,-0.0014456,0,sub_18
-0.0096954000000002,0.0103366000000012,-0.0620924,-0.0034585999999994,-0.0097341999999991,0.0005317999999999,0,sub_18
-0.0101336000000002,0.0093488000000012,-0.0613316,0.0033558000000004,-0.0108309999999991,0.0025035999999999,0,sub_18
-0.0113368000000002,0.0077870000000012,-0.0606446,0.0071880000000004,-0.0110641999999991,0.0042397999999999,0,sub_18
-0.0124552000000002,0.0059600000000012,-0.0600984,0.0078272000000005,-0.0110671999999991,0.0044579999999999,0,sub_18
-0.0133090000000002,0.0046200000000012,-0.059728,0.0057062000000005,-0.0099961999999991,0.0035855999999999,0,sub_18
-0.0136854000000002,0.0039250000000012,-0.0586884,0.0014536000000005,-0.0089159999999991,0.0022707999999999,0,sub_18
-0.0136366000000002,0.0046396000000012,-0.0577702,-0.0030115999999994,-0.0078341999999991,0.0007409999999999,0,sub_18
-0.0129328000000002,0.0057676000000012,-0.0575154,-0.0059813999999994,-0.0063315999999991,-0.0007788,0,sub_18
-0.0126414000000002,0.0073016000000012,-0.0577528,-0.0078861999999995,-0.0041977999999991,-0.001224,0,sub_18
-0.0122634000000002,0.0081162000000012,-0.0578978,-0.0078773999999995,-0.0020679999999991,-0.001013,0,sub_18
-0.0120830000000002,0.0084632000000012,-0.0586094,-0.0074449999999995,-0.0001545999999991,-0.0003714,0,sub_18
-0.0113450000000002,0.0084150000000012,-0.0596216,-0.0067971999999995,0.0017598000000008,-0.0001558,0,sub_18
-0.0105684000000002,0.0084382000000012,-0.0605754,-0.0057311999999995,0.0021796000000008,0.0004919999999999,0,sub_18
-0.0087850000000002,0.0079898000000012,-0.0606964,-0.0044539999999995,0.0008904000000008,0.0009317999999999,0,sub_18
-0.0083516000000002,0.0077688000000012,-0.0607348,-0.0042505999999994,-0.0018865999999991,0.0013657999999999,0,sub_18
-0.0081410000000002,0.0081456000000012,-0.0603274,-0.0031915999999995,-0.0048769999999991,0.0011649999999999,0,sub_18
-0.0078948000000002,0.0081830000000012,-0.0599742,-0.0023479999999995,-0.007868399999999,0.0013901999999999,0,sub_18
-0.0082136000000002,0.0075154000000012,-0.0599588,-0.0029941999999995,-0.009790199999999,0.0018171999999999,0,sub_18
-0.0093060000000002,0.0071990000000012,-0.059986,-0.0038533999999995,-0.010853399999999,0.0020261999999999,0,sub_18
-0.0097960000000002,0.0066908000000012,-0.0596998,-0.0042819999999995,-0.011702399999999,0.0015969999999999,0,sub_18
-0.0097974000000002,0.0063812000000012,-0.0596954,-0.0055611999999995,-0.011677399999999,0.0015851999999999,0,sub_18
-0.0101392000000002,0.0065700000000012,-0.0596318,-0.0066211999999994,-0.010162599999999,0.0017863999999999,0,sub_18
-0.0106672000000002,0.0074000000000012,-0.0589804,-0.0059703999999995,-0.008225799999999,0.0015717999999999,0,sub_18
-0.0110180000000002,0.0076248000000012,-0.0587936,-0.0046823999999995,-0.006930599999999,0.0013623999999999,0,sub_18
-0.0108832000000002,0.0084228000000012,-0.0585752,-0.0036077999999995,-0.0052101999999991,0.0015781999999999,0,sub_18
-0.0112484000000002,0.0084058000000012,-0.0586396,-0.0029571999999995,-0.0028687999999991,0.0015795999999999,0,sub_18
-0.0117920000000002,0.0081992000000012,-0.0583302,-0.0025237999999995,-0.0015909999999991,0.0013673999999999,0,sub_18
-0.0114444000000002,0.0074654000000012,-0.057864,-0.0025169999999995,-0.0007361999999991,0.0007253999999999,0,sub_18
-0.0113216000000002,0.0075810000000012,-0.0578626,-0.0027043999999995,0.0005642000000008,0.0002951999999999,0,sub_18
-0.0110562000000002,0.0074570000000012,-0.058653,-0.0031051999999995,0.0020774000000008,7.679999999997913e-05,0,sub_18
-0.0107998000000002,0.0072906000000012,-0.0587994,-0.0039383999999995,0.0023138000000008,-0.000143,0,sub_18
-0.0103394000000002,0.0074514000000012,-0.0592356,-0.0039237999999994,0.0014810000000008,-0.0001418,0,sub_18
-0.0100406000000002,0.0073340000000012,-0.0599786,-0.0039121999999994,0.0004334000000008,0.0002869999999999,0,sub_18
-0.0097282000000002,0.0071588000000012,-0.0598206,-0.0041293999999994,-0.0004179999999991,0.0002863999999999,0,sub_18
-0.0099056000000002,0.0068612000000012,-0.0594534,-0.0039187999999994,-0.0014821999999991,-0.000138,0,sub_18
-0.0094746000000002,0.0068446000000012,-0.0589874,-0.0032833999999994,-0.0023373999999991,8.119999999999911e-05,0,sub_18
-0.0092496000000002,0.0065408000000012,-0.0587748,-0.0032853999999995,-0.0025511999999991,0.0002949999999999,0,sub_18
-0.0096326000000002,0.0070396000000012,-0.058492,-0.0032725999999995,-0.0031569999999991,7.899999999999907e-05,0,sub_18
-0.0099724000000002,0.0072390000000012,-0.0589512,-0.0028407999999995,-0.0048321999999991,0.0005085999999999,0,sub_18
-0.0098396000000002,0.0078310000000012,-0.0593868,-0.0026223999999995,-0.0062943999999991,0.0011499999999999,0,sub_18
-0.0098556000000002,0.0081602000000012,-0.0601881999999999,-0.0023981999999995,-0.0075393999999991,0.0007229999999999,0,sub_18
-0.0096284000000002,0.0086328000000012,-0.0602856,-0.0019633999999995,-0.0096363999999991,8.479999999999911e-05,0,sub_18
-0.0092842000000002,0.0098338000000012,-0.060125,-0.0019663999999995,-0.0115487999999991,-0.0011946,0,sub_18
-0.0094518000000002,0.0093110000000012,-0.0599928,-0.0028169999999995,-0.0126043999999991,-0.0029084,0,sub_18
-0.0095274000000002,0.0084412000000012,-0.0599802,-0.0042859999999994,-0.013418799999999,-0.0044158,0,sub_18
-0.0102406000000002,0.0081904000000012,-0.0595706,-0.0059693999999994,-0.013172199999999,-0.0046442,0,sub_18
-0.0107974000000002,0.0075658000000012,-0.06039,-0.0072175999999994,-0.0107975999999991,-0.0046586,0,sub_18
-0.0112192000000002,0.0059240000000012,-0.0618008,-0.0073957999999994,-0.0067263999999991,-0.0035994,0,sub_18
-0.0113222000000002,0.0067334000000012,-0.0622316,-0.0069319999999994,-0.0022313999999991,-0.0025364,0,sub_18
-0.0115450000000002,0.0080264000000012,-0.0620386,-0.0056287999999994,0.0030896000000008,-0.0023204,0,sub_18
-0.0117674000000002,0.0082236000000012,-0.0630496,-0.0043245999999994,0.0077748000000008,-0.0029582,0,sub_18
-0.0126706000000002,0.0090074000000012,-0.0628188,-0.0023869999999994,0.0107544000000008,-0.0038029999999999,0,sub_18
-0.0126928000000002,0.0098012000000012,-0.0616928,0.0004218000000005,0.0118514000000008,-0.0052853999999999,0,sub_18
-0.0132968000000002,0.0091180000000012,-0.0615996,0.0025858000000004,0.0129464000000008,-0.0057039999999999,0,sub_18
-0.0141328000000002,0.0084300000000012,-0.0622226,0.0038868000000004,0.0129746000000008,-0.0050591999999999,0,sub_18
-0.0139346000000002,0.0076420000000012,-0.061478,0.0058250000000004,0.0125738000000008,-0.0041957999999999,0,sub_18
-0.0132888000000002,0.0072214000000012,-0.0615554,0.0071242000000004,0.0119638000000008,-0.0037637999999999,0,sub_18
-0.0136436000000002,0.0074306000000012,-0.0622334,0.0071234000000004,0.0125994000000008,-0.0029099999999999,0,sub_18
-0.0133688000000002,0.0083712000000012,-0.062342,0.0075578000000004,0.0143022000000008,-0.0029091999999999,0,sub_18
-0.0122118000000002,0.0085792000000012,-0.0615162,0.0086246000000004,0.0140864000000008,-0.0031152,0,sub_18
-0.0112566000000002,0.0084424000000012,-0.0611354,0.0099000000000004,0.0123800000000008,-0.003745,0,sub_18
-0.0106442000000002,0.0079260000000012,-0.0601102,0.0109630000000004,0.0117362000000008,-0.003523,0,sub_18
-0.0105994000000002,0.0074174000000012,-0.0588014,0.0116282000000004,0.0128268000000008,-0.0028852,0,sub_18
-0.0108630000000002,0.0069006000000012,-0.0569002,0.0131478000000004,0.0143396000000008,-0.0020284,0,sub_18
-0.0126112000000002,0.0058472000000012,-0.0551522,0.0144674000000004,0.0188358000000008,-0.0011768,0,sub_18
-0.0152816000000002,0.0056080000000012,-0.0543884,0.0143002000000004,0.0265262000000008,0.0013695999999999,0,sub_18
-0.0180260000000002,0.0059686000000012,-0.0534546,0.0120030000000005,0.0357130000000008,0.0045399999999999,0,sub_18
-0.0187828000000002,0.0068784000000012,-0.0536886,0.0075298000000005,0.0423136000000008,0.0094139999999999,0,sub_18
-0.0172170000000002,0.0083406000000012,-0.0549648,0.0015734000000005,0.0480816000000008,0.0161975999999999,0,sub_18
-0.0144910000000002,0.0093630000000012,-0.0567714,-0.0029103999999994,0.0478840000000008,0.0217171999999999,0,sub_18
-0.0103956000000002,0.0097748000000012,-0.057378,-0.0033583999999994,0.0406534000000008,0.0242827999999999,0,sub_18
-0.0040600000000002,0.0072356000000012,-0.059266,-4.999999999479727e-06,0.0221278000000008,0.0243257999999999,0,sub_18
0.0011787999999997,0.0046020000000012,-0.0623134,0.0016270000000005,-0.0008607999999991,0.0230805999999999,0,sub_18
0.0047985999999997,0.0006580000000012,-0.0666504,0.0010680000000005,-0.0332313999999991,0.020127,0,sub_18
0.0082181999999997,-0.0015241999999986,-0.0707504,-0.0018571999999995,-0.0690059999999991,0.0180159999999999,0,sub_18
0.0095357999999997,-0.0009431999999986,-0.0740082,-0.0045805999999995,-0.103730599999999,0.019537,0,sub_18
0.0067715999999997,0.0019930000000013,-0.0753344,-0.0176843999999995,-0.1279403999999991,0.0199047999999999,0,sub_18
0.0038607999999997,0.0040760000000013,-0.07553,-0.0260681999999995,-0.1500215999999991,0.016671,0,sub_18
-0.0036902000000002,0.0067662000000012,-0.0734732,-0.0329267999999995,-0.1663503999999991,0.0121585999999999,0,sub_18
-0.0111534000000002,0.0099890000000012,-0.0704482,-0.0388897999999994,-0.1739445999999991,0.0070001999999999,0,sub_18
-0.0167940000000002,0.0111984000000012,-0.0663242,-0.0441705999999995,-0.1736519999999991,0.0003409999999999,0,sub_18
-0.0226590000000002,0.0127556000000012,-0.0627218,-0.0373015999999994,-0.1676975999999991,-0.0028234,0,sub_18
-0.0303800000000002,0.0142050000000012,-0.0583494,-0.0265563999999994,-0.1504783999999991,-0.0025568,0,sub_18
-0.0362122000000002,0.0155136000000012,-0.0523938,-0.0117195999999994,-0.1245399999999991,-0.0018454,0,sub_18
-0.0420894000000002,0.0150090000000012,-0.0469824,0.0046300000000005,-0.0934967999999991,-0.0002754,0,sub_18
-0.0482956000000002,0.0144968000000012,-0.0428542,0.0184756000000005,-0.0539119999999991,0.0017025999999999,0,sub_18
-0.0517000000000002,0.0119520000000012,-0.0405444,0.0270052000000004,-0.0117459999999991,0.0021445999999999,0,sub_18
-0.0519052000000002,0.0082110000000012,-0.0405366,0.0263674000000005,0.0283370000000008,-0.0013204,0,sub_18
-0.0479614000000002,0.0038806000000012,-0.0448686,0.0186970000000005,0.0678156000000008,-0.0073975999999999,0,sub_18
-0.0414782000000002,-0.0011863999999986,-0.0508374,0.0035546000000004,0.1045582000000008,-0.0154461999999999,0,sub_18
-0.0334392000000002,-0.0048425999999986,-0.0580696,-0.0189035999999995,0.1289696000000008,-0.0267439999999999,0,sub_18
-0.0250526000000002,-0.0051513999999987,-0.0646994,-0.0441855999999995,0.1410388000000008,-0.0393273999999999,0,sub_18
-0.0182174000000002,-0.0032329999999987,-0.0694606,-0.0663291999999995,0.1426274000000008,-0.0495113999999999,0,sub_18
-0.0129108000000002,0.0006760000000012,-0.072314,-0.0823243999999994,0.1384300000000008,-0.056654,0,sub_18
-0.0097426000000002,0.0075010000000012,-0.0737822,-0.0889539999999994,0.1322696000000008,-0.060524,0,sub_18
-0.0084380000000002,0.0118294000000012,-0.0735838,-0.0866229999999994,0.1298966000000008,-0.0602769999999999,0,sub_18
-0.0071960000000002,0.0144502000000012,-0.0725148,-0.0757657999999994,0.1281226000000008,-0.0574075999999999,0,sub_18
-0.0040252000000002,0.0156572000000012,-0.0707072,-0.0606335999999994,0.1280542000000008,-0.0534561999999999,0,sub_18
-0.0009008000000002,0.0165618000000012,-0.0697314,-0.0459175999999994,0.1301188000000008,-0.0497239999999999,0,sub_18
0.0024055999999997,0.0153540000000012,-0.0693134,-0.0331163999999994,0.1324074000000008,-0.0470737999999999,0,sub_18
0.0073555999999997,0.0136800000000012,-0.0696526,-0.0229033999999994,0.1287386000000008,-0.0442204,0,sub_18
0.0136089999999997,0.0122416000000012,-0.0705746,-0.0169749999999994,0.1231596000000008,-0.0394715999999999,0,sub_18
0.0190365999999997,0.0129436000000012,-0.071565,-0.0123497999999994,0.1143816000000008,-0.032805,0,sub_18
0.0239681999999997,0.0127030000000012,-0.0687626,-0.0069133999999994,0.0972872000000008,-0.025054,0,sub_18
0.0308431999999997,0.0113298000000012,-0.0657682,-0.0081249999999994,0.0731836000000008,-0.0169132,0,sub_18
0.0359255999999997,0.0134296000000012,-0.0648062,-0.0080659999999995,0.0471572000000008,-0.0085472,0,sub_18
0.0372463999999997,0.0153624000000012,-0.0609214,-0.0035279999999995,0.0194158000000008,-0.0014296,0,sub_18
0.0363603999999997,0.0142870000000012,-0.0556908,0.0016634000000004,-0.0085279999999991,0.0024879999999999,0,sub_18
0.0363263999999997,0.0119316000000012,-0.0534894,0.0060196000000004,-0.0341183999999991,0.0046876,0,sub_18
0.0326861999999997,0.0132504000000012,-0.0509088,0.0165786000000004,-0.0557231999999991,0.0058588,0,sub_18
0.0255617999999997,0.0122344000000012,-0.0450606,0.0258870000000004,-0.0726285999999991,0.0050922,0,sub_18
0.0197289999999997,0.0108894000000012,-0.040078,0.0294860000000004,-0.0797065999999991,0.002564,0,sub_18
0.0127231999999997,0.0150208000000012,-0.0342294,0.0318730000000004,-0.0739877999999991,-0.0023391999999999,0,sub_18
-0.0012274000000002,0.0210864000000012,-0.0261952,0.0358332000000004,-0.0546225999999991,-0.0113079999999999,0,sub_18
-0.0157204000000002,0.0254790000000012,-0.0181844,0.0420098000000004,-0.0224213999999991,-0.0241248,0,sub_18
-0.0258422000000002,0.0266166000000012,-0.01191,0.0512246000000004,0.0191514000000008,-0.0388552,0,sub_18
-0.0335228000000002,0.0260160000000012,-0.0084604,0.0653758000000004,0.0673108000000008,-0.053346,0,sub_18
-0.0375364000000002,0.0200244000000012,-0.0073926,0.0799336000000004,0.1141778000000008,-0.0646274,0,sub_18
-0.0321832000000002,0.0128756000000012,-0.0108974,0.0927478000000004,0.1584720000000008,-0.070363,0,sub_18
-0.0242350000000002,0.0063152000000012,-0.0152997999999999,0.1033718000000004,0.1967816000000008,-0.0694834,0,sub_18
-0.0147514000000002,0.0031808000000012,-0.0196639999999999,0.1122360000000004,0.2274110000000008,-0.0645467999999999,0,sub_18
-0.0029266000000002,0.0003184000000012,-0.0255747999999999,0.1171944000000005,0.2450516000000008,-0.0581253999999999,0,sub_18
0.0075977999999997,-0.0014805999999987,-0.0309932,0.1174192000000005,0.2552466000000009,-0.0504457999999999,0,sub_18
0.0142599999999997,-0.0019815999999987,-0.033916,0.1148310000000004,0.2562918000000008,-0.0432013999999999,0,sub_18
0.0189157999999997,-0.0030511999999987,-0.037028,0.1100870000000004,0.2503222000000009,-0.0380993999999999,0,sub_18
0.0206631999999997,-0.0038175999999987,-0.0400406,0.1032084000000004,0.2420250000000008,-0.0351457999999999,0,sub_18
0.0179799999999997,-0.0033681999999987,-0.0405388,0.0986950000000004,0.2367068000000008,-0.0332475999999999,0,sub_18
0.0148555999999997,-0.0043129999999987,-0.041209,0.1001608000000004,0.2330696000000008,-0.0306689999999999,0,sub_18
0.0116593999999997,-0.0067609999999987,-0.0413588,0.1046080000000004,0.2313264000000008,-0.0248672,0,sub_18
0.0090227999999997,-0.0066477999999987,-0.0403812,0.1131190000000004,0.2329730000000008,-0.0177596,0,sub_18
0.0088033999999997,-0.0036283999999987,-0.0371254,0.1293208000000004,0.2367232000000008,-0.010601,0,sub_18
0.0092319999999997,-0.0037155999999986,-0.031599,0.1497910000000004,0.2406714000000008,-0.0034128,0,sub_18
0.0098445999999997,-0.0063063999999986,-0.0243142,0.1728132000000004,0.2424810000000009,0.0035823999999999,0,sub_18
0.0105019999999997,-0.0088763999999986,-0.0177624,0.1981834000000004,0.2451322000000008,0.0112337999999999,0,sub_18
0.0105201999999997,-0.0120939999999986,-0.0125406,0.2190872000000005,0.2554508000000008,0.0233305999999999,0,sub_18
0.0028139999999997,-0.0156995999999986,-0.0125804,0.2225434000000004,0.2798794000000008,0.0384921999999999,0,sub_18
-0.0110436000000002,-0.0037171999999987,-0.0231798,0.2138968000000005,0.3088596000000009,0.0448039999999999,0,sub_18
-0.0282450000000002,0.0240952000000012,-0.045002,0.2113842000000005,0.3133674000000008,0.0385849999999999,0,sub_18
-0.0395300000000002,0.0525320000000012,-0.0736978,0.2135372000000005,0.2970376000000008,0.0178973999999999,0,sub_18
-0.0439448000000002,0.0711292000000012,-0.1001616,0.2273718000000005,0.2613088000000009,-0.0101612,0,sub_18
-0.0482050000000002,0.0741424000000012,-0.1233892,0.2477894000000005,0.2147064000000008,-0.0420056,0,sub_18
-0.0535894000000002,0.0500368000000012,-0.1362372,0.2602546000000005,0.1646854000000008,-0.0645008,0,sub_18
-0.0562296000000002,0.0041548000000012,-0.1432372,0.2390618000000005,0.1441144000000008,-0.0699636,0,sub_18
-0.0588820000000002,-0.0409937999999987,-0.1449546,0.1901612000000005,0.1518902000000008,-0.0540782,0,sub_18
-0.0591534000000002,-0.0748241999999987,-0.1516824,0.1180596000000005,0.1822910000000008,-0.0283424,0,sub_18
-0.0498142000000002,-0.0895895999999986,-0.1566958,0.0453034000000005,0.2141666000000008,0.0020869999999999,0,sub_18
-0.0315074000000002,-0.0871607999999986,-0.156772,-0.0215281999999994,0.2360034000000008,0.0336387999999999,0,sub_18
-0.0100694000000002,-0.0764649999999987,-0.151054,-0.0732353999999994,0.2541578000000008,0.0672238,0,sub_18
0.0014645999999997,-0.0413165999999987,-0.136793,-0.0785811999999994,0.2804792000000009,0.0962084,0,sub_18
0.0031109999999997,0.0390554000000012,-0.118084,-0.0223649999999994,0.2462288000000008,0.0878853999999999,0,sub_18
0.0270749999999997,0.0833282000000012,-0.0980286,0.0344022000000005,0.1840988000000008,0.0714836,0,sub_18
0.0484799999999997,0.0999036000000012,-0.089764,0.0948136000000005,0.1777578000000008,0.0597359999999999,0,sub_18
0.0609109999999997,0.1003452000000012,-0.0880314,0.1457396000000004,0.1503556000000008,0.0483764,0,sub_18
0.0760917999999997,0.0660736000000012,-0.0926424,0.1520694000000005,0.0779310000000008,0.0393265999999999,0,sub_18
0.0809115999999997,-0.0166411999999987,-0.0995896,0.1136312000000004,0.0303142000000008,0.0457422,0,sub_18
0.0511009999999997,-0.0600115999999986,-0.1000714,0.0698338000000004,-0.0285527999999991,0.0463664,0,sub_18
0.0128157999999997,-0.0670495999999986,-0.0948188,0.0138776000000004,-0.1474051999999991,0.0335228,0,sub_18
-0.0223448000000002,-0.0505267999999986,-0.0865186,-0.0322619999999995,-0.2399995999999991,-0.0008639999999999,0,sub_18
-0.0508706000000002,-0.0229801999999987,-0.0708776,-0.0672273999999995,-0.2782607999999991,-0.0459243999999999,0,sub_18
-0.0649946000000001,0.0033110000000012,-0.0498558,-0.1086461999999995,-0.2567273999999991,-0.0669647999999999,0,sub_18
-0.0710974000000001,0.0172920000000012,-0.0421416,-0.1329967999999995,-0.1777927999999991,-0.0710851999999999,0,sub_18
-0.0624464000000001,0.0208754000000012,-0.0414923999999999,-0.1233723999999995,-0.0743177999999991,-0.0611127999999999,0,sub_18
-0.0450262000000002,0.0192246000000012,-0.0452164,-0.0871395999999995,0.0309176000000008,-0.0349333999999999,0,sub_18
-0.0275408000000002,0.0137202000000012,-0.0514424,-0.0329329999999995,0.1015680000000008,-0.0068752,0,sub_18
-0.0142206000000002,0.0105408000000012,-0.0600866,0.0247360000000004,0.1211310000000008,0.0067449999999999,0,sub_18
-0.0043230000000002,0.0087586000000012,-0.0630778,0.0652136000000004,0.1101110000000008,0.0102463999999999,0,sub_18
-0.0008610000000002,0.0028368000000012,-0.0588932,0.0725494000000004,0.0749542000000008,0.0045741999999999,0,sub_18
0.0004389999999997,-0.0046199999999987,-0.0508332,0.0495172000000004,0.0218048000000008,-0.0040644,0,sub_18
