userAcceleration.x,userAcceleration.y,userAcceleration.z,rotationRate.x,rotationRate.y,rotationRate.z,label,subject
0.0004639999999997,0.0079222000000012,0.0176831999999999,0.0100638000000005,0.0566530000000007,0.0101467999999999,0,sub_20
-0.0008760000000002,0.0078198000000012,0.0188753999999999,0.0055830000000006,0.0532736000000007,0.0067015999999999,0,sub_20
-0.0017008000000002,0.0075608000000012,0.0198635999999999,-0.0003903999999993,0.0509610000000007,0.0040991999999999,0,sub_20
-0.0019654000000002,0.0074608000000012,0.0194839999999999,-0.0050969999999993,0.0499900000000007,0.0019349999999999,0,sub_20
-0.0013830000000002,0.0073830000000012,0.0184903999999999,-0.0083061999999993,0.0502902000000007,0.0002067999999999,0,sub_20
-0.0005996000000002,0.0079252000000012,0.0174277999999999,-0.0098101999999993,0.0512194000000007,-0.0004421999999999,0,sub_20
0.0009261999999997,0.0086548000000012,0.0168905999999999,-0.0094013999999994,0.0510740000000007,-0.0004353999999999,0,sub_20
0.0027891999999997,0.0090614000000012,0.0168331999999999,-0.0079307999999993,0.0492232000000007,-0.0010599999999999,0,sub_20
0.0041181999999997,0.0091208000000012,0.0169989999999999,-0.0058113999999993,0.0458076000000007,-0.0012545999999999,0,sub_20
0.0044959999999997,0.0102986000000012,0.0175397999999999,-0.0037025999999993,0.0404730000000007,-0.0010193999999999,0,sub_20
0.0049815999999997,0.0107238000000012,0.0173697999999999,-0.0020343999999993,0.0345816000000007,-0.0008343999999999,0,sub_20
0.0053351999999997,0.0097324000000012,0.0173715999999999,0.0013408000000006,0.0284718000000007,-0.0008507999999999,0,sub_20
0.0047817999999997,0.0097122000000012,0.0172921999999999,0.0068488000000005,0.0227782000000007,-0.0002119999999999,0,sub_20
0.0042309999999997,0.0096058000000012,0.0175045999999999,0.0119386000000005,0.0187914000000007,0.0002082,0,sub_20
0.0039355999999997,0.0078610000000012,0.0181337999999999,0.0155388000000005,0.0152376000000007,0.00019,0,sub_20
0.0042025999999997,0.0065710000000012,0.0193457999999999,0.0170208000000005,0.0126756000000007,0.0002036,0,sub_20
0.0040079999999997,0.0070302000000012,0.0193825999999999,0.0150898000000005,0.0109754000000007,0.0008332,0,sub_20
0.0047367999999997,0.0068370000000012,0.0198485999999999,0.0108108000000005,0.0086458000000007,0.00102,0,sub_20
0.0056869999999997,0.0070180000000012,0.0196319999999999,0.0060974000000005,0.0050378000000007,0.0016326,0,sub_20
0.0063297999999997,0.0072792000000012,0.0196985999999999,0.0026336000000005,0.0030826000000007,0.0025938,0,sub_20
0.0056061999999997,0.0078092000000012,0.0197963999999999,0.0006598000000005,5.780000000076835e-05,0.0033532,0,sub_20
0.0047703999999997,0.0074338000000012,0.0202625999999999,0.0003950000000005,-0.0029711999999992,0.0036972,0,sub_20
0.0034625999999997,0.0076570000000012,0.0200855999999998,0.0003540000000005,-0.0045061999999992,0.0031862,0,sub_20
0.0020649999999997,0.0075030000000012,0.0203003999999998,-0.0007441999999994,-0.0045435999999992,0.002025,0,sub_20
0.0010691999999997,0.0077072000000012,0.0199355999999999,-0.0013851999999994,-0.0051787999999991,0.001594,0,sub_20
0.0005463999999997,0.0082354000000012,0.0192535999999999,-0.0011727999999994,-0.0056047999999991,0.0013824,0,sub_20
-9.220000000025744e-05,0.0088906000000012,0.0189581999999999,6.0000000000584414e-05,-0.0064591999999991,0.0010866,0,sub_20
-9.440000000025743e-05,0.0089352000000012,0.0189293999999999,0.0019292000000005,-0.0075313999999991,0.0014366,0,sub_20
0.0001399999999997,0.0091012000000012,0.0187089999999999,0.0046498000000005,-0.0088205999999991,0.0020064,0,sub_20
-5.460000000025744e-05,0.0091018000000012,0.0188297999999999,0.0065190000000005,-0.0101049999999992,0.002143,0,sub_20
-0.0007048000000002,0.0091182000000012,0.0189525999999999,0.0075376000000005,-0.0101105999999992,0.0029128,0,sub_20
-0.0015094000000002,0.0086756000000012,0.0198759999999999,0.0081738000000005,-0.0086307999999992,0.0052654,0,sub_20
-0.0028474000000002,0.0078566000000012,0.0210083999999999,0.0092358000000005,-0.0069411999999991,0.008048,0,sub_20
-0.0045886000000002,0.0070032000000012,0.0223613999999999,0.0109372000000005,-0.0054667999999991,0.0108354,0,sub_20
-0.0068218000000002,0.0075234000000012,0.0227463999999999,0.0121732000000005,-0.0043271999999991,0.0126834,0,sub_20
-0.0087364000000002,0.0076578000000012,0.0234635999999999,0.0129852000000005,-0.0040321999999991,0.013034,0,sub_20
-0.0095122000000002,0.0073912000000012,0.0238149999999999,0.0129544000000005,-0.0037249999999991,0.0110285999999999,0,sub_20
-0.0101048000000002,0.0080414000000012,0.0238019999999999,0.0120712000000005,-0.0040503999999992,0.0081633999999999,0,sub_20
-0.0108556000000002,0.0087776000000012,0.0237041999999999,0.0099056000000005,-0.0045851999999992,0.0055031999999999,0,sub_20
-0.0102274000000002,0.0072884000000012,0.0237777999999999,0.0084254000000005,-0.0032947999999992,0.0037819999999999,0,sub_20
-0.0088726000000002,0.0073616000000012,0.0226903999999999,0.0063072000000005,-0.0003029999999992,0.0033361999999999,0,sub_20
-0.0080396000000002,0.0081196000000012,0.0217543999999999,0.0043974000000005,0.0028962000000007,0.0041734,0,sub_20
-0.0064848000000002,0.0078540000000012,0.0205257999999999,0.0035396000000005,0.0067628000000007,0.0045385999999999,0,sub_20
-0.0051826000000002,0.0080238000000012,0.0190487999999999,0.0039708000000005,0.0110570000000007,0.0034167999999999,0,sub_20
-0.0036486000000002,0.0091742000000012,0.0175377999999999,0.0037598000000005,0.0145032000000007,0.0018641999999999,0,sub_20
-0.0019168000000002,0.0083038000000012,0.0164763999999999,0.0048214000000005,0.0164526000000007,0.0005359999999999,0,sub_20
-0.0004490000000002,0.0079020000000012,0.0150517999999999,0.0048094000000005,0.0167020000000007,-0.0010112,0,sub_20
0.0010269999999997,0.0077708000000012,0.0135949999999999,0.0035282000000005,0.0162814000000007,-0.0012331999999999,0,sub_20
0.0028093999999997,0.0069482000000012,0.0129403999999999,0.0013858000000005,0.0154324000000007,-0.0001789999999999,0,sub_20
0.0037835999999997,0.0067290000000012,0.0130373999999999,9.600000000058424e-05,0.0145794000000007,0.001095,0,sub_20
0.0039729999999997,0.0074460000000012,0.0134067999999999,-0.0020415999999994,0.0135224000000007,0.0008678,0,sub_20
0.0049103999999997,0.0077366000000012,0.0140009999999999,-0.0035627999999994,0.0131700000000007,-0.0004595999999999,0,sub_20
0.0056157999999997,0.0078102000000012,0.0144151999999999,-0.0055003999999994,0.0143136000000007,-0.0026465999999999,0,sub_20
0.0067087999999997,0.0082606000000012,0.0147609999999999,-0.0076493999999994,0.0152476000000007,-0.0054755999999999,0,sub_20
0.0079339999999997,0.0080660000000012,0.0146515999999999,-0.0102327999999994,0.0146910000000007,-0.0080921999999999,0,sub_20
0.0089141999999997,0.0076502000000012,0.0146765999999999,-0.0117559999999994,0.0141246000000007,-0.0092057999999999,0,sub_20
0.0093847999999997,0.0072096000000012,0.0147891999999999,-0.0128227999999994,0.0139160000000007,-0.0094265999999999,0,sub_20
0.0093347999999997,0.0070920000000012,0.0149871999999999,-0.0139001999999994,0.0124250000000007,-0.0085775999999999,0,sub_20
0.0086387999999997,0.0074286000000012,0.0149481999999999,-0.0154261999999994,0.0108478000000007,-0.0079721999999999,0,sub_20
0.0078511999999997,0.0081388000000012,0.0149129999999999,-0.0156669999999994,0.0099068000000007,-0.0077859999999999,0,sub_20
0.0076025999999997,0.0085000000000012,0.0152889999999999,-0.0150525999999994,0.0085402000000007,-0.0084477999999999,0,sub_20
0.0069867999999997,0.0089266000000012,0.0149795999999999,-0.0133713999999994,0.0069578000000007,-0.0093155999999999,0,sub_20
0.0066083999999997,0.0095012000000012,0.0154777999999999,-0.0108327999999994,0.0055880000000007,-0.0108185999999999,0,sub_20
0.0069917999999997,0.0094312000000012,0.0163469999999999,-0.0076379999999994,0.0040862000000007,-0.0110079999999999,0,sub_20
0.0064689999999997,0.0088884000000012,0.0165305999999999,-0.0048719999999994,0.0027964000000007,-0.0105595999999999,0,sub_20
0.0057871999999997,0.0086652000000012,0.0162447999999998,-0.0027459999999994,0.0015090000000007,-0.0101157999999999,0,sub_20
0.0051151999999997,0.0087980000000012,0.0168049999999998,-0.0008685999999994,-0.0004563999999992,-0.0101321999999999,0,sub_20
0.0039725999999997,0.0085708000000012,0.0173009999999998,0.0018614000000005,-0.0026377999999992,-0.0101423999999999,0,sub_20
0.0025843999999997,0.0084050000000012,0.0174139999999998,0.0052344000000005,-0.0046065999999992,-0.0105757999999999,0,sub_20
0.0021323999999997,0.0078078000000012,0.0184617999999998,0.0069004000000005,-0.0069937999999991,-0.0114477999999999,0,sub_20
0.0017883999999997,0.0082056000000012,0.0194859999999999,0.0075024000000005,-0.0085259999999991,-0.0121147999999999,0,sub_20
0.0011729999999997,0.0084424000000012,0.0196853999999998,0.0068604000000005,-0.0089497999999991,-0.0121187999999999,0,sub_20
0.0015373999999997,0.0082378000000012,0.0195897999999998,0.0055820000000005,-0.0083071999999991,-0.0119147999999999,0,sub_20
0.0014673999999997,0.0079400000000012,0.0188183999999999,0.0038740000000005,-0.0076655999999991,-0.0110729999999999,0,sub_20
0.0011849999999997,0.0079014000000012,0.0188931999999999,0.0034472000000005,-0.0066031999999991,-0.0100091999999999,0,sub_20
0.0005243999999997,0.0066830000000012,0.0191049999999999,0.0034096000000005,-0.0057809999999991,-0.0094011999999999,0,sub_20
0.0005739999999997,0.0059486000000012,0.0197375999999999,0.0025186000000005,-0.0055925999999991,-0.0094393999999999,0,sub_20
-0.0003990000000002,0.0063432000000012,0.0205013999999999,-0.0002945999999994,-0.0066721999999991,-0.0103439999999999,0,sub_20
-0.0010622000000002,0.0059850000000012,0.0217173999999999,-0.0039565999999994,-0.0077445999999991,-0.0123225999999999,0,sub_20
-0.0024038000000002,0.0062384000000012,0.0217369999999999,-0.0082557999999994,-0.0083877999999991,-0.0145199999999999,0,sub_20
-0.0027508000000002,0.0077498000000012,0.0210225999999999,-0.0118753999999994,-0.0085805999999991,-0.0164677999999999,0,sub_20
-0.0033464000000002,0.0086180000000012,0.0199627999999999,-0.0135795999999994,-0.0085719999999991,-0.0171205999999999,0,sub_20
-0.0027842000000002,0.0092342000000012,0.0187843999999999,-0.0123209999999994,-0.0075557999999991,-0.0173481999999999,0,sub_20
-0.0021870000000002,0.0106268000000012,0.0174349999999999,-0.0091333999999994,-0.0046287999999991,-0.0175647999999999,0,sub_20
-0.0009782000000002,0.0108924000000012,0.0166169999999999,-0.0057343999999994,-0.0019163999999991,-0.0175659999999999,0,sub_20
-0.0005808000000002,0.0104046000000012,0.0164561999999999,-0.0038327999999994,0.0001612000000007,-0.0173631999999999,0,sub_20
0.0002335999999997,0.0097942000000012,0.0166921999999999,-0.0023569999999994,0.0022410000000007,-0.0173769999999999,0,sub_20
-0.0002642000000002,0.0093158000000012,0.0162361999999999,-0.0014977999999994,0.0037286000000007,-0.0171593999999999,0,sub_20
-0.0005662000000002,0.0089522000000012,0.0168563999999999,-0.0010749999999994,0.0032994000000007,-0.0167285999999999,0,sub_20
-0.0008680000000002,0.0092804000000012,0.0172771999999999,-0.0006511999999994,0.0028710000000007,-0.0165113999999999,0,sub_20
-0.0006684000000002,0.0097904000000012,0.0173019999999999,0.0010662000000005,0.0034480000000007,-0.0164993999999999,0,sub_20
-0.0008964000000002,0.0103874000000012,0.0169779999999999,0.0027866000000005,0.0046644000000007,-0.0164881999999999,0,sub_20
-0.0005278000000002,0.0101042000000012,0.0170795999999999,0.0055708000000005,0.0060866000000007,-0.0156151999999999,0,sub_20
-0.0001974000000002,0.0098694000000012,0.0164927999999999,0.0098392000000005,0.0068584000000007,-0.0132355999999999,0,sub_20
0.0002797999999997,0.0099576000000012,0.0164745999999999,0.0160232000000005,0.0067704000000007,-0.0106277999999999,0,sub_20
0.0003605999999997,0.0094710000000012,0.0170137999999999,0.0224062000000005,0.0056708000000007,-0.0075907999999999,0,sub_20
0.0010823999999997,0.0083972000000012,0.0182923999999999,0.0268744000000005,0.0052196000000007,-0.0052089999999999,0,sub_20
0.0012267999999997,0.0070938000000012,0.0197471999999999,0.0277232000000005,0.0060612000000007,-0.0032813999999999,0,sub_20
0.0010745999999997,0.0061786000000012,0.0201983999999999,0.0253810000000005,0.0079834000000007,-0.0024455999999999,0,sub_20
0.0007283999999997,0.0060104000000012,0.0192437999999999,0.0207124000000005,0.0098742000000007,-0.0022435999999999,0,sub_20
0.0007747999999997,0.0059770000000012,0.0185801999999999,0.0149818000000005,0.0115608000000007,-0.0033305999999999,0,sub_20
0.0002767999999997,0.0062136000000012,0.0175445999999999,0.0105228000000005,0.0119620000000007,-0.0037661999999999,0,sub_20
0.0007733999999997,0.0066550000000012,0.0167097999999999,0.0079784000000005,0.0110780000000007,-0.0041865999999999,0,sub_20
0.0008701999999997,0.0072020000000012,0.0164795999999999,0.0060720000000005,0.0097658000000007,-0.0046021999999999,0,sub_20
0.0010117999999997,0.0070074000000012,0.0170335999999999,0.0039286000000005,0.0080670000000007,-0.0041875999999999,0,sub_20
0.0010099999999997,0.0066922000000012,0.0167811999999999,0.0017824000000005,0.0063658000000007,-0.0031321999999999,0,sub_20
0.0008257999999997,0.0067992000000012,0.0166323999999999,-0.0001423999999993,0.0055034000000007,-0.0022499999999999,0,sub_20
1.0799999999762736e-05,0.0071470000000012,0.0162065999999999,-0.0020577999999993,0.0059228000000007,-0.0022241999999999,0,sub_20
-3.640000000023727e-05,0.0072086000000012,0.0161769999999999,-0.0039739999999993,0.0059170000000007,-0.0024111999999999,0,sub_20
-0.0002964000000002,0.0072112000000012,0.0154073999999999,-0.0056757999999993,0.0056990000000007,-0.0030239999999999,0,sub_20
-0.0006666000000002,0.0076694000000012,0.0155191999999999,-0.0069519999999993,0.0056908000000007,-0.0032067999999999,0,sub_20
-0.0006560000000002,0.0074736000000012,0.0154231999999999,-0.0075949999999993,0.0046294000000007,-0.0036371999999999,0,sub_20
-0.0012830000000002,0.0074660000000012,0.0155323999999999,-0.0078197999999993,0.0020736000000007,-0.0036353999999999,0,sub_20
-0.0014000000000002,0.0076256000000012,0.0157921999999999,-0.0080417999999993,-5.539999999921111e-05,-0.0038479999999999,0,sub_20
-0.0010942000000002,0.0079710000000012,0.0164591999999999,-0.0080307999999993,-0.0011141999999992,-0.0037869999999999,0,sub_20
-0.0006374000000002,0.0079996000000012,0.0165859999999999,-0.0080177999999993,-0.0015347999999992,-0.0035129999999999,0,sub_20
-0.0002594000000002,0.0085066000000012,0.0161075999999999,-0.0075769999999993,-0.0015315999999992,-0.0030231999999999,0,sub_20
0.0003757999999997,0.0090746000000012,0.0156969999999999,-0.0067103999999993,-0.0019553999999992,-0.0027433999999999,0,sub_20
0.0004585999999997,0.0088080000000012,0.0157611999999999,-0.0049911999999993,-0.0023827999999992,-0.0022439999999999,0,sub_20
0.0003925999999997,0.0084422000000012,0.0163587999999999,-0.0032859999999993,-0.0023905999999992,-0.0018047999999999,0,sub_20
0.0005333999999997,0.0079236000000012,0.0158235999999999,-0.0026487999999993,-0.0028197999999992,-0.0015861999999999,0,sub_20
0.0007327999999997,0.0080210000000012,0.0156387999999999,-0.0028651999999993,-0.0032459999999992,-0.0013733999999999,0,sub_20
0.0012615999999997,0.0085810000000012,0.0154423999999999,-0.0032929999999994,-0.0030329999999992,-0.0009493999999999,0,sub_20
0.0022365999999997,0.0098228000000012,0.0148273999999999,-0.0028557999999994,-0.0028225999999991,-0.0004427999999999,0,sub_20
0.0033685999999997,0.0108760000000012,0.0141925999999999,-0.0011383999999994,-0.0030409999999991,-0.0003539999999999,0,sub_20
0.0035257999999997,0.0109066000000012,0.0147745999999999,0.0016432000000005,-0.0036901999999991,-4.359999999999376e-05,0,sub_20
0.0033779999999997,0.0101970000000012,0.0156639999999999,0.0033570000000005,-0.0043365999999991,0.0004729999999999,0,sub_20
0.0033495999999997,0.0091252000000012,0.0156663999999999,0.0037876000000005,-0.0051931999999991,0.0014081999999999,0,sub_20
0.0025403999999997,0.0077202000000012,0.0162503999999999,0.0029264000000005,-0.0060457999999992,0.0022577999999999,0,sub_20
0.0017849999999997,0.0067898000000012,0.0160205999999999,0.0016376000000005,-0.0068977999999992,0.0033179999999999,0,sub_20
0.0017073999999997,0.0071854000000012,0.0164829999999999,0.0003212000000005,-0.0071241999999992,0.0040165999999999,0,sub_20
0.0020071999999997,0.0077462000000012,0.0164359999999999,0.0002850000000005,-0.0075671999999992,0.0045105999999999,0,sub_20
0.0017321999999997,0.0082942000000012,0.0171487999999999,0.0008898000000005,-0.0080115999999992,0.0047955999999999,0,sub_20
0.0020213999999997,0.0084044000000012,0.0171247999999999,0.0010690000000005,-0.0082415999999991,0.0050773999999999,0,sub_20
0.0018267999999997,0.0080156000000012,0.0176155999999999,0.0001812000000006,-0.0086799999999991,0.0051384,0,sub_20
0.0011499999999997,0.0070842000000012,0.0179065999999999,-0.0008903999999993,-0.0093169999999991,0.005559,0,sub_20
-0.0002856000000002,0.0061186000000012,0.0188023999999999,-0.0030289999999993,-0.0101625999999991,0.0057588,0,sub_20
-0.0009892000000002,0.0053732000000012,0.0193299999999999,-0.0055913999999993,-0.0107919999999991,0.0055279999999999,0,sub_20
-0.0015676000000002,0.0044734000000012,0.0197517999999999,-0.0092521999999993,-0.0114447999999992,0.0049141999999999,0,sub_20
-0.0020686000000002,0.0037050000000012,0.0203465999999999,-0.0139749999999994,-0.0114529999999992,0.0038647999999999,0,sub_20
-0.0019668000000002,0.0032420000000012,0.0202649999999999,-0.0212497999999994,-0.0105959999999992,0.0017281999999999,0,sub_20
-0.0013610000000002,0.0031856000000012,0.0202935999999999,-0.0300113999999994,-0.0084543999999992,-0.000634,0,sub_20
-0.0004404000000002,0.0042316000000012,0.0198651999999999,-0.0406951999999994,-0.0065199999999992,-0.0027957999999999,0,sub_20
0.0002011999999997,0.0060522000000012,0.0186721999999999,-0.0502815999999994,-0.0043507999999992,-0.0041473999999999,0,sub_20
0.0010841999999997,0.0085696000000012,0.0159867999999999,-0.0556033999999994,-0.0017747999999992,-0.0044015999999999,0,sub_20
0.0015631999999997,0.0120372000000012,0.0132181999999999,-0.0541049999999994,0.0003464000000007,-0.0033255999999999,0,sub_20
0.0021165999999997,0.0148950000000012,0.0098639999999999,-0.0459995999999994,0.0009520000000007,-0.0019877999999999,0,sub_20
0.0027451999999997,0.0153496000000012,0.0080667999999999,-0.0321411999999994,0.0013018000000007,-0.0007825999999999,0,sub_20
0.0030285999999997,0.0146288000000012,0.0070179999999999,-0.0161481999999994,0.0018572000000007,0.0004369999999999,0,sub_20
0.0033867999999997,0.0132032000000012,0.0074191999999999,-0.0018621999999994,0.0019944000000007,0.0012181999999999,0,sub_20
0.0039729999999997,0.0101620000000012,0.0092949999999999,0.0073002000000005,0.0012980000000007,0.0017507999999999,0,sub_20
0.0046477999999997,0.0072896000000012,0.0118411999999999,0.0111300000000005,0.0014708000000007,0.0026723999999999,0,sub_20
0.0048219999999997,0.0054802000000012,0.0135271999999999,0.0096336000000005,0.0016856000000007,0.0035161999999999,0,sub_20
0.0046901999999997,0.0056604000000012,0.0144985999999999,0.0047222000000005,0.0010628000000007,0.0036963999999999,0,sub_20
0.0046911999999997,0.0062358000000012,0.0150979999999999,-0.0008235999999994,0.0006458000000007,0.0036873999999999,0,sub_20
0.0044477999999997,0.0073806000000012,0.0143809999999999,-0.0046585999999993,0.0004384000000007,0.0030492,0,sub_20
0.0047803999999997,0.0087414000000012,0.0133065999999999,-0.0065749999999993,-0.0006259999999992,0.0019982,0,sub_20
0.0047721999999997,0.0102000000000012,0.0123093999999999,-0.0063559999999993,-0.0012717999999992,0.0009616,0,sub_20
0.0049633999999997,0.0106298000000012,0.0125937999999999,-0.0046423999999993,-0.0017097999999992,-6.479999999999369e-05,0,sub_20
0.0048717999999997,0.0099634000000012,0.0135269999999999,-0.0031487999999993,-0.0027759999999992,-0.0011211999999999,0,sub_20
0.0053489999999997,0.0094290000000012,0.0139071999999999,-0.0020857999999994,-0.0038441999999991,-0.0013259999999999,0,sub_20
0.0044087999999997,0.0092790000000012,0.0141247999999999,-0.0008093999999994,-0.0047009999999991,-0.0013159999999999,0,sub_20
0.0042065999999997,0.0088196000000012,0.0144955999999999,0.0015340000000005,-0.0055557999999991,-0.0012855999999999,0,sub_20
0.0039201999999997,0.0074350000000012,0.0145209999999999,0.0040880000000005,-0.0072627999999991,-0.0014663999999999,0,sub_20
0.0038097999999997,0.0067538000000012,0.0142413999999999,0.0072822000000005,-0.0091841999999991,-0.0018559999999999,0,sub_20
0.0033819999999997,0.0071050000000012,0.0146121999999999,0.0094094000000005,-0.0113139999999991,-0.0024663999999999,0,sub_20
0.0041579999999997,0.0077396000000012,0.0144883999999999,0.0102554000000005,-0.0134401999999991,-0.0028721999999999,0,sub_20
0.0040509999999997,0.0078120000000012,0.0151615999999999,0.0096086000000005,-0.0153537999999991,-0.0033015999999999,0,sub_20
0.0036003999999997,0.0083536000000012,0.0149109999999999,0.0083246000000005,-0.0159893999999991,-0.0030961999999999,0,sub_20
0.0031501999999997,0.0089708000000012,0.0151283999999999,0.0061898000000005,-0.0155583999999992,-0.0024707999999999,0,sub_20
0.0027725999999997,0.0082420000000012,0.0146703999999999,0.0053382000000005,-0.0144927999999992,-0.0018371999999999,0,sub_20
0.0023111999999997,0.0073436000000012,0.0149609999999999,0.0042904000000005,-0.0138243999999992,-0.0020629999999999,0,sub_20
0.0021653999999997,0.0066820000000012,0.0147135999999999,0.0032400000000005,-0.0137951999999992,-0.0022879999999999,0,sub_20
0.0018789999999997,0.0064180000000012,0.0155601999999999,0.0024048000000005,-0.0135527999999992,-0.0027251999999999,0,sub_20
0.0014353999999997,0.0062206000000012,0.0155275999999999,0.0013544000000005,-0.0130991999999992,-0.0025233999999999,0,sub_20
0.0011747999999997,0.0067066000000012,0.0160449999999999,-0.0011897999999993,-0.0122159999999991,-0.0019053999999999,0,sub_20
0.0006773999999997,0.0067364000000012,0.0160453999999999,-0.0035319999999993,-0.0102937999999991,-0.0010695999999999,0,sub_20
-7.200000000237263e-06,0.0067366000000012,0.0156901999999999,-0.0052303999999993,-0.0075215999999991,-0.0002303999999999,0,sub_20
-0.0002216000000002,0.0070072000000012,0.0154709999999999,-0.0057715999999993,-0.0045169999999991,0.0006141999999999,0,sub_20
-0.0002826000000002,0.0069958000000012,0.0156255999999999,-0.0067367999999993,-0.0021449999999992,0.0001747999999999,0,sub_20
-0.0010364000000002,0.0067428000000012,0.0156821999999999,-0.0072721999999994,-0.0004083999999992,-0.0015426,0,sub_20
-0.0015116000000002,0.0063556000000012,0.0163299999999999,-0.0084477999999993,0.0015424000000007,-0.003051,0,sub_20
-0.0017956000000002,0.0067678000000012,0.0158413999999999,-0.0098357999999993,0.0041316000000007,-0.0041343999999999,0,sub_20
-0.0014434000000002,0.0075726000000012,0.0143457999999999,-0.0110997999999993,0.0064846000000007,-0.0054279999999999,0,sub_20
-0.0010562000000002,0.0084808000000012,0.0130259999999999,-0.0095965999999993,0.0083976000000007,-0.0056335999999999,0,sub_20
-0.0004378000000002,0.0088830000000012,0.0122519999999999,-0.0055357999999993,0.0102992000000007,-0.0051803999999999,0,sub_20
-0.0002328000000002,0.0093244000000012,0.0115147999999999,-0.0001321999999994,0.0113596000000007,-0.0051521999999999,0,sub_20
0.0008525999999997,0.0095270000000012,0.0121671999999999,0.0046266000000005,0.0113568000000007,-0.0051271999999999,0,sub_20
0.0014751999999997,0.0090348000000012,0.0128987999999999,0.0085290000000005,0.0111424000000007,-0.0046805999999999,0,sub_20
0.0017619999999997,0.0089920000000012,0.0128783999999999,0.0117904000000005,0.0113538000000007,-0.0035979999999999,0,sub_20
0.0024345999999997,0.0083658000000012,0.0126811999999999,0.0150498000000005,0.0113512000000007,-0.0023013999999999,0,sub_20
0.0030607999999997,0.0077246000000012,0.0124157999999999,0.0188820000000005,0.0111180000000007,-0.0005651999999999,0,sub_20
0.0029533999999997,0.0070346000000012,0.0130949999999999,0.0225016000000005,0.0106742000000007,0.0007425999999999,0,sub_20
0.0027785999999997,0.0065118000000012,0.0137555999999999,0.0244142000000005,0.0100242000000007,0.0018249999999999,0,sub_20
0.0032631999999997,0.0056398000000012,0.0143897999999999,0.0229168000000005,0.0091772000000007,0.0018155999999999,0,sub_20
0.0032713999999997,0.0057398000000012,0.0148955999999999,0.0189040000000005,0.0075116000000007,0.0007153999999999,0,sub_20
0.0032827999999997,0.0056772000000012,0.0151327999999999,0.0136120000000005,0.0062756000000007,-0.0001807999999999,0,sub_20
0.0029075999999997,0.0058478000000012,0.0139941999999999,0.0083190000000005,0.0052510000000007,-0.0006499999999999,0,sub_20
0.0032127999999997,0.0062484000000012,0.0137415999999999,0.0043054000000005,0.0042210000000007,-0.0008965999999999,0,sub_20
0.0026313999999997,0.0069944000000012,0.0143975999999999,0.0022072000000005,0.0021192000000007,-0.0011281999999999,0,sub_20
