userAcceleration.x,userAcceleration.y,userAcceleration.z,rotationRate.x,rotationRate.y,rotationRate.z,label,subject
0.0028417999999995,-0.0003577999999986,-0.0037418,-0.0112463999999994,-0.0145883999999993,0.0033405999999999,0,sub_10
-0.0003590000000004,-0.0007133999999986,-0.006486,-0.0157165999999994,-0.0173219999999994,-0.0018146,0,sub_10
-0.0025126000000004,0.0007726000000013,-0.0074882,-0.0186461999999994,-0.0186495999999993,-0.0092904,0,sub_10
-0.0029818000000003,0.0022768000000013,-0.00582,-0.0213577999999995,-0.0201857999999993,-0.0180462,0,sub_10
-0.0021680000000003,0.0032184000000013,-0.0056382,-0.0249123999999995,-0.0181021999999993,-0.0255306,0,sub_10
-0.0010722000000003,0.0047602000000012,-0.007825,-0.0276095999999995,-0.0149573999999993,-0.0327968,0,sub_10
0.0045881999999995,0.0058538000000012,-0.0083772,-0.0307353999999995,-0.0116003999999993,-0.0394252,0,sub_10
0.0092277999999995,0.0062166000000012,-0.0080666,-0.0337053999999995,-0.0103013999999993,-0.0420112,0,sub_10
0.0125131999999995,0.0062904000000012,-0.0076252,-0.0358485999999994,-0.0098779999999993,-0.039463,0,sub_10
0.0134191999999995,0.0074128000000012,-0.0078872,-0.0354557999999994,-0.0114759999999993,-0.0331092,0,sub_10
0.0124597999999995,0.0090514000000012,-0.0099794,-0.0318575999999995,-0.0111709999999993,-0.025881,0,sub_10
0.0108535999999995,0.0104480000000012,-0.0112372,-0.0248379999999994,-0.0081125999999993,-0.0175642,0,sub_10
0.0103823999999995,0.0107242000000012,-0.0110822,-0.0158873999999995,-0.0033539999999993,-0.009877,0,sub_10
0.0109711999999995,0.0109296000000012,-0.0113682,-0.0075673999999995,0.0035374000000006,-0.002197,0,sub_10
0.0126349999999995,0.0106260000000012,-0.0113528,-0.0022425999999995,0.0081786000000006,0.0046707999999999,0,sub_10
0.0146731999999995,0.0088616000000012,-0.009511,-0.0011871999999995,0.0113476000000006,0.0104425999999999,0,sub_10
0.0158619999999996,0.0062672000000012,-0.0082402,-0.0022807999999994,0.0083566000000005,0.0134297999999999,0,sub_10
0.0148319999999995,0.0044382000000012,-0.0073698,-0.0057109999999994,0.0041100000000005,0.0127701999999999,0,sub_10
0.0128425999999995,0.0037754000000012,-0.0073082,-0.0087077999999994,-0.0025641999999993,0.0077701999999999,0,sub_10
0.0094119999999995,0.0039784000000012,-0.0075876,-0.0110405999999994,-0.0062485999999993,0.0004207999999999,0,sub_10
0.0043595999999995,0.0057356000000012,-0.007316,-0.0127283999999994,-0.0075965999999993,-0.0056452,0,sub_10
-0.0004612000000004,0.0064782000000012,-0.0076328,-0.0156533999999994,0.0023448000000006,-0.010025,0,sub_10
-0.0028118000000003,0.0060752000000013,-0.0082102,-0.0213263999999995,0.0188972000000006,-0.013578,0,sub_10
-0.0017382000000003,0.0053376000000013,-0.0089124,-0.0312427999999994,0.0408886000000006,-0.0166664,0,sub_10
0.0014647999999996,0.0047820000000013,-0.0086622,-0.0392493999999995,0.0605298000000006,-0.0197384,0,sub_10
0.0087601999999996,0.0049992000000012,-0.0100778,-0.0447319999999995,0.0741880000000006,-0.0206488,0,sub_10
0.0154045999999996,0.0071374000000012,-0.0114986,-0.0456503999999994,0.0766424000000006,-0.0189704,0,sub_10
0.0204633999999995,0.0104858000000012,-0.0109698,-0.0400089999999995,0.0707492000000006,-0.0133898,0,sub_10
0.0232581999999995,0.0128038000000012,-0.0093204,-0.0309841999999994,0.0612094000000006,-0.0045764,0,sub_10
0.0239277999999995,0.0158132000000012,-0.0079718,-0.0236605999999994,0.0559248000000005,0.0072107999999999,0,sub_10
0.0205105999999995,0.0171314000000012,-0.0069922,-0.0122627999999994,0.0540390000000006,0.0179537999999999,0,sub_10
0.0173421999999996,0.0172456000000012,-0.0052224,0.0006944000000005,0.0492730000000006,0.0263823999999999,0,sub_10
0.0153219999999995,0.0141634000000012,-0.0044528,0.0134374000000005,0.0415362000000006,0.0320359999999999,0,sub_10
0.0134427999999995,0.0109142000000012,-0.0053772,0.0259432000000005,0.0341304000000006,0.0346531999999999,0,sub_10
0.0119961999999995,0.0058624000000012,-0.0074694,0.0362990000000005,0.0205636000000006,0.0346995999999999,0,sub_10
0.0116031999999995,0.0007596000000012,-0.0092928,0.0406756000000004,0.0025572000000006,0.0312915999999999,0,sub_10
0.0096049999999995,-0.0032287999999987,-0.0090602,0.0386922000000005,-0.0105093999999993,0.0235599999999999,0,sub_10
0.0062857999999995,-0.0016943999999987,-0.0097922,0.0326904000000005,-0.0180131999999993,0.0134431999999999,0,sub_10
0.0020275999999995,0.0020206000000012,-0.0084138,0.0292822000000005,-0.0254231999999993,0.0046695999999999,0,sub_10
-0.0003246000000004,0.0062934000000012,-0.0061892,0.0307988000000004,-0.0266811999999993,-0.0017276,0,sub_10
-0.0022420000000004,0.0095346000000012,-0.0028014,0.0333928000000004,-0.0217797999999994,-0.0042794,0,sub_10
-0.0017310000000004,0.0087712000000012,-0.0016664,0.0349192000000004,-0.0126315999999994,-0.0023576,0,sub_10
-0.0004924000000004,0.0056366000000012,-0.0010204,0.0343458000000004,-0.0031715999999994,5.999999999952918e-06,0,sub_10
0.0021821999999995,0.0016426000000012,-0.0016106,0.0307864000000004,0.0043898000000005,0.0002145999999999,0,sub_10
0.0036867999999995,-0.0016457999999987,-0.0023088,0.0231720000000004,0.0085692000000005,-0.0028054,0,sub_10
0.0068287999999995,-0.0019307999999987,-0.005452,0.0149288000000005,0.0123368000000005,-0.0088202,0,sub_10
0.0105409999999995,0.0015918000000012,-0.0073752,0.0090174000000005,0.0124752000000006,-0.0150278,0,sub_10
0.0152227999999995,0.0053044000000012,-0.0092002,0.0047520000000005,0.0107942000000006,-0.017192,0,sub_10
0.0162635999999995,0.0080370000000012,-0.0102022,0.0038726000000004,0.0063180000000006,-0.0159106,0,sub_10
0.0157721999999995,0.0095524000000012,-0.0130108,0.0059650000000004,-0.0007285999999993,-0.0137504,0,sub_10
0.0139857999999995,0.0087628000000012,-0.015219,0.0076424000000005,-0.0045805999999993,-0.0109564,0,sub_10
0.0135805999999995,0.0088006000000012,-0.0174254,0.0095964000000005,-0.0022055999999993,-0.006015,0,sub_10
0.0128549999999995,0.0084574000000012,-0.0177254,0.0155872000000005,-0.0004967999999993,0.0021599999999999,0,sub_10
0.0137941999999995,0.0085856000000012,-0.017231,0.0223970000000005,-0.0053999999999993,0.0114175999999999,0,sub_10
0.0144689999999995,0.0074446000000012,-0.015408,0.0283360000000005,-0.0130739999999993,0.0217405999999999,0,sub_10
0.0148557999999995,0.0059190000000013,-0.015274,0.0344616000000005,-0.0284117999999993,0.0303655999999999,0,sub_10
0.0144365999999995,0.0030482000000013,-0.0173852,0.0398894000000005,-0.0497577999999993,0.0357717999999999,0,sub_10
0.0164959999999995,0.0021332000000013,-0.0207166,0.0439416000000005,-0.0681521999999993,0.0386365999999999,0,sub_10
0.0221499999999995,0.0021750000000013,-0.0229894,0.0416242000000005,-0.0780079999999993,0.0429411999999999,0,sub_10
0.0275585999999996,0.0029688000000013,-0.0210792,0.0343916000000005,-0.0853071999999993,0.0514811999999999,0,sub_10
0.0298209999999995,0.0052164000000012,-0.0160044,0.0263130000000004,-0.0904745999999993,0.0604399999999999,0,sub_10
0.0281239999999996,0.0076668000000012,-0.0102822,0.0180422000000005,-0.0958347999999993,0.0644837999999999,0,sub_10
0.0218533999999995,0.0081706000000012,-0.0043908,0.0042074000000005,-0.0929971999999993,0.0594695999999999,0,sub_10
0.0117247999999995,0.0091758000000012,-8.440000000007202e-05,-0.0082569999999994,-0.0782005999999993,0.0463313999999999,0,sub_10
0.0029381999999995,0.0103802000000012,-0.0007654,-0.0144587999999995,-0.0550833999999993,0.0248941999999999,0,sub_10
-0.0013846000000004,0.0095940000000012,-0.0033294,-0.0182893999999994,-0.0283455999999994,0.0017595999999999,0,sub_10
-0.0001256000000004,0.0084676000000012,-0.005522,-0.0239793999999994,0.0037948000000005,-0.0162822,0,sub_10
0.0055025999999995,0.0079816000000012,-0.0081686,-0.0276075999999994,0.0305588000000005,-0.0236204,0,sub_10
0.0121909999999995,0.0058258000000012,-0.0104456,-0.0291883999999994,0.0466286000000005,-0.022385,0,sub_10
0.0169263999999995,0.0069786000000012,-0.0129398,-0.0327431999999994,0.0567158000000005,-0.0151736,0,sub_10
0.0186135999999995,0.0099554000000012,-0.0140562,-0.0352713999999994,0.0612462000000005,-0.0045296,0,sub_10
0.0170007999999995,0.0126200000000012,-0.0144586,-0.0310633999999995,0.0579954000000005,0.0055453999999999,0,sub_10
0.0136383999999995,0.0134382000000012,-0.0151172,-0.0234155999999995,0.0543314000000005,0.0094489999999999,0,sub_10
0.0111679999999995,0.0133220000000012,-0.015188,-0.0178563999999995,0.0558076000000005,0.0084177999999999,0,sub_10
0.0103675999999995,0.0101216000000012,-0.0124362,-0.0159279999999995,0.0604406000000005,0.0045561999999999,0,sub_10
0.0089479999999995,0.0072554000000012,-0.0103808,-0.0169715999999995,0.0661588000000006,-0.0016776,0,sub_10
0.0074647999999995,0.0051074000000012,-0.0101688,-0.0211915999999995,0.0748802000000006,-0.0102876,0,sub_10
0.0065343999999995,0.0049190000000012,-0.0096046,-0.0260621999999994,0.0831700000000006,-0.0169786,0,sub_10
0.0056029999999995,0.0046394000000012,-0.0097908,-0.0296727999999994,0.0886788000000006,-0.0219482,0,sub_10
0.0031773999999995,0.0038930000000012,-0.01032,-0.0290095999999994,0.0886970000000006,-0.027071,0,sub_10
0.0022267999999996,0.0023948000000012,-0.0112024,-0.0257877999999994,0.0865824000000006,-0.0338824,0,sub_10
0.0033953999999996,0.0013926000000012,-0.0123046,-0.0221999999999994,0.0814324000000006,-0.0413234,0,sub_10
0.0052109999999995,0.0007178000000012,-0.0137118,-0.0207497999999994,0.0748008000000006,-0.0494184,0,sub_10
0.0078719999999995,0.0025310000000012,-0.0143266,-0.0199549999999994,0.0668848000000006,-0.05538,0,sub_10
0.0123465999999995,0.0056628000000012,-0.0147146,-0.0215293999999994,0.0578962000000006,-0.0575112,0,sub_10
0.0158021999999995,0.0079770000000012,-0.0146718,-0.0248471999999994,0.0459106000000005,-0.0545232,0,sub_10
0.0178847999999995,0.0087832000000012,-0.014486,-0.0296179999999994,0.0348244000000005,-0.0485604,0,sub_10
0.0187497999999995,0.0089346000000012,-0.0134248,-0.0354479999999994,0.0267196000000005,-0.041327,0,sub_10
0.0163283999999995,0.0075838000000012,-0.011989,-0.0387127999999994,0.0186100000000005,-0.0351436,0,sub_10
0.0112635999999995,0.0061012000000012,-0.0102136,-0.0374831999999994,0.0115578000000005,-0.030853,0,sub_10
0.0072637999999995,0.0062174000000012,-0.0099104,-0.0352561999999994,0.0107342000000005,-0.0270476,0,sub_10
0.0049447999999995,0.0077478000000012,-0.01096,-0.0306669999999994,0.0154332000000005,-0.0210962,0,sub_10
0.0036827999999995,0.0093702000000012,-0.0121954,-0.0211633999999994,0.0245772000000005,-0.0121252,0,sub_10
0.0059107999999995,0.0084446000000012,-0.0124622,-0.0131465999999994,0.0373398000000005,-0.0010328,0,sub_10
0.0107803999999995,0.0066584000000012,-0.0117304,-0.0070647999999994,0.0475500000000005,0.0106901999999999,0,sub_10
0.0147483999999995,0.0047338000000012,-0.009938,-0.0022003999999994,0.0472822000000005,0.0201247999999999,0,sub_10
0.0163857999999995,0.0022414000000012,-0.0066342,-0.0011987999999994,0.0374592000000005,0.0248445999999999,0,sub_10
0.0193647999999995,0.0030708000000012,-0.006679,-0.0044415999999995,0.0276718000000005,0.0244071999999999,0,sub_10
0.0197713999999995,0.0070326000000012,-0.0091604,-0.0074979999999995,0.0227278000000005,0.0206627999999999,0,sub_10
0.0193521999999995,0.0110868000000012,-0.012971,-0.0103083999999995,0.0216316000000005,0.0134967999999999,0,sub_10
0.0209709999999995,0.0129150000000012,-0.014845,-0.0113829999999995,0.0250114000000006,0.0044145999999999,0,sub_10
0.0236615999999995,0.0144170000000012,-0.0174832,-0.0101007999999995,0.0311500000000006,-0.004014,0,sub_10
0.0251253999999995,0.0128390000000012,-0.0184304,-0.0058775999999995,0.0315078000000006,-0.007928,0,sub_10
0.0286741999999995,0.0118256000000012,-0.0201978,4.900000000049864e-05,0.0227442000000006,-0.0059526,0,sub_10
0.0322217999999995,0.0112450000000012,-0.0206448,0.0031682000000004,0.0122628000000006,0.0017739999999999,0,sub_10
0.0332481999999995,0.0115670000000012,-0.0193604,0.0033078000000004,0.0053774000000006,0.0145435999999999,0,sub_10
0.0314929999999995,0.0120560000000012,-0.0179782,0.0023710000000004,-0.0027857999999993,0.0281619999999999,0,sub_10
0.0273975999999995,0.0127580000000012,-0.0175666,0.0025030000000004,-0.0158317999999993,0.0364529999999999,0,sub_10
0.0230723999999995,0.0121570000000012,-0.016447,0.0030876000000004,-0.0297051999999993,0.0381251999999999,0,sub_10
0.0192541999999995,0.0104066000000012,-0.0145942,0.0064672000000004,-0.0410229999999993,0.0376771999999999,0,sub_10
0.0137587999999995,0.0085402000000012,-0.0137598,0.0132434000000004,-0.0534005999999993,0.0368857999999999,0,sub_10
0.0088199999999995,0.0069638000000012,-0.0109966,0.0206520000000004,-0.0668481999999993,0.0367411999999999,0,sub_10
0.0055047999999995,0.0051850000000012,-0.0083664,0.0227780000000005,-0.0683477999999993,0.0369717999999999,0,sub_10
0.0020773999999995,0.0049516000000012,-0.0078736,0.0204616000000005,-0.0602485999999993,0.0382271999999999,0,sub_10
0.0002027999999995,0.0057652000000012,-0.0075664,0.0194892000000004,-0.0521193999999993,0.0395161999999999,0,sub_10
0.0006527999999995,0.0072336000000012,-0.0076012,0.0202372000000004,-0.0424987999999993,0.0393199999999999,0,sub_10
0.0017701999999995,0.0072568000000012,-0.0050004,0.0209910000000005,-0.0318121999999993,0.0389085999999999,0,sub_10
0.0033619999999995,0.0073652000000012,-0.0021016,0.0217018000000004,-0.0313495999999993,0.0378689999999999,0,sub_10
0.0046991999999995,0.0067732000000012,0.0017787999999999,0.0200672000000005,-0.0325745999999993,0.0346787999999999,0,sub_10
0.0054131999999995,0.0068940000000012,0.0010093999999999,0.0158468000000004,-0.0267885999999993,0.0299417999999999,0,sub_10
0.0061693999999995,0.0056602000000012,0.0015647999999999,0.0105874000000004,-0.0160935999999993,0.0239091999999999,0,sub_10
0.0083667999999995,0.0058958000000012,0.0002451999999999,0.0081066000000004,-0.0064649999999993,0.0157611999999999,0,sub_10
0.0087951999999995,0.0045732000000012,-3.0200000000072705e-05,0.0054930000000004,-0.0042687999999993,0.0066543999999999,0,sub_10
0.0111251999999995,0.0041086000000012,-0.000416,0.0015868000000004,-0.0058987999999993,-0.0035248,0,sub_10
0.0136099999999995,0.0048780000000013,-0.0010308,-0.0070087999999995,-0.0068713999999993,-0.014165,0,sub_10
0.0168475999999995,0.0073398000000012,-0.0049232,-0.0198671999999995,-0.0048539999999993,-0.0229158,0,sub_10
0.0144625999999995,0.0067430000000012,-0.008192,-0.0325045999999995,0.0022622000000006,-0.0282534,0,sub_10
0.0122997999999995,0.0073320000000012,-0.0105008,-0.0379879999999995,0.0129488000000006,-0.0319374,0,sub_10
0.0084259999999995,0.0069680000000012,-0.012783,-0.0343317999999995,0.0163570000000006,-0.0349072,0,sub_10
0.0080841999999995,0.0060720000000012,-0.0143188,-0.0263633999999995,0.0097402000000006,-0.03586,0,sub_10
0.0089169999999995,0.0057136000000012,-0.0135966,-0.0179959999999995,0.0013996000000006,-0.0323214,0,sub_10
0.0126577999999995,0.0080562000000012,-0.013042,-0.0113305999999994,-0.0018377999999993,-0.024742,0,sub_10
0.0143209999999995,0.0090898000000012,-0.0118894,-0.0072219999999994,-0.0016677999999993,-0.014621,0,sub_10
0.0144859999999996,0.0093500000000012,-0.0110696,-0.0062967999999994,0.0010750000000006,-0.0058076,0,sub_10
0.0116169999999995,0.0090472000000012,-0.009986,-0.0043705999999994,0.0065906000000006,-0.0015284,0,sub_10
0.0096037999999995,0.0087994000000012,-0.0103096,0.0005504000000005,0.0087074000000006,-0.0023514,0,sub_10
0.0103093999999995,0.0078246000000012,-0.0109326,0.0039748000000005,0.0078560000000006,-0.005531,0,sub_10
0.0129353999999995,0.0074004000000012,-0.0114774,0.0056924000000004,0.0089204000000006,-0.0068022,0,sub_10
0.0151501999999995,0.0074588000000012,-0.011482,0.0070330000000004,0.0089598000000006,-0.004429,0,sub_10
0.0169529999999995,0.0077708000000012,-0.0119478,0.0053786000000004,0.0087906000000006,-0.000581,0,sub_10
0.0170483999999995,0.0071634000000012,-0.0122494,0.0007592000000004,0.0128954000000006,0.0025997999999999,0,sub_10
0.0165029999999995,0.0072936000000012,-0.0135104,-0.0036419999999995,0.0150938000000006,0.0027933999999999,0,sub_10
0.0161123999999995,0.0080580000000012,-0.0153214,-0.0063421999999995,0.0130372000000006,1.339999999994991e-05,0,sub_10
0.0177157999999995,0.0086148000000012,-0.016295,-0.0091035999999995,0.0119970000000006,-0.0038502,0,sub_10
0.0182663999999995,0.0085102000000012,-0.0156148,-0.0107961999999995,0.0132890000000005,-0.0057866,0,sub_10
0.0187269999999995,0.0093210000000012,-0.016423,-0.0112171999999994,0.0156298000000005,-0.0047244,0,sub_10
0.0185627999999995,0.0098698000000012,-0.015937,-0.0112081999999994,0.0177446000000005,-0.0020214,0,sub_10
0.0187679999999995,0.0101310000000012,-0.0160486,-0.0105493999999994,0.0215632000000005,0.0002565999999999,0,sub_10
0.0165503999999995,0.0093368000000012,-0.0159204,-0.0090371999999994,0.0238934000000005,0.0010469999999999,0,sub_10
0.0149259999999995,0.0091710000000012,-0.0152328,-0.0056093999999994,0.0240906000000005,0.0007853999999999,0,sub_10
0.0133999999999995,0.0083690000000012,-0.0149516,-0.0019835999999995,0.0204538000000005,0.0001027999999999,0,sub_10
0.0137085999999995,0.0089496000000012,-0.0158082,0.0014188000000004,0.0185218000000005,0.0007699999999999,0,sub_10
0.0139729999999995,0.0087128000000012,-0.014118,0.0033276000000004,0.0189292000000005,0.0037737999999999,0,sub_10
0.0152759999999995,0.0090782000000012,-0.0119432,0.0041638000000004,0.0195474000000005,0.0082653999999999,0,sub_10
0.0143863999999995,0.0093400000000012,-0.0110258,0.0039140000000004,0.0183152000000006,0.0103029999999999,0,sub_10
0.0137451999999995,0.0089002000000012,-0.0093922,0.0047398000000004,0.0158138000000006,0.0091451999999999,0,sub_10
0.0116643999999995,0.0077386000000012,-0.007634,0.0062172000000004,0.0139570000000006,0.0060681999999999,0,sub_10
0.0102775999999995,0.0069554000000012,-0.0069096,0.0060038000000004,0.0146670000000006,0.0019079999999999,0,sub_10
0.0101675999999995,0.0057156000000012,-0.006401,0.0032522000000004,0.0198618000000006,-0.002703,0,sub_10
0.0101983999999995,0.0045626000000012,-0.0063404,-0.0007519999999995,0.0264984000000006,-0.007226,0,sub_10
0.0104705999999995,0.0045542000000012,-0.0068322,-0.0058355999999995,0.0284594000000006,-0.0136734,0,sub_10
0.0118437999999995,0.0055196000000012,-0.0077788,-0.0115735999999994,0.0259536000000006,-0.0214014,0,sub_10
0.0136337999999995,0.0065454000000012,-0.0104052,-0.0140937999999994,0.0217598000000006,-0.028268,0,sub_10
0.0140203999999995,0.0082362000000012,-0.012871,-0.0140679999999994,0.0162710000000006,-0.0331924,0,sub_10
0.0155103999999995,0.0084480000000012,-0.01427,-0.0125647999999994,0.0109748000000006,-0.0342611999999999,0,sub_10
0.0168633999999995,0.0095194000000012,-0.0142982,-0.0100091999999994,0.0073596000000006,-0.030411,0,sub_10
0.0175325999999995,0.0099594000000012,-0.0144056,-0.0055495999999994,0.0049964000000006,-0.0216352,0,sub_10
0.0170701999999995,0.0112730000000012,-0.0138046,-0.0013433999999994,0.0032294000000006,-0.0096396,0,sub_10
0.0151457999999995,0.0111728000000012,-0.0128006,0.0052164000000005,0.0042188000000006,0.0036507999999999,0,sub_10
0.0127757999999995,0.0112976000000012,-0.0117114,0.0147674000000005,0.0047766000000005,0.0156809999999999,0,sub_10
0.0108427999999995,0.0097488000000012,-0.0112296,0.0228630000000005,0.0057884000000005,0.0245005999999999,0,sub_10
0.0099209999999995,0.0065582000000012,-0.0090852,0.0273592000000004,0.0085352000000005,0.0288063999999999,0,sub_10
0.0084489999999995,0.0037416000000012,-0.0060828,0.0291092000000004,0.0113164000000005,0.0268971999999999,0,sub_10
0.0079861999999995,0.0035744000000012,-0.0043016,0.0276636000000004,0.0109300000000005,0.0206967999999999,0,sub_10
0.0093809999999995,0.0031114000000012,-0.0031992,0.0217304000000004,0.0069460000000005,0.0123331999999999,0,sub_10
0.0108833999999995,0.0032998000000012,-0.0031278,0.0142874000000004,0.0040234000000005,0.0037391999999999,0,sub_10
0.0112101999999995,0.0045682000000012,-0.0045184,0.0068548000000004,0.0032322000000005,-0.0050712,0,sub_10
0.0119261999999995,0.0048526000000012,-0.0063142,-0.0005529999999995,0.0026228000000006,-0.0128046,0,sub_10
0.0133081999999995,0.0053074000000012,-0.0080966,-0.0066863999999995,0.0020038000000005,-0.0192472,0,sub_10
0.0140413999999995,0.0072754000000012,-0.0101196,-0.0111071999999994,0.0047792000000005,-0.0235458,0,sub_10
0.0147605999999995,0.0083948000000012,-0.0115384,-0.0131825999999994,0.0092422000000005,-0.0256938,0,sub_10
0.0158803999999995,0.0098000000000012,-0.0130354,-0.0127129999999994,0.0126216000000005,-0.0254726,0,sub_10
0.0173791999999995,0.0120300000000012,-0.0143254,-0.0099449999999994,0.0143044000000005,-0.0224644,0,sub_10
0.0194663999999995,0.0125650000000012,-0.0147234,-0.0065549999999994,0.0142712000000005,-0.0170996,0,sub_10
0.0201923999999995,0.0124554000000012,-0.014246,-0.0023219999999994,0.0125280000000005,-0.0110858,0,sub_10
0.0194265999999995,0.0129526000000012,-0.0134494,0.0023348000000005,0.0095076000000005,-0.0057082,0,sub_10
0.0171223999999995,0.0119762000000012,-0.012531,0.0065882000000004,0.0049452000000006,-0.0024664,0,sub_10
0.0154217999999995,0.0102812000000012,-0.0123564,0.0108608000000004,0.0033706000000006,-0.0005104,0,sub_10
0.0132517999999995,0.0093274000000012,-0.0111924,0.0172736000000004,0.0028556000000006,0.0010319999999999,0,sub_10
0.0130051999999995,0.0079238000000012,-0.0092708,0.0222064000000004,0.0036308000000005,0.0008531999999999,0,sub_10
0.0142973999999996,0.0058402000000012,-0.0084124,0.0245776000000004,0.0018678000000005,-0.0016902,0,sub_10
0.0169567999999996,0.0053386000000012,-0.0083382,0.0252128000000004,-0.0023825999999994,-0.004885,0,sub_10
0.0200269999999995,0.0063106000000012,-0.007456,0.0251898000000004,-0.0113153999999994,-0.0087192,0,sub_10
0.0225783999999995,0.0077872000000012,-0.0072986,0.0230236000000004,-0.0219469999999994,-0.012139,0,sub_10
0.0235023999999995,0.0090608000000012,-0.0078054,0.0195834000000004,-0.0326709999999993,-0.0125528,0,sub_10
0.0219357999999995,0.0099314000000012,-0.0083244,0.0163710000000004,-0.0380779999999994,-0.0108356,0,sub_10
0.0210203999999995,0.0102262000000012,-0.0085108,0.0144534000000004,-0.0390205999999993,-0.0078332,0,sub_10
0.0191513999999995,0.0097388000000012,-0.0094832,0.0140368000000004,-0.0384761999999993,-0.0050358,0,sub_10
0.0182613999999995,0.0084116000000012,-0.010009,0.0151120000000004,-0.0385751999999994,-0.0024408,0,sub_10
0.0181939999999996,0.0074116000000012,-0.0100674,0.0182886000000004,-0.0409417999999994,0.0005753999999999,0,sub_10
