userAcceleration.x,userAcceleration.y,userAcceleration.z,rotationRate.x,rotationRate.y,rotationRate.z,label,subject
0.0088729999999995,0.0036110000000012,0.0051557999999999,-0.0189821999999994,-0.0071033999999993,-0.014136,0,sub_1
0.0089839999999995,0.0061396000000012,0.0004057999999999,-0.0181603999999995,-0.0105389999999993,-0.0104926,0,sub_1
0.0091943999999995,0.0071240000000012,-0.0020822,-0.0150081999999995,-0.0165353999999993,-0.0055486,0,sub_1
0.0093083999999995,0.0067278000000012,-0.0028208,-0.0078083999999994,-0.0227641999999993,0.0007059999999999,0,sub_1
0.0094401999999995,0.0067080000000012,-0.0013982,0.0004532000000005,-0.0287887999999993,0.0082495999999999,0,sub_1
0.0074575999999995,0.0080028000000012,-0.0001074,0.0083068000000004,-0.0333155999999994,0.0136517999999999,0,sub_1
0.0034149999999995,0.0100142000000012,0.0018179999999999,0.0138380000000004,-0.0367507999999994,0.0145491999999999,0,sub_1
0.0001353999999995,0.0126098000000012,0.0022797999999999,0.0157886000000004,-0.0339775999999993,0.0111401999999999,0,sub_1
-0.0025732000000004,0.0146110000000012,0.0027237999999999,0.0147796000000004,-0.0262885999999993,0.0064219999999999,0,sub_1
-0.0038046000000004,0.0163232000000012,0.0033333999999999,0.0135726000000004,-0.0147655999999993,0.0021245999999999,0,sub_1
-0.0023966000000004,0.0182484000000012,0.0040451999999999,0.0127762000000004,-0.0045253999999993,-0.0004592,0,sub_1
0.0002603999999995,0.0173146000000012,0.0049187999999999,0.0149498000000004,0.0048402000000005,-2.9800000000040992e-05,0,sub_1
0.0002027999999995,0.0150022000000012,0.0056539999999999,0.0228574000000004,0.0122522000000005,0.0045015999999999,0,sub_1
-0.0017704000000004,0.0150144000000012,0.0048577999999999,0.0328844000000004,0.0156120000000005,0.0081983999999999,0,sub_1
-0.0051864000000004,0.0166838000000012,-0.0003912,0.0427042000000004,0.0151550000000005,0.0071975999999999,0,sub_1
-0.0066542000000004,0.0155820000000012,-0.0033148,0.0525496000000004,0.0164174000000005,0.0023485999999999,0,sub_1
-0.0076186000000003,0.0149828000000012,-0.0041758,0.0607254000000004,0.0228118000000005,-0.0057234,0,sub_1
-0.0051944000000004,0.0159856000000012,-0.0068528,0.0638458000000004,0.0375574000000005,-0.0200368,0,sub_1
0.0005933999999995,0.0148052000000012,-0.013573,0.0621238000000004,0.0595918000000006,-0.0414432,0,sub_1
0.0083029999999995,0.0100768000000012,-0.0174738,0.0550860000000004,0.0871810000000005,-0.0618244,0,sub_1
0.0168709999999995,0.0024042000000012,-0.023763,0.0418264000000004,0.1134876000000006,-0.0758362,0,sub_1
0.0280621999999995,-0.0092207999999986,-0.0305592,0.0229364000000004,0.1318866000000005,-0.0794084,0,sub_1
0.0376837999999995,-0.0194193999999986,-0.0365132,0.0024322000000004,0.1349050000000005,-0.0714346,0,sub_1
0.0459017999999995,-0.0236089999999986,-0.0395424,-0.0173257999999995,0.1259430000000005,-0.05169,0,sub_1
0.0541325999999995,-0.0254215999999986,-0.0412514,-0.0354309999999994,0.1088638000000006,-0.028078,0,sub_1
0.0598123999999995,-0.0240117999999986,-0.0392938,-0.0488595999999994,0.0904800000000006,-0.001868,0,sub_1
0.0583951999999995,-0.0151295999999986,-0.0377738,-0.0558955999999994,0.0688854000000006,0.0231087999999999,0,sub_1
0.0557963999999995,-0.0069017999999986,-0.0366116,-0.0593179999999994,0.0400516000000005,0.0438463999999999,0,sub_1
0.0503827999999995,-0.0060351999999986,-0.028808,-0.0556995999999994,0.0075846000000005,0.0612205999999999,0,sub_1
0.0413051999999995,-0.0021031999999986,-0.0190258,-0.0458773999999995,-0.0219207999999994,0.0775663999999999,0,sub_1
0.0285235999999995,0.0046406000000013,-0.0119398,-0.0313173999999995,-0.0465223999999994,0.0890243999999999,0,sub_1
0.0170397999999995,0.0088872000000013,-0.0044068,-0.0132849999999995,-0.0628081999999994,0.0957955999999999,0,sub_1
0.0045959999999995,0.0148096000000012,0.0050437999999999,0.0037438000000004,-0.0658775999999994,0.1016881999999999,0,sub_1
-0.0066224000000004,0.0225870000000012,0.0126905999999999,0.0118508000000004,-0.0618767999999993,0.1055855999999999,0,sub_1
-0.0163430000000003,0.0255468000000012,0.0206071999999999,0.0165462000000004,-0.0567979999999993,0.1103111999999999,0,sub_1
-0.0241600000000003,0.0249232000000012,0.0297535999999999,0.0212234000000004,-0.0547063999999993,0.1161085999999999,0,sub_1
-0.0302672000000003,0.0243088000000012,0.0378839999999998,0.0209914000000004,-0.0568419999999993,0.1178173999999999,0,sub_1
-0.0320508000000003,0.0241640000000012,0.0409061999999998,0.0201566000000004,-0.0576677999999993,0.1118295999999999,0,sub_1
-0.0323382000000003,0.0227744000000012,0.0409275999999998,0.0249130000000004,-0.0533807999999993,0.1011731999999999,0,sub_1
-0.0305156000000004,0.0218344000000012,0.0393747999999998,0.0303366000000004,-0.0477989999999994,0.0858199999999999,0,sub_1
-0.0238524000000004,0.0221996000000012,0.0362599999999998,0.0293626000000004,-0.0445239999999994,0.0670059999999999,0,sub_1
-0.0173642000000004,0.0223882000000012,0.0327795999999999,0.0247764000000004,-0.0361297999999994,0.0498695999999999,0,sub_1
-0.0170404000000004,0.0195244000000012,0.0322921999999999,0.0186740000000004,-0.0292361999999994,0.0367827999999999,0,sub_1
-0.0191504000000004,0.0192116000000012,0.0292269999999999,0.0084888000000004,-0.0287199999999994,0.0236749999999999,0,sub_1
-0.0193092000000004,0.0199382000000012,0.0240831999999999,-0.0029599999999995,-0.0283969999999994,0.0067123999999999,0,sub_1
-0.0200918000000004,0.0193024000000012,0.0217801999999999,-0.0122417999999995,-0.0210503999999994,-0.0104574,0,sub_1
-0.0182004000000004,0.0177712000000012,0.0192311999999999,-0.0172655999999995,-0.0135137999999994,-0.026315,0,sub_1
-0.0109282000000004,0.0164658000000012,0.0145137999999999,-0.0197401999999995,-0.0051475999999994,-0.038737,0,sub_1
-0.0016992000000004,0.0155916000000012,0.0112169999999999,-0.0171085999999995,0.0076428000000005,-0.0432226,0,sub_1
0.0037091999999995,0.0154362000000012,0.0079623999999999,-0.0098207999999995,0.0201702000000005,-0.0393424,0,sub_1
0.0064657999999995,0.0146750000000012,-7.500000000004863e-05,0.0021352000000005,0.0288372000000005,-0.033288,0,sub_1
0.0078687999999995,0.0127810000000012,-0.0069296,0.0136610000000005,0.0345288000000005,-0.0280876,0,sub_1
0.0092225999999995,0.0105490000000012,-0.011752,0.0253998000000005,0.0374598000000006,-0.0254456,0,sub_1
0.0136761999999995,0.0065440000000012,-0.0163112,0.0332854000000005,0.0369980000000006,-0.0251728,0,sub_1
0.0197215999999995,0.0020020000000012,-0.0223456,0.0347494000000005,0.0320830000000006,-0.0247244,0,sub_1
0.0251915999999995,-0.0003627999999987,-0.0263604,0.0312718000000004,0.0224872000000005,-0.0215268,0,sub_1
0.0300367999999995,0.0001202000000012,-0.0298774,0.0288400000000004,0.0141420000000005,-0.0123412,0,sub_1
0.0309171999999995,0.0011022000000012,-0.0273124,0.0270244000000005,0.0074708000000005,0.0038971999999999,0,sub_1
0.0270315999999995,0.0029726000000012,-0.023342,0.0277608000000004,-0.0007025999999994,0.0222883999999999,0,sub_1
0.0185101999999995,0.0074584000000012,-0.0150508,0.0334260000000005,-0.0080239999999994,0.0366523999999999,0,sub_1
0.0088217999999995,0.0093894000000012,-0.0016788,0.0444856000000004,-0.0087319999999994,0.0442085999999999,0,sub_1
-0.0026140000000004,0.0091028000000012,0.0123615999999999,0.0583754000000004,-0.0045235999999994,0.0421667999999999,0,sub_1
-0.0106712000000004,0.0127204000000012,0.0170803999999999,0.0695828000000004,0.0067794000000005,0.0266363999999999,0,sub_1
-0.0155416000000004,0.0161832000000012,0.0189315999999999,0.0753334000000004,0.0281564000000005,0.0007999999999999,0,sub_1
-0.0141462000000004,0.0143752000000012,0.0178317999999999,0.0706920000000004,0.0589628000000005,-0.029821,0,sub_1
-0.0070704000000004,0.0100926000000012,0.0115521999999999,0.0532496000000004,0.0925732000000005,-0.057971,0,sub_1
0.0055909999999995,0.0041356000000012,0.0020377999999999,0.0214660000000004,0.1200446000000005,-0.0804469999999999,0,sub_1
0.0185407999999995,-0.0036801999999987,-0.006385,-0.0195835999999995,0.1366448000000006,-0.0935729999999999,0,sub_1
0.0304511999999995,-0.0118273999999987,-0.015101,-0.0645815999999995,0.1387320000000005,-0.0970932,0,sub_1
0.0405967999999995,-0.0180653999999987,-0.0213164,-0.1013705999999994,0.1266798000000005,-0.0915686,0,sub_1
0.0463239999999995,-0.0178657999999987,-0.026275,-0.1275759999999995,0.0998726000000005,-0.0816774,0,sub_1
0.0474395999999995,-0.0134889999999987,-0.0294338,-0.1423005999999995,0.0685324000000005,-0.0670008,0,sub_1
0.0480953999999995,-0.0111461999999987,-0.0283092,-0.1425343999999994,0.0366996000000005,-0.048376,0,sub_1
0.0471527999999995,-0.0074465999999987,-0.0241356,-0.1282659999999995,0.0062958000000006,-0.0266608,0,sub_1
0.0436775999999995,-0.0022361999999987,-0.021197,-0.1073629999999994,-0.0209259999999993,-0.0040438,0,sub_1
0.0373675999999995,0.0011272000000012,-0.0190114,-0.0800159999999994,-0.0400693999999993,0.0173257999999999,0,sub_1
0.0312041999999995,0.0032810000000012,-0.0156896,-0.0449241999999994,-0.0504833999999993,0.0333973999999999,0,sub_1
0.0235007999999995,0.0055720000000012,-0.0121452,-0.0114939999999994,-0.0551231999999993,0.0426009999999999,0,sub_1
0.0193389999999995,0.0054978000000012,-0.0096342,0.0142996000000005,-0.0556641999999993,0.0457637999999999,0,sub_1
0.0184299999999995,0.0036666000000012,-0.0071742,0.0324152000000004,-0.0565989999999993,0.0475909999999999,0,sub_1
0.0223127999999995,0.0011642000000012,-0.0026516,0.0398294000000004,-0.0628291999999993,0.0510595999999999,0,sub_1
0.0270885999999995,-0.0012951999999987,-0.0004306,0.0369346000000004,-0.0801175999999994,0.0583175999999999,0,sub_1
0.0324465999999995,-0.0039209999999987,0.0008965999999999,0.0299196000000004,-0.1086947999999994,0.0713417999999999,0,sub_1
0.0316217999999995,-0.0048771999999986,0.0057385999999999,0.0245700000000004,-0.1421947999999994,0.0886569999999999,0,sub_1
0.0229689999999995,0.0007670000000013,0.0101811999999999,0.0198972000000004,-0.1690851999999994,0.1042583999999999,0,sub_1
0.0093681999999995,0.0087476000000013,0.0137153999999999,0.0184894000000005,-0.1855317999999994,0.1136593999999999,0,sub_1
-0.0094166000000003,0.0192300000000013,0.0182709999999999,0.0233652000000004,-0.1885461999999994,0.1151803999999999,0,sub_1
-0.0279390000000003,0.0287396000000013,0.0269733999999999,0.0336662000000004,-0.1774927999999994,0.1105239999999999,0,sub_1
-0.0429788000000003,0.0377802000000012,0.0348909999999999,0.0459444000000004,-0.1574837999999994,0.1022371999999999,0,sub_1
-0.0518888000000003,0.0415136000000012,0.0430865999999999,0.0595566000000004,-0.1302165999999993,0.0892495999999999,0,sub_1
-0.0575094000000003,0.0424134000000012,0.0454135999999999,0.0740834000000004,-0.0975927999999993,0.0702925999999999,0,sub_1
-0.0574036000000003,0.0405342000000012,0.0471385999999999,0.0824498000000004,-0.0644977999999993,0.0455225999999999,0,sub_1
-0.0535664000000003,0.0391718000000012,0.0441723999999999,0.0771876000000004,-0.0340899999999994,0.0119025999999999,0,sub_1
-0.0444042000000004,0.0349198000000012,0.0379691999999999,0.0599940000000004,-0.0034097999999993,-0.028439,0,sub_1
-0.0332222000000003,0.0282484000000012,0.0302357999999999,0.0333644000000004,0.0177112000000005,-0.067765,0,sub_1
-0.0213518000000003,0.0208088000000012,0.0237709999999999,0.0004848000000004,0.0339178000000005,-0.0981552,0,sub_1
-0.0112290000000003,0.0142438000000012,0.0153105999999999,-0.0311599999999995,0.0507154000000005,-0.1176408,0,sub_1
-0.0042336000000003,0.0092618000000012,0.0051037999999999,-0.0540949999999994,0.0695700000000005,-0.126386,0,sub_1
0.0006929999999996,0.0046560000000013,-0.0032054,-0.0683201999999994,0.0843252000000005,-0.1275728,0,sub_1
0.0081963999999996,-0.0001707999999986,-0.0100178,-0.0749047999999994,0.0939238000000005,-0.1246396,0,sub_1
0.0166561999999996,-0.0026573999999986,-0.014694,-0.0781395999999994,0.0926310000000005,-0.1182508,0,sub_1
0.0268797999999996,-0.0042643999999986,-0.0193186,-0.0827247999999994,0.0817282000000005,-0.1093082,0,sub_1
0.0346333999999995,-0.0058609999999986,-0.0229244,-0.0833051999999995,0.0635520000000005,-0.0964822,0,sub_1
0.0387121999999995,-0.0040403999999987,-0.0271826,-0.0781383999999995,0.0449180000000005,-0.0808376,0,sub_1
0.0359155999999995,0.0019104000000012,-0.030184,-0.0665561999999995,0.0311538000000005,-0.063232,0,sub_1
0.0312825999999995,0.0075230000000012,-0.0316102,-0.0491775999999995,0.0252512000000005,-0.045382,0,sub_1
0.0250957999999995,0.0107798000000012,-0.0302594,-0.0262279999999995,0.0206256000000005,-0.0279088,0,sub_1
0.0199741999999995,0.0120748000000012,-0.0314334,-0.0022031999999995,0.0149418000000005,-0.0132044,0,sub_1
0.0164755999999995,0.0110450000000012,-0.0300022,0.0199084000000005,0.0084216000000006,-0.0008624,0,sub_1
0.0155629999999995,0.0072226000000012,-0.027547,0.0351880000000005,0.0012766000000006,0.0095005999999999,0,sub_1
0.0139255999999995,0.0035606000000012,-0.0233324,0.0455518000000004,-0.0094649999999993,0.0179111999999999,0,sub_1
0.0130025999999995,0.0030698000000012,-0.0221736,0.0529390000000005,-0.0195499999999993,0.0245909999999999,0,sub_1
0.0137825999999995,0.0047716000000012,-0.0185014,0.0547960000000005,-0.0257795999999993,0.0310133999999999,0,sub_1
0.0130435999999995,0.0078154000000012,-0.015088,0.0511114000000004,-0.0309223999999993,0.0369681999999999,0,sub_1
0.0102107999999995,0.0109522000000012,-0.010983,0.0489244000000005,-0.0366935999999993,0.0433703999999999,0,sub_1
0.0055621999999996,0.0133512000000012,-0.0074764,0.0471800000000005,-0.0394807999999994,0.0491301999999999,0,sub_1
-0.0030732000000003,0.0140194000000012,0.0013971999999999,0.0456824000000005,-0.0362957999999994,0.0531737999999999,0,sub_1
-0.0157950000000003,0.0163488000000012,0.0126209999999999,0.0433740000000005,-0.0281885999999993,0.0525051999999999,0,sub_1
-0.0264558000000003,0.0199446000000012,0.0195955999999999,0.0436678000000004,-0.0147541999999994,0.0458511999999999,0,sub_1
-0.0312262000000003,0.0224332000000012,0.0229163999999999,0.0431624000000005,0.0070078000000005,0.0353347999999999,0,sub_1
-0.0274894000000003,0.0209188000000012,0.0261905999999999,0.0426818000000005,0.0345214000000005,0.0250251999999999,0,sub_1
-0.0202814000000004,0.0189302000000012,0.0262389999999999,0.0400336000000005,0.0564940000000005,0.0168447999999999,0,sub_1
-0.0100442000000004,0.0164780000000012,0.0215193999999999,0.0345522000000005,0.0680258000000005,0.0114353999999999,0,sub_1
0.0001863999999995,0.0132970000000012,0.0164579999999999,0.0268958000000004,0.0714714000000006,0.0090267999999999,0,sub_1
0.0084361999999995,0.0100562000000012,0.0138627999999999,0.0213372000000004,0.0680866000000005,0.0079241999999999,0,sub_1
0.0089207999999995,0.0110642000000012,0.0120633999999999,0.0144654000000004,0.0578916000000005,0.0053093999999999,0,sub_1
0.0061385999999995,0.0116084000000012,0.0091425999999999,0.0041854000000004,0.0451676000000005,-0.0011718,0,sub_1
0.0030289999999995,0.0093534000000012,0.0091125999999999,-0.0020245999999995,0.0349902000000005,-0.0086962,0,sub_1
-0.0009290000000004,0.0080502000000012,0.0114927999999999,-0.0075839999999995,0.0290642000000005,-0.0142992,0,sub_1
-0.0057602000000003,0.0093062000000012,0.0106867999999999,-0.0131447999999995,0.0244106000000005,-0.0184092,0,sub_1
-0.0082276000000003,0.0111630000000012,0.0081001999999999,-0.0157119999999995,0.0203834000000005,-0.021201,0,sub_1
-0.0056804000000003,0.0130384000000012,0.0086569999999999,-0.0131507999999995,0.0205892000000005,-0.0213986,0,sub_1
-0.0001604000000003,0.0131852000000012,0.0081831999999999,-0.0086741999999995,0.0224818000000005,-0.0188072,0,sub_1
0.0050107999999996,0.0119474000000012,0.0052559999999999,-0.0014443999999995,0.0224426000000005,-0.0151384,0,sub_1
0.0091847999999995,0.0099752000000012,0.0035361999999999,0.0049170000000004,0.0200582000000006,-0.0104034,0,sub_1
0.0120207999999995,0.0085630000000012,0.0028091999999999,0.0104222000000005,0.0170376000000006,-0.0056734,0,sub_1
0.0126397999999995,0.0068200000000012,0.0023801999999999,0.0150634000000004,0.0125250000000006,-9.260000000004472e-05,0,sub_1
0.0098283999999995,0.0071016000000012,0.0022971999999999,0.0160776000000004,0.0069640000000005,0.0043955999999999,0,sub_1
0.0078289999999995,0.0084182000000012,0.0062069999999999,0.0147508000000004,-0.0004991999999994,0.0071737999999999,0,sub_1
0.0061591999999995,0.0097554000000012,0.0100897999999999,0.0127952000000004,-0.0073129999999994,0.0080235999999999,0,sub_1
0.0030845999999995,0.0095320000000012,0.0125231999999999,0.0097836000000004,-0.0124149999999994,0.0080087999999999,0,sub_1
7.319999999956893e-05,0.0101662000000012,0.0133361999999999,0.0067828000000004,-0.0162343999999993,0.0069241999999999,0,sub_1
-0.0026352000000004,0.0138306000000012,0.0156929999999999,0.0065566000000004,-0.0189959999999993,0.0054203999999999,0,sub_1
-0.0050252000000004,0.0166254000000012,0.0157539999999999,0.0074120000000004,-0.0187777999999993,0.0037063999999999,0,sub_1
-0.0079868000000004,0.0171676000000012,0.0145583999999999,0.0095512000000004,-0.0168629999999993,0.0028533999999999,0,sub_1
-0.0090294000000004,0.0181542000000012,0.0124513999999999,0.0134084000000004,-0.0140961999999993,0.0005157999999999,0,sub_1
-0.0096630000000004,0.0192248000000012,0.0097307999999999,0.0177048000000004,-0.0104711999999994,-0.0037432,0,sub_1
-0.0082596000000004,0.0174184000000012,0.0074779999999999,0.0205280000000004,-0.0053431999999994,-0.0097136,0,sub_1
-0.0061172000000004,0.0138768000000012,0.0050499999999999,0.0197208000000004,-0.0016905999999994,-0.016562,0,sub_1
-0.0016940000000004,0.0111748000000012,0.0025411999999999,0.0131410000000004,-0.0007807999999993,-0.0247348,0,sub_1
0.0037189999999995,0.0090364000000012,0.0009377999999999,0.0018470000000004,-0.0039043999999993,-0.0325076,0,sub_1
0.0090001999999995,0.0073022000000012,0.0002839999999999,-0.0118093999999995,-0.0097919999999993,-0.0396518,0,sub_1
0.0119977999999995,0.0047856000000012,-0.004665,-0.0271705999999995,-0.0127013999999993,-0.0442478,0,sub_1
0.0127581999999995,0.0025314000000012,-0.0083846,-0.0376197999999994,-0.0130783999999993,-0.0471032,0,sub_1
0.0124859999999995,0.0023260000000012,-0.0102404,-0.0427159999999994,-0.0100687999999993,-0.049492,0,sub_1
0.0103217999999995,0.0034000000000012,-0.0113296,-0.0441905999999994,-0.0047427999999993,-0.0482266,0,sub_1
0.0075997999999995,0.0029558000000012,-0.0114388,-0.0392763999999994,0.0013986000000006,-0.0432858,0,sub_1
0.0067059999999995,0.0037566000000012,-0.00836,-0.0290603999999994,0.0043184000000006,-0.0363892,0,sub_1
0.0083315999999995,0.0071988000000012,-0.005668,-0.0148011999999994,0.0074270000000006,-0.026901,0,sub_1
0.0080969999999995,0.0095514000000012,-0.0018496,0.0041424000000004,0.0126328000000006,-0.0131096,0,sub_1
0.0081193999999995,0.0100568000000012,0.0008459999999999,0.0252340000000004,0.0206026000000006,0.0002657999999999,0,sub_1
0.0066741999999995,0.0099406000000012,0.0005801999999999,0.0405886000000004,0.0298870000000006,0.0095399999999999,0,sub_1
0.0056687999999995,0.0098388000000012,-0.0014038,0.0512728000000004,0.0377146000000006,0.0140911999999999,0,sub_1
0.0032401999999995,0.0083054000000012,-0.0040196,0.0508752000000004,0.0432588000000006,0.0132267999999999,0,sub_1
0.0055073999999995,0.0062098000000012,-0.0075602,0.0412888000000004,0.0396974000000005,0.0063277999999999,0,sub_1
0.0098677999999995,0.0027446000000012,-0.0101012,0.0248398000000004,0.0278592000000005,-0.0033918,0,sub_1
0.0163203999999995,0.0002706000000013,-0.012101,0.0025902000000004,0.0092158000000005,-0.0112198,0,sub_1
0.0209313999999995,-0.0029759999999986,-0.0127168,-0.0231065999999995,-0.0147505999999994,-0.0169278,0,sub_1
0.0227585999999995,-0.0053783999999986,-0.0135628,-0.0483977999999995,-0.0414959999999994,-0.0207066,0,sub_1
0.0192301999999995,-0.0045163999999986,-0.0142018,-0.0738831999999995,-0.0627063999999994,-0.0232122,0,sub_1
0.0124041999999995,0.0009412000000013,-0.0128038,-0.0976171999999995,-0.0760379999999994,-0.025496,0,sub_1
-0.0021414000000004,0.0116480000000012,-0.0081784,-0.1099583999999995,-0.0708725999999994,-0.0279386,0,sub_1
-0.0178502000000004,0.0243516000000012,-0.0049882,-0.1126281999999994,-0.0459435999999994,-0.0260668,0,sub_1
-0.0307376000000004,0.0355450000000012,-0.0041714,-0.1047975999999994,-0.0076365999999993,-0.0232914,0,sub_1
-0.0332098000000004,0.0377138000000012,-0.0048606,-0.0867217999999995,0.0361554000000006,-0.0157514,0,sub_1
-0.0310928000000004,0.0357096000000012,-0.0080492,-0.0616305999999995,0.0796876000000006,-0.0026072,0,sub_1
-0.0195082000000004,0.0276518000000012,-0.0126444,-0.0383197999999995,0.1093670000000005,0.0131065999999999,0,sub_1
-0.0098956000000004,0.0198304000000012,-0.0165318,-0.0199547999999995,0.1245996000000006,0.0228221999999999,0,sub_1
-0.0023494000000004,0.0135394000000012,-0.017581,-0.0071587999999995,0.1292172000000006,0.0291013999999999,0,sub_1
-0.0037068000000004,0.0136356000000012,-0.017334,-0.0001169999999995,0.1287682000000005,0.0287237999999999,0,sub_1
-0.0040018000000004,0.0125602000000012,-0.0155528,0.0043864000000004,0.1279232000000005,0.0229875999999999,0,sub_1
-0.0019920000000004,0.0111608000000012,-0.0111658,0.0069766000000004,0.1311296000000005,0.0168005999999999,0,sub_1
0.0064801999999995,0.0068732000000012,-0.0065286,0.0074146000000004,0.1362372000000005,0.0165783999999999,0,sub_1
0.0183851999999995,0.0015364000000012,-0.000799,0.0018340000000004,0.1385680000000006,0.0233685999999999,0,sub_1
0.0312335999999995,-0.0038819999999987,0.0063873999999999,-0.0061617999999994,0.1327828000000006,0.0372027999999999,0,sub_1
0.0396791999999995,-0.0074653999999986,0.0122457999999999,-0.0174245999999994,0.1137936000000006,0.0525265999999999,0,sub_1
0.0423105999999995,-0.0077699999999986,0.0166611999999999,-0.0310631999999994,0.0824736000000006,0.0646505999999999,0,sub_1
0.0399143999999995,-0.0073761999999986,0.0228655999999999,-0.0434387999999994,0.0420092000000006,0.0714539999999999,0,sub_1
0.0327955999999995,-0.0063711999999986,0.0294357999999999,-0.0464229999999994,-0.0014563999999993,0.0746941999999999,0,sub_1
0.0230891999999995,-0.0012265999999986,0.0334351999999999,-0.0470219999999994,-0.0368265999999993,0.0749483999999999,0,sub_1
0.0133543999999995,0.0049706000000012,0.0377047999999999,-0.0426567999999995,-0.0596437999999993,0.0752213999999999,0,sub_1
0.0026331999999995,0.0098310000000012,0.0420633999999999,-0.0335669999999995,-0.0748105999999993,0.0763711999999999,0,sub_1
-0.0090466000000004,0.0165940000000012,0.0421263999999999,-0.0240279999999994,-0.0878359999999993,0.0745293999999999,0,sub_1
-0.0171616000000004,0.0219304000000012,0.0392261999999999,-0.0200021999999994,-0.0986893999999993,0.0670915999999999,0,sub_1
-0.0219806000000004,0.0203642000000012,0.0346433999999999,-0.0210645999999994,-0.1099261999999993,0.0544925999999999,0,sub_1
-0.0252662000000004,0.0191316000000012,0.0272679999999999,-0.0295615999999994,-0.1204703999999993,0.0350035999999999,0,sub_1
-0.0263060000000004,0.0176800000000012,0.0189227999999999,-0.0457115999999994,-0.1294781999999993,0.0107591999999999,0,sub_1
-0.0211182000000004,0.0163850000000012,0.0134173999999999,-0.0663333999999995,-0.1331533999999993,-0.0128806,0,sub_1
-0.0180646000000004,0.0156846000000012,0.0078041999999999,-0.0876115999999995,-0.1355675999999994,-0.0316132,0,sub_1
-0.0141048000000004,0.0169534000000012,0.0018399999999999,-0.1056965999999995,-0.1382121999999993,-0.048828,0,sub_1
