userAcceleration.x,userAcceleration.y,userAcceleration.z,rotationRate.x,rotationRate.y,rotationRate.z,label,subject
0.0124731999999997,0.0074226000000012,-0.0325526,0.0252072000000005,0.0525564000000007,0.0071499999999999,0,sub_2
0.0124827999999997,0.0068528000000012,-0.0332706,0.0292728000000005,0.0542500000000007,0.0063215999999999,0,sub_2
0.0139101999999997,0.0067858000000012,-0.0348154,0.0294634000000005,0.0566618000000007,0.0043689999999999,0,sub_2
0.0158373999999997,0.0066680000000012,-0.0379246,0.0281650000000005,0.0599320000000007,0.0021913999999999,0,sub_2
0.0167397999999997,0.0060066000000012,-0.0400468,0.0251550000000005,0.0627796000000007,0.0006434,0,sub_2
0.0191941999999997,0.0058402000000012,-0.03817,0.0216942000000005,0.0622122000000007,0.0010194,0,sub_2
0.0194517999999997,0.0064696000000012,-0.0367716,0.0182412000000005,0.0631370000000007,0.0011798,0,sub_2
0.0190995999999997,0.0071212000000012,-0.03881,0.0165284000000005,0.0616526000000007,0.0009562,0,sub_2
0.0201945999999997,0.0071466000000012,-0.0418692,0.0156452000000005,0.0542020000000007,0.000105,0,sub_2
0.0230317999999997,0.0065294000000012,-0.045504,0.0149610000000005,0.0435550000000007,-0.0007407999999999,0,sub_2
0.0254015999999997,0.0063456000000012,-0.0483062,0.0119394000000005,0.0350466000000007,-0.0016055999999999,0,sub_2
0.0266929999999997,0.0061722000000012,-0.0501156,0.0076210000000005,0.0239820000000008,-0.0014077999999999,0,sub_2
0.0259273999999997,0.0068426000000012,-0.0495378,0.0028664000000005,0.0114248000000007,-0.0005703999999999,0,sub_2
0.0233921999999997,0.0076428000000012,-0.0489214,-0.0016699999999994,-0.0004921999999991,-0.0001595999999999,0,sub_2
0.0205307999999997,0.0083798000000012,-0.048957,-0.0053433999999994,-0.0104939999999991,4.12000000000167e-05,0,sub_2
0.0192747999999997,0.0080890000000012,-0.0496968,-0.0075087999999994,-0.0175171999999991,3.50000000000167e-05,0,sub_2
0.0186509999999997,0.0085140000000012,-0.0487454,-0.0090195999999994,-0.0211347999999991,0.0002426,0,sub_2
0.0178285999999997,0.0082510000000012,-0.0473586,-0.0107369999999994,-0.0230479999999991,0.0006604,0,sub_2
0.0169177999999997,0.0082370000000012,-0.045535,-0.0123109999999994,-0.0261693999999991,0.0023403999999999,0,sub_2
0.0147465999999997,0.0091026000000012,-0.0434482,-0.0138657999999994,-0.0246053999999991,0.0044417999999999,0,sub_2
0.0134009999999997,0.0097750000000012,-0.0419754,-0.0141259999999993,-0.0209111999999992,0.0054813999999999,0,sub_2
0.0127463999999997,0.0089860000000012,-0.0423446,-0.0139623999999993,-0.0189185999999992,0.0054579999999999,0,sub_2
0.0128925999999997,0.0077176000000012,-0.0419714,-0.0133739999999994,-0.0175657999999992,0.0052245999999999,0,sub_2
0.0133149999999997,0.0071778000000012,-0.0407858,-0.0127145999999994,-0.0130947999999992,0.0054371999999999,0,sub_2
0.0131919999999997,0.0069276000000012,-0.0392014,-0.0135517999999994,-0.0086209999999992,0.0062801999999999,0,sub_2
0.0100767999999997,0.0077318000000012,-0.037939,-0.0148119999999994,-0.0030813999999992,0.0073325999999999,0,sub_2
0.0085563999999997,0.0078630000000012,-0.0379346,-0.0142179999999994,0.0015298000000007,0.0081777999999999,0,sub_2
0.0080995999999997,0.0079076000000012,-0.0373452,-0.0125563999999994,0.0057136000000007,0.0083901999999999,0,sub_2
0.0076783999999997,0.0072726000000012,-0.0373702,-0.0128103999999994,0.0113938000000007,0.0090145999999999,0,sub_2
0.0077845999999997,0.0068590000000012,-0.0339604,-0.0132641999999994,0.0198452000000008,0.0094204,0,sub_2
0.0088549999999997,0.0065434000000012,-0.0318194,-0.0143665999999994,0.0270182000000008,0.0104642,0,sub_2
0.0084055999999997,0.0073048000000012,-0.0290512,-0.0164591999999994,0.0376722000000008,0.0119314,0,sub_2
0.0091087999999997,0.0079614000000012,-0.0322342,-0.0187611999999993,0.0491794000000007,0.013396,0,sub_2
0.0125755999999997,0.0083874000000012,-0.0345358,-0.0185073999999993,0.0562170000000007,0.011466,0,sub_2
0.0168271999999997,0.0081420000000012,-0.0403312,-0.0159353999999993,0.0562182000000007,0.0089202,0,sub_2
0.0226149999999997,0.0068400000000012,-0.0434566,-0.0149577999999994,0.0533112000000008,0.0067833999999999,0,sub_2
0.0281927999999997,0.0056692000000012,-0.047097,-0.0159185999999994,0.0463630000000008,0.0046383999999999,0,sub_2
0.0317421999999997,0.0053914000000012,-0.04691,-0.0183863999999994,0.0360128000000007,0.0020597999999999,0,sub_2
0.0343833999999997,0.0050700000000012,-0.0477088,-0.0215193999999994,0.0209744000000008,0.000337,0,sub_2
0.0401149999999997,0.0036758000000012,-0.0478898,-0.0242573999999994,-0.0025815999999991,-0.0028673999999999,0,sub_2
0.0444519999999997,0.0026792000000012,-0.0489864,-0.0273451999999994,-0.0283367999999991,-0.0062741999999999,0,sub_2
0.0471575999999997,0.0018040000000012,-0.0487922,-0.0338575999999994,-0.0553625999999991,-0.0086351999999999,0,sub_2
0.0478355999999997,0.0013752000000012,-0.0474184,-0.0406803999999994,-0.0838609999999991,-0.0103623999999999,0,sub_2
0.0464287999999997,0.0005916000000012,-0.0463266,-0.0453607999999994,-0.1093883999999991,-0.0110101999999999,0,sub_2
0.0424073999999997,0.0017742000000012,-0.044644,-0.0504553999999994,-0.1315079999999991,-0.0110243999999999,0,sub_2
0.0392085999999997,0.0035804000000012,-0.0425148,-0.0568369999999994,-0.1559633999999991,-0.0118991999999999,0,sub_2
0.0378979999999997,0.0049276000000012,-0.0416422,-0.0617297999999994,-0.1819137999999991,-0.0131889999999999,0,sub_2
0.0341175999999997,0.0055920000000012,-0.0406506,-0.0650357999999994,-0.2057627999999992,-0.0136087999999999,0,sub_2
0.0288437999999997,0.0077224000000012,-0.0395926,-0.0689597999999993,-0.2240727999999991,-0.0133991999999999,0,sub_2
0.0218999999999997,0.0091682000000012,-0.0390436,-0.0739219999999994,-0.2342899999999991,-0.0114979999999999,0,sub_2
0.0121267999999997,0.0102678000000012,-0.037147,-0.0748363999999994,-0.2354641999999991,-0.0083069999999999,0,sub_2
0.0016419999999997,0.0112128000000012,-0.0366458,-0.0699465999999994,-0.2268587999999992,-0.0048743999999999,0,sub_2
-0.0037196000000002,0.0128990000000012,-0.0358236,-0.0629085999999994,-0.2157017999999992,-0.0020709999999999,0,sub_2
-0.0061562000000002,0.0140694000000012,-0.0324622,-0.0537215999999994,-0.2011433999999992,0.0007432,0,sub_2
-0.0087426000000002,0.0140876000000012,-0.0267596,-0.0415175999999994,-0.1799905999999992,0.00357,0,sub_2
-0.0113674000000002,0.0134534000000012,-0.022048,-0.0303061999999994,-0.1506425999999992,0.0072426,0,sub_2
-0.0140192000000002,0.0144544000000012,-0.0169288,-0.0225115999999994,-0.1227705999999992,0.0100388,0,sub_2
-0.0160432000000002,0.0142742000000012,-0.012996,-0.0151131999999994,-0.0889281999999992,0.01197,0,sub_2
-0.0183150000000002,0.0134826000000012,-0.0130786,-0.0072715999999994,-0.0532149999999992,0.0128138,0,sub_2
-0.0186438000000002,0.0126848000000012,-0.0148212,-0.0005131999999994,-0.0219689999999992,0.0128011999999999,0,sub_2
-0.0170124000000002,0.0135188000000012,-0.0172132,0.0047412000000005,0.0060900000000007,0.0119275999999999,0,sub_2
-0.0139332000000002,0.0123186000000012,-0.0194716,0.0100118000000005,0.0375586000000007,0.0108359999999999,0,sub_2
-0.0095580000000002,0.0115342000000012,-0.0227384,0.0161044000000005,0.0624178000000007,0.0101859999999999,0,sub_2
-0.0033636000000002,0.0105240000000012,-0.023494,0.0202418000000005,0.0803026000000007,0.0095509999999999,0,sub_2
0.0022181999999997,0.0114690000000012,-0.0266334,0.0230886000000005,0.0956362000000007,0.0086966,0,sub_2
0.0084159999999997,0.0098468000000012,-0.0312924,0.0276134000000005,0.1037234000000007,0.0070086,0,sub_2
0.0154449999999997,0.0082240000000012,-0.0346662,0.0325268000000005,0.1037114000000007,0.0057612,0,sub_2
0.0189243999999997,0.0075002000000012,-0.035149,0.0338320000000005,0.1098830000000007,0.0064032,0,sub_2
0.0171135999999997,0.0065810000000012,-0.0362558,0.0306832000000005,0.1213990000000007,0.0063664,0,sub_2
0.0165013999999997,0.0067242000000012,-0.0364884,0.0247366000000005,0.1259008000000007,0.00461,0,sub_2
0.0156593999999997,0.0089032000000012,-0.0364664,0.0198540000000005,0.1314572000000007,0.0045687999999999,0,sub_2
0.0133787999999997,0.0104656000000012,-0.0360704,0.0175366000000005,0.1395554000000007,0.0060375999999999,0,sub_2
0.0127665999999997,0.0107450000000012,-0.036799,0.0188138000000005,0.1384874000000007,0.0056205999999999,0,sub_2
0.0145463999999997,0.0116106000000012,-0.0374368,0.0243444000000005,0.1346330000000008,0.0056641999999999,0,sub_2
0.0171813999999997,0.0090482000000012,-0.0382626,0.0343738000000005,0.1360842000000008,0.0070141999999999,0,sub_2
0.0244581999999997,0.0056480000000012,-0.038175,0.0409568000000005,0.1277572000000008,0.005789,0,sub_2
0.0322233999999996,0.0035388000000012,-0.0392906,0.0402630000000005,0.1122210000000008,0.0021722,0,sub_2
0.0401163999999996,0.0035186000000012,-0.0420724,0.0327126000000005,0.0905292000000008,-0.0012709999999999,0,sub_2
0.0469395999999997,0.0015656000000012,-0.0458248,0.0210610000000005,0.0609586000000007,-0.0021689999999999,0,sub_2
0.0491301999999997,0.0011398000000012,-0.0493886,0.0060012000000005,0.0348002000000008,-0.0009587999999999,0,sub_2
0.0386181999999997,0.0031906000000012,-0.0536118,-0.0049737999999994,0.0173552000000008,0.0021916,0,sub_2
0.0285951999999997,0.0071418000000012,-0.0546394,-0.0080491999999994,9.900000000079916e-05,0.0045424,0,sub_2
0.0176661999999997,0.0095840000000013,-0.0518354,-0.0051339999999994,-0.0141927999999992,0.0062902,0,sub_2
0.0068997999999997,0.0130676000000013,-0.0461812,0.0025244000000005,-0.0195451999999992,0.0061368,0,sub_2
-0.0003846000000002,0.0154256000000012,-0.0402032,0.0131806000000005,-0.0251107999999992,0.003441,0,sub_2
0.0006153999999997,0.0149888000000012,-0.0341068,0.0219212000000005,-0.0306653999999991,-0.0003363999999999,0,sub_2
0.0009265999999997,0.0124998000000012,-0.0279118,0.0266546000000005,-0.0232197999999992,-0.0015947999999999,0,sub_2
-4.820000000027112e-05,0.0097314000000012,-0.021915,0.0276050000000005,-0.0017043999999992,-0.0016155999999999,0,sub_2
0.0003023999999997,0.0079374000000012,-0.018941,0.0243002000000005,0.0232322000000007,-0.0010295999999999,0,sub_2
0.0029645999999997,0.0065984000000012,-0.0193156,0.0188378000000005,0.0426376000000007,-0.0006653999999999,0,sub_2
0.0081577999999997,0.0064428000000012,-0.0224024,0.0129744000000005,0.0566246000000007,-0.0009675999999999,0,sub_2
0.0131039999999997,0.0067954000000012,-0.0284706,0.0102802000000005,0.0629332000000007,-0.0018787999999999,0,sub_2
0.0194917999999997,0.0068030000000012,-0.0361436,0.0099032000000005,0.0630532000000007,-0.0023385999999999,0,sub_2
0.0270729999999997,0.0063958000000012,-0.0441166,0.0111874000000005,0.0529408000000007,-0.0027735999999999,0,sub_2
0.0304987999999997,0.0066898000000012,-0.0488996,0.0137316000000005,0.0402596000000007,-0.0012737999999999,0,sub_2
0.0281309999999997,0.0059990000000012,-0.0496376,0.0151658000000005,0.0293792000000007,0.0011002,0,sub_2
0.0250511999999997,0.0069424000000012,-0.0482394,0.0146834000000005,0.0178724000000007,0.0019662,0,sub_2
0.0215941999999997,0.0074030000000012,-0.0477248,0.0133562000000005,0.0074374000000007,0.0019702,0,sub_2
0.0184847999999997,0.0081632000000012,-0.0476768,0.0124556000000005,-0.0046967999999992,0.0002702,0,sub_2
0.0187115999999996,0.0076024000000012,-0.0470872,0.0102850000000005,-0.0185185999999992,-0.0022941999999999,0,sub_2
0.0216501999999996,0.0069682000000012,-0.0470964,0.0076944000000005,-0.0299987999999992,-0.0040099999999999,0,sub_2
0.0236757999999996,0.0041566000000012,-0.0465476,0.0036158000000005,-0.0387101999999992,-0.0042443999999999,0,sub_2
0.0262493999999996,0.0022418000000012,-0.0461322,-0.0008913999999994,-0.0478459999999992,-0.0044809999999999,0,sub_2
0.0254545999999996,0.0009928000000012,-0.0456408,-0.0056003999999994,-0.0535757999999991,-0.0038687999999999,0,sub_2
0.0226929999999997,0.0009386000000012,-0.0438078,-0.0100821999999994,-0.0541975999999991,-0.0043265999999999,0,sub_2
0.0203167999999997,0.0013070000000012,-0.0421966,-0.0128473999999994,-0.0548167999999991,-0.0069089999999999,0,sub_2
0.0195389999999997,0.0014026000000012,-0.0425692,-0.0156125999999994,-0.0567091999999991,-0.0107713999999999,0,sub_2
0.0184657999999997,0.0012154000000012,-0.0423288,-0.0211531999999994,-0.0633749999999991,-0.0157429999999999,0,sub_2
0.0197437999999997,0.0012226000000012,-0.0410254,-0.0294761999999993,-0.0727971999999991,-0.0215851999999999,0,sub_2
0.0188271999999997,0.0025684000000012,-0.0408872,-0.0403787999999994,-0.0856227999999991,-0.0265863999999999,0,sub_2
0.0156049999999997,0.0042032000000012,-0.0403492,-0.0525339999999993,-0.0905677999999991,-0.0298969999999999,0,sub_2
0.0104085999999997,0.0067858000000012,-0.0390848,-0.0623007999999993,-0.0852985999999992,-0.0321359999999999,0,sub_2
0.0038661999999997,0.0083020000000012,-0.038774,-0.0668845999999993,-0.0635395999999992,-0.0349731999999999,0,sub_2
-0.0025250000000002,0.0117624000000012,-0.0386824,-0.0677951999999994,-0.0313545999999992,-0.0375843999999999,0,sub_2
-0.0052170000000002,0.0131828000000012,-0.039419,-0.0646623999999994,-0.0023761999999992,-0.0410177999999999,0,sub_2
-0.0038026000000002,0.0138884000000012,-0.0421834,-0.0607739999999994,0.0079336000000007,-0.0444451999999999,0,sub_2
0.0023335999999997,0.0148582000000012,-0.0469056,-0.0588777999999994,0.0022710000000007,-0.0478657999999999,0,sub_2
0.0114425999999997,0.0167932000000012,-0.0515048,-0.0551063999999994,-0.0108653999999992,-0.0487001999999999,0,sub_2
0.0206609999999997,0.0140770000000012,-0.0546408,-0.0481409999999994,-0.0229577999999992,-0.0469497999999999,0,sub_2
0.0273821999999997,0.0109676000000012,-0.056136,-0.0426365999999994,-0.0250425999999992,-0.0424449999999999,0,sub_2
0.0305839999999997,0.0101984000000012,-0.0549366,-0.0387823999999994,-0.0165559999999992,-0.0368741999999999,0,sub_2
0.0284321999999997,0.0097196000000012,-0.0531164,-0.0357605999999994,-0.0021059999999992,-0.0300349999999999,0,sub_2
0.0239789999999997,0.0094622000000012,-0.0493024,-0.0365939999999994,0.0083128000000007,-0.0240719999999999,0,sub_2
0.0181925999999997,0.0101468000000012,-0.0449002,-0.0392057999999994,0.0122228000000007,-0.0194099999999999,0,sub_2
0.0127869999999997,0.0106704000000012,-0.0412696,-0.0403113999999994,0.0169874000000007,-0.0166613999999999,0,sub_2
0.0081055999999997,0.0097640000000012,-0.0398036,-0.0407625999999994,0.0238846000000008,-0.0149789999999999,0,sub_2
0.0076283999999997,0.0110508000000012,-0.0371104,-0.0418671999999994,0.0267402000000007,-0.0143643999999999,0,sub_2
0.0086289999999997,0.0120128000000012,-0.0350946,-0.0421527999999994,0.0227718000000008,-0.0128807999999999,0,sub_2
0.0097345999999997,0.0127160000000012,-0.0337452,-0.0415519999999994,0.0165808000000008,-0.0103049999999999,0,sub_2
0.0053353999999997,0.0146694000000012,-0.0289288,-0.0386117999999994,0.0103748000000008,-0.0060035999999999,0,sub_2
-0.0004838000000002,0.0154300000000012,-0.0215122,-0.0296817999999994,0.0073446000000007,-0.0018781999999999,0,sub_2
-0.0100154000000002,0.0138920000000012,-0.0122446,-0.0177959999999994,0.0099372000000007,0.0018248,0,sub_2
-0.0211718000000002,0.0112836000000012,-0.0026092,-0.0052373999999994,0.0172248000000007,0.0029628,0,sub_2
-0.0301536000000002,0.0103702000000012,0.0075385999999999,0.0049932000000005,0.0245378000000007,-0.0001883999999999,0,sub_2
-0.0233314000000002,0.0061262000000012,0.0144253999999999,0.0173796000000005,0.0293166000000007,-0.0107989999999999,0,sub_2
-0.0136404000000002,0.0077618000000012,0.0039309999999999,0.0318338000000005,0.0096258000000008,-0.0311913999999999,0,sub_2
-0.0154074000000002,0.0112710000000012,-0.0056948,0.0148862000000005,-0.0351705999999992,-0.0560351999999999,0,sub_2
-0.0473488000000002,0.0282104000000012,-0.0250064,-0.0098665999999994,0.0170942000000008,-0.0511475999999999,0,sub_2
-0.0903992000000002,0.0347692000000012,-0.055653,-0.0359537999999994,0.1741474000000007,-0.0282291999999999,0,sub_2
-0.1511296000000002,0.0507334000000012,-0.0599654,-0.0222361999999994,0.2906580000000008,-0.0242087999999999,0,sub_2
-0.1199002000000002,0.0490228000000012,-0.0547522,0.0308914000000005,0.3384550000000008,-0.0268751999999999,0,sub_2
0.0018331999999997,0.0380786000000012,-0.0338542,0.0917918000000005,0.3080478000000007,-0.0330191999999999,0,sub_2
0.1176793999999997,0.0129250000000012,-0.0063276,0.1345968000000005,0.2811358000000007,-0.0450625999999999,0,sub_2
0.1729811999999997,-0.0058123999999987,0.0004959999999999,0.1636166000000005,0.1662784000000007,-0.0650089999999999,0,sub_2
0.2362681999999997,-0.0338437999999987,-0.0170764,0.1474014000000005,-0.0190401999999992,-0.0608255999999999,0,sub_2
0.2058317999999997,-0.0379943999999987,-0.0320674,0.0621816000000005,-0.1100201999999992,-0.0388715999999999,0,sub_2
0.0898929999999997,-0.0288709999999987,-0.0555328,-0.0133493999999994,-0.0743161999999992,-0.0044072,0,sub_2
0.0039163999999997,-0.0149931999999987,-0.065502,-0.0602305999999994,-0.1171185999999992,0.0103605999999999,0,sub_2
-0.0162162000000002,0.0069132000000012,-0.047836,-0.0786373999999994,-0.1474149999999992,0.0165519999999999,0,sub_2
-0.0318840000000002,0.0319610000000012,-0.0332686,-0.0893101999999994,-0.0739689999999992,0.019887,0,sub_2
-0.0420982000000002,0.0420990000000012,-0.0140908,-0.0695367999999994,-0.0193619999999992,0.0193994,0,sub_2
-0.0340400000000002,0.0374472000000012,-0.0062888,-0.0366205999999994,0.0088092000000007,0.0117736,0,sub_2
-0.0141730000000002,0.0294128000000012,-0.0135876,-0.0083623999999994,0.0172816000000007,-0.0002175999999999,0,sub_2
0.0131853999999997,0.0161090000000012,-0.0224572,0.0050350000000005,-0.0019033999999991,-0.0092861999999999,0,sub_2
0.0350991999999997,0.0032020000000013,-0.0321708,0.0106824000000005,-0.0201363999999991,-0.0118689999999999,0,sub_2
0.0488285999999997,-0.0042259999999986,-0.0421078,0.0063222000000005,-0.0287667999999992,-0.0096199999999999,0,sub_2
0.0487363999999997,-0.0029039999999986,-0.0478324,-0.0002021999999994,-0.0403877999999992,-0.0035367999999999,0,sub_2
0.0403707999999997,-0.0008761999999986,-0.0456632,-0.0091053999999994,-0.0569093999999992,0.0046726,0,sub_2
0.0255177999999997,0.0034552000000013,-0.0370304,-0.0177501999999994,-0.0653279999999992,0.0109506,0,sub_2
0.0092519999999997,0.0091530000000012,-0.0280268,-0.0260649999999994,-0.0610489999999992,0.0136644,0,sub_2
-0.0023804000000002,0.0124734000000012,-0.0227266,-0.0292433999999994,-0.0580473999999991,0.0117154,0,sub_2
-0.0066502000000002,0.0146694000000012,-0.0221968,-0.0253575999999994,-0.0531401999999991,0.0066088,0,sub_2
-0.0057548000000002,0.0157702000000012,-0.0254474,-0.0137577999999994,-0.0427135999999991,-0.0001601999999999,0,sub_2
0.0001503999999997,0.0141542000000012,-0.0284796,0.0011828000000005,-0.0418563999999991,-0.0065713999999999,0,sub_2
0.0107541999999996,0.0102158000000012,-0.030188,0.0133084000000005,-0.0484531999999991,-0.0112833999999999,0,sub_2
0.0197219999999996,0.0068742000000012,-0.0292186,0.0188204000000005,-0.0501453999999991,-0.0113477999999999,0,sub_2
0.0246313999999997,0.0039418000000012,-0.027962,0.0162394000000005,-0.0447929999999992,-0.0078457999999999,0,sub_2
0.0253851999999997,0.0032380000000012,-0.028836,0.0074678000000005,-0.0379359999999992,-0.0022525999999999,0,sub_2
0.0219419999999997,0.0046668000000012,-0.0316898,-0.0031777999999994,-0.0276925999999992,0.0027873999999999,0,sub_2
0.0154233999999997,0.0071842000000012,-0.0350006,-0.0097577999999994,-0.0166043999999992,0.0061455999999999,0,sub_2
0.0108935999999997,0.0097314000000012,-0.0371598,-0.0098431999999994,-0.0090535999999992,0.0064631999999999,0,sub_2
0.0067837999999997,0.0110664000000012,-0.039288,-0.0054667999999994,-0.0070525999999992,0.0055371999999999,0,sub_2
0.0051165999999997,0.0113934000000012,-0.039459,0.0016862000000005,-0.0044223999999992,0.0046297999999999,0,sub_2
0.0072447999999997,0.0115066000000012,-0.0390704,0.0088412000000005,-0.0013659999999992,0.0037217999999999,0,sub_2
0.0103985999999997,0.0112926000000012,-0.0382818,0.0149254000000005,0.0012664000000007,0.0032339999999999,0,sub_2
0.0120451999999997,0.0106584000000012,-0.0383314,0.0192150000000005,0.0065762000000007,0.0036844,0,sub_2
0.0136139999999997,0.0100076000000012,-0.0366792,0.0215908000000005,0.0135962000000007,0.004333,0,sub_2
0.0145787999999997,0.0090152000000012,-0.036251,0.0211756000000005,0.0170032000000007,0.0051804,0,sub_2
0.0137231999999997,0.0073426000000012,-0.0361392,0.0184142000000005,0.0206314000000007,0.006011,0,sub_2
0.0126993999999997,0.0065844000000012,-0.0352688,0.0145928000000005,0.0253302000000007,0.0064056,0,sub_2
0.0118127999999997,0.0063198000000012,-0.0354072,0.0120476000000005,0.0297472000000007,0.0064142,0,sub_2
0.0112699999999997,0.0072564000000012,-0.036152,0.0118372000000005,0.0311740000000007,0.0062292,0,sub_2
0.0110103999999997,0.0080580000000012,-0.0354202,0.0135510000000005,0.0325976000000007,0.005203,0,sub_2
0.0114525999999997,0.0092136000000012,-0.0362846,0.0167498000000005,0.0327350000000007,0.0048298,0,sub_2
0.0113881999999997,0.0092548000000012,-0.0383918,0.0212296000000005,0.0337178000000007,0.0051056,0,sub_2
0.0119901999999997,0.0084850000000012,-0.0381418,0.0246456000000005,0.0345562000000007,0.0055556,0,sub_2
0.0124721999999997,0.0076828000000012,-0.0360276,0.0265602000000005,0.0339078000000007,0.0062108,0,sub_2
0.0133507999999997,0.0071576000000012,-0.0345504,0.0263440000000005,0.0339060000000007,0.0068502,0,sub_2
0.0136277999999997,0.0062692000000012,-0.033298,0.0259352000000005,0.0335928000000007,0.0073642,0,sub_2
0.0148291999999997,0.0058050000000012,-0.034224,0.0248700000000005,0.0294476000000007,0.0076648,0,sub_2
0.0153233999999997,0.0056416000000012,-0.0369552,0.0225158000000005,0.0233896000000007,0.007959,0,sub_2
0.0152163999999997,0.0058510000000012,-0.0402182,0.0180432000000005,0.0201112000000007,0.0075938,0,sub_2
0.0155691999999997,0.0062448000000012,-0.0402546,0.0148422000000005,0.0151230000000007,0.0074534,0,sub_2
0.0154863999999997,0.0071696000000012,-0.0392074,0.0109976000000005,0.0144964000000007,0.007641,0,sub_2
0.0143875999999997,0.0082134000000012,-0.0378484,0.0092944000000005,0.0153546000000007,0.007628,0,sub_2
0.0142599999999997,0.0087658000000012,-0.0376324,0.0101894000000005,0.0175244000000007,0.0074731999999999,0,sub_2
0.0151067999999997,0.0089066000000012,-0.0380476,0.0140632000000005,0.0173418000000007,0.0069149999999999,0,sub_2
0.0151161999999997,0.0086686000000012,-0.0382244,0.0177282000000005,0.0180130000000007,0.0061405999999999,0,sub_2
0.0156743999999997,0.0077980000000012,-0.0373304,0.0215912000000005,0.0148502000000007,0.0049451999999999,0,sub_2
0.0162937999999997,0.0065608000000012,-0.0352488,0.0233138000000005,0.0104158000000007,0.0039501999999999,0,sub_2
