userAcceleration.x,userAcceleration.y,userAcceleration.z,rotationRate.x,rotationRate.y,rotationRate.z,label,subject
0.0171383999999996,-8.639999999869317e-05,-0.0306079999999999,0.0091560000000006,0.0051412000000007,-0.0115014000000001,0,sub_3
0.0168061999999996,0.0010910000000013,-0.0294235999999999,0.0089758000000006,0.0035510000000007,-0.0119006000000001,0,sub_3
0.0159045999999996,0.0015098000000012,-0.0282313999999999,0.0088022000000005,0.0047252000000007,-0.0110216000000001,0,sub_3
0.0154615999999996,0.0022896000000012,-0.0273693999999999,0.0082020000000005,0.0054766000000007,-0.0105722000000001,0,sub_3
0.0156489999999996,0.0024136000000012,-0.0263145999999999,0.0060720000000005,0.0069728000000007,-0.0099480000000001,0,sub_3
0.0148699999999996,0.0014444000000012,-0.0271913999999999,0.0022342000000005,0.0076254000000007,-0.0099756000000001,0,sub_3
0.0144123999999995,0.0005658000000012,-0.0277751999999999,-0.0005387999999994,0.0078480000000007,-0.0099952,0,sub_3
0.0150655999999996,-0.0007151999999986,-0.0281035999999999,-0.0030683999999993,0.0068544000000007,-0.011275,0,sub_3
0.0155613999999996,-0.0018453999999986,-0.0283743999999999,-0.0060323999999993,0.0050066000000007,-0.0117024,0,sub_3
0.0154141999999996,-0.0026451999999986,-0.0284911999999999,-0.0064443999999993,0.0003836000000007,-0.012963,0,sub_3
0.0160153999999996,-0.0018913999999986,-0.0262295999999999,-0.0057933999999993,-0.0033977999999992,-0.012508,0,sub_3
0.0159661999999996,-0.0010917999999986,-0.0251787999999999,-0.0059967999999993,-0.0065403999999992,-0.0112052,0,sub_3
0.0151941999999995,0.0001712000000013,-0.0243955999999999,-0.0051615999999993,-0.0080449999999992,-0.0086338000000001,0,sub_3
0.0142751999999996,0.0007850000000013,-0.0244787999999999,-0.0034651999999993,-0.0078479999999992,-0.0060584000000001,0,sub_3
0.0139763999999996,0.0015060000000012,-0.0254833999999999,-0.0017639999999993,-0.0065857999999992,-0.0034844000000001,0,sub_3
0.0144959999999996,0.0019784000000012,-0.0264691999999999,-0.0004717999999993,-0.0061945999999992,-0.0025982,0,sub_3
0.0137595999999996,-0.0003029999999987,-0.0271329999999999,0.0010348000000006,-0.0062275999999992,-0.002351,0,sub_3
0.0140197999999996,-0.0016937999999987,-0.0274295999999999,0.0010488000000006,-0.0064667999999992,-0.0025412,0,sub_3
0.0148137999999996,-0.0019223999999987,-0.0274005999999999,0.0002122000000006,-0.0056395999999992,-0.0023114,0,sub_3
0.0145385999999996,-0.0020173999999986,-0.0271107999999999,-0.0010491999999993,-0.0037481999999992,-0.001445,0,sub_3
0.0135083999999995,-0.0029399999999986,-0.0276717999999999,-0.0012577999999993,-0.0009845999999992,0.0002589999999998,0,sub_3
0.0143543999999996,-0.0010991999999986,-0.0274705999999999,-0.0018921999999993,0.0007202000000007,0.0006797999999998,0,sub_3
0.0144611999999996,0.0001210000000013,-0.0277391999999999,-0.0016711999999993,0.0026360000000007,0.0008925999999998,0,sub_3
0.0142941999999996,0.0008134000000013,-0.0275691999999999,-0.0008119999999993,0.0032748000000007,0.0002567999999998,0,sub_3
0.0144083999999996,0.0010606000000013,-0.0264933999999999,0.0004650000000006,0.0034106000000007,-0.0005488000000001,0,sub_3
0.0146365999999996,0.0013670000000012,-0.0259563999999999,0.0017412000000006,0.0031210000000007,-0.0015674000000001,0,sub_3
0.0146169999999995,0.0012900000000013,-0.0262693999999999,0.0034412000000006,0.0036762000000007,-0.0010888000000001,0,sub_3
0.0148847999999995,0.0005738000000013,-0.0266835999999999,0.0051404000000006,0.0040184000000007,-0.0006098000000001,0,sub_3
0.0152875999999996,-0.0007417999999986,-0.0278627999999999,0.0066242000000006,0.0043594000000007,0.0002949999999998,0,sub_3
0.0162365999999995,-0.0018457999999986,-0.0294177999999999,0.0070510000000006,0.0045700000000007,0.0005113999999998,0,sub_3
0.0167997999999996,-0.0023803999999986,-0.0297113999999999,0.0070520000000006,0.0049952000000007,0.0007243999999998,0,sub_3
0.0174089999999996,-0.0022647999999986,-0.0298443999999999,0.0063846000000006,0.0055482000000007,0.0005553999999998,0,sub_3
0.0182875999999996,-0.0015357999999986,-0.0309331999999999,0.0061438000000005,0.0065240000000007,0.0008159999999998,0,sub_3
0.0187463999999996,-0.0008631999999986,-0.0307963999999999,0.0056830000000005,0.0060094000000007,0.0010769999999998,0,sub_3
0.0187685999999996,-0.0010625999999986,-0.0304475999999999,0.0058594000000005,0.0057022000000007,0.0021967999999998,0,sub_3
0.0202839999999996,-0.0003631999999986,-0.0303629999999999,0.0064568000000005,0.0032664000000007,0.0024677999999998,0,sub_3
0.0220107999999996,-0.0002165999999986,-0.0299497999999999,0.0053774000000006,0.0005004000000007,0.0024637999999998,0,sub_3
0.0223313999999996,-0.0011349999999986,-0.0302495999999999,0.0017338000000006,-0.0039575999999992,0.0015893999999998,0,sub_3
0.0224053999999996,-0.0026957999999986,-0.0318795999999999,-0.0006179999999993,-0.0062879999999992,0.0002939999999998,0,sub_3
0.0227081999999996,-0.0033755999999986,-0.0333675999999999,-0.0025411999999993,-0.0088303999999992,-0.0016390000000001,0,sub_3
0.0213557999999996,-0.0044755999999986,-0.0342885999999999,-0.0044935999999993,-0.0114457999999992,-0.0028744000000001,0,sub_3
0.0199815999999996,-0.0049057999999986,-0.0346919999999999,-0.0047427999999993,-0.0149191999999992,-0.0040968000000001,0,sub_3
0.0189799999999996,-0.0046059999999986,-0.0336031999999999,-0.0026401999999993,-0.0162745999999992,-0.0042372000000001,0,sub_3
0.0184929999999996,-0.0027793999999986,-0.0323175999999999,-0.0013921999999993,-0.0167789999999992,-0.0033164000000001,0,sub_3
0.0177037999999996,-0.0009827999999986,-0.0315699999999999,-0.0005679999999993,-0.0155817999999992,-0.0013326000000001,0,sub_3
0.0171503999999996,-0.0003923999999986,-0.0318583999999999,0.0007226000000005,-0.0102717999999992,0.0016605999999998,0,sub_3
0.0172351999999996,-0.0004579999999986,-0.0327751999999999,0.0013722000000005,-0.0060215999999992,0.0037961999999999,0,sub_3
0.0176953999999995,-0.0010175999999986,-0.0331325999999999,0.0015840000000005,-0.0020175999999992,0.0057687999999998,0,sub_3
0.0179365999999995,-0.0016039999999986,-0.0334611999999999,0.0013662000000005,0.0005000000000007,0.0068855999999998,0,sub_3
0.0180991999999995,-0.0023105999999986,-0.0334285999999999,0.0011428000000005,0.0013148000000007,0.0075773999999998,0,sub_3
0.0183213999999995,-0.0027227999999986,-0.0328523999999999,0.0004888000000005,0.0002178000000007,0.0072003999999998,0,sub_3
0.0176649999999995,-0.0027867999999986,-0.0322139999999999,0.0006968000000006,0.0018842000000007,0.0076803999999998,0,sub_3
0.0169929999999995,-0.0020849999999986,-0.0316293999999999,0.0013428000000006,0.0033726000000007,0.0078965999999998,0,sub_3
0.0162365999999996,-0.0014553999999986,-0.0312219999999999,0.0026318000000005,0.0048612000000007,0.0074763999999998,0,sub_3
0.0154307999999995,-0.0013527999999986,-0.0302673999999999,0.0039282000000005,0.0072054000000007,0.0062005999999998,0,sub_3
0.0155177999999996,-0.0008081999999986,-0.0302433999999999,0.0047980000000006,0.0112340000000007,0.0051695999999998,0,sub_3
0.0159603999999996,0.0001440000000013,-0.0305559999999999,0.0058822000000006,0.0154750000000007,0.0041397999999998,0,sub_3
0.0164499999999996,0.0006358000000013,-0.0308489999999999,0.0069642000000006,0.0190776000000007,0.0028971999999998,0,sub_3
0.0171085999999996,0.0006964000000013,-0.0307981999999999,0.0076158000000006,0.0224660000000007,0.0022927999999998,0,sub_3
0.0181599999999996,0.0006178000000013,-0.0310567999999999,0.0082656000000006,0.0256406000000007,0.0019021999999998,0,sub_3
0.0183913999999996,0.0004334000000013,-0.0309713999999999,0.0082762000000006,0.0275598000000007,0.0014725999999998,0,sub_3
0.0188519999999996,-3.499999999869361e-05,-0.0311829999999999,0.0074294000000006,0.0279932000000007,0.0003977999999998,0,sub_3
0.0196117999999996,-0.0007369999999986,-0.0320011999999999,0.0063694000000006,0.0280028000000007,-0.0011052000000001,0,sub_3
0.0208217999999996,-0.0012841999999986,-0.0325445999999999,0.0059266000000006,0.0264962000000007,-0.0025796000000001,0,sub_3
0.0220029999999996,-0.0008931999999986,-0.0330531999999999,0.0059020000000005,0.0232830000000007,-0.0038352000000001,0,sub_3
0.0221191999999996,-0.0023369999999986,-0.0329995999999999,0.0060840000000005,0.0192142000000007,-0.0044474000000001,0,sub_3
0.0217253999999996,-0.0039131999999986,-0.0330553999999999,0.0062670000000006,0.0162072000000007,-0.0042064000000001,0,sub_3
0.0221543999999996,-0.0043849999999986,-0.0317447999999999,0.0072958000000006,0.0123416000000007,-0.0031038000000001,0,sub_3
0.0233241999999995,-0.0037883999999987,-0.0310903999999999,0.0068624000000006,0.0117006000000007,-0.0022514000000001,0,sub_3
0.0226923999999996,-0.0050043999999987,-0.0313177999999999,0.0042982000000006,0.0121304000000007,-0.0009880000000001,0,sub_3
0.0232963999999996,-0.0050317999999987,-0.0319135999999999,0.0021646000000006,0.0125622000000007,-0.0005762000000001,0,sub_3
0.0239227999999996,-0.0048825999999986,-0.0316589999999999,0.0008668000000006,0.0123450000000007,-0.0001440000000001,0,sub_3
0.0232731999999996,-0.0053925999999986,-0.0327535999999999,-0.0023561999999993,0.0106448000000007,-0.0001506000000001,0,sub_3
0.0209589999999996,-0.0071733999999986,-0.0326177999999999,-0.0040951999999993,0.0072332000000007,0.0002825999999998,0,sub_3
0.0208213999999996,-0.0049401999999986,-0.0320209999999999,-0.0039109999999993,0.0046664000000007,0.0009417999999998,0,sub_3
0.0199203999999996,-0.0037953999999986,-0.0309781999999999,-0.0035163999999993,0.0025206000000007,0.0026699999999998,0,sub_3
0.0194199999999996,-0.0005305999999987,-0.0303335999999999,-0.0028849999999993,0.0014496000000007,0.0035303999999998,0,sub_3
0.0186655999999996,0.0002880000000012,-0.0292013999999999,-0.0016027999999993,0.0031444000000007,0.0048189999999999,0,sub_3
0.0186855999999996,0.0003108000000012,-0.0295483999999999,-0.0020313999999993,0.0033564000000007,0.0054565999999998,0,sub_3
0.0178319999999996,-0.0020099999999986,-0.0292095999999999,-0.0020427999999993,0.0031560000000007,0.0058893999999998,0,sub_3
0.0171031999999996,-0.0021291999999986,-0.0291635999999999,-0.0035391999999993,0.0036052000000007,0.0050293999999998,0,sub_3
0.0163555999999996,-0.0045591999999986,-0.0295683999999999,-0.0058965999999993,0.0032018000000007,0.0050189999999998,0,sub_3
0.0166597999999996,-0.0022163999999986,-0.0294605999999999,-0.0073871999999993,0.0051416000000007,0.0043707999999998,0,sub_3
0.0161771999999996,-0.0014301999999986,-0.0295663999999999,-0.0086615999999993,0.0083564000000007,0.0043633999999998,0,sub_3
0.0155295999999996,-0.0003585999999986,-0.0297699999999999,-0.0109953999999993,0.0107108000000007,0.0037031999999998,0,sub_3
0.0152267999999996,-3.5799999998673224e-05,-0.0298117999999999,-0.0126849999999993,0.0139152000000007,0.0030461999999998,0,sub_3
0.0156641999999996,-0.0002417999999986,-0.0309773999999999,-0.0141489999999993,0.0196762000000007,0.0021739999999998,0,sub_3
0.0144597999999996,-0.0032361999999986,-0.0314421999999999,-0.0160549999999993,0.0230908000000007,0.0023697999999998,0,sub_3
0.0139639999999995,-0.0024527999999986,-0.0318997999999999,-0.0164747999999993,0.0275594000000007,0.0025651999999998,0,sub_3
0.0144841999999995,-0.0007587999999986,-0.0327207999999999,-0.0160409999999993,0.0324494000000007,0.0031933999999998,0,sub_3
0.0145205999999995,0.0002822000000013,-0.0329309999999999,-0.0149709999999993,0.0373338000000007,0.0046807999999998,0,sub_3
0.0139483999999995,0.0021318000000012,-0.0323191999999999,-0.0132731999999993,0.0390218000000007,0.0057491999999998,0,sub_3
0.0141701999999995,0.0042976000000012,-0.0325937999999999,-0.0098665999999993,0.0402812000000007,0.0059755999999998,0,sub_3
0.0139205999999996,0.0055126000000013,-0.0316643999999999,-0.0060181999999993,0.0415478000000007,0.0055735999999998,0,sub_3
0.0126039999999996,0.0054704000000013,-0.0303187999999999,-0.0013047999999993,0.0447314000000007,0.0045341999999998,0,sub_3
0.0114441999999996,0.0066444000000013,-0.0297939999999999,0.0057386000000006,0.0495532000000007,0.0039303999999998,0,sub_3
0.0098215999999996,0.0076164000000013,-0.0283955999999999,0.0166312000000006,0.0579768000000007,0.0050581999999998,0,sub_3
0.0078717999999996,0.0080736000000012,-0.0253745999999999,0.0283792000000006,0.0683090000000007,0.0076849999999999,0,sub_3
0.0052193999999996,0.0075428000000012,-0.0242363999999999,0.0409836000000006,0.0811870000000007,0.0122371999999998,0,sub_3
0.0029853999999996,0.0071520000000012,-0.0234431999999999,0.0569934000000006,0.0934090000000007,0.0180959999999998,0,sub_3
0.0036787999999996,0.0085316000000012,-0.0225303999999999,0.0743014000000006,0.1041930000000007,0.0235441999999998,0,sub_3
0.0041415999999996,0.0089536000000012,-0.0225371999999999,0.0875536000000005,0.1139286000000007,0.0283243999999998,0,sub_3
0.0047581999999996,0.0110580000000012,-0.0255641999999999,0.1008116000000006,0.1221838000000007,0.0303291999999998,0,sub_3
0.0063979999999996,0.0143798000000012,-0.0293851999999999,0.1212808000000006,0.1224760000000007,0.0294023999999998,0,sub_3
0.0076357999999996,0.0205724000000012,-0.0349897999999999,0.1517420000000006,0.1114540000000007,0.0253551999999998,0,sub_3
0.0051751999999996,0.0247302000000012,-0.0383219999999999,0.1924202000000006,0.0901886000000007,0.0166921999999998,0,sub_3
0.0034853999999995,0.0301896000000012,-0.0380157999999999,0.2476364000000006,0.0699588000000007,0.0027881999999998,0,sub_3
0.0006023999999995,0.0325206000000012,-0.0364679999999999,0.3124428000000006,0.0479878000000007,-0.0101918000000001,0,sub_3
-0.0022200000000004,0.0305792000000013,-0.0306949999999999,0.3694534000000006,0.0401854000000007,-0.0264480000000001,0,sub_3
-0.0021096000000004,0.0212972000000013,-0.0244915999999999,0.4004642000000006,0.0399290000000007,-0.0424682000000001,0,sub_3
0.0090641999999995,0.0075950000000013,-0.0277383999999999,0.4105808000000007,0.0522800000000007,-0.0496772000000001,0,sub_3
0.0215111999999996,-0.0065681999999986,-0.0371847999999999,0.4150644000000006,0.0641502000000007,-0.0383378000000001,0,sub_3
0.0403141999999995,-0.0155937999999986,-0.0481847999999999,0.4168528000000006,0.0650374000000007,-0.0094938000000001,0,sub_3
0.0522121999999996,-0.0226713999999986,-0.0610331999999999,0.4149954000000006,0.0341124000000007,0.0392345999999999,0,sub_3
0.0541091999999995,-0.0241723999999986,-0.0713307999999999,0.4213914000000006,-0.0123927999999992,0.0876133999999999,0,sub_3
0.0446935999999996,-0.0191675999999986,-0.0703723999999999,0.4226866000000006,-0.0662891999999992,0.1240017999999999,0,sub_3
0.0359245999999996,-0.0142497999999986,-0.0679543999999999,0.3992862000000006,-0.1245057999999992,0.1433451999999999,0,sub_3
0.0223671999999996,-0.0132383999999986,-0.0627747999999999,0.3572370000000006,-0.1710343999999992,0.1471703999999998,0,sub_3
0.0124123999999996,-0.0124945999999986,-0.0569523999999999,0.3125510000000006,-0.1959991999999992,0.1419763999999998,0,sub_3
0.0080861999999996,-0.0126763999999986,-0.0503935999999999,0.2660090000000006,-0.2007409999999991,0.1427255999999998,0,sub_3
0.0030693999999996,-0.0146095999999986,-0.0480083999999999,0.2246166000000005,-0.1978359999999991,0.1447827999999998,0,sub_3
-0.0055940000000003,-0.0232231999999986,-0.0452973999999999,0.1890466000000006,-0.1832255999999991,0.1449429999999998,0,sub_3
-0.0124458000000003,-0.0301209999999986,-0.0431059999999999,0.1519040000000006,-0.1585165999999991,0.1252101999999998,0,sub_3
-0.0121320000000004,-0.0351923999999986,-0.0437139999999999,0.1092616000000006,-0.1320479999999991,0.0964637999999998,0,sub_3
-0.0084692000000004,-0.0405805999999987,-0.0440609999999999,0.0659626000000006,-0.1098355999999991,0.0670771999999998,0,sub_3
-0.0015278000000004,-0.0459071999999987,-0.0459789999999999,0.0196220000000006,-0.0895711999999991,0.0479267999999998,0,sub_3
0.0074513999999995,-0.0400025999999986,-0.0465019999999999,-0.0231727999999993,-0.0776675999999991,0.0386395999999998,0,sub_3
0.0171735999999995,-0.0356177999999987,-0.0482241999999999,-0.0658981999999993,-0.0754415999999991,0.0517979999999998,0,sub_3
0.0207427999999996,-0.0343467999999986,-0.0482879999999999,-0.1084475999999993,-0.0764325999999992,0.0700891999999998,0,sub_3
0.0208177999999996,-0.0336747999999986,-0.0526567999999999,-0.1563301999999993,-0.0793139999999992,0.0862089999999999,0,sub_3
0.0157865999999996,-0.0344311999999987,-0.0553687999999999,-0.2043725999999993,-0.0783271999999992,0.0942043999999999,0,sub_3
0.0112137999999996,-0.0368425999999986,-0.0576517999999999,-0.2674771999999993,-0.0710561999999992,0.0888403999999999,0,sub_3
0.0054419999999996,-0.0367645999999986,-0.0616591999999999,-0.3424643999999994,-0.0641089999999992,0.0682249999999999,0,sub_3
0.0064127999999996,-0.0150859999999986,-0.0614685999999999,-0.4138233999999993,-0.0679957999999992,0.0365393999999999,0,sub_3
0.0076739999999996,0.0083532000000013,-0.0575311999999999,-0.4730267999999994,-0.0804189999999992,-0.0021006,0,sub_3
0.0098097999999996,0.0293246000000013,-0.0554889999999999,-0.5119895999999994,-0.1012153999999992,-0.0422976000000001,0,sub_3
0.0127299999999996,0.0468304000000013,-0.0542409999999999,-0.5104931999999993,-0.1358067999999992,-0.0777078000000001,0,sub_3
0.0174819999999996,0.0618392000000013,-0.0503959999999999,-0.4683605999999994,-0.1767991999999991,-0.0927432000000001,0,sub_3
0.0196417999999995,0.0544606000000013,-0.0508303999999999,-0.4094049999999994,-0.2040871999999992,-0.0863144000000001,0,sub_3
0.0160289999999995,0.0354966000000013,-0.0521213999999999,-0.3508359999999993,-0.2109667999999991,-0.0683776000000001,0,sub_3
0.0059939999999995,0.0185680000000013,-0.0565417999999999,-0.3131255999999993,-0.2094513999999991,-0.053802,0,sub_3
-0.0073822000000004,0.0029910000000013,-0.0629283999999999,-0.2930377999999993,-0.2044013999999991,-0.0553772000000001,0,sub_3
-0.0173038000000004,-0.0074019999999986,-0.0683177999999999,-0.2803375999999994,-0.1994657999999992,-0.0751638,0,sub_3
-0.0244270000000003,-0.0118227999999986,-0.0706987999999999,-0.2660899999999994,-0.1930025999999992,-0.10541,0,sub_3
-0.0229186000000004,-0.0042705999999986,-0.0726901999999999,-0.2458967999999993,-0.1887075999999992,-0.1313390000000001,0,sub_3
-0.0114498000000004,0.0050544000000013,-0.0657511999999999,-0.2179133999999993,-0.1851697999999992,-0.1345664,0,sub_3
0.0003271999999995,0.0138720000000013,-0.0562093999999999,-0.2017545999999993,-0.1733943999999992,-0.109686,0,sub_3
0.0062941999999995,0.0162100000000013,-0.0495029999999999,-0.2075701999999993,-0.1483831999999992,-0.072371,0,sub_3
0.0088705999999995,0.0146378000000012,-0.0486565999999999,-0.2327731999999993,-0.1228531999999991,-0.0413878,0,sub_3
0.0137635999999996,0.0105790000000012,-0.0501677999999999,-0.2668667999999993,-0.0951069999999991,-0.0241426,0,sub_3
0.0181749999999996,0.0087172000000012,-0.0556963999999999,-0.2944421999999993,-0.0638837999999991,-0.0295026,0,sub_3
0.0243245999999996,0.0070134000000012,-0.0596789999999999,-0.3060615999999993,-0.0302935999999992,-0.0582494000000001,0,sub_3
0.0348437999999996,0.0085200000000012,-0.0628913999999999,-0.3054507999999993,-0.0002927999999992,-0.1057068000000001,0,sub_3
0.0470803999999995,0.0104376000000013,-0.0626041999999999,-0.2980463999999994,0.0094944000000007,-0.1656960000000001,0,sub_3
0.0603627999999995,0.0064000000000013,-0.0586429999999999,-0.2914469999999994,-0.0143903999999992,-0.2226568000000001,0,sub_3
0.0667425999999995,-0.0142907999999986,-0.0524567999999999,-0.2953205999999994,-0.0690017999999992,-0.2589278000000001,0,sub_3
0.0723569999999996,-0.0387051999999987,-0.0485587999999999,-0.3101587999999993,-0.1433013999999992,-0.2602180000000001,0,sub_3
0.0721781999999996,-0.0652045999999987,-0.0430659999999999,-0.3307439999999993,-0.2296421999999992,-0.2290592,0,sub_3
0.0659457999999996,-0.0856389999999987,-0.0283401999999999,-0.3646407999999993,-0.3104927999999992,-0.1740720000000001,0,sub_3
0.0516575999999996,-0.0949439999999986,-0.0166419999999999,-0.4189533999999993,-0.3801767999999992,-0.123301,0,sub_3
0.0401135999999996,-0.0854317999999986,-0.0071239999999999,-0.4820319999999993,-0.4339527999999992,-0.1003854000000001,0,sub_3
0.0104933999999995,-0.0708851999999986,0.0121344,-0.5512787999999993,-0.4673401999999992,-0.1091586000000001,0,sub_3
-0.0176910000000004,-0.0558951999999986,0.028112,-0.6102889999999994,-0.4715063999999992,-0.1349890000000001,0,sub_3
-0.0460606000000004,-0.0169563999999986,0.0288694,-0.6181785999999995,-0.4523977999999992,-0.1647652000000001,0,sub_3
-0.0507650000000004,0.0146118000000013,0.0355756,-0.5530247999999994,-0.4069569999999992,-0.1829554,0,sub_3
-0.0369786000000003,0.0193580000000013,0.0299416,-0.4357861999999993,-0.3090527999999992,-0.152779,0,sub_3
-0.0059398000000003,0.0231514000000012,0.0089162,-0.2864489999999994,-0.1905729999999992,-0.0745484,0,sub_3
0.0266635999999996,0.0265232000000012,-0.0155467999999999,-0.1494781999999994,-0.1025767999999992,0.0185897999999999,0,sub_3
0.0604831999999996,0.0013058000000013,-0.0330213999999999,-0.0533929999999993,-0.0540243999999992,0.1010245999999999,0,sub_3
0.0693439999999996,-0.0191751999999986,-0.0488547999999999,-0.0070877999999993,-0.0367609999999992,0.1658465999999999,0,sub_3
0.0592415999999996,-0.0172687999999986,-0.0475165999999999,-0.0035795999999993,-0.0831177999999992,0.1937041999999999,0,sub_3
0.0475069999999996,-0.0144185999999986,-0.0368691999999999,-0.0376931999999993,-0.1773609999999991,0.1882455999999999,0,sub_3
0.0286943999999996,-0.0066647999999986,-0.0195143999999999,-0.0777217999999993,-0.2672865999999992,0.1737671999999999,0,sub_3
0.0069365999999996,0.0038594000000013,-0.0076519999999999,-0.1043745999999993,-0.3136267999999992,0.1704355999999998,0,sub_3
-0.0106884000000003,0.0130998000000013,-0.0036387999999999,-0.1136117999999993,-0.3234113999999992,0.1744427999999998,0,sub_3
-0.0222646000000003,0.0201216000000013,-0.0027849999999999,-0.0998553999999993,-0.2991785999999992,0.1764305999999998,0,sub_3
-0.0281880000000003,0.0247656000000013,-0.0051043999999999,-0.0622381999999993,-0.2381613999999992,0.1761879999999999,0,sub_3
-0.0272946000000003,0.0222488000000013,-0.0091405999999999,-0.0076399999999993,-0.1522645999999992,0.1732545999999999,0,sub_3
-0.0180736000000003,0.0157316000000013,-0.0072319999999999,0.0437502000000006,-0.0718807999999992,0.1664603999999999,0,sub_3
-0.0027656000000003,0.0076852000000013,-0.0050135999999999,0.0835424000000006,-0.0068023999999992,0.1611001999999999,0,sub_3
0.0123141999999996,0.0028572000000013,-0.0055761999999999,0.1063852000000006,0.0395784000000007,0.1575683999999999,0,sub_3
0.0259893999999996,-0.0035011999999986,-0.0060511999999999,0.1175976000000006,0.0551344000000007,0.1471581999999998,0,sub_3
0.0373507999999996,-0.0068249999999986,-0.0050739999999999,0.1180628000000005,0.0466790000000007,0.1300807999999998,0,sub_3
0.0412105999999996,-0.0077769999999986,-0.0095985999999999,0.1056880000000006,0.0280496000000007,0.1110037999999999,0,sub_3
0.0380301999999996,-0.0079519999999986,-0.0125781999999999,0.0841374000000006,0.0103000000000007,0.0929299999999998,0,sub_3
0.0341871999999996,-0.0100385999999986,-0.0130477999999999,0.0587432000000005,-0.0029823999999992,0.0799509999999998,0,sub_3
0.0302427999999996,-0.0083477999999986,-0.0145969999999999,0.0288922000000006,-0.0005251999999992,0.0773891999999999,0,sub_3
0.0266501999999996,-0.0058631999999986,-0.0166331999999999,-0.0009463999999993,0.0127654000000007,0.0829319999999998,0,sub_3
0.0305083999999996,-0.0022955999999986,-0.0155539999999999,-0.0267115999999993,0.0356080000000007,0.0938323999999998,0,sub_3
0.0352857999999996,-8.779999999869552e-05,-0.0169849999999999,-0.0516061999999993,0.0648290000000007,0.1072941999999999,0,sub_3
0.0386357999999995,0.0006358000000013,-0.0202029999999999,-0.0737201999999993,0.0946828000000007,0.1199201999999999,0,sub_3
0.0436811999999995,-0.0023685999999986,-0.0224431999999999,-0.0853731999999993,0.1217466000000007,0.1285635999999999,0,sub_3
0.0480695999999995,-0.0061165999999986,-0.0255539999999999,-0.0910661999999993,0.1426230000000007,0.1342655999999999,0,sub_3
0.0484361999999995,-0.0106531999999986,-0.0273325999999999,-0.0944437999999993,0.1547626000000008,0.1382855999999999,0,sub_3
0.0498871999999995,-0.0113949999999986,-0.0279105999999999,-0.0952781999999993,0.1609364000000007,0.1401945999999999,0,sub_3
0.0519677999999995,-0.0099973999999986,-0.0288647999999999,-0.0913971999999993,0.1675370000000008,0.1378629999999999,0,sub_3
0.0507097999999996,-0.0076661999999986,-0.0325853999999999,-0.0834285999999993,0.1752144000000007,0.1291493999999998,0,sub_3
0.0484859999999995,-0.0045867999999986,-0.0366941999999999,-0.0703045999999993,0.1839654000000007,0.1138473999999998,0,sub_3
0.0466119999999995,-0.0028303999999986,-0.0415965999999999,-0.0490809999999993,0.1871632000000007,0.0949771999999998,0,sub_3
0.0423383999999995,0.0007706000000013,-0.0480699999999999,-0.0223565999999993,0.1786288000000007,0.0748785999999998,0,sub_3
