userAcceleration.x,userAcceleration.y,userAcceleration.z,rotationRate.x,rotationRate.y,rotationRate.z,label,subject
-0.0181586000000001,-0.0521195999999987,0.0755738,-0.2057027999999994,-0.3937599999999993,-0.3740504000000001,0,sub_14
-0.0136874000000001,-0.0531949999999987,0.0766661999999999,-0.1694489999999994,-0.4405665999999993,-0.3686098000000001,0,sub_14
-0.0081710000000001,-0.0519739999999987,0.0774519999999999,-0.1404701999999994,-0.4860925999999994,-0.3574532000000001,0,sub_14
-0.0025026000000001,-0.0495527999999987,0.0778315999999999,-0.1206729999999994,-0.5273483999999994,-0.3405978000000001,0,sub_14
0.0058953999999998,-0.0451009999999987,0.0802527999999999,-0.1083293999999994,-0.5647457999999994,-0.3231586000000001,0,sub_14
0.0156891999999998,-0.0407137999999987,0.0846193999999999,-0.1008377999999994,-0.5935883999999993,-0.3096096,0,sub_14
0.0236877999999998,-0.0379501999999987,0.0883873999999999,-0.0990487999999994,-0.6128099999999993,-0.2995312,0,sub_14
0.0313109999999997,-0.0365133999999987,0.0908789999999999,-0.1010457999999994,-0.6202983999999994,-0.2899216000000001,0,sub_14
0.0369179999999998,-0.0368415999999987,0.0897611999999999,-0.1091875999999994,-0.6183899999999994,-0.2805806,0,sub_14
0.0431909999999997,-0.0393451999999987,0.0901727999999999,-0.1234729999999994,-0.6049619999999993,-0.269588,0,sub_14
0.0477567999999997,-0.0426725999999987,0.0875935999999999,-0.1435203999999994,-0.5887561999999994,-0.2556484000000001,0,sub_14
0.0522141999999998,-0.0450657999999987,0.0842013999999999,-0.1633629999999994,-0.5742561999999994,-0.2414914,0,sub_14
0.0553805999999998,-0.0465835999999987,0.0828267999999999,-0.1786979999999994,-0.5569895999999994,-0.2305112000000001,0,sub_14
0.0591327999999998,-0.0469207999999987,0.0853517999999999,-0.1871695999999994,-0.5350469999999994,-0.2226936000000001,0,sub_14
0.0586807999999998,-0.0466307999999987,0.0818169999999999,-0.1890161999999994,-0.5146033999999993,-0.2186734,0,sub_14
0.0583243999999998,-0.0461883999999987,0.0795237999999999,-0.1850843999999994,-0.4948011999999994,-0.2190986,0,sub_14
0.0575165999999997,-0.0456887999999987,0.0782112,-0.1766497999999994,-0.4726609999999994,-0.222059,0,sub_14
0.0562459999999997,-0.0453093999999987,0.0761597999999999,-0.1639379999999994,-0.4496781999999994,-0.2262724,0,sub_14
0.0566587999999997,-0.0449163999999987,0.0748515999999999,-0.1465079999999994,-0.4235073999999993,-0.2325934,0,sub_14
0.0581761999999997,-0.0451645999999987,0.0743025999999999,-0.1256545999999994,-0.3956425999999994,-0.2393202,0,sub_14
0.0638121999999997,-0.0458673999999987,0.0778645999999999,-0.1056201999999994,-0.3601047999999993,-0.2460624000000001,0,sub_14
0.0705735999999998,-0.0466033999999987,0.0790029999999999,-0.0849121999999994,-0.3145659999999993,-0.250249,0,sub_14
0.0778193999999998,-0.0487301999999987,0.0777459999999999,-0.0650891999999994,-0.2718109999999993,-0.2501654000000001,0,sub_14
0.0840347999999998,-0.0524129999999987,0.0759315999999999,-0.0503987999999994,-0.2269263999999993,-0.2454202000000001,0,sub_14
0.0891823999999998,-0.0587197999999987,0.0768901999999999,-0.0344385999999994,-0.1780235999999993,-0.2342618000000001,0,sub_14
0.0949681999999998,-0.0634651999999987,0.0734136,-0.0148845999999994,-0.1289511999999993,-0.2153874000000001,0,sub_14
0.0973825999999998,-0.0676033999999987,0.0731855999999999,0.0023138000000005,-0.0815757999999994,-0.1963136000000001,0,sub_14
0.0994393999999997,-0.0693597999999987,0.0757436,0.0156982000000005,-0.0275849999999993,-0.1766340000000001,0,sub_14
0.1019123999999997,-0.0693169999999987,0.0774881999999999,0.0294778000000005,0.0223444000000005,-0.1539554000000001,0,sub_14
0.1067937999999997,-0.0658029999999987,0.0773851999999999,0.0440822000000005,0.0660914000000005,-0.1310494000000001,0,sub_14
0.1089067999999997,-0.0635721999999987,0.0776177999999999,0.0571938000000005,0.1085712000000005,-0.1096478000000001,0,sub_14
0.1135953999999997,-0.0608023999999987,0.0742583999999999,0.0689752000000005,0.1429476000000006,-0.0852542000000001,0,sub_14
0.1177325999999998,-0.0588447999999987,0.0692855999999999,0.0804992000000005,0.1694342000000006,-0.0589294000000001,0,sub_14
0.1203005999999998,-0.0570003999999987,0.0641201999999999,0.0911506000000005,0.1916626000000006,-0.0326052000000001,0,sub_14
0.1206981999999998,-0.0537745999999987,0.0587857999999999,0.0964694000000005,0.2139114000000005,-0.0067456000000001,0,sub_14
0.1180563999999998,-0.0493141999999987,0.0529813999999999,0.1023940000000005,0.2284882000000005,0.0191281999999998,0,sub_14
0.1144845999999998,-0.0467713999999987,0.0480905999999999,0.1132186000000005,0.2400700000000006,0.0437581999999998,0,sub_14
0.1098053999999997,-0.0468099999999987,0.0437725999999999,0.1300260000000005,0.2501532000000006,0.0650133999999998,0,sub_14
0.1040877999999998,-0.0473591999999987,0.0405763999999999,0.1515362000000005,0.2578936000000006,0.0820315999999999,0,sub_14
0.0975961999999998,-0.0493639999999987,0.0389123999999999,0.1768998000000005,0.2643584000000005,0.0950189999999998,0,sub_14
0.0933689999999998,-0.0523003999999987,0.0392371999999999,0.2014338000000005,0.2712718000000005,0.1030861999999998,0,sub_14
0.0896117999999998,-0.0551849999999987,0.0414149999999999,0.2221558000000005,0.2826804000000005,0.1091981999999998,0,sub_14
0.0884537999999998,-0.0558687999999987,0.0454903999999999,0.2343546000000005,0.2971000000000006,0.1156743999999998,0,sub_14
0.0887667999999998,-0.0548665999999987,0.0494125999999999,0.2363162000000005,0.3145304000000005,0.1239977999999999,0,sub_14
0.0892889999999998,-0.0532721999999987,0.0538061999999999,0.2284710000000005,0.3356094000000006,0.1350585999999999,0,sub_14
0.0869197999999998,-0.0515867999999987,0.0572699999999999,0.2150914000000005,0.3626614000000006,0.1490641999999999,0,sub_14
0.0818963999999998,-0.0508111999999987,0.0591269999999999,0.1967938000000005,0.3897212000000006,0.1653853999999998,0,sub_14
0.0753127999999998,-0.0503567999999987,0.0596565999999999,0.1793630000000005,0.4206094000000006,0.1825621999999999,0,sub_14
0.0695879999999998,-0.0508625999999987,0.0605735999999999,0.1632050000000005,0.4523352000000006,0.2023107999999998,0,sub_14
0.0644449999999998,-0.0509895999999987,0.0619983999999999,0.1489628000000005,0.4846874000000006,0.2226797999999998,0,sub_14
0.0609159999999998,-0.0502831999999987,0.0643303999999999,0.1372752000000004,0.5155400000000007,0.2428547999999998,0,sub_14
0.0594937999999998,-0.0486043999999987,0.0676019999999999,0.1311468000000005,0.5463836000000006,0.2605049999999999,0,sub_14
0.0577259999999998,-0.0477185999999987,0.0713795999999999,0.1288516000000004,0.5742362000000008,0.2769039999999999,0,sub_14
0.0548031999999998,-0.0476005999999987,0.0748355999999999,0.1286890000000005,0.6010194000000006,0.2924645999999998,0,sub_14
0.0521131999999998,-0.0470923999999987,0.0766365999999999,0.1265754000000005,0.6237502000000006,0.3107939999999999,0,sub_14
0.0493883999999998,-0.0457787999999987,0.0766608,0.1190730000000005,0.6394486000000007,0.3342223999999998,0,sub_14
0.0455527999999997,-0.0413557999999987,0.0787262,0.1027502000000005,0.6442912000000007,0.3627305999999998,0,sub_14
0.0418985999999997,-0.0342781999999987,0.0800234,0.0795602000000005,0.6399982000000006,0.3907751999999998,0,sub_14
0.0368605999999997,-0.0276829999999987,0.0829739999999999,0.0614806000000004,0.6286752000000007,0.4141641999999998,0,sub_14
0.0286909999999997,-0.0266053999999987,0.0857653999999999,0.0547394000000004,0.6158538000000007,0.4295159999999998,0,sub_14
0.0191383999999997,-0.0284957999999987,0.0874881999999999,0.0606418000000005,0.6055834000000007,0.4353387999999999,0,sub_14
0.0112951999999998,-0.0338563999999987,0.0854817999999999,0.0796062000000005,0.5976426000000006,0.4333449999999998,0,sub_14
0.0044563999999998,-0.0404789999999987,0.0828998,0.1083788000000005,0.5879638000000005,0.4312081999999998,0,sub_14
0.0021993999999998,-0.0431281999999987,0.0786843999999999,0.1362586000000005,0.5731604000000006,0.4327037999999998,0,sub_14
0.0070637999999998,-0.0404761999999987,0.0758929999999999,0.1589658000000005,0.5536604000000006,0.4410059999999998,0,sub_14
0.0132697999999997,-0.0379523999999987,0.0743657999999999,0.1732786000000005,0.5290318000000006,0.4603653999999998,0,sub_14
0.0196199999999997,-0.0370151999999987,0.0745553999999999,0.1790134000000005,0.5037582000000006,0.4886387999999998,0,sub_14
0.0238497999999997,-0.0389245999999987,0.0761257999999999,0.1796340000000005,0.4825404000000006,0.5194351999999999,0,sub_14
0.0240071999999997,-0.0425639999999987,0.0786635999999999,0.1822056000000005,0.4647382000000005,0.5468225999999998,0,sub_14
0.0189813999999997,-0.0462351999999987,0.0801699999999999,0.1950602000000005,0.4435416000000006,0.5616809999999999,0,sub_14
0.0163087999999998,-0.0410535999999987,0.0852617999999999,0.2151906000000004,0.4187310000000006,0.5682628,0,sub_14
0.0095195999999998,-0.0280609999999987,0.0917684,0.2418046000000004,0.3886664000000006,0.5511821999999998,0,sub_14
-0.0016138000000001,-0.0150629999999987,0.1033989999999999,0.2639248000000004,0.3757722000000006,0.5064877999999998,0,sub_14
-0.0199614000000001,0.0004924000000012,0.1138575999999999,0.2750666000000005,0.3664162000000006,0.4390657999999998,0,sub_14
-0.0389042000000001,0.0201202000000012,0.1267895999999999,0.2732436000000005,0.3590606000000006,0.3621503999999999,0,sub_14
-0.0612432000000001,0.0313742000000012,0.1357105999999999,0.2645672000000005,0.3692972000000006,0.2608091999999998,0,sub_14
-0.0762922000000001,0.0323008000000012,0.1411609999999999,0.2375704000000005,0.3925684000000006,0.1657325999999998,0,sub_14
-0.0847918000000001,0.0355022000000012,0.1405819999999999,0.2003446000000005,0.3942644000000005,0.0936859999999998,0,sub_14
-0.0798774000000001,0.0253456000000012,0.1352764,0.1507526000000005,0.3784208000000006,0.0495627999999998,0,sub_14
-0.0651460000000001,0.0070660000000012,0.1239489999999999,0.0886448000000005,0.3527348000000006,0.0267291999999998,0,sub_14
-0.0456016000000001,-0.0136755999999987,0.1129387999999999,0.0233860000000005,0.3148180000000006,0.0282447999999998,0,sub_14
-0.0290704000000001,-0.0313127999999987,0.1038053999999999,-0.0237533999999994,0.2806422000000007,0.0375733999999998,0,sub_14
-0.0170112000000001,-0.0479347999999987,0.0949549999999999,-0.0458667999999994,0.2553460000000006,0.0423651999999998,0,sub_14
-0.0142174000000001,-0.0533903999999987,0.0896435999999999,-0.0366879999999994,0.2459804000000006,0.0321863999999998,0,sub_14
-0.0246422000000001,-0.0550911999999987,0.0871255999999999,-0.0003263999999994,0.2391416000000006,0.0059573999999998,0,sub_14
-0.0410764000000001,-0.0528303999999987,0.0878481999999999,0.0516380000000005,0.2244208000000006,-0.0340396,0,sub_14
-0.0587626000000001,-0.0456767999999987,0.0924623999999999,0.1056556000000005,0.1911596000000006,-0.0746394,0,sub_14
-0.0717774000000001,-0.0399021999999987,0.0977411999999999,0.1500132000000005,0.1489676000000006,-0.111236,0,sub_14
-0.0736668000000001,-0.0315513999999987,0.1085723999999999,0.1727310000000005,0.1008300000000006,-0.1340892000000001,0,sub_14
-0.0648394000000001,-0.0222755999999987,0.1229197999999999,0.1742702000000005,0.0561128000000006,-0.1414988000000001,0,sub_14
-0.0502968000000001,-0.0144539999999987,0.1329151999999999,0.1609622000000005,0.0032726000000006,-0.1293462000000001,0,sub_14
-0.0277250000000001,-0.0083969999999987,0.1363226,0.1411542000000005,-0.0598187999999993,-0.1054756,0,sub_14
-0.0029024000000001,-0.0013275999999987,0.1387691999999999,0.1132052000000005,-0.1254571999999993,-0.0769584,0,sub_14
0.0143805999999998,-0.0001503999999987,0.1365847999999999,0.0828042000000005,-0.1742263999999993,-0.0557438,0,sub_14
0.0184105999999998,-0.0059325999999987,0.1291443999999999,0.0519018000000005,-0.2052093999999993,-0.0416126,0,sub_14
0.0162561999999998,-0.0131539999999987,0.1252035999999999,0.0185912000000005,-0.2103715999999993,-0.0356498,0,sub_14
0.0069423999999998,-0.0229289999999987,0.1233627999999999,-0.0158297999999994,-0.1869435999999993,-0.038918,0,sub_14
-0.0040202000000001,-0.0311229999999987,0.1175057999999999,-0.0425663999999994,-0.1643887999999993,-0.043627,0,sub_14
-0.0119214000000001,-0.0358149999999987,0.1073954,-0.0673113999999994,-0.1676437999999993,-0.0425206,0,sub_14
-0.0115746000000001,-0.0348859999999987,0.0998173999999999,-0.0928359999999994,-0.1908033999999993,-0.0362598,0,sub_14
-0.0082744000000001,-0.0317217999999987,0.0893751999999999,-0.1141323999999994,-0.2208033999999993,-0.028038,0,sub_14
-0.0035056000000001,-0.0282957999999987,0.0789335999999999,-0.1317871999999994,-0.2486811999999993,-0.0208618,0,sub_14
0.0012921999999998,-0.0274097999999987,0.0728007999999999,-0.1454957999999994,-0.2563193999999993,-0.0168884,0,sub_14
0.0062265999999998,-0.0292179999999987,0.0708823999999999,-0.1450009999999994,-0.2405575999999993,-0.0162642,0,sub_14
0.0113901999999998,-0.0317555999999987,0.0697674,-0.1329169999999994,-0.2128931999999993,-0.0185654,0,sub_14
0.0171015999999998,-0.0350989999999987,0.0703257999999999,-0.1191325999999994,-0.1867259999999993,-0.0208528,0,sub_14
0.0202155999999998,-0.0377599999999987,0.0730461999999999,-0.1079547999999994,-0.1682299999999993,-0.0205848,0,sub_14
0.0215625999999998,-0.0391989999999987,0.0762953999999999,-0.1008799999999994,-0.1578269999999993,-0.0175578,0,sub_14
0.0212541999999998,-0.0386637999999987,0.0803533999999999,-0.0974429999999994,-0.1478449999999993,-0.0126328,0,sub_14
0.0198113999999998,-0.0364871999999987,0.0832813999999999,-0.0948421999999994,-0.1329639999999993,-0.0066516,0,sub_14
0.0177445999999998,-0.0334385999999987,0.0848689999999999,-0.0905077999999994,-0.1125479999999993,-0.0010926,0,sub_14
0.0162559999999998,-0.0309275999999987,0.0841267999999999,-0.0838125999999994,-0.0917037999999993,0.0019185999999998,0,sub_14
0.0145525999999998,-0.0314653999999987,0.0819697999999999,-0.0769049999999994,-0.0742565999999993,0.0017307999999998,0,sub_14
0.0140321999999998,-0.0323285999999987,0.0801239999999999,-0.0689459999999994,-0.0625561999999993,-0.0007922000000001,0,sub_14
0.0148533999999998,-0.0338803999999987,0.0795583999999999,-0.0605659999999994,-0.0531965999999993,-0.0043776000000001,0,sub_14
0.0172343999999997,-0.0356071999999986,0.0805121999999999,-0.0513285999999994,-0.0427753999999993,-0.0077448000000001,0,sub_14
0.0193739999999997,-0.0381717999999987,0.0818091999999999,-0.0414397999999994,-0.0276777999999993,-0.0089770000000001,0,sub_14
0.0215187999999997,-0.0386807999999987,0.0843213999999999,-0.0289721999999994,-0.0059945999999993,-0.0076358000000001,0,sub_14
0.0200359999999997,-0.0389537999999987,0.0864345999999999,-0.0158575999999994,0.0188752000000006,-0.0045850000000001,0,sub_14
0.0181577999999997,-0.0393407999999987,0.0868267999999999,-0.0021183999999994,0.0409706000000006,-0.0008854000000001,0,sub_14
0.0142411999999998,-0.0401431999999987,0.0859365999999999,0.0111702000000005,0.0564678000000006,0.0015375999999998,0,sub_14
0.0115201999999998,-0.0393505999999987,0.0861719999999999,0.0237948000000005,0.0653678000000006,0.0026825999999998,0,sub_14
0.0092903999999998,-0.0378277999999987,0.0872353999999999,0.0346968000000005,0.0695916000000006,0.0025397999999998,0,sub_14
0.0093527999999998,-0.0365137999999987,0.0888471999999999,0.0436804000000005,0.0736118000000005,0.0017427999999998,0,sub_14
0.0092755999999998,-0.0360413999999987,0.0916562,0.0507552000000005,0.0799830000000006,0.0007157999999999,0,sub_14
0.0091829999999998,-0.0348941999999987,0.0939237999999999,0.0552734000000005,0.0880642000000006,0.0005233999999999,0,sub_14
0.0076775999999998,-0.0340499999999987,0.0955671999999999,0.0585018000000005,0.0946558000000006,0.0009647999999999,0,sub_14
0.0062237999999998,-0.0334969999999987,0.0960023999999999,0.0602242000000005,0.0984830000000006,0.0013991999999998,0,sub_14
0.0048471999999998,-0.0331719999999987,0.0954869999999999,0.0608662000000005,0.0986946000000006,0.0011895999999998,0,sub_14
0.0025887999999998,-0.0318459999999987,0.0949981999999999,0.0602166000000005,0.0957176000000006,0.0003343999999998,0,sub_14
0.0008855999999998,-0.0315265999999987,0.0949763999999999,0.0604184000000005,0.0912504000000006,-0.0015812000000001,0,sub_14
-0.0010224000000001,-0.0312641999999987,0.0948653999999999,0.0606182000000005,0.0859328000000006,-0.0039230000000001,0,sub_14
-0.0020964000000001,-0.0313981999999987,0.0945943999999999,0.0610316000000005,0.0808266000000006,-0.0060500000000001,0,sub_14
-0.0034274000000001,-0.0319701999999987,0.0940833999999999,0.0605876000000005,0.0752956000000006,-0.0077550000000001,0,sub_14
-0.0041042000000001,-0.0323001999999987,0.0933713999999999,0.0584260000000005,0.0678512000000006,-0.0090424000000001,0,sub_14
-0.0046862000000001,-0.0309629999999987,0.0927829999999999,0.0536868000000005,0.0576420000000006,-0.0092762000000001,0,sub_14
-0.0042416000000001,-0.0299855999999987,0.0924061999999999,0.0465920000000005,0.0453112000000006,-0.0097374000000001,0,sub_14
-0.0055920000000001,-0.0289279999999987,0.092329,0.0382080000000005,0.0304308000000006,-0.0108452,0,sub_14
-0.0066100000000001,-0.0273569999999987,0.0928257999999999,0.0287488000000005,0.0134244000000006,-0.0121714,0,sub_14
-0.0072514000000001,-0.0263613999999987,0.0921413999999999,0.0192914000000005,-0.0040045999999993,-0.0143516,0,sub_14
-0.0076760000000001,-0.0267351999999987,0.0912435999999999,0.0085546000000005,-0.0214281999999993,-0.0167542,0,sub_14
-0.0080468000000001,-0.0270581999999987,0.0904011999999999,-0.0032489999999994,-0.0388481999999993,-0.0191644,0,sub_14
-0.0065618000000001,-0.0271279999999987,0.0908411999999999,-0.0159077999999994,-0.0558423999999993,-0.0207266000000001,0,sub_14
-0.0048896000000001,-0.0271671999999987,0.0918398,-0.0285667999999994,-0.0726243999999993,-0.0220754000000001,0,sub_14
-0.0042934000000001,-0.0269299999999987,0.0941225999999999,-0.0388777999999994,-0.0889893999999993,-0.0231948000000001,0,sub_14
-0.0041738000000001,-0.0273369999999987,0.096077,-0.0461947999999994,-0.1036613999999993,-0.0240818000000001,0,sub_14
-0.0045818000000001,-0.0285269999999987,0.0974799999999999,-0.0500641999999994,-0.1163597999999993,-0.0247398000000001,0,sub_14
-0.0058018000000001,-0.0293179999999987,0.0975701999999999,-0.0528627999999994,-0.1279973999999993,-0.0251780000000001,0,sub_14
-0.0067656000000001,-0.0298175999999987,0.0979013999999999,-0.0552289999999994,-0.1387825999999993,-0.0260418000000001,0,sub_14
-0.0058294000000001,-0.0298065999999987,0.0987807999999999,-0.0590875999999994,-0.1495617999999993,-0.0271296000000001,0,sub_14
-0.0050212000000001,-0.0292027999999987,0.0996983999999999,-0.0642283999999994,-0.1618235999999993,-0.0292926000000001,0,sub_14
-0.0035294000000001,-0.0284541999999987,0.1006125999999999,-0.0723881999999994,-0.1756341999999993,-0.0316820000000001,0,sub_14
-0.0008488000000001,-0.0288551999999987,0.1015823999999999,-0.0826685999999994,-0.1868791999999993,-0.0345168000000001,0,sub_14
0.0017085999999998,-0.0290869999999987,0.1014524,-0.0937811999999994,-0.1925851999999993,-0.0365098,0,sub_14
0.0043889999999998,-0.0297071999999987,0.1003896,-0.1055245999999994,-0.1953245999999993,-0.0381084,0,sub_14
0.0077655999999998,-0.0309525999999987,0.1001331999999999,-0.1155589999999994,-0.1965827999999993,-0.0386288,0,sub_14
0.0108487999999998,-0.0335365999999987,0.1009148,-0.1213125999999994,-0.1944487999999993,-0.0386964,0,sub_14
0.0131235999999998,-0.0365785999999987,0.1027747999999999,-0.1210791999999994,-0.1897781999999993,-0.0389392,0,sub_14
0.0139485999999998,-0.0403805999999987,0.1036641999999999,-0.1153067999999994,-0.1878933999999993,-0.0399942,0,sub_14
0.0132825999999998,-0.0441703999999987,0.1045291999999999,-0.1058973999999994,-0.1842999999999993,-0.0410014,0,sub_14
0.0142057999999998,-0.0457285999999987,0.1057831999999999,-0.0947473999999994,-0.1730435999999993,-0.0417926,0,sub_14
0.0155699999999998,-0.0448571999999987,0.1067949999999999,-0.0828223999999994,-0.1537805999999993,-0.0427418,0,sub_14
0.0170865999999998,-0.0428765999999987,0.1064193999999999,-0.0713037999999994,-0.1302541999999993,-0.0439130000000001,0,sub_14
0.0196261999999998,-0.0411901999999987,0.1063507999999999,-0.0612721999999994,-0.1035335999999993,-0.0433896000000001,0,sub_14
0.0218661999999998,-0.0399831999999987,0.1063541999999999,-0.0538077999999994,-0.0770221999999993,-0.0416018,0,sub_14
0.0213845999999998,-0.0406387999999987,0.1055489999999999,-0.0487057999999994,-0.0536991999999993,-0.0396128,0,sub_14
0.0190441999999998,-0.0419863999999987,0.1047861999999999,-0.0450035999999994,-0.0349717999999993,-0.0374746,0,sub_14
0.0168199999999997,-0.0432399999999987,0.1049585999999999,-0.0402577999999994,-0.0200881999999993,-0.0340422,0,sub_14
0.0152125999999997,-0.0442617999999987,0.1059435999999999,-0.0325255999999994,-0.0054279999999993,-0.0305886,0,sub_14
0.0155139999999997,-0.0445631999999987,0.1078343999999999,-0.0217585999999994,0.0118928000000006,-0.0274158,0,sub_14
0.0162331999999997,-0.0446805999999987,0.1089035999999999,-0.0086349999999994,0.0313360000000005,-0.0242294,0,sub_14
0.0184089999999997,-0.0445823999999987,0.1093781999999999,0.0053316000000005,0.0499180000000005,-0.0195404,0,sub_14
0.0190975999999998,-0.0435751999999987,0.1090051999999999,0.0169386000000005,0.0659508000000006,-0.014651,0,sub_14
0.0179209999999998,-0.0420379999999987,0.1089827999999999,0.0246982000000005,0.0798690000000005,-0.0104266000000001,0,sub_14
0.0149087999999997,-0.0410185999999987,0.1078141999999999,0.0305014000000005,0.0924062000000006,-0.0071976,0,sub_14
0.0123365999999997,-0.0395755999999987,0.1068773999999999,0.0350216000000005,0.1030354000000006,-0.0052568,0,sub_14
0.0108819999999997,-0.0381979999999987,0.1056838,0.0378490000000005,0.1141078000000006,-0.0061058,0,sub_14
0.0108325999999997,-0.0380423999999987,0.1047115999999999,0.0401862000000005,0.1268268000000006,-0.00804,0,sub_14
0.0116507999999997,-0.0384785999999987,0.1032057999999999,0.0420938000000005,0.1393326000000006,-0.0095498,0,sub_14
0.0126931999999997,-0.0387939999999987,0.1019822,0.0439832000000004,0.1494880000000006,-0.0093474,0,sub_14
0.0133647999999998,-0.0392765999999987,0.1015495999999999,0.0469192000000005,0.1572876000000006,-0.0069984,0,sub_14
0.0117535999999998,-0.0391721999999987,0.1014341999999999,0.0511126000000005,0.1623038000000006,-0.0022868000000001,0,sub_14
0.0084623999999998,-0.0379239999999987,0.1018325999999999,0.0564258000000005,0.1631152000000006,0.0033039999999998,0,sub_14
0.0049513999999998,-0.0359177999999987,0.1024721999999999,0.0632182000000005,0.1598768000000006,0.0080557999999998,0,sub_14
0.0003299999999998,-0.0339849999999987,0.1040167999999999,0.0723500000000005,0.1534404000000006,0.0113323999999998,0,sub_14
-0.0043378000000001,-0.0318485999999987,0.1061137999999999,0.0813788000000005,0.1439260000000006,0.0131797999999998,0,sub_14
-0.0090320000000001,-0.0305791999999987,0.1085095999999999,0.0882730000000005,0.1327206000000006,0.0135187999999998,0,sub_14
-0.0121064000000001,-0.0293775999999987,0.1095519999999999,0.0913332000000005,0.1221714000000006,0.0129757999999998,0,sub_14
-0.0140526000000001,-0.0286081999999987,0.1113392,0.0897068000000005,0.1133428000000006,0.0123977999999998,0,sub_14
-0.0146672000000001,-0.0280495999999987,0.1120645999999999,0.0814678000000005,0.1051756000000006,0.0119863999999998,0,sub_14
-0.0154872000000001,-0.0280219999999987,0.1131181999999999,0.0684176000000005,0.0971268000000006,0.0114781999999998,0,sub_14
-0.0149264000000001,-0.0275627999999987,0.1131085999999999,0.0534384000000005,0.0875916000000006,0.0113857999999998,0,sub_14
-0.0149202000000001,-0.0278567999999987,0.1139039999999999,0.0375962000000005,0.0759288000000006,0.0112899999999998,0,sub_14
-0.0154110000000001,-0.0272295999999987,0.1133327999999999,0.0219578000000005,0.0619226000000006,0.0109849999999998,0,sub_14
-0.0149188000000001,-0.0264365999999987,0.1119147999999999,0.0071690000000005,0.0468490000000006,0.0104737999999998,0,sub_14
-0.0140700000000001,-0.0254405999999987,0.1092529999999999,-0.0071883999999994,0.0324148000000006,0.0095373999999998,0,sub_14
-0.0129054000000001,-0.0248303999999987,0.1075307999999999,-0.0198425999999994,0.0175468000000006,0.0090407999999998,0,sub_14
-0.0123806000000001,-0.0242097999999987,0.1057065999999999,-0.0300843999999994,0.0015270000000006,0.0085957999999998,0,sub_14
-0.0110710000000001,-0.0243081999999987,0.1042457999999999,-0.0388335999999994,-0.0144987999999993,0.0083747999999998,0,sub_14
-0.0101696000000001,-0.0261865999999987,0.1027117999999999,-0.0450163999999994,-0.0296795999999993,0.0077433999999998,0,sub_14
