userAcceleration.x,userAcceleration.y,userAcceleration.z,rotationRate.x,rotationRate.y,rotationRate.z,label,subject
0.0103083999999996,0.0073928000000012,-0.044964,-0.0551585999999994,0.0822944000000008,0.0018097999999999,0,sub_5
0.0113617999999996,0.0100896000000012,-0.0445312,-0.0677619999999993,0.0863574000000007,0.0089803999999999,0,sub_5
0.0135303999999996,0.0107608000000012,-0.0460078,-0.0855123999999993,0.0889210000000007,0.0171835999999999,0,sub_5
0.0133737999999996,0.0092680000000012,-0.0483844,-0.0988001999999993,0.0880576000000008,0.0260631999999999,0,sub_5
0.0129777999999996,0.0079206000000012,-0.051254,-0.1093197999999993,0.0859062000000007,0.0349637999999999,0,sub_5
0.0111621999999996,0.0081492000000012,-0.0524366,-0.1085125999999993,0.0862778000000008,0.0424447999999999,0,sub_5
0.0046967999999996,0.0059422000000012,-0.0532894,-0.1008485999999994,0.0877122000000008,0.0446311999999999,0,sub_5
-0.0031500000000003,0.0053270000000012,-0.0528734,-0.0848263999999994,0.0866124000000007,0.0394033999999999,0,sub_5
-0.0086958000000003,0.0061752000000012,-0.0531632,-0.0696415999999994,0.0791786000000007,0.0279793999999999,0,sub_5
-0.0124646000000003,0.0073552000000012,-0.0536136,-0.0506679999999994,0.0585290000000007,0.0148895999999999,0,sub_5
-0.0135060000000003,0.0076222000000012,-0.0518352,-0.0357693999999994,0.0332066000000007,0.0017773999999999,0,sub_5
-0.0086568000000003,0.0074620000000012,-0.0517028,-0.0296487999999994,0.0076760000000007,-0.0049864,0,sub_5
-0.0033066000000003,0.0071226000000012,-0.0506306,-0.0254581999999994,-0.0119147999999992,-0.003653,0,sub_5
-0.0001088000000003,0.0062084000000012,-0.0490112,-0.0182485999999994,-0.0162241999999992,0.0021713999999999,0,sub_5
0.0005173999999996,0.0056336000000012,-0.0467752,-0.0135389999999994,-0.0073143999999992,0.0077475999999999,0,sub_5
0.0005429999999996,0.0049396000000012,-0.044598,-0.0117781999999994,0.0073692000000007,0.0105183999999999,0,sub_5
0.0003671999999996,0.0060370000000012,-0.0415638,-0.0095811999999994,0.0220598000000007,0.0111557999999999,0,sub_5
-0.0019286000000003,0.0062316000000012,-0.0399506,-0.0071801999999994,0.0350548000000007,0.0107521999999999,0,sub_5
-0.0046726000000003,0.0070010000000012,-0.0361242,-0.0075731999999994,0.0421000000000007,0.0088409999999999,0,sub_5
-0.0066588000000003,0.0071468000000012,-0.03547,-0.0118193999999994,0.0459644000000007,0.0064797999999999,0,sub_5
-0.0091920000000003,0.0068634000000012,-0.0370354,-0.0126957999999994,0.0402286000000007,0.0043679999999999,0,sub_5
-0.0119498000000003,0.0063604000000012,-0.0362876,-0.0088749999999994,0.0336302000000007,0.0007945999999999,0,sub_5
-0.0115236000000003,0.0061164000000012,-0.0362368,-0.0061221999999994,0.0253258000000007,-0.0028076,0,sub_5
-0.0105212000000003,0.0055666000000012,-0.038021,-0.0027437999999994,0.0170066000000007,-0.0032006,0,sub_5
-0.0095212000000003,0.0054596000000012,-0.0384686,0.0040670000000005,0.0108708000000007,-0.0031048,0,sub_5
-0.0075546000000003,0.0061796000000012,-0.0393572,0.0072656000000005,0.0087932000000007,-0.0023984,0,sub_5
-0.0055450000000003,0.0069334000000012,-0.0421522,0.0083344000000005,0.0073632000000007,-0.0019214,0,sub_5
-0.0051922000000003,0.0073106000000012,-0.043672,0.0077240000000005,0.0106322000000007,-0.0029576,0,sub_5
-0.0055180000000003,0.0084970000000012,-0.0455098,0.0052020000000005,0.0141276000000007,-0.0057166,0,sub_5
-0.0056376000000003,0.0102292000000012,-0.0480414,-0.0015991999999994,0.0156608000000008,-0.0102526,0,sub_5
-0.0032630000000003,0.0094432000000012,-0.0490662,-0.0079561999999994,0.0191176000000007,-0.0167106,0,sub_5
0.0006851999999996,0.0087914000000012,-0.0514766,-0.0115787999999994,0.0172246000000007,-0.0197244,0,sub_5
0.0030381999999996,0.0090808000000012,-0.0529484,-0.0123333999999994,0.0154266000000007,-0.0201294,0,sub_5
0.0047005999999996,0.0095922000000012,-0.0553762,-0.0094509999999994,0.0157464000000008,-0.0205118,0,sub_5
0.0062467999999996,0.0090498000000012,-0.0566108,-0.0052901999999994,0.0162722000000008,-0.0202446,0,sub_5
0.0073685999999996,0.0100552000000012,-0.0592596,-0.0034879999999994,0.0140374000000008,-0.020204,0,sub_5
0.0066177999999996,0.0109308000000012,-0.0593584,-0.0078219999999994,0.0188730000000008,-0.0247018,0,sub_5
0.0082619999999996,0.0116898000000012,-0.0613868,-0.0175843999999994,0.0231982000000008,-0.0322532,0,sub_5
0.0109561999999996,0.0117206000000012,-0.0624218,-0.0284155999999994,0.0260400000000007,-0.0408782,0,sub_5
0.0125295999999996,0.0115304000000012,-0.063239,-0.0364691999999994,0.0320586000000007,-0.0471378,0,sub_5
0.0120719999999996,0.0105764000000012,-0.063617,-0.0400543999999994,0.0414456000000007,-0.047175,0,sub_5
0.0108039999999996,0.0091738000000012,-0.0648236,-0.0363877999999994,0.0494978000000007,-0.0412186,0,sub_5
0.0080125999999996,0.0080990000000012,-0.0655414,-0.0265535999999994,0.0562372000000007,-0.0320126,0,sub_5
0.0047789999999996,0.0062474000000012,-0.0657586,-0.0143867999999994,0.0616826000000007,-0.020866,0,sub_5
0.0015627999999996,0.0046186000000012,-0.0661404,-0.0009521999999994,0.0630806000000007,-0.0109872,0,sub_5
-0.0029818000000003,0.0041910000000012,-0.0648526,0.0139664000000005,0.0589476000000007,-0.0045092,0,sub_5
-0.0069402000000003,0.0048512000000012,-0.0623038,0.0286354000000005,0.0495116000000007,-0.0018308,0,sub_5
-0.0093486000000003,0.0058910000000012,-0.0586874,0.0407420000000005,0.0379610000000007,-0.0008768,0,sub_5
-0.0079342000000003,0.0082624000000012,-0.0556054,0.0492330000000005,0.0305000000000007,-0.0002104,0,sub_5
-0.0048554000000003,0.0098558000000012,-0.053093,0.0519870000000005,0.0290220000000007,0.0010493999999999,0,sub_5
-0.0001160000000003,0.0102868000000012,-0.0517022,0.0488000000000005,0.0360828000000007,0.0033247999999999,0,sub_5
0.0037955999999996,0.0099902000000012,-0.0496604,0.0403084000000005,0.0514644000000007,0.0072615999999999,0,sub_5
0.0068587999999996,0.0092746000000012,-0.0482496,0.0307634000000005,0.0706812000000008,0.0120405999999999,0,sub_5
0.0054669999999996,0.0078566000000012,-0.0453802,0.0214402000000005,0.0892334000000008,0.0160109999999999,0,sub_5
-0.0014546000000003,0.0054912000000012,-0.0409506,0.0163662000000005,0.1022372000000008,0.0185225999999999,0,sub_5
-0.0098878000000003,0.0038958000000012,-0.036225,0.0144402000000005,0.1035120000000008,0.0210713999999999,0,sub_5
-0.0180034000000003,0.0027824000000012,-0.0321176,0.0167240000000005,0.0917766000000007,0.0234523999999999,0,sub_5
-0.0259914000000003,0.0023096000000012,-0.0293164,0.0227332000000005,0.0675044000000008,0.0234947999999999,0,sub_5
-0.0323944000000003,0.0017976000000012,-0.0284358,0.0284812000000005,0.0300338000000007,0.0209883999999999,0,sub_5
-0.0322082000000003,0.0041170000000012,-0.0290274,0.0301578000000005,-0.0135915999999991,0.0161111999999999,0,sub_5
-0.0260586000000003,0.0061556000000012,-0.0331452,0.0280186000000005,-0.0548473999999991,0.0079997999999999,0,sub_5
-0.0177976000000003,0.0071950000000012,-0.0387246,0.0218608000000005,-0.0888425999999991,-0.0007898,0,sub_5
-0.0076076000000003,0.0073266000000012,-0.043882,0.0132626000000005,-0.1092401999999991,-0.0072332,0,sub_5
0.0036089999999996,0.0072940000000012,-0.0485378,0.0075034000000005,-0.1111279999999991,-0.0096212,0,sub_5
0.0135791999999996,0.0063288000000012,-0.0532816,0.0075600000000005,-0.0970725999999991,-0.0081432,0,sub_5
0.0176723999999996,0.0060788000000012,-0.055509,0.0124440000000005,-0.0721173999999992,-0.003005,0,sub_5
0.0197899999999996,0.0079392000000012,-0.0573362,0.0192704000000005,-0.0412079999999992,0.0032073999999999,0,sub_5
0.0205691999999996,0.0102420000000012,-0.0594236,0.0243946000000005,-0.0096515999999992,0.0089797999999999,0,sub_5
0.0181955999999996,0.0106564000000012,-0.0595338,0.0269450000000005,0.0185064000000007,0.0143113999999999,0,sub_5
0.0125819999999996,0.0102014000000012,-0.059112,0.0264880000000004,0.0422010000000007,0.0196275999999999,0,sub_5
0.0068123999999996,0.0092096000000012,-0.0581358,0.0250472000000005,0.0583802000000007,0.0240833999999999,0,sub_5
-0.0009226000000003,0.0058578000000012,-0.0546816,0.0248520000000005,0.0649754000000008,0.0266371999999999,0,sub_5
-0.0097010000000003,0.0011656000000012,-0.0497142,0.0294088000000005,0.0588218000000007,0.0284645999999999,0,sub_5
-0.0173812000000003,-0.0015119999999987,-0.0446118,0.0388270000000005,0.0420002000000007,0.0299121999999999,0,sub_5
-0.0218766000000003,-0.0025903999999987,-0.0406634,0.0503464000000005,0.0172906000000007,0.0307435999999999,0,sub_5
-0.0226362000000003,-0.0015003999999987,-0.039072,0.0595090000000005,-0.0101777999999992,0.0309211999999999,0,sub_5
-0.0190600000000003,0.0033506000000012,-0.0410984,0.0627212000000005,-0.0342087999999992,0.0291301999999999,0,sub_5
-0.0118570000000003,0.0087826000000012,-0.0474642,0.0569188000000005,-0.0486549999999992,0.0237669999999999,0,sub_5
-0.0048388000000003,0.0122010000000012,-0.0542826,0.0443374000000005,-0.0553945999999991,0.0151419999999999,0,sub_5
0.0009799999999996,0.0138586000000012,-0.0592438,0.0300720000000005,-0.0574393999999991,0.0060719999999999,0,sub_5
0.0048743999999996,0.0139958000000012,-0.0623676,0.0175280000000005,-0.0543845999999991,-0.0010698,0,sub_5
0.0082255999999996,0.0107890000000012,-0.0647586,0.0116108000000005,-0.0494535999999991,-0.0029706,0,sub_5
0.0077671999999996,0.0070876000000012,-0.0632602,0.0131386000000005,-0.0437201999999991,0.0011617999999999,0,sub_5
0.0074127999999996,0.0067226000000012,-0.0637962,0.0187108000000005,-0.0382217999999992,0.0072453999999999,0,sub_5
0.0077049999999996,0.0087104000000012,-0.0656612,0.0234304000000005,-0.0339925999999992,0.0118291999999999,0,sub_5
0.0080975999999996,0.0080160000000012,-0.0655932,0.0275118000000005,-0.0316693999999992,0.0140607999999999,0,sub_5
0.0082109999999996,0.0084868000000012,-0.0651012,0.0290110000000005,-0.0306083999999992,0.0138561999999999,0,sub_5
0.0091473999999996,0.0104304000000012,-0.065023,0.0285938000000005,-0.0308105999999992,0.0115033999999999,0,sub_5
0.0104621999999996,0.0108322000000012,-0.0638558,0.0258296000000005,-0.0310045999999992,0.0091341999999999,0,sub_5
0.0123959999999996,0.0104518000000012,-0.0626152,0.0217556000000005,-0.0270057999999992,0.0080455999999999,0,sub_5
0.0137323999999996,0.0118778000000012,-0.0627648,0.0149298000000005,-0.0180969999999992,0.0069313999999999,0,sub_5
0.0138117999999996,0.0128154000000012,-0.0628836,0.0064210000000005,-0.0049169999999992,0.0047319999999999,0,sub_5
0.0121297999999996,0.0124148000000012,-0.0629184,-0.0033613999999994,0.0089100000000007,0.0016681999999999,0,sub_5
0.0094345999999996,0.0115484000000012,-0.0621462,-0.0120787999999994,0.0220952000000007,-0.001601,0,sub_5
0.0061397999999996,0.0094754000000012,-0.0610384,-0.0186423999999994,0.0312880000000007,-0.0037952,0,sub_5
0.0015835999999996,0.0068520000000012,-0.0586552,-0.0205481999999994,0.0344906000000007,-0.0038126,0,sub_5
-0.0028646000000003,0.0054336000000012,-0.0559524,-0.0191435999999994,0.0316472000000007,-0.0027278,0,sub_5
-0.0041372000000003,0.0053158000000012,-0.0542936,-0.0168987999999994,0.0249694000000007,-0.0024868,0,sub_5
-0.0036264000000003,0.0063378000000012,-0.0542052,-0.0167897999999994,0.0176606000000007,-0.0024734,0,sub_5
-0.0022524000000003,0.0081888000000012,-0.0533362,-0.0192287999999994,0.0124940000000007,-0.0031214,0,sub_5
8.939999999961834e-05,0.0114004000000012,-0.0541184,-0.0265571999999994,0.0105436000000007,-0.0046624,0,sub_5
0.0023087999999996,0.0124938000000012,-0.0545158,-0.0361501999999994,0.0120702000000007,-0.0051586,0,sub_5
0.0010679999999996,0.0113954000000012,-0.0535028,-0.0436163999999994,0.0144322000000007,-0.003291,0,sub_5
-0.0007572000000003,0.0095078000000012,-0.050587,-0.0478713999999994,0.0199754000000007,-0.0005506,0,sub_5
-0.0029192000000003,0.0072946000000012,-0.049112,-0.0500061999999994,0.0235894000000007,0.0032753999999999,0,sub_5
-0.0044914000000003,0.0062936000000012,-0.0490006,-0.0507671999999994,0.0260464000000007,0.0068549999999999,0,sub_5
-0.0069980000000003,0.0067294000000012,-0.0507444,-0.0526047999999994,0.0259522000000007,0.0100027999999999,0,sub_5
-0.0063280000000003,0.0084524000000012,-0.052705,-0.0586991999999994,0.0260944000000007,0.0109841999999999,0,sub_5
-0.0045714000000003,0.0091466000000012,-0.0566952,-0.0686619999999994,0.0196472000000007,0.0115197999999999,0,sub_5
-0.0023388000000003,0.0101314000000012,-0.0571766,-0.0792457999999994,0.0161900000000007,0.0107653999999999,0,sub_5
-0.0003884000000003,0.0113120000000012,-0.0593966,-0.0880209999999994,0.0119528000000007,0.0124185999999999,0,sub_5
0.0010777999999996,0.0102200000000012,-0.0598884,-0.0899411999999994,0.0136572000000007,0.0141121999999999,0,sub_5
0.0016103999999996,0.0083348000000012,-0.0607154,-0.0856659999999994,0.0172566000000007,0.0160603999999999,0,sub_5
-0.0004172000000003,0.0069028000000012,-0.0600298,-0.0778993999999994,0.0242800000000007,0.0164713999999999,0,sub_5
-0.0025578000000003,0.0066126000000012,-0.062753,-0.0671627999999994,0.0274582000000007,0.0169079999999999,0,sub_5
-0.0061032000000003,0.0044168000000012,-0.0617904,-0.0523855999999994,0.0267904000000007,0.0165233999999999,0,sub_5
-0.0082426000000003,0.0042002000000012,-0.0603162,-0.0395497999999994,0.0208058000000007,0.0154909999999999,0,sub_5
-0.0099176000000003,0.0047360000000012,-0.0590362,-0.0290601999999994,0.0141936000000007,0.0135883999999999,0,sub_5
-0.0098738000000003,0.0059894000000012,-0.0573746,-0.0184117999999994,0.0086212000000007,0.0126017999999999,0,sub_5
-0.0093746000000003,0.0064220000000012,-0.0554268,-0.0077737999999994,0.0017662000000007,0.0126849999999999,0,sub_5
-0.0088076000000003,0.0077230000000012,-0.0541038,-0.0015331999999994,-0.0022109999999992,0.0105363999999999,0,sub_5
-0.0076876000000003,0.0098084000000012,-0.0545888,-0.0014623999999994,-0.0048771999999992,0.0055657999999999,0,sub_5
-0.0049714000000003,0.0110206000000012,-0.0556996,-0.0047909999999994,-0.0053967999999992,-0.0004996,0,sub_5
-0.0032082000000003,0.0117138000000012,-0.0568868,-0.0096199999999994,-0.0069779999999992,-0.0061468,0,sub_5
-0.0029226000000003,0.0111860000000012,-0.0584092,-0.0152899999999994,-0.0059987999999992,-0.0120168,0,sub_5
-0.0003252000000003,0.0119790000000012,-0.0616182,-0.0205831999999994,-0.0038213999999992,-0.0191068,0,sub_5
0.0038581999999996,0.0122226000000012,-0.065163,-0.0241835999999994,-0.0035727999999992,-0.0249006,0,sub_5
0.0064649999999996,0.0135148000000012,-0.0685624,-0.0267229999999994,-0.0022717999999992,-0.0283384,0,sub_5
0.0107435999999996,0.0147014000000012,-0.073676,-0.0269007999999994,0.0022168000000007,-0.0317636,0,sub_5
0.0137955999999996,0.0151074000000012,-0.0765172,-0.0258667999999994,0.0086452000000007,-0.0356494,0,sub_5
0.0140309999999996,0.0118844000000012,-0.0765022,-0.0205843999999994,0.0139806000000007,-0.0362994,0,sub_5
0.0096149999999996,0.0067250000000012,-0.0698352,-0.0057117999999994,0.0199090000000007,-0.0336786,0,sub_5
0.0057753999999996,0.0023000000000012,-0.059452,0.0146806000000005,0.0247322000000007,-0.0258902,0,sub_5
3.3599999999658385e-05,-0.0001333999999987,-0.0474496,0.0322676000000005,0.0286880000000007,-0.0119248,0,sub_5
-0.0069622000000003,0.0007356000000012,-0.0396548,0.0448058000000005,0.0326308000000007,0.0035401999999999,0,sub_5
-0.0113540000000003,0.0017458000000012,-0.0331908,0.0522432000000005,0.0361848000000007,0.0140561999999999,0,sub_5
-0.0123746000000003,0.0031696000000012,-0.0314758,0.0515944000000005,0.0393624000000007,0.0191749999999999,0,sub_5
-0.0147456000000003,0.0058172000000012,-0.0314734,0.0448228000000005,0.0425622000000007,0.0180283999999999,0,sub_5
-0.0188546000000003,0.0082358000000012,-0.0328976,0.0367824000000005,0.0430182000000008,0.0115353999999999,0,sub_5
-0.0200624000000003,0.0079310000000012,-0.0310244,0.0278790000000005,0.0390124000000007,0.0026919999999999,0,sub_5
-0.0220372000000003,0.0065892000000012,-0.0302602,0.0159558000000005,0.0311686000000007,-0.0027492,0,sub_5
-0.0253182000000003,0.0063152000000012,-0.0308682,0.0057164000000005,0.0218128000000007,-0.0045448,0,sub_5
-0.0289046000000003,0.0041282000000012,-0.0333458,0.0009522000000005,0.0056398000000008,-0.0051982,0,sub_5
-0.0297108000000003,0.0013244000000012,-0.0359374,0.0014946000000005,-0.0167303999999991,-0.0058066,0,sub_5
-0.0297340000000003,0.0009704000000012,-0.0407022,0.0069024000000005,-0.0423739999999991,-0.0062088,0,sub_5
-0.0289822000000003,0.0031076000000012,-0.0444954,0.0176454000000005,-0.0684597999999992,-0.0072142,0,sub_5
-0.0258076000000003,0.0040882000000012,-0.0482454,0.0281676000000005,-0.0960369999999991,-0.0080054,0,sub_5
-0.0211494000000003,0.0048292000000012,-0.051326,0.0359206000000005,-0.1214781999999992,-0.0077506,0,sub_5
-0.0149454000000003,0.0058482000000012,-0.0539596,0.0415714000000005,-0.1398811999999992,-0.0075196,0,sub_5
-0.0070312000000003,0.0065444000000012,-0.0552482,0.0455832000000005,-0.1484207999999992,-0.0066262,0,sub_5
0.0018039999999996,0.0061834000000012,-0.0563792,0.0475142000000005,-0.1445983999999992,-0.0051219999999999,0,sub_5
0.0095257999999996,0.0077424000000012,-0.0580524,0.0469354000000005,-0.1305363999999992,-0.0047167999999999,0,sub_5
0.0158443999999996,0.0102954000000012,-0.0601216,0.0433760000000005,-0.1092755999999992,-0.0052487999999999,0,sub_5
0.0200149999999996,0.0129048000000012,-0.0624092,0.0366314000000005,-0.0845945999999992,-0.0058073999999999,0,sub_5
0.0220395999999996,0.0156562000000012,-0.065006,0.0271138000000005,-0.0594787999999992,-0.0061723999999999,0,sub_5
0.0229507999999996,0.0192632000000012,-0.068086,0.0156682000000005,-0.0371217999999992,-0.0076156,0,sub_5
0.0225109999999996,0.0183050000000012,-0.072132,0.0031298000000005,-0.0205131999999992,-0.009059,0,sub_5
0.0220505999999996,0.0164454000000012,-0.0745414,-0.0074783999999994,-0.0081145999999992,-0.0102172,0,sub_5
0.0218007999999996,0.0146402000000012,-0.0758668,-0.0136239999999994,0.0014936000000007,-0.0100588,0,sub_5
0.0173865999999996,0.0125570000000012,-0.0771428,-0.0155211999999994,0.0083112000000007,-0.0083716,0,sub_5
0.0131415999999996,0.0100532000000012,-0.0777758,-0.0140247999999994,0.0125526000000007,-0.0047346,0,sub_5
0.0093845999999996,0.0111566000000012,-0.0763194,-0.0085269999999994,0.0171614000000007,-0.0002048,0,sub_5
0.0066395999999996,0.0118258000000012,-0.073748,-0.0023823999999994,0.0226230000000007,0.0036873999999999,0,sub_5
0.0028697999999996,0.0107990000000012,-0.0707986,0.0018524000000005,0.0291614000000007,0.0062829999999999,0,sub_5
0.0011611999999996,0.0080784000000012,-0.0652754,0.0024626000000005,0.0348664000000007,0.0073589999999999,0,sub_5
-0.0005260000000003,0.0066452000000012,-0.0573748,-0.0031129999999994,0.0410192000000007,0.0083909999999999,0,sub_5
-1.9000000000341315e-05,0.0080146000000012,-0.0519544,-0.0135509999999994,0.0461640000000007,0.0095933999999999,0,sub_5
-0.0018870000000003,0.0086406000000012,-0.0487284,-0.0280305999999994,0.0530316000000007,0.0096971999999999,0,sub_5
-0.0024386000000003,0.0112798000000012,-0.0461692,-0.0477915999999994,0.0606784000000007,0.0091403999999999,0,sub_5
-0.0012804000000003,0.0135572000000012,-0.0470122,-0.0663075999999994,0.0621354000000008,0.0103091999999999,0,sub_5
-0.0023066000000003,0.0122964000000012,-0.0488924,-0.0782147999999994,0.0627152000000007,0.0119527999999999,0,sub_5
-0.0046464000000003,0.0093464000000012,-0.0490568,-0.0867301999999994,0.0607172000000007,0.0159731999999999,0,sub_5
-0.0053310000000003,0.0088022000000012,-0.050183,-0.0893171999999994,0.0512302000000007,0.0228219999999999,0,sub_5
-0.0059052000000003,0.0051060000000012,-0.0527536,-0.0806905999999994,0.0311446000000007,0.0299581999999999,0,sub_5
-0.0077584000000003,0.0033812000000012,-0.0530372,-0.0641233999999994,0.0168016000000008,0.0326559999999999,0,sub_5
-0.0073822000000003,0.0046800000000012,-0.0545694,-0.0479799999999994,0.0003408000000008,0.0325761999999999,0,sub_5
-0.0059950000000003,0.0058340000000012,-0.058535,-0.0311657999999994,-0.0141853999999991,0.0275847999999999,0,sub_5
-0.0030588000000003,0.0062004000000012,-0.0618176,-0.0173201999999994,-0.0250977999999991,0.0200233999999999,0,sub_5
-0.0005500000000003,0.0093532000000012,-0.0645312,-0.0113097999999994,-0.0225611999999991,0.0126035999999999,0,sub_5
0.0032359999999996,0.0113720000000012,-0.065774,-0.0133881999999994,-0.0146739999999992,0.0061887999999999,0,sub_5
0.0072631999999996,0.0127950000000012,-0.0667188,-0.0175717999999994,-0.0005999999999992,-0.0004624,0,sub_5
0.0094115999999996,0.0135516000000012,-0.0636564,-0.0243157999999994,0.0164538000000007,-0.0041442,0,sub_5
0.0061943999999996,0.0120840000000012,-0.0649608,-0.0274645999999994,0.0279700000000007,-0.004181,0,sub_5
0.0015845999999996,0.0096008000000012,-0.0653114,-0.0240381999999994,0.0298790000000007,-0.005014,0,sub_5
-0.0025004000000003,0.0082446000000012,-0.0663936,-0.0181765999999994,0.0241124000000007,-0.0057928,0,sub_5
-0.0063678000000003,0.0076942000000012,-0.0664704,-0.0125559999999994,0.0140778000000007,-0.004645,0,sub_5
-0.0091474000000003,0.0062826000000012,-0.0670438,-0.0041807999999994,0.0010456000000007,-0.0021922,0,sub_5
-0.0078136000000003,0.0068660000000012,-0.0634006,0.0018800000000005,-0.0060077999999992,-0.001045,0,sub_5
-0.0062188000000003,0.0083368000000012,-0.059359,0.0032782000000005,-0.0066505999999991,-0.0005796,0,sub_5
-0.0058408000000003,0.0081528000000012,-0.0562914,0.0039298000000005,-0.0034595999999992,6.179999999996258e-05,0,sub_5
-0.0066720000000003,0.0077756000000012,-0.054292,0.0067324000000005,0.0022856000000007,-0.0005668,0,sub_5
-0.0077806000000003,0.0078454000000012,-0.0503936,0.0054916000000005,0.0095398000000007,-0.0020802,0,sub_5
-0.0094222000000003,0.0075922000000012,-0.048625,0.0006330000000005,0.0176640000000007,-0.0049019999999999,0,sub_5
-0.0094540000000003,0.0062928000000012,-0.04877,-0.0015211999999994,0.0229644000000007,-0.0087393999999999,0,sub_5
-0.0081106000000003,0.0067474000000012,-0.0498292,-0.0013319999999994,0.0265554000000007,-0.0134127999999999,0,sub_5
-0.0067028000000003,0.0076148000000012,-0.0523734,0.0011802000000005,0.0250242000000007,-0.0178497999999999,0,sub_5
-0.0062304000000003,0.0086522000000012,-0.0571216,0.0115784000000005,0.0200626000000007,-0.0237227999999999,0,sub_5
-0.0068764000000003,0.0078032000000012,-0.0571164,0.0287826000000005,0.0114500000000007,-0.0282615999999999,0,sub_5
-0.0068784000000003,0.0079308000000012,-0.054928,0.0430268000000005,-0.0001047999999992,-0.0281472,0,sub_5
-0.0075280000000003,0.0073562000000012,-0.0527544,0.0529834000000005,-0.0122991999999992,-0.0242164,0,sub_5
