userAcceleration.x,userAcceleration.y,userAcceleration.z,rotationRate.x,rotationRate.y,rotationRate.z,label,subject
-0.0090402000000003,-0.0094341999999987,0.0670859999999999,0.0331674000000004,0.0313922000000009,-0.0089624,0,sub_4
-0.0015994000000003,-0.0124649999999987,0.0689487999999999,0.0189448000000005,0.0244332000000009,-0.0038516,0,sub_4
0.0008431999999996,-0.0106161999999987,0.0674325999999998,0.0029968000000005,0.0174638000000009,0.0053063999999999,0,sub_4
-0.0014738000000003,-0.0076833999999987,0.0639975999999999,-0.0120083999999994,0.0125740000000009,0.0156765999999999,0,sub_4
-0.0048092000000003,-0.0054441999999987,0.0609205999999998,-0.0246491999999994,0.0098134000000009,0.0243513999999999,0,sub_4
-0.0092012000000003,-0.0031271999999987,0.0606541999999998,-0.0336165999999994,0.0138716000000009,0.0296245999999999,0,sub_4
-0.0139970000000002,-0.0027787999999987,0.0639987999999998,-0.0384705999999994,0.0275174000000009,0.0312823999999999,0,sub_4
-0.0158930000000002,-0.0058077999999987,0.0666843999999999,-0.0450799999999994,0.0406462000000009,0.0283069999999999,0,sub_4
-0.0152572000000002,-0.0088871999999987,0.0689431999999999,-0.0527677999999994,0.0488878000000009,0.0229801999999999,0,sub_4
-0.0139564000000002,-0.0102269999999987,0.0677453999999999,-0.0636771999999994,0.0528780000000009,0.0180635999999999,0,sub_4
-0.0096894000000003,-0.0102187999999987,0.0632309999999999,-0.0788675999999994,0.0566588000000009,0.0158947999999999,0,sub_4
-0.0045980000000003,-0.0103905999999987,0.0553101999999999,-0.0964155999999994,0.0623482000000009,0.0179799999999999,0,sub_4
-0.0020256000000003,-0.0102361999999987,0.0491933999999999,-0.1113555999999994,0.0683386000000009,0.0247045999999999,0,sub_4
-0.0018808000000003,-0.0043789999999987,0.0409205999999999,-0.1254859999999995,0.0668598000000009,0.0337943999999999,0,sub_4
-0.0039408000000003,0.0023084000000012,0.0336513999999999,-0.1332661999999994,0.0525814000000009,0.0414495999999999,0,sub_4
-0.0113488000000003,0.0067344000000012,0.0230041999999999,-0.1301895999999994,0.0386076000000009,0.0449739999999999,0,sub_4
-0.0181798000000003,0.0116150000000012,0.0140323999999999,-0.1142463999999994,0.0318610000000009,0.0415287999999999,0,sub_4
-0.0205910000000003,0.0157186000000012,0.0098717999999999,-0.0880085999999994,0.0297938000000009,0.0310991999999999,0,sub_4
-0.0201006000000003,0.0156264000000012,0.0117807999999999,-0.0518895999999994,0.0402710000000009,0.0185861999999999,0,sub_4
-0.0186962000000003,0.0145900000000012,0.0155997999999999,-0.0157301999999994,0.0613940000000009,0.0077687999999999,0,sub_4
-0.0148536000000003,0.0127286000000012,0.0219553999999999,0.0129584000000005,0.0751732000000009,0.0002603999999999,0,sub_4
-0.0108344000000003,0.0085708000000012,0.0274379999999999,0.0279042000000005,0.0738562000000009,-0.003052,0,sub_4
-0.0097116000000003,0.0034438000000012,0.0320589999999999,0.0332002000000005,0.0668010000000009,-0.0015104,0,sub_4
-0.0103902000000003,-0.0028705999999987,0.0348289999999999,0.0313830000000005,0.0594388000000008,0.0032301999999999,0,sub_4
-0.0119676000000003,-0.0052611999999987,0.0357341999999999,0.0278588000000005,0.0520826000000008,0.0079589999999999,0,sub_4
-0.0139526000000003,-0.0034559999999987,0.0354985999999999,0.0247720000000005,0.0468562000000008,0.0124743999999999,0,sub_4
-0.0176510000000003,-0.0011681999999987,0.0326915999999998,0.0240464000000005,0.0441810000000008,0.0163623999999999,0,sub_4
-0.0185660000000003,-5.999999999874821e-05,0.0298111999999999,0.0220370000000005,0.0381114000000008,0.0176817999999999,0,sub_4
-0.0159832000000003,0.0010214000000012,0.0284377999999999,0.0211778000000005,0.0340776000000009,0.0149035999999999,0,sub_4
-0.0122624000000003,0.0007592000000012,0.0296877999999999,0.0231308000000005,0.0383438000000009,0.0119207999999999,0,sub_4
-0.0102076000000003,0.0003794000000012,0.0321177999999999,0.0267468000000005,0.0422522000000009,0.0095945999999999,0,sub_4
-0.0078664000000003,0.0011438000000012,0.0357011999999999,0.0301342000000004,0.0431768000000009,0.0076977999999999,0,sub_4
-0.0079374000000002,0.0030406000000012,0.0364685999999999,0.0330822000000004,0.0426064000000009,0.0070817999999999,0,sub_4
-0.0098926000000002,0.0027812000000012,0.0373367999999999,0.0334390000000004,0.0365004000000009,0.0077367999999999,0,sub_4
-0.0114788000000002,0.0005248000000012,0.0397101999999999,0.0327386000000005,0.0327410000000009,0.0085949999999999,0,sub_4
-0.0109474000000002,-0.0030289999999987,0.0436779999999999,0.0336142000000005,0.0363650000000009,0.0073145999999999,0,sub_4
-0.0103780000000003,-0.0041471999999987,0.0468069999999998,0.0336314000000005,0.0389268000000009,0.0060295999999999,0,sub_4
-0.0101602000000003,-0.0040823999999987,0.0489135999999998,0.0312986000000005,0.0417064000000008,0.0055823999999999,0,sub_4
-0.0106546000000003,-0.0033249999999987,0.0476179999999999,0.0259802000000005,0.0434230000000008,0.0063633999999999,0,sub_4
-0.0105738000000003,-0.0040759999999987,0.0450145999999998,0.0178610000000005,0.0379106000000008,0.0058521999999999,0,sub_4
-0.0089698000000003,-0.0045323999999987,0.0438333999999998,0.0090988000000005,0.0323980000000008,0.0059775999999999,0,sub_4
-0.0069402000000003,-0.0053779999999987,0.0442709999999999,0.0014246000000005,0.0315688000000008,0.0061043999999999,0,sub_4
-0.0055998000000003,-0.0049517999999987,0.0444979999999999,-0.0054131999999994,0.0266896000000009,0.0060285999999999,0,sub_4
-0.0055836000000003,-0.0032187999999987,0.0419381999999999,-0.0103503999999994,0.0196778000000009,0.0055757999999999,0,sub_4
-0.0065962000000003,4.000000001231317e-06,0.0379503999999999,-0.0146609999999994,0.0101054000000009,0.0055579999999999,0,sub_4
-0.0077506000000003,-0.0004537999999987,0.0339665999999999,-0.0183381999999994,-0.002233999999999,0.0042661999999999,0,sub_4
-0.0079656000000003,-0.0014477999999987,0.0344433999999999,-0.0187843999999994,-0.0091619999999991,0.0031169999999999,0,sub_4
-0.0085604000000003,-0.0023619999999987,0.0375171999999999,-0.0153487999999994,-0.0056689999999991,0.0032635999999999,0,sub_4
-0.0099178000000003,-0.0018833999999987,0.0413723999999999,-0.0117151999999994,-0.0047367999999991,0.0042691999999999,0,sub_4
-0.0136080000000003,-0.0011583999999987,0.0434519999999999,-0.0108857999999994,-0.0099759999999991,0.0059039999999999,0,sub_4
-0.0194068000000003,0.0003882000000012,0.0437457999999999,-0.0143153999999994,-0.0126461999999991,0.0081467999999999,0,sub_4
-0.0231704000000003,0.0003064000000012,0.0410923999999999,-0.0224253999999994,-0.0115585999999991,0.0095843999999999,0,sub_4
-0.0218622000000003,-0.0007019999999987,0.0393249999999999,-0.0309477999999994,-0.0096077999999991,0.0086677999999999,0,sub_4
-0.0181300000000003,-0.0017517999999987,0.0403147999999999,-0.0364627999999994,-0.0042543999999991,0.0066995999999999,0,sub_4
-0.0130294000000003,-0.0017365999999987,0.0404195999999999,-0.0407033999999994,0.0002406000000008,0.0051687999999999,0,sub_4
-0.0082020000000003,0.0008114000000012,0.0359433999999999,-0.0439673999999994,-0.0086849999999991,0.0042173999999999,0,sub_4
-0.0062122000000003,0.0037258000000012,0.0300615999999999,-0.0440795999999994,-0.028275399999999,0.0035153999999999,0,sub_4
-0.0047936000000003,0.0067850000000012,0.0230249999999999,-0.0409757999999994,-0.046165799999999,0.0011243999999999,0,sub_4
-0.0082270000000003,0.0090334000000012,0.0212855999999999,-0.0340207999999994,-0.059179599999999,0.0013179999999999,0,sub_4
-0.0155712000000003,0.0097394000000012,0.0222285999999999,-0.0203699999999994,-0.0521971999999991,0.0034553999999999,0,sub_4
-0.0207898000000003,0.0082800000000012,0.0276327999999999,-0.0025967999999994,-0.0392585999999991,0.0024947999999999,0,sub_4
-0.0238248000000003,0.0059788000000012,0.0354103999999999,0.0142816000000005,-0.0399345999999991,-0.0029412,0,sub_4
-0.0271040000000003,0.0003474000000012,0.0460373999999999,0.0262496000000005,-0.0380495999999991,-0.00521,0,sub_4
-0.0251506000000003,-0.0039645999999987,0.0526019999999999,0.0308406000000005,-0.0253803999999991,-0.007587,0,sub_4
-0.0184398000000003,-0.0073763999999987,0.0582361999999999,0.0281252000000005,-0.0256761999999991,-0.0114938,0,sub_4
-0.0136162000000003,-0.0078723999999987,0.0599955999999999,0.0187540000000005,-0.0310783999999991,-0.0113814,0,sub_4
-0.0110528000000003,-0.0080947999999987,0.0574429999999999,0.0053642000000005,-0.0234905999999991,-0.0061862,0,sub_4
-0.0106636000000003,-0.0054781999999987,0.0509157999999999,-0.0074055999999994,-0.0214401999999991,-0.0020478,0,sub_4
-0.0112178000000003,-0.0017895999999987,0.0444691999999999,-0.0155645999999994,-0.030793999999999,-0.00017,0,sub_4
-0.0157738000000003,0.0032594000000012,0.0407259999999999,-0.0181633999999994,-0.038246199999999,0.0008895999999999,0,sub_4
-0.0207488000000003,0.0050740000000012,0.0421241999999999,-0.0138833999999994,-0.035279199999999,0.0011293999999999,0,sub_4
-0.0254684000000003,0.0058202000000012,0.0451905999999999,-0.0050881999999994,-0.026992199999999,-0.0009562,0,sub_4
-0.0266862000000003,0.0042838000000012,0.0502123999999999,0.0047472000000005,-0.022779799999999,-0.004807,0,sub_4
-0.0264086000000003,0.0003052000000012,0.0542839999999999,0.0118050000000005,-0.020046599999999,-0.0093162,0,sub_4
-0.0215424000000003,-0.0044445999999987,0.0559419999999999,0.0175952000000005,-0.014114799999999,-0.013411,0,sub_4
-0.0176178000000003,-0.0023405999999987,0.0542059999999999,0.0221040000000005,-0.007118399999999,-0.0162342,0,sub_4
-0.0146400000000003,-0.0027839999999987,0.0523625999999999,0.0259680000000005,0.0011492000000009,-0.0167136,0,sub_4
-0.0149308000000003,-0.0029139999999987,0.0497001999999999,0.0309514000000005,0.0192364000000009,-0.01542,0,sub_4
-0.0155924000000003,-0.0033655999999987,0.0495095999999999,0.0387374000000005,0.0428568000000009,-0.0149684,0,sub_4
-0.0160598000000003,-0.0032345999999987,0.0511325999999999,0.0458792000000005,0.0618392000000008,-0.0162808,0,sub_4
-0.0148112000000003,-0.0049845999999987,0.0553871999999999,0.0495804000000004,0.0733826000000009,-0.0191032,0,sub_4
-0.0135228000000003,-0.0010087999999987,0.0577629999999998,0.0502858000000004,0.0823824000000009,-0.0225842,0,sub_4
-0.0124884000000003,0.0005708000000012,0.0562925999999998,0.0466920000000004,0.0856396000000009,-0.0248062,0,sub_4
-0.0113652000000003,5.900000000125111e-05,0.0510201999999998,0.0400850000000005,0.0842158000000009,-0.025975,0,sub_4
-0.0100950000000003,-0.0022809999999987,0.0438105999999998,0.0356024000000005,0.0829564000000009,-0.0268592,0,sub_4
-0.0091110000000003,-0.0018487999999987,0.0385875999999998,0.0371450000000005,0.0921192000000008,-0.0285694,0,sub_4
-0.0072720000000003,-0.0004815999999987,0.0362475999999999,0.0434008000000005,0.1048900000000008,-0.0308922,0,sub_4
-0.0055494000000003,0.0028242000000012,0.0372633999999999,0.0516490000000005,0.1160904000000008,-0.0349566,0,sub_4
-0.0043872000000003,0.0038572000000012,0.0398915999999998,0.0622348000000005,0.1257886000000008,-0.038362,0,sub_4
-0.0040038000000003,0.0041520000000012,0.0427819999999999,0.0717592000000005,0.1376178000000008,-0.040923,0,sub_4
-0.0048120000000003,0.0015794000000012,0.0438623999999999,0.0774190000000005,0.1428608000000008,-0.0447844,0,sub_4
-0.0056758000000003,-0.0006105999999987,0.0452597999999999,0.0802964000000005,0.1438620000000009,-0.0510098,0,sub_4
-0.0060282000000003,-0.0007229999999987,0.0463929999999999,0.0841956000000005,0.1500544000000009,-0.0578272,0,sub_4
-0.0047626000000003,-0.0010261999999987,0.0461375999999999,0.0893998000000005,0.1615696000000009,-0.0648558,0,sub_4
-0.0034012000000003,-0.0010687999999987,0.0470733999999999,0.0956568000000005,0.1715828000000009,-0.070166,0,sub_4
-0.0022222000000003,-0.0010267999999987,0.0471317999999999,0.1029844000000005,0.1841422000000008,-0.0737628,0,sub_4
-0.0030232000000003,-0.0001365999999987,0.0470259999999999,0.1103570000000005,0.1984272000000009,-0.0754666,0,sub_4
-0.0038400000000003,-0.0014427999999987,0.0470723999999999,0.1147260000000005,0.2097374000000008,-0.0765466,0,sub_4
-0.0030194000000003,-0.0008675999999987,0.0475507999999999,0.1145902000000004,0.2161614000000009,-0.0772244,0,sub_4
-0.0008476000000003,-0.0005915999999987,0.0496705999999999,0.1108250000000005,0.2230208000000009,-0.0770736,0,sub_4
0.0027529999999996,-0.0025253999999987,0.0535805999999999,0.1066290000000005,0.2317968000000009,-0.072871,0,sub_4
0.0061755999999996,-0.0048489999999987,0.0576175999999999,0.1025938000000005,0.2415980000000009,-0.066077,0,sub_4
0.0070249999999996,-0.0038163999999987,0.0605931999999999,0.0981040000000005,0.2462832000000009,-0.0582114,0,sub_4
0.0038261999999996,-0.0003141999999987,0.0622891999999999,0.0890922000000005,0.2411860000000009,-0.0510058,0,sub_4
-0.0007630000000003,0.0042764000000012,0.0600653999999999,0.0725482000000005,0.2201428000000009,-0.0455416,0,sub_4
-0.0054042000000003,0.0071078000000012,0.0547431999999999,0.0506108000000005,0.1848392000000009,-0.042445,0,sub_4
-0.0100294000000003,0.0066172000000012,0.0474291999999999,0.0316652000000005,0.1482564000000009,-0.0416758,0,sub_4
-0.0142500000000003,0.0060276000000012,0.0400985999999999,0.0213208000000005,0.1231614000000009,-0.044066,0,sub_4
-0.0187440000000003,0.0063342000000012,0.0336029999999999,0.0253702000000005,0.1163526000000009,-0.0497974,0,sub_4
-0.0233514000000003,0.0083876000000012,0.0298031999999999,0.0464188000000005,0.1374102000000009,-0.0592914,0,sub_4
-0.0256140000000003,0.0096358000000012,0.0294413999999999,0.0782566000000005,0.1837898000000009,-0.0702378,0,sub_4
-0.0230794000000003,0.0106196000000012,0.0334075999999999,0.1107712000000005,0.2395362000000009,-0.0799098,0,sub_4
-0.0177386000000003,0.0126360000000012,0.0423237999999999,0.1391818000000005,0.2867644000000009,-0.0870358,0,sub_4
-0.0113742000000003,0.0141418000000012,0.0534731999999999,0.1600648000000005,0.3227194000000009,-0.0922772,0,sub_4
-0.0041566000000003,0.0105298000000012,0.0610923999999999,0.1729640000000005,0.3391002000000009,-0.0973356,0,sub_4
0.0047665999999996,0.0058370000000012,0.0624287999999999,0.1799574000000005,0.3192982000000009,-0.1064482,0,sub_4
0.0108105999999996,0.0029728000000012,0.0608813999999999,0.1881236000000005,0.2711738000000009,-0.1200028,0,sub_4
0.0143453999999996,0.0022044000000012,0.0562077999999999,0.1978102000000005,0.2275242000000009,-0.1350478,0,sub_4
0.0141991999999996,0.0007338000000012,0.0500081999999999,0.2069306000000005,0.2043136000000009,-0.1460638,0,sub_4
0.0127579999999996,0.0021360000000012,0.0470465999999999,0.2148398000000005,0.2013280000000009,-0.1522004,0,sub_4
0.0067179999999996,0.0034894000000012,0.0469867999999999,0.2221846000000005,0.2217540000000009,-0.151748,0,sub_4
0.0008195999999996,0.0031080000000012,0.0467671999999999,0.2252830000000004,0.2538846000000009,-0.14429,0,sub_4
-0.0045760000000003,-0.0048845999999987,0.0464977999999999,0.2281154000000004,0.2776934000000008,-0.133405,0,sub_4
-0.0101008000000002,-0.0118727999999987,0.0464797999999999,0.2387726000000005,0.2846486000000009,-0.1237256,0,sub_4
-0.0173276000000003,-0.0150581999999987,0.0460339999999999,0.2562250000000005,0.2809408000000009,-0.1174032,0,sub_4
-0.0272378000000003,-0.0078817999999987,0.0401983999999999,0.2803400000000005,0.2836186000000009,-0.1153154,0,sub_4
-0.0325088000000003,-0.0068895999999987,0.0282657999999999,0.3147744000000005,0.2939688000000009,-0.1227792,0,sub_4
-0.0319722000000003,-0.0068267999999987,0.0214555999999999,0.3438582000000005,0.2932886000000009,-0.1377438,0,sub_4
-0.0254956000000003,-0.0078123999999987,0.0203235999999999,0.3445482000000005,0.2909964000000009,-0.1511956,0,sub_4
-0.0180590000000003,-0.0095995999999987,0.0268145999999999,0.3214646000000005,0.2791588000000009,-0.1545464,0,sub_4
-0.0084226000000003,-0.0208077999999987,0.0396245999999999,0.2886066000000005,0.2362200000000009,-0.1506616,0,sub_4
-0.0034646000000003,-0.0258689999999987,0.0570949999999999,0.2468432000000004,0.1681324000000009,-0.1369792,0,sub_4
-0.0052164000000003,-0.0179537999999987,0.0615343999999999,0.2029106000000005,0.1019306000000009,-0.1134868,0,sub_4
-0.0131328000000003,0.0013546000000012,0.0548305999999999,0.1726568000000005,0.0435528000000009,-0.0871314,0,sub_4
-0.0224510000000003,0.0206238000000012,0.0383237999999999,0.1572898000000005,0.0164628000000009,-0.0658396,0,sub_4
-0.0387478000000003,0.0322320000000012,0.0165309999999999,0.1499786000000005,0.0221674000000009,-0.0475246,0,sub_4
-0.0604846000000003,0.0388094000000012,-0.0009496,0.1417012000000005,0.0479120000000009,-0.0315922,0,sub_4
-0.0812036000000003,0.0354320000000012,-0.007677,0.1356514000000004,0.0966502000000008,-0.0135372,0,sub_4
-0.0951906000000002,0.0193096000000012,-0.0012432,0.1347898000000005,0.1651650000000009,0.0094425999999999,0,sub_4
-0.1058832000000002,-0.0023707999999987,0.0107351999999999,0.1360772000000005,0.2392030000000008,0.0345667999999999,0,sub_4
-0.1083516000000002,-0.0146795999999987,0.0301029999999999,0.1290632000000005,0.3179564000000009,0.0598405999999999,0,sub_4
-0.1040026000000002,-0.0216975999999987,0.0441589999999999,0.1209604000000005,0.3890548000000008,0.0823391999999999,0,sub_4
-0.0960756000000002,-0.0233565999999986,0.0501575999999999,0.1221980000000005,0.4341894000000009,0.0895539999999999,0,sub_4
-0.0912398000000003,-0.0231485999999987,0.0495943999999999,0.1331874000000005,0.4469788000000009,0.0785047999999999,0,sub_4
-0.0738470000000003,-0.0152841999999987,0.0415457999999998,0.1443200000000005,0.4369998000000009,0.0602219999999999,0,sub_4
-0.0553362000000003,-0.0076513999999987,0.0315861999999998,0.1516274000000005,0.4368092000000009,0.0483091999999999,0,sub_4
-0.0388976000000003,0.0043038000000012,0.0186731999999998,0.1470866000000005,0.4757946000000009,0.0531413999999999,0,sub_4
-0.0277384000000003,0.0119820000000012,0.0074405999999998,0.1254596000000005,0.5334988000000009,0.0802627999999999,0,sub_4
-0.0158044000000003,0.0148650000000012,-0.0037404,0.0885490000000005,0.574372800000001,0.1203313999999999,0,sub_4
-0.0172768000000003,0.0121234000000012,-0.0072956,0.0508488000000005,0.578617800000001,0.1570229999999999,0,sub_4
-0.0219098000000003,0.0158852000000012,-0.008871,0.0228256000000005,0.526260200000001,0.1677901999999999,0,sub_4
-0.0302088000000003,0.0180812000000012,-0.0030786,0.0149946000000005,0.4212030000000009,0.1454459999999999,0,sub_4
-0.0416624000000003,0.0219166000000012,0.0042091999999999,0.0322760000000005,0.3242534000000009,0.0984841999999999,0,sub_4
-0.0599382000000003,0.0321536000000012,0.0017265999999999,0.0731892000000005,0.2379750000000008,0.0264637999999999,0,sub_4
-0.0804170000000003,0.0497162000000012,-0.0234172,0.1293244000000005,0.1050456000000009,-0.0607728,0,sub_4
-0.0848624000000003,0.0519978000000012,-0.060806,0.2071872000000005,-0.105401799999999,-0.122121,0,sub_4
-0.0776568000000003,0.0353052000000012,-0.0767848,0.2778116000000005,-0.329646999999999,-0.1555234,0,sub_4
-0.0563124000000003,0.0252360000000012,-0.0753998,0.3432130000000005,-0.513668799999999,-0.1734178,0,sub_4
-0.0279774000000003,0.0137610000000012,-0.063945,0.3550722000000005,-0.5723357999999991,-0.1645004,0,sub_4
0.0174819999999996,-0.0208197999999987,-0.043292,0.2756526000000005,-0.5243533999999991,-0.1070054,0,sub_4
0.0220307999999996,-0.0566933999999987,0.0374833999999999,0.1464798000000005,-0.395425599999999,-0.05573,0,sub_4
0.0062337999999996,-0.0801805999999987,0.1151527999999999,0.0289330000000005,-0.227422399999999,-0.0360428,0,sub_4
-0.0164208000000003,-0.1293415999999987,0.1727437999999999,-0.1270549999999994,-0.062307999999999,-0.0597766,0,sub_4
-0.0179072000000003,-0.1515779999999987,0.1976711999999999,-0.3144401999999994,-0.011232399999999,-0.095975,0,sub_4
-0.0323048000000003,-0.1492317999999987,0.2167891999999999,-0.4859543999999994,-0.019724199999999,-0.114681,0,sub_4
-0.0193624000000003,-0.1163057999999987,0.1574705999999999,-0.6107729999999995,-0.029447999999999,-0.0790072,0,sub_4
0.0105915999999996,-0.0299253999999987,0.0655139999999999,-0.6787451999999995,0.0199130000000008,-0.0032742,0,sub_4
0.0432189999999996,0.0775532000000012,-0.0228072,-0.7615843999999995,0.0677338000000009,0.1507643999999999,0,sub_4
0.0642927999999996,0.1386678000000012,-0.0768526,-0.8257871999999995,0.0614870000000009,0.3297851999999999,0,sub_4
0.0546005999999996,0.1617016000000012,-0.1118056,-0.8051251999999994,-0.013011999999999,0.4539385999999999,0,sub_4
0.0325909999999996,0.1614358000000012,-0.1174554,-0.7596545999999995,-0.063823599999999,0.4938453999999999,0,sub_4
-0.0135600000000003,0.1013402000000012,-0.1037932,-0.7432219999999995,-0.169934999999999,0.4821319999999999,0,sub_4
-0.0704846000000003,0.0385064000000012,-0.0792292,-0.6372581999999994,-0.367257399999999,0.3987353999999999,0,sub_4
-0.1426858000000003,-0.0072701999999987,-0.0408562,-0.4722631999999994,-0.526910999999999,0.2746831999999999,0,sub_4
-0.1578826000000003,-0.0158681999999987,-0.0169664,-0.3473823999999994,-0.594585199999999,0.1472419999999999,0,sub_4
-0.1512992000000002,-0.0169803999999987,0.0019207999999999,-0.2650019999999994,-0.6430477999999991,0.0474667999999999,0,sub_4
-0.1096082000000003,-0.0087105999999987,0.0212291999999999,-0.2105065999999994,-0.676901999999999,-0.0050928,0,sub_4
-0.0533602000000003,-0.0106485999999987,0.0464289999999999,-0.2027897999999994,-0.675199599999999,-0.0112366,0,sub_4
0.0063661999999996,-0.0099385999999987,0.0596419999999999,-0.2167031999999994,-0.6535457999999991,0.0202579999999999,0,sub_4
0.0297369999999996,-0.0117797999999987,0.0844613999999999,-0.2383693999999994,-0.567441399999999,0.0847305999999999,0,sub_4
0.0415465999999996,-0.0112497999999987,0.1025569999999999,-0.2778485999999994,-0.4427681999999991,0.1631297999999999,0,sub_4
0.0365113999999996,-0.0077807999999987,0.1050589999999999,-0.3355037999999994,-0.3361035999999991,0.2320247999999999,0,sub_4
0.0175233999999996,0.0027282000000012,0.0911465999999999,-0.3906587999999994,-0.259634199999999,0.2840979999999999,0,sub_4
-0.0073900000000003,0.0059994000000012,0.0781863999999999,-0.4222185999999994,-0.230647599999999,0.308623,0,sub_4
-0.0263212000000003,0.0041636000000012,0.0645865999999999,-0.4185437999999994,-0.276855999999999,0.2993076,0,sub_4
-0.0437136000000003,-0.0011181999999987,0.0598871999999999,-0.3995589999999994,-0.352660799999999,0.2721907999999999,0,sub_4
-0.0559648000000003,0.0012214000000012,0.0525705999999999,-0.3723067999999994,-0.397158999999999,0.2410323999999999,0,sub_4
-0.0615340000000003,0.0054044000000012,0.0345669999999999,-0.3355717999999995,-0.3726627999999991,0.2104927999999999,0,sub_4
-0.0607756000000003,0.0134726000000012,0.0078957999999999,-0.2881429999999994,-0.289635599999999,0.1855077999999999,0,sub_4
-0.0532026000000003,0.0193454000000012,-0.0070296,-0.2355661999999994,-0.196416999999999,0.1648183999999999,0,sub_4
-0.0399936000000003,0.0195038000000012,-0.0103296,-0.1827197999999994,-0.137079399999999,0.1452425999999999,0,sub_4
-0.0274210000000003,0.0097914000000012,-0.0004376,-0.1403081999999994,-0.121378599999999,0.1247951999999999,0,sub_4
-0.0115054000000003,-0.0035121999999987,0.0222025999999999,-0.1175493999999994,-0.154837799999999,0.1074781999999999,0,sub_4
0.0076443999999996,-0.0126505999999987,0.0456985999999999,-0.1291359999999994,-0.225495999999999,0.0985147999999999,0,sub_4
0.0232901999999996,-0.0163411999999987,0.0553325999999999,-0.1657735999999994,-0.303994999999999,0.1007095999999998,0,sub_4
0.0304519999999996,-0.0128631999999987,0.0547355999999999,-0.1967859999999994,-0.362497599999999,0.1056953999999999,0,sub_4
0.0265081999999996,-0.0089051999999987,0.0509329999999999,-0.2123365999999994,-0.398684999999999,0.1111879999999999,0,sub_4
0.0174085999999996,-0.0003995999999987,0.0444777999999999,-0.2170795999999994,-0.402743799999999,0.1179967999999999,0,sub_4
-0.0007618000000003,0.0027568000000012,0.0424273999999999,-0.2056491999999994,-0.371269399999999,0.1225227999999999,0,sub_4
-0.0225726000000003,0.0035192000000012,0.0444747999999999,-0.1827823999999994,-0.314681599999999,0.1238917999999999,0,sub_4
