userAcceleration.x,userAcceleration.y,userAcceleration.z,rotationRate.x,rotationRate.y,rotationRate.z,label,subject
-0.0169404000000004,0.0042114000000012,0.0393487999999999,0.0555184000000005,-0.0735517999999993,0.0102987999999999,0,sub_9
-0.0237288000000004,-0.0047201999999986,0.0479263999999999,0.0641042000000005,-0.0554993999999993,0.0171721999999999,0,sub_9
-0.0289008000000004,-0.0155229999999986,0.0564703999999999,0.0607564000000005,-0.0380281999999993,0.0199037999999999,0,sub_9
-0.0283672000000004,-0.0208369999999986,0.0585413999999999,0.0428982000000005,-0.0264487999999993,0.0167731999999999,0,sub_9
-0.0189754000000004,-0.0217643999999986,0.0532427999999999,0.0211940000000005,-0.0271767999999993,0.0076475999999999,0,sub_9
-0.0011410000000004,-0.0158179999999986,0.0439627999999999,7.240000000052204e-05,-0.0447221999999993,-0.0055116,0,sub_9
0.0173911999999995,-0.0074337999999986,0.0327317999999999,-0.0179031999999994,-0.0759081999999993,-0.0201268,0,sub_9
0.0357385999999995,0.0012982000000013,0.0209625999999999,-0.0259039999999994,-0.1182111999999993,-0.0338036,0,sub_9
0.0495129999999995,0.0078792000000013,0.0165655999999999,-0.0207273999999994,-0.1682457999999994,-0.0435328,0,sub_9
0.0520987999999995,0.0111780000000012,0.0214489999999999,-0.0089971999999994,-0.2187733999999993,-0.0453088,0,sub_9
0.0392463999999995,0.0092012000000012,0.0323199999999999,0.0034066000000005,-0.2578779999999994,-0.0374836,0,sub_9
0.0174461999999995,0.0053188000000012,0.0449281999999999,0.0152202000000005,-0.2786867999999993,-0.022422,0,sub_9
-0.0122546000000004,0.0012496000000012,0.0574127999999999,0.0258598000000005,-0.2726593999999994,-0.0041982,0,sub_9
-0.0446694000000004,-0.0041225999999987,0.0647661999999999,0.0325806000000005,-0.2367893999999994,0.0137461999999999,0,sub_9
-0.0699792000000004,-0.0098903999999987,0.0689267999999999,0.0377306000000005,-0.1761773999999993,0.0260931999999999,0,sub_9
-0.0853944000000004,-0.0149955999999987,0.0720463999999999,0.0408092000000005,-0.1018581999999993,0.0326423999999999,0,sub_9
-0.0889304000000004,-0.0163297999999986,0.0730997999999999,0.0390176000000005,-0.0230323999999993,0.0353061999999999,0,sub_9
-0.0805502000000004,-0.0164055999999986,0.0699585999999998,0.0354942000000004,0.0485626000000006,0.0362579999999999,0,sub_9
-0.0624250000000004,-0.0146349999999986,0.0649959999999998,0.0314094000000005,0.1054688000000006,0.0344375999999999,0,sub_9
-0.0399984000000004,-0.0106633999999986,0.0559913999999998,0.0253112000000005,0.1417156000000006,0.0326295999999999,0,sub_9
-0.0159664000000004,-0.0058525999999986,0.0457367999999999,0.0212786000000005,0.1600696000000006,0.0280815999999999,0,sub_9
0.0047563999999995,-0.0019143999999987,0.0342299999999999,0.0227112000000005,0.1573232000000006,0.0208213999999999,0,sub_9
0.0206691999999995,0.0016008000000012,0.0260481999999999,0.0257674000000005,0.1343374000000005,0.0118891999999999,0,sub_9
0.0303203999999995,0.0037808000000012,0.0230453999999999,0.0312010000000005,0.1023864000000005,0.0053451999999999,0,sub_9
0.0340179999999995,0.0040148000000012,0.0269865999999999,0.0376890000000005,0.0702086000000005,0.0013723999999999,0,sub_9
0.0305383999999995,0.0035130000000012,0.0318619999999999,0.0430776000000005,0.0350346000000005,0.0016687999999999,0,sub_9
0.0214047999999995,0.0016370000000012,0.0375943999999999,0.0476194000000005,0.0043258000000005,0.0049445999999999,0,sub_9
0.0103889999999995,-0.0027033999999987,0.0441875999999999,0.0520120000000005,-0.0108343999999994,0.0094813999999999,0,sub_9
-0.0008176000000004,-0.0075581999999987,0.0501815999999999,0.0515584000000005,-0.0129787999999994,0.0133265999999999,0,sub_9
-0.0116644000000004,-0.0100701999999987,0.0516299999999999,0.0447554000000005,-0.0057179999999993,0.0149789999999999,0,sub_9
-0.0178428000000004,-0.0094027999999987,0.0492597999999999,0.0335166000000005,0.0092378000000006,0.0142403999999999,0,sub_9
-0.0178782000000004,-0.0067279999999987,0.0464169999999999,0.0231726000000005,0.0331396000000006,0.0132827999999999,0,sub_9
-0.0159724000000004,-0.0031365999999987,0.0432787999999999,0.0164656000000005,0.0606446000000006,0.0138415999999999,0,sub_9
-0.0130552000000004,0.0013254000000012,0.0391235999999999,0.0139932000000005,0.0808910000000005,0.0144391999999999,0,sub_9
-0.0059116000000004,0.0031376000000012,0.0354127999999999,0.0176646000000005,0.0908910000000006,0.0146655999999999,0,sub_9
0.0022377999999995,0.0016652000000012,0.0356253999999999,0.0240744000000004,0.0923618000000005,0.0142811999999999,0,sub_9
0.0081789999999995,-0.0018451999999987,0.0380319999999999,0.0270252000000004,0.0829822000000005,0.0130319999999999,0,sub_9
0.0121541999999995,-0.0044083999999986,0.0377319999999999,0.0216200000000005,0.0646886000000005,0.0104539999999999,0,sub_9
0.0150989999999995,-0.0053699999999986,0.0362857999999999,0.0117378000000005,0.0476872000000006,0.0082703999999999,0,sub_9
0.0134565999999995,-0.0033617999999986,0.0335043999999999,0.0005944000000005,0.0360122000000006,0.0071393999999999,0,sub_9
0.0097201999999995,-0.0001835999999986,0.0272001999999999,-0.0056317999999994,0.0275116000000006,0.0071067999999999,0,sub_9
0.0085003999999995,0.0030934000000013,0.0199483999999999,-0.0047993999999994,0.0226092000000006,0.0069051999999999,0,sub_9
0.0086097999999995,0.0064350000000012,0.0163549999999999,0.0005242000000005,0.0204592000000006,0.0071587999999999,0,sub_9
0.0104515999999995,0.0086204000000012,0.0145345999999999,0.0079760000000005,0.0182966000000005,0.0087089999999999,0,sub_9
0.0150937999999995,0.0089140000000012,0.0176471999999999,0.0183940000000005,0.0129218000000005,0.0117795999999999,0,sub_9
0.0200095999999995,0.0070026000000012,0.0228187999999999,0.0283622000000005,0.0032842000000005,0.0157069999999999,0,sub_9
0.0223831999999995,0.0036148000000012,0.0291261999999999,0.0338380000000005,-0.0086823999999994,0.0198197999999999,0,sub_9
0.0186049999999995,0.0002664000000012,0.0371129999999999,0.0380164000000005,-0.0255403999999993,0.0228615999999999,0,sub_9
0.0125965999999995,-0.0035329999999987,0.0437349999999999,0.0413326000000005,-0.0462225999999993,0.0239795999999999,0,sub_9
0.0034651999999995,-0.0066257999999987,0.0464719999999999,0.0412654000000005,-0.0621971999999993,0.0229313999999999,0,sub_9
-0.0082776000000004,-0.0091517999999986,0.0490279999999999,0.0369884000000004,-0.0674959999999993,0.0197037999999999,0,sub_9
-0.0194862000000004,-0.0099771999999986,0.0505315999999999,0.0306216000000004,-0.0646843999999993,0.0147419999999999,0,sub_9
-0.0246004000000004,-0.0112229999999986,0.0495367999999999,0.0232302000000004,-0.0524947999999993,0.0097607999999999,0,sub_9
-0.0257810000000004,-0.0092461999999986,0.0486495999999999,0.0145826000000005,-0.0345499999999993,0.0051907999999999,0,sub_9
-0.0234650000000004,-0.0075217999999986,0.0481075999999999,0.0066208000000005,-0.0182689999999993,0.0004161999999999,0,sub_9
-0.0160870000000004,-0.0045961999999987,0.0454677999999999,0.0022566000000005,-0.0073317999999993,-0.0030446,0,sub_9
-0.0085018000000004,-0.0011851999999987,0.0423037999999999,0.0036248000000005,-0.0004721999999993,-0.00411,0,sub_9
-0.0015774000000004,0.0014224000000012,0.0408493999999999,0.0090136000000005,0.0001896000000006,-0.0038574,0,sub_9
0.0010571999999995,-0.0003351999999987,0.0407145999999999,0.0158776000000005,-0.0021407999999993,-0.0025224,0,sub_9
-0.0009384000000004,-0.0016977999999987,0.0401663999999999,0.0207652000000005,-0.0040855999999993,7.799999999994443e-05,0,sub_9
-0.0056576000000004,-0.0031255999999987,0.0413899999999999,0.0237448000000005,-0.0032541999999993,0.0026615999999999,0,sub_9
-0.0119744000000004,-0.0043305999999987,0.0428447999999999,0.0246166000000005,0.0022762000000006,0.0041561999999999,0,sub_9
-0.0170302000000004,-0.0051075999999986,0.0429419999999999,0.0233784000000005,0.0122916000000006,0.0047755999999999,0,sub_9
-0.0191604000000004,-0.0045873999999986,0.0414811999999999,0.0215156000000005,0.0242326000000006,0.0038925999999999,0,sub_9
-0.0161808000000004,-0.0039661999999986,0.0415735999999999,0.0220160000000005,0.0387264000000006,0.0019547999999999,0,sub_9
-0.0113992000000004,-0.0034729999999986,0.0397955999999999,0.0212124000000005,0.0466252000000006,-0.0012656,0,sub_9
-0.0025052000000004,-0.0041103999999986,0.0374615999999999,0.0195008000000005,0.0464326000000006,-0.0047036,0,sub_9
0.0059743999999995,-0.0030477999999986,0.0356009999999999,0.0167032000000005,0.0415582000000006,-0.0085704,0,sub_9
0.0127541999999995,-0.0017647999999986,0.0338497999999999,0.0132356000000005,0.0302936000000006,-0.01222,0,sub_9
0.0168395999999995,-0.0006747999999986,0.0300115999999999,0.0086572000000005,0.0092324000000006,-0.015865,0,sub_9
0.0187203999999995,0.0003830000000012,0.0287723999999999,0.0072822000000005,-0.0099277999999993,-0.0182082,0,sub_9
0.0160431999999995,0.0011656000000012,0.0308131999999999,0.0065740000000005,-0.0261133999999993,-0.0192606,0,sub_9
0.0120509999999995,0.0007698000000012,0.0334557999999999,0.0058620000000005,-0.0412413999999993,-0.0183916,0,sub_9
0.0080809999999995,0.0005620000000012,0.0346003999999999,0.0071660000000005,-0.0496227999999993,-0.0160808,0,sub_9
0.0041461999999995,-0.0001763999999987,0.0366121999999999,0.0104200000000005,-0.0499209999999993,-0.0122712,0,sub_9
-0.0008168000000004,-2.139999999871368e-05,0.0396135999999999,0.0122120000000005,-0.0429707999999993,-0.0082674,0,sub_9
-0.0047608000000004,0.0004458000000012,0.0400493999999999,0.0112464000000005,-0.0332379999999993,-0.005141,0,sub_9
-0.0068412000000004,-0.0007545999999986,0.0396969999999999,0.0124442000000005,-0.0183933999999993,-0.0035016,0,sub_9
-0.0079586000000004,-0.0023995999999986,0.0412533999999999,0.0129380000000005,-0.0028445999999993,-0.0028772,0,sub_9
-0.0086606000000003,-0.0023615999999986,0.0422065999999999,0.0104370000000005,0.0097370000000005,-0.0035516,0,sub_9
-0.0057672000000003,-0.0026649999999987,0.0403325999999999,0.0077004000000005,0.0176312000000005,-0.0040082,0,sub_9
-0.0017434000000003,-0.0024057999999987,0.0396429999999999,0.0083722000000005,0.0252964000000005,-0.0033724,0,sub_9
0.0007135999999995,-0.0015285999999987,0.0401933999999999,0.0069380000000005,0.0280842000000005,-0.0023952,0,sub_9
0.0023871999999995,-0.0010021999999987,0.0401373999999999,0.0035662000000005,0.0268316000000005,-0.00164,0,sub_9
0.0041159999999995,-0.0011643999999987,0.0390667999999999,0.0008412000000005,0.0264316000000006,-0.0015224,0,sub_9
0.0045031999999995,-0.0021203999999986,0.0396017999999999,-0.0010301999999994,0.0241188000000006,-0.003319,0,sub_9
0.0050109999999995,-0.0028613999999986,0.0401705999999999,-0.0039811999999994,0.0177668000000006,-0.0064,0,sub_9
0.0060893999999995,-0.0027723999999986,0.0390359999999999,-0.0063521999999994,0.0096900000000006,-0.0091836,0,sub_9
0.0074379999999995,-0.0025119999999986,0.0375437999999999,-0.0076525999999994,0.0024618000000006,-0.0119608,0,sub_9
0.0083011999999995,-0.0030953999999986,0.0378991999999999,-0.0083215999999994,-0.0058373999999993,-0.0138775999999999,0,sub_9
0.0078267999999995,-0.0028375999999987,0.0386869999999999,-0.0104851999999994,-0.0117979999999993,-0.0132441999999999,0,sub_9
0.0057205999999995,-0.0025201999999987,0.0389581999999999,-0.0138559999999994,-0.0164285999999993,-0.0113958,0,sub_9
0.0033781999999995,-0.0022335999999987,0.0377615999999999,-0.0161457999999994,-0.0182913999999993,-0.0099707999999999,0,sub_9
0.0012821999999995,-0.0018261999999987,0.0371143999999999,-0.0167141999999994,-0.0173887999999993,-0.0089646,0,sub_9
0.0002591999999995,-0.0005391999999987,0.0375321999999999,-0.0181215999999994,-0.0132873999999993,-0.0079684,0,sub_9
0.0017145999999995,-0.0001661999999987,0.0367365999999999,-0.0201737999999994,-0.0113099999999993,-0.0080422,0,sub_9
0.0039643999999995,-0.0002377999999987,0.0354899999999999,-0.0205881999999994,-0.0091753999999993,-0.0086888,0,sub_9
0.0060993999999995,-0.0001383999999987,0.0354867999999999,-0.0210129999999994,-0.0093843999999993,-0.0093324,0,sub_9
0.0079161999999995,-0.0012513999999987,0.0376141999999999,-0.0237273999999994,-0.0127983999999993,-0.0089556,0,sub_9
0.0086517999999995,-0.0020119999999987,0.0378911999999999,-0.0266695999999994,-0.0189829999999993,-0.0081496,0,sub_9
0.0074475999999995,-0.0016819999999987,0.0391883999999999,-0.0281125999999994,-0.0238943999999993,-0.0073348,0,sub_9
0.0046241999999995,-0.0016161999999987,0.0406539999999999,-0.0297629999999994,-0.0279511999999993,-0.00695,0,sub_9
0.0017035999999995,-0.0020721999999987,0.0416331999999999,-0.0316257999999994,-0.0320061999999993,-0.0067802,0,sub_9
-0.0012564000000004,-0.0017021999999987,0.0406973999999999,-0.0301369999999994,-0.0330765999999993,-0.0067684,0,sub_9
-0.0044760000000004,-0.0010445999999987,0.0410577999999999,-0.0273525999999994,-0.0303183999999993,-0.0063252,0,sub_9
-0.0072382000000004,-0.0003729999999987,0.0399365999999999,-0.0239193999999994,-0.0247961999999993,-0.0050264,0,sub_9
-0.0089018000000004,-0.0012731999999986,0.0388599999999999,-0.0186707999999994,-0.0175519999999993,-0.0032828,0,sub_9
-0.0088838000000004,-0.0023469999999986,0.0397919999999999,-0.0136183999999994,-0.0068965999999993,-0.0019724,0,sub_9
-0.0070438000000004,-0.0028451999999986,0.0420153999999999,-0.0113493999999994,0.0010014000000006,-0.0013188,0,sub_9
-0.0047698000000004,-0.0031343999999986,0.0442919999999999,-0.0110255999999994,0.0025180000000006,-0.0015252,0,sub_9
-0.0029882000000004,-0.0035575999999986,0.0457457999999999,-0.0120011999999994,-0.0006463999999994,-0.0021618,0,sub_9
-0.0011994000000004,-0.0018861999999986,0.0458889999999999,-0.0135159999999994,-0.0051161999999993,-0.001953,0,sub_9
-0.0022550000000004,0.0004370000000013,0.0458809999999999,-0.0133197999999994,-0.0072543999999993,-0.0002396,0,sub_9
-0.0065300000000004,0.0016868000000012,0.0444527999999999,-0.0114051999999994,-0.0062051999999993,0.0021223999999999,0,sub_9
-0.0103354000000004,0.0007888000000013,0.0426601999999999,-0.0061323999999994,0.0023016000000006,0.0043001999999999,0,sub_9
-0.0131316000000004,-0.0013607999999986,0.0436981999999999,0.0010838000000005,0.0154906000000006,0.0060581999999999,0,sub_9
-0.0140982000000004,-0.0041905999999986,0.0474961999999999,0.0053128000000005,0.0272046000000006,0.0063017999999999,0,sub_9
-0.0116606000000004,-0.0063395999999986,0.0503575999999999,0.0063238000000005,0.0346704000000005,0.0061009999999999,0,sub_9
-0.0077526000000004,-0.0071599999999986,0.0509539999999999,0.0060480000000005,0.0404370000000005,0.0056799999999999,0,sub_9
-0.0038670000000004,-0.0066117999999987,0.0499181999999999,0.0041382000000005,0.0421508000000005,0.0050235999999999,0,sub_9
-5.200000000042463e-05,-0.0054187999999987,0.0476713999999999,0.0002908000000005,0.0398240000000005,0.0041451999999999,0,sub_9
0.0025063999999995,-0.0039649999999987,0.0448419999999999,-0.0018543999999994,0.0368504000000005,0.0037067999999999,0,sub_9
0.0030495999999995,-0.0030005999999987,0.0396907999999999,-0.0029807999999994,0.0328026000000006,0.0028787999999999,0,sub_9
0.0029715999999995,-0.0014451999999987,0.0366991999999999,-0.0026145999999994,0.0276876000000006,0.0012079999999999,0,sub_9
0.0032265999999995,-0.0001595999999987,0.0345489999999999,-0.0013987999999994,0.0212930000000006,-0.0008826,0,sub_9
0.0038407999999995,0.0004204000000012,0.0348303999999999,0.0013182000000005,0.0165976000000006,-0.0029648,0,sub_9
0.0046013999999995,0.0007796000000012,0.0350579999999999,0.0031808000000005,0.0121166000000006,-0.004626,0,sub_9
0.0051063999999995,0.0007262000000012,0.0373197999999999,0.0050828000000005,0.0067886000000006,-0.0058876,0,sub_9
0.0067317999999995,-0.0012261999999987,0.0396049999999999,0.0063380000000005,0.0010326000000006,-0.0060852,0,sub_9
0.0073119999999995,-0.0032615999999987,0.0421541999999999,0.0058768000000004,-0.0051503999999993,-0.004585,0,sub_9
0.0056159999999995,-0.0040045999999987,0.0412703999999999,0.0030712000000004,-0.0136451999999993,-0.0026314,0,sub_9
0.0029649999999995,-0.0037573999999987,0.0394365999999999,0.0017594000000004,-0.0210841999999993,0.0003995999999999,0,sub_9
0.0003229999999995,-0.0027811999999987,0.0383443999999999,0.0032368000000004,-0.0236385999999993,0.0049391999999999,0,sub_9
-0.0068834000000004,0.0007902000000012,0.0357493999999999,0.0049448000000005,-0.0227831999999993,0.0090489999999999,0,sub_9
-0.0119024000000004,0.0026162000000012,0.0324131999999999,0.0098790000000005,-0.0180963999999993,0.0112535999999999,0,sub_9
-0.0148876000000004,0.0027012000000012,0.0322497999999999,0.0212578000000005,-0.0013097999999993,0.0125933999999999,0,sub_9
-0.0171658000000004,-8.21999999987135e-05,0.0371281999999999,0.0296732000000004,0.0210258000000005,0.0141189999999999,0,sub_9
-0.0181624000000004,-0.0030023999999987,0.0392607999999999,0.0293270000000004,0.0393482000000005,0.0145203999999999,0,sub_9
-0.0139082000000004,-0.0059793999999987,0.0417759999999999,0.0270518000000004,0.0557598000000005,0.0149105999999999,0,sub_9
-0.0108304000000004,-0.0073835999999987,0.0445627999999999,0.0224824000000004,0.0692614000000005,0.0153271999999999,0,sub_9
-0.0079360000000004,-0.0065283999999987,0.0452267999999999,0.0121070000000005,0.0729820000000005,0.0159295999999999,0,sub_9
-0.0051344000000004,-0.0036737999999987,0.0406055999999999,0.0051310000000005,0.0713728000000005,0.0144259999999999,0,sub_9
-0.0028986000000004,-0.0013967999999987,0.0383767999999999,0.0045514000000005,0.0678272000000006,0.0121149999999999,0,sub_9
-0.0013804000000004,-0.0007451999999987,0.0389507999999999,0.0050338000000005,0.0634248000000006,0.0100261999999999,0,sub_9
-0.0015496000000004,-0.0001035999999986,0.0399057999999999,0.0050252000000005,0.0612952000000006,0.0098151999999998,0,sub_9
-0.0030590000000004,-0.0009779999999986,0.0408337999999999,0.0052988000000005,0.0602702000000006,0.0104839999999998,0,sub_9
-0.0053298000000004,-0.0021725999999986,0.0423605999999999,0.0051564000000005,0.0626514000000006,0.0122139999999998,0,sub_9
-0.0074712000000004,-0.0031733999999986,0.0436195999999999,0.0039662000000005,0.0688730000000006,0.0135043999999998,0,sub_9
-0.0096796000000003,-0.0033829999999986,0.0431157999999999,0.0023542000000005,0.0761614000000006,0.0147903999999999,0,sub_9
-0.0106310000000003,-0.0030411999999987,0.0428739999999999,0.0020262000000005,0.0834486000000006,0.0152307999999999,0,sub_9
-0.0106594000000003,-0.0030203999999987,0.0433427999999999,0.0024818000000005,0.0898388000000006,0.0152257999999999,0,sub_9
-0.0099598000000003,-0.0027673999999986,0.0441547999999999,0.0016418000000005,0.0930366000000006,0.0154293999999999,0,sub_9
-0.0101712000000003,-0.0032951999999986,0.0455209999999999,0.0005874000000005,0.0970832000000005,0.0166985999999999,0,sub_9
-0.0105660000000003,-0.0048425999999986,0.0465681999999999,-0.0011031999999994,0.1017720000000005,0.0177489999999999,0,sub_9
-0.0114404000000003,-0.0066029999999986,0.0469397999999999,-0.0048823999999994,0.1064312000000005,0.0185783999999999,0,sub_9
-0.0126568000000003,-0.0080013999999986,0.0470501999999999,-0.0097159999999994,0.1134394000000006,0.0189701999999999,0,sub_9
-0.0143636000000003,-0.0081473999999987,0.0463683999999999,-0.0162479999999994,0.1215224000000005,0.0184939999999999,0,sub_9
-0.0147190000000004,-0.0068685999999987,0.0440397999999999,-0.0227799999999994,0.1285442000000006,0.0169509999999999,0,sub_9
-0.0148978000000004,-0.0051953999999986,0.0412377999999999,-0.0276089999999994,0.1351322000000006,0.0158477999999999,0,sub_9
-0.0152398000000004,-0.0035757999999986,0.0396833999999999,-0.0290603999999994,0.1438752000000006,0.0151855999999999,0,sub_9
-0.0151520000000004,-0.0023335999999986,0.0367061999999999,-0.0300917999999994,0.1511252000000006,0.0145279999999999,0,sub_9
-0.0127126000000004,-0.0024843999999986,0.0356161999999999,-0.0292133999999994,0.1560250000000006,0.0138869999999999,0,sub_9
-0.0112594000000004,-0.0034691999999986,0.0369535999999999,-0.0272325999999994,0.1642906000000006,0.0138993999999999,0,sub_9
-0.0096716000000004,-0.0039425999999986,0.0382505999999999,-0.0273883999999994,0.1717124000000006,0.0136843999999998,0,sub_9
-0.0066766000000004,-0.0039565999999986,0.0379937999999999,-0.0307659999999994,0.1738216000000006,0.0128125999999998,0,sub_9
-0.0024418000000004,-0.0028659999999987,0.0375209999999999,-0.0335091999999994,0.1748624000000005,0.0121603999999998,0,sub_9
0.0018273999999995,-0.0006493999999987,0.0351511999999999,-0.0349807999999994,0.1744056000000006,0.0119461999999999,0,sub_9
0.0067983999999995,0.0022524000000012,0.0319199999999999,-0.0350161999999994,0.1667348000000006,0.0121695999999999,0,sub_9
0.0111783999999995,0.0045480000000012,0.0291977999999999,-0.0316635999999994,0.1545728000000006,0.0137039999999999,0,sub_9
0.0143809999999995,0.0057796000000012,0.0273167999999999,-0.0246969999999994,0.1404764000000005,0.0163345999999999,0,sub_9
0.0151209999999995,0.0057998000000012,0.0289091999999999,-0.0162445999999994,0.1250948000000006,0.0194043999999999,0,sub_9
0.0115655999999995,0.0036788000000012,0.0317359999999999,-0.0090597999999994,0.1124874000000006,0.0224617999999999,0,sub_9
0.0052325999999995,-2.1399999998714118e-05,0.0339227999999999,-0.0044039999999994,0.1058588000000005,0.0244255999999999,0,sub_9
-0.0002566000000004,-0.0030759999999986,0.0350725999999999,-0.0031313999999994,0.1022402000000005,0.0225163999999999,0,sub_9
-0.0032316000000004,-0.0041673999999986,0.0355369999999999,-0.0056775999999994,0.1005644000000006,0.0175867999999999,0,sub_9
-0.0025296000000004,-0.0039659999999986,0.0335113999999999,-0.0099315999999994,0.0982572000000005,0.0122189999999999,0,sub_9
0.0021773999999995,-0.0020057999999986,0.0317055999999999,-0.0135561999999994,0.0942406000000005,0.0074985999999999,0,sub_9
0.0083525999999995,0.0006486000000013,0.0302537999999999,-0.0157147999999994,0.0872232000000005,0.0059969999999999,0,sub_9
0.0119397999999995,0.0027772000000012,0.0294747999999999,-0.0153407999999994,0.0774136000000005,0.0079349999999999,0,sub_9
0.0129135999999995,0.0019144000000012,0.0291567999999999,-0.0122033999999994,0.0673726000000005,0.0120289999999999,0,sub_9
0.0106697999999995,0.0009812000000012,0.0286765999999999,-0.0082001999999994,0.0596740000000005,0.0156987999999999,0,sub_9
0.0070569999999995,-0.0001075999999987,0.0292925999999999,-0.0059057999999994,0.0490088000000005,0.0167967999999999,0,sub_9
0.0053329999999995,-0.0006873999999987,0.0298367999999999,-0.0044611999999994,0.0351670000000005,0.0138335999999999,0,sub_9
0.0056107999999995,-0.0016741999999987,0.0312171999999999,-0.0029963999999994,0.0245262000000005,0.0095845999999999,0,sub_9
0.0050921999999995,-0.0011307999999987,0.0329403999999999,-0.0021725999999994,0.0145234000000005,0.0061849999999999,0,sub_9
0.0047877999999995,-0.0010583999999987,0.0362425999999999,-0.0022127999999994,0.0023922000000006,0.0029955999999999,0,sub_9
0.0038787999999995,-0.0013211999999987,0.0375725999999999,-0.0011775999999994,-0.0057031999999993,0.0019449999999999,0,sub_9
0.0017117999999995,-0.0024809999999987,0.0395499999999999,9.020000000051905e-05,-0.0078405999999993,0.0025973999999999,0,sub_9
-0.0034384000000004,-0.0029373999999987,0.0409801999999999,8.6400000000539e-05,-0.0076317999999993,0.0036651999999999,0,sub_9
-0.0077816000000004,-0.0032079999999987,0.0419407999999999,-0.0007507999999994,-0.0037945999999993,0.0038679999999999,0,sub_9
-0.0120906000000004,-0.0036519999999987,0.0417939999999999,-0.0017811999999994,0.0049416000000006,0.0044905999999999,0,sub_9
-0.0154538000000004,-0.0039945999999987,0.0430073999999999,-0.0027817999999994,0.0204948000000006,0.0053181999999999,0,sub_9
-0.0179798000000004,-0.0036241999999987,0.0433015999999999,-0.0039977999999994,0.0360470000000006,0.0065717999999999,0,sub_9
-0.0176252000000004,-0.0033057999999987,0.0437801999999999,-0.0052175999999994,0.0515958000000006,0.0086797999999999,0,sub_9
-0.0151648000000004,-0.0034467999999987,0.0435097999999999,-0.0053771999999994,0.0667104000000006,0.0118639999999999,0,sub_9
-0.0117914000000004,-0.0035031999999987,0.0430325999999999,-0.0059721999999994,0.0796970000000006,0.0148341999999999,0,sub_9
-0.0086306000000004,-0.0034235999999987,0.0409955999999999,-0.0065979999999994,0.0843804000000006,0.0163193999999999,0,sub_9
-0.0047364000000004,-0.0034731999999987,0.0389419999999999,-0.0076657999999994,0.0837466000000006,0.0158853999999999,0,sub_9
-0.0002442000000004,-0.0032361999999987,0.0375869999999999,-0.0089527999999994,0.0795010000000006,0.0131045999999999,0,sub_9
0.0016323999999995,-0.0018043999999987,0.0361665999999999,-0.0102561999999994,0.0707848000000005,0.0094747999999999,0,sub_9
