userAcceleration.x,userAcceleration.y,userAcceleration.z,rotationRate.x,rotationRate.y,rotationRate.z,label,subject
-0.0033328000000002,0.0052592000000012,0.0008059999999999,-0.0095321999999995,-0.0023733999999989,-0.0069512,0,sub_24
-0.0025740000000002,0.0038832000000012,0.0014779999999999,-0.0069673999999995,0.0012076000000009,-0.0039414,0,sub_24
-0.0024874000000002,0.0041038000000012,0.0018517999999999,-0.0052685999999995,0.0020220000000009,-0.0009342,0,sub_24
-0.0028382000000003,0.0053982000000012,0.0020177999999999,-0.0040125999999995,-0.000996199999999,0.0018611999999999,0,sub_24
-0.0039278000000002,0.0064272000000012,0.0029249999999999,-0.0027473999999995,-0.002308199999999,0.0042267999999999,0,sub_24
-0.0043694000000002,0.0072750000000012,0.0029511999999999,-0.0025299999999995,-0.000204399999999,0.0057261999999999,0,sub_24
-0.0044744000000002,0.0077986000000012,0.0034615999999999,-0.0025265999999995,0.0014968000000009,0.0065781999999999,0,sub_24
-0.0047914000000002,0.0078396000000012,0.0018935999999999,-0.0025183999999995,0.0029900000000009,0.0061485999999999,0,sub_24
-0.0047800000000002,0.0057864000000012,0.0002481999999999,-0.0029223999999995,0.0044974000000009,0.0025113999999999,0,sub_24
-0.0035594000000002,0.0046854000000012,-0.0017462,-0.0043775999999995,0.0070832000000009,-0.0034844,0,sub_24
-0.0015226000000002,0.0045578000000012,-0.0035156,-0.0066999999999994,0.0060290000000009,-0.0096904,0,sub_24
0.0014839999999997,0.0046678000000012,-0.0058312,-0.0088385999999994,0.0004914000000009,-0.0137528,0,sub_24
0.0022737999999997,0.0036422000000012,-0.0067614,-0.0103693999999994,-0.010170199999999,-0.0156676,0,sub_24
0.0023601999999996,0.0040268000000012,-0.0057376,-0.0089235999999994,-0.019153999999999,-0.0135046,0,sub_24
0.0015767999999996,0.0086638000000012,-0.0036484,-0.0041137999999994,-0.030952599999999,-0.0029824,0,sub_24
-0.0017478000000002,0.0093104000000012,0.0003143999999999,0.0032114000000004,-0.043837599999999,0.0160995999999999,0,sub_24
-0.0037242000000002,0.0065552000000012,0.0049945999999999,0.0131282000000004,-0.049064399999999,0.0358303999999999,0,sub_24
-0.0017254000000002,0.0059616000000012,0.0111577999999999,0.0239302000000004,-0.048128199999999,0.0547077999999999,0,sub_24
-0.0005552000000002,0.0061714000000012,0.0157421999999999,0.0328124000000004,-0.048669799999999,0.0718646,0,sub_24
-0.0025608000000002,0.0026712000000012,0.0168763999999999,0.0389732000000004,-0.045759799999999,0.0806657999999999,0,sub_24
-0.0034450000000002,0.0036704000000011,0.0166241999999999,0.0409608000000004,-0.034475399999999,0.0768219999999999,0,sub_24
-0.0055066000000002,0.0079626000000011,0.0157035999999999,0.0378458000000004,-0.026127599999999,0.0658961999999999,0,sub_24
-0.0111628000000002,0.0118698000000011,0.0130819999999999,0.0313170000000004,-0.022207399999999,0.0502485999999999,0,sub_24
-0.0152790000000002,0.0129094000000011,0.0079867999999999,0.0224702000000004,-0.015494799999999,0.0309489999999999,0,sub_24
-0.0121616000000002,0.0126026000000011,0.0046137999999999,0.0127792000000004,-0.007073999999999,0.0114275999999999,0,sub_24
-0.0045938000000002,0.0108268000000012,0.0019527999999999,0.0053808000000004,-0.006145799999999,-0.0031508,0,sub_24
0.0020779999999997,0.0075014000000012,-0.0023924,0.0017718000000004,-0.010157399999999,-0.0110727999999999,0,sub_24
0.0081471999999997,0.0047794000000012,-0.0072778,-0.0001253999999995,-0.009715199999999,-0.0153555999999999,0,sub_24
0.0143083999999997,0.0040052000000012,-0.0082846,-0.0009535999999995,-0.006728399999999,-0.0174971999999999,0,sub_24
0.0173351999999997,0.0035510000000012,-0.007202,-0.0009351999999995,-0.003538199999999,-0.0179231999999999,0,sub_24
0.0154491999999997,0.0036988000000012,-0.0080534,-0.0015509999999994,0.0013658000000009,-0.0181449999999999,0,sub_24
0.0128303999999997,0.0048324000000012,-0.0075698,-0.0034377999999994,0.0071314000000009,-0.0196589999999999,0,sub_24
0.0100615999999997,0.0052342000000012,-0.0075066,-0.0032109999999994,0.0096886000000009,-0.019873,0,sub_24
0.0062147999999997,0.0054054000000012,-0.0086726,-0.0015229999999994,0.0060460000000009,-0.0187844,0,sub_24
0.0027831999999997,0.0062846000000012,-0.0106106,-0.0002847999999994,-0.002920599999999,-0.0179064,0,sub_24
0.0009993999999997,0.0065164000000012,-0.0088992,-0.0001125999999995,-0.012306999999999,-0.0176766,0,sub_24
0.0004061999999996,0.0070474000000012,-0.0067318,0.0002884000000004,-0.0178609999999989,-0.017023,0,sub_24
0.0019681999999996,0.0068834000000012,-0.0043818,6.780000000047124e-05,-0.018939399999999,-0.0161656,0,sub_24
0.0027145999999996,0.0075932000000012,-0.0018024,-0.0009913999999995,-0.016169999999999,-0.015108,0,sub_24
0.0021657999999996,0.0080390000000012,0.0011567999999999,-0.0024801999999995,-0.013401599999999,-0.0134126,0,sub_24
0.0011499999999996,0.0083084000000012,0.0010175999999999,-0.0020459999999995,-0.0102131999999989,-0.011918,0,sub_24
0.0003951999999997,0.0074878000000012,0.0007817999999999,-0.0020369999999995,-0.007881399999999,-0.0110636,0,sub_24
-0.0009602000000002,0.0073204000000012,0.0016135999999999,-0.0024659999999994,-0.008104999999999,-0.010209,0,sub_24
-0.0013644000000002,0.0066800000000012,0.0016995999999999,-0.0031113999999994,-0.0091791999999989,-0.0095688,0,sub_24
-0.0038584000000002,0.0062472000000012,0.0002255999999999,-0.0028985999999994,-0.0098277999999989,-0.009564,0,sub_24
-0.0057322000000002,0.0062770000000012,-0.0006604,-0.0029037999999995,-0.012389599999999,-0.0104132,0,sub_24
-0.0072048000000002,0.0072326000000012,-0.0004334,-0.0029229999999995,-0.017923799999999,-0.0116888,0,sub_24
-0.0074636000000002,0.0076798000000012,-0.0011958,-0.0035785999999995,-0.023664599999999,-0.0140367999999999,0,sub_24
-0.0078104000000002,0.0073344000000012,-0.00199,-0.0038101999999995,-0.029833799999999,-0.0161675999999999,0,sub_24
-0.0046230000000002,0.0059978000000012,-0.0009596,-0.0040247999999995,-0.032174999999999,-0.0176609999999999,0,sub_24
-0.0016578000000002,0.0051064000000012,-0.0004952,-0.0042355999999995,-0.031966399999999,-0.0174479999999999,0,sub_24
-0.0001158000000002,0.0050840000000012,-0.0005646,-0.0040227999999995,-0.031337399999999,-0.0161641999999999,0,sub_24
-0.0007324000000002,0.0050040000000012,-0.0006284,-0.0031601999999995,-0.028579999999999,-0.0148785999999999,0,sub_24
-0.0011686000000002,0.0061168000000012,0.0001925999999999,-0.0027195999999995,-0.0253923999999989,-0.0142375999999999,0,sub_24
-0.0021278000000002,0.0072196000000012,-1.360000000007612e-05,-0.0020845999999995,-0.0251865999999989,-0.0129515999999999,0,sub_24
-0.0024448000000002,0.0067384000000012,-2.200000000076143e-06,-0.0014571999999995,-0.0264729999999989,-0.0114504,0,sub_24
-0.0017530000000002,0.0058506000000012,-0.0009538,-0.0001911999999995,-0.0277633999999989,-0.0095172,0,sub_24
-0.0002536000000002,0.0058694000000012,-0.0008896,0.0012802000000004,-0.0296987999999989,-0.0063026,0,sub_24
0.0003269999999997,0.0061060000000012,-0.0020678,0.0038186000000004,-0.0303647999999989,-0.0018002,0,sub_24
0.0025491999999997,0.0054390000000012,-0.0024368,0.0072146000000004,-0.0291203999999989,0.0037741999999999,0,sub_24
0.0042339999999997,0.0058440000000012,-0.0027608,0.0116736000000004,-0.0278829999999989,0.0102107999999999,0,sub_24
0.0052953999999997,0.0053816000000012,-0.0026608,0.0159220000000004,-0.0255813999999989,0.0170717999999999,0,sub_24
0.0039745999999997,0.0049330000000012,-0.0031206,0.0197326000000004,-0.026258399999999,0.0232953999999999,0,sub_24
0.0034161999999997,0.0041624000000012,-0.0018792,0.0224724000000004,-0.029905999999999,0.0273787999999999,0,sub_24
0.0014219999999997,0.0049576000000012,-0.0006212,0.0235250000000004,-0.032468799999999,0.0280303999999999,0,sub_24
0.0021469999999997,0.0052936000000012,0.0007171999999999,0.0224796000000004,-0.029258999999999,0.0263069999999999,0,sub_24
0.0025423999999997,0.0060036000000012,0.0021135999999999,0.0199558000000004,-0.023908399999999,0.0232885999999999,0,sub_24
0.0032905999999997,0.0062426000000012,0.0033817999999999,0.0151086000000004,-0.015557399999999,0.0178999999999999,0,sub_24
0.0007061999999997,0.0084536000000012,0.0040407999999999,0.0088116000000004,-0.000159399999999,0.0097143999999999,0,sub_24
-0.0020386000000002,0.0101670000000012,0.0046099999999999,0.0001914000000004,0.0180266000000009,-0.001055,0,sub_24
-0.0068052000000002,0.0121296000000012,0.0053785999999999,-0.0082473999999995,0.0274792000000009,-0.0133047999999999,0,sub_24
-0.0106668000000002,0.0126894000000012,0.0050083999999999,-0.0164825999999995,0.0339518000000009,-0.0264041999999999,0,sub_24
-0.0122058000000002,0.0127416000000012,0.0038591999999999,-0.0225705999999995,0.0453094000000009,-0.0375723999999999,0,sub_24
-0.0096148000000002,0.0105504000000012,0.0037469999999999,-0.0269793999999995,0.0549460000000009,-0.0444567999999999,0,sub_24
-0.0056110000000002,0.0082540000000012,0.0031523999999999,-0.0273819999999995,0.0590088000000009,-0.0461781999999999,0,sub_24
-0.0016934000000002,0.0050796000000012,0.0021827999999999,-0.0258775999999994,0.0647506000000009,-0.0431879999999999,0,sub_24
0.0006331999999997,0.0045356000000012,0.0025573999999999,-0.0226833999999994,0.0700466000000009,-0.0367665999999999,0,sub_24
0.0003601999999997,0.0054656000000012,0.0039221999999999,-0.0178293999999994,0.0676556000000009,-0.0275463999999999,0,sub_24
-0.0007884000000002,0.0064690000000012,0.0039931999999999,-0.0108653999999994,0.0614092000000009,-0.0165938,0,sub_24
-0.0006052000000002,0.0052704000000012,0.0046103999999999,-0.0043091999999995,0.0602740000000009,-0.0047961999999999,0,sub_24
-0.0009422000000002,0.0055038000000012,0.0049587999999999,0.0007610000000004,0.0599996000000009,0.0061355999999999,0,sub_24
-0.0011860000000002,0.0055428000000012,0.0046287999999999,0.0054094000000004,0.0580334000000009,0.0142889999999999,0,sub_24
-0.0027818000000002,0.0043852000000012,0.0028317999999999,0.0079566000000004,0.0588730000000009,0.0177215999999999,0,sub_24
-0.0034638000000002,0.0025360000000012,0.0006979999999999,0.0081856000000004,0.0614438000000009,0.0164352,0,sub_24
-0.0070140000000002,0.0033894000000012,-0.0014566,0.0079730000000004,0.0572122000000009,0.011736,0,sub_24
-0.0098128000000002,0.0055960000000012,-0.0028648,0.0069234000000004,0.0529980000000009,0.0033983999999999,0,sub_24
-0.0105412000000002,0.0065440000000012,-0.0041514,0.0042100000000004,0.0556186000000009,-0.0077372,0,sub_24
-0.0073750000000002,0.0077056000000011,-0.003807,0.0006502000000004,0.0601472000000009,-0.0182376,0,sub_24
-0.0051124000000002,0.0085238000000011,-0.0042284,-0.0035581999999995,0.0653070000000009,-0.026179,0,sub_24
-0.0023214000000002,0.0099124000000011,-0.0042942,-0.0079725999999995,0.0745142000000009,-0.0319906,0,sub_24
-0.0016372000000002,0.0087014000000011,-0.0039048,-0.0094035999999995,0.0858296000000009,-0.034793,0,sub_24
-0.0034828000000002,0.0070880000000011,-0.002693,-0.0097917999999995,0.0956346000000009,-0.0337405999999999,0,sub_24
-0.0065764000000002,0.0059940000000011,-0.0016932,-0.0093507999999995,0.1011712000000009,-0.0316089999999999,0,sub_24
-0.0100980000000002,0.0054922000000011,0.0005155999999998,-0.0072221999999995,0.1024408000000009,-0.0294607999999999,0,sub_24
-0.0145364000000002,0.0044780000000011,0.0027763999999998,-0.0053259999999995,0.0990174000000009,-0.0275219999999999,0,sub_24
-0.0162572000000002,0.0058420000000012,0.0045121999999998,-0.0064289999999995,0.0913502000000009,-0.0273079999999999,0,sub_24
-0.0157082000000002,0.0072716000000012,0.0052457999999998,-0.0064747999999995,0.0807000000000009,-0.0279371999999999,0,sub_24
-0.0139812000000002,0.0075294000000012,0.0063863999999999,-0.0069525999999995,0.0704918000000009,-0.0275017999999999,0,sub_24
-0.0122014000000002,0.0083578000000012,0.0068855999999999,-0.0080677999999995,0.0613494000000009,-0.0266447999999999,0,sub_24
-0.0107014000000002,0.0087588000000012,0.0065015999999999,-0.0089505999999995,0.0554064000000009,-0.0268583999999999,0,sub_24
-0.0107766000000002,0.0075890000000012,0.0056869999999999,-0.0094015999999995,0.0503150000000009,-0.0272835999999999,0,sub_24
-0.0108118000000002,0.0065394000000012,0.0044463999999999,-0.0100667999999995,0.0447990000000009,-0.0279238,0,sub_24
-0.0108856000000002,0.0060818000000011,0.0027961999999999,-0.0098673999999995,0.0416032000000009,-0.0281332,0,sub_24
-0.0098528000000002,0.0058600000000011,0.0023821999999999,-0.0103011999999995,0.0405376000000009,-0.0277086,0,sub_24
-0.0074880000000002,0.0050250000000011,0.0006833999999999,-0.0088509999999995,0.0334914000000009,-0.0251266,0,sub_24
-0.0052690000000002,0.0038920000000011,-0.0012778,-0.0052725999999995,0.0279412000000009,-0.0203941999999999,0,sub_24
-0.0032608000000002,0.0036580000000012,-0.0012926,-0.0025255999999995,0.0283552000000009,-0.0146065999999999,0,sub_24
-0.0010166000000002,0.0038654000000012,-0.001131,0.0012654000000004,0.0247134000000009,-0.0077383999999999,0,sub_24
0.0003329999999996,0.0036512000000012,-0.002396,0.0065414000000004,0.0202100000000009,0.0002098,0,sub_24
0.0012561999999996,0.0044886000000012,-0.002544,0.0109986000000004,0.0235916000000009,0.008356,0,sub_24
0.0034385999999996,0.0054910000000012,-0.0007858,0.0148070000000004,0.0248226000000009,0.0169272,0,sub_24
0.0033501999999996,0.0060250000000012,2.459999999990369e-05,0.0181694000000004,0.0209454000000009,0.0246474,0,sub_24
-0.0003976000000003,0.0067648000000012,0.0008289999999999,0.0190192000000004,0.0222124000000009,0.0267886,0,sub_24
-0.0046196000000002,0.0080952000000012,0.0025007999999999,0.0179742000000004,0.0250022000000009,0.024216,0,sub_24
-0.0081382000000002,0.0094486000000012,0.0044827999999999,0.0143724000000004,0.0254702000000009,0.0184236,0,sub_24
-0.0109836000000002,0.0102578000000012,0.0045597999999999,0.0088654000000004,0.0270194000000009,0.010266,0,sub_24
-0.0113594000000002,0.0112600000000012,0.0031697999999999,0.0037908000000004,0.0298454000000009,0.0021098,0,sub_24
-0.0076620000000002,0.0108788000000012,0.0009403999999999,0.0001908000000004,0.0305272000000009,-0.0038967999999999,0,sub_24
-0.0031266000000002,0.0088690000000012,-0.0008306,-0.0030011999999995,0.0292730000000009,-0.0071223999999999,0,sub_24
0.0017841999999997,0.0067952000000012,-0.003767,-0.0042819999999995,0.0271548000000009,-0.0090511999999999,0,sub_24
0.0053645999999996,0.0056522000000012,-0.006614,-0.0025743999999995,0.0275736000000009,-0.0086115999999999,0,sub_24
0.0087073999999996,0.0038468000000012,-0.0065156,-0.0012775999999995,0.0322598000000009,-0.0077483999999999,0,sub_24
0.0102435999999996,0.0017918000000012,-0.005494,-0.0004057999999995,0.0382224000000009,-0.0060347999999999,0,sub_24
0.0107815999999996,0.0011564000000012,-0.0057736,0.0006890000000004,0.0454660000000009,-0.0051757999999999,0,sub_24
0.0079181999999996,0.0017130000000012,-0.0063038,0.0019980000000004,0.0541952000000009,-0.0030355999999999,0,sub_24
0.0049473999999997,0.0025882000000012,-0.00605,0.0032804000000004,0.0575954000000009,-0.0002483999999999,0,sub_24
0.0019971999999997,0.0047228000000012,-0.0074688,0.0064520000000004,0.0550116000000009,0.0038368,0,sub_24
0.0020209999999996,0.0066202000000012,-0.0056764,0.0096130000000004,0.0524186000000009,0.0102717999999999,0,sub_24
0.0028547999999996,0.0077410000000012,-0.0028794,0.0125526000000004,0.0502438000000009,0.0188413999999999,0,sub_24
0.0041033999999996,0.0077114000000012,7.59999999992364e-06,0.0148404000000004,0.0457206000000009,0.0274175999999999,0,sub_24
0.0038885999999996,0.0075322000000012,0.0025891999999999,0.0150362000000004,0.0471842000000009,0.0325531999999999,0,sub_24
0.0031729999999996,0.0071142000000012,0.0046499999999999,0.0131298000000004,0.0520786000000009,0.0340375999999999,0,sub_24
-0.0002588000000003,0.0081642000000012,0.0039485999999999,0.0108100000000004,0.0548642000000009,0.0303939999999999,0,sub_24
-0.0034002000000003,0.0089600000000012,0.0018883999999999,0.0085076000000004,0.0572408000000009,0.0224777999999999,0,sub_24
-0.0040412000000002,0.0098554000000012,0.0009465999999999,0.0047510000000004,0.0645442000000009,0.0109049999999999,0,sub_24
-0.0022134000000002,0.0108400000000012,0.0001193999999999,0.0005474000000004,0.0686480000000009,0.0006151999999999,0,sub_24
-0.0008862000000002,0.0101870000000012,-0.0014576,-0.0036807999999994,0.0701834000000009,-0.0066802,0,sub_24
0.0014009999999996,0.0098546000000012,-0.004733,-0.0079089999999994,0.0736144000000009,-0.0118349999999999,0,sub_24
0.0031117999999996,0.0105138000000012,-0.0066462,-0.0104415999999994,0.0759682000000009,-0.0154809999999999,0,sub_24
0.0044515999999996,0.0109260000000012,-0.0073402,-0.0117139999999995,0.0753288000000009,-0.0176185999999999,0,sub_24
0.0065037999999996,0.0093528000000012,-0.0071084,-0.0136033999999995,0.0783196000000009,-0.0212605999999999,0,sub_24
0.0095787999999996,0.0090270000000012,-0.0047526,-0.0173769999999995,0.0868666000000009,-0.0274865999999999,0,sub_24
0.0122567999999996,0.0092130000000012,-0.0007486,-0.0217819999999995,0.0975600000000009,-0.0337253999999999,0,sub_24
0.0124015999999996,0.0082420000000012,0.0023489999999999,-0.0287411999999995,0.1091170000000009,-0.0406239999999999,0,sub_24
0.0112251999999996,0.0071454000000012,0.0042481999999999,-0.0356957999999995,0.1198296000000009,-0.0494443999999999,0,sub_24
0.0072235999999997,0.0078802000000012,0.0032391999999999,-0.0409601999999995,0.1258246000000009,-0.0590887999999999,0,sub_24
0.0036005999999997,0.0071628000000012,0.0019543999999999,-0.0428631999999995,0.1209386000000009,-0.0678413999999999,0,sub_24
0.0016807999999997,0.0053558000000012,0.0004897999999999,-0.0428793999999995,0.1102864000000009,-0.0748647999999999,0,sub_24
0.0032809999999997,0.0035572000000012,-2.000000000563183e-07,-0.0408007999999995,0.0961968000000009,-0.076528,0,sub_24
0.0055717999999997,0.0017572000000012,-0.0023678,-0.0360009999999995,0.0784432000000009,-0.0700485999999999,0,sub_24
0.0083251999999997,1.8000000001232372e-05,-0.0032194,-0.0286897999999995,0.0574820000000009,-0.0558692,0,sub_24
0.0099069999999997,-0.0003519999999987,-0.004615,-0.0188151999999995,0.0411828000000009,-0.0376183999999999,0,sub_24
0.0114849999999997,-0.0010137999999987,-0.005655,-0.0080809999999995,0.0272202000000009,-0.0182957999999999,0,sub_24
0.0114087999999997,-0.0012671999999987,-0.005855,0.0028840000000004,0.0157822000000009,-0.0002426,0,sub_24
0.0104339999999997,-0.0013227999999987,-0.0033808,0.0121792000000004,0.0082028000000009,0.0133069999999999,0,sub_24
0.0063267999999997,0.0014538000000012,-0.0006388,0.0181108000000004,0.0047124000000009,0.0195635999999999,0,sub_24
0.0010675999999997,0.0049964000000012,0.0022057999999999,0.0200120000000004,0.0008330000000009,0.0200237999999999,0,sub_24
-0.0075078000000002,0.0091292000000012,0.0043539999999999,0.0176702000000004,-0.003646199999999,0.0142583999999999,0,sub_24
-0.0177258000000002,0.0122542000000012,0.0082621999999999,0.0106478000000004,-0.011879799999999,0.0013993999999999,0,sub_24
-0.0254688000000002,0.0145138000000012,0.0105541999999999,0.0021586000000004,-0.019235399999999,-0.0165985999999999,0,sub_24
-0.0287338000000002,0.0134402000000012,0.0120573999999999,-0.0065005999999995,-0.017215199999999,-0.0348232,0,sub_24
-0.0276624000000002,0.0130440000000012,0.0150945999999999,-0.0162017999999995,-0.008422999999999,-0.0519819999999999,0,sub_24
-0.0269124000000002,0.0119760000000012,0.0167005999999999,-0.0269557999999995,0.0035688000000009,-0.0691525999999999,0,sub_24
-0.0240180000000002,0.0112004000000012,0.0123431999999999,-0.0366165999999995,0.0221582000000009,-0.0854689999999999,0,sub_24
-0.0185538000000002,0.0071918000000012,0.0089337999999999,-0.0458513999999995,0.0466868000000009,-0.0955945999999999,0,sub_24
-0.0123622000000003,0.0022568000000012,0.0062773999999999,-0.0541103999999995,0.0605208000000009,-0.0960855999999999,0,sub_24
-0.0118516000000003,-0.0043663999999987,-0.0016228,-0.0605671999999995,0.0577352000000009,-0.0865149999999999,0,sub_24
-0.0123826000000003,-0.0064719999999987,-0.0091874,-0.0598735999999995,0.0418862000000009,-0.0664091999999999,0,sub_24
-0.0119914000000003,-0.0061583999999987,-0.0155028,-0.0504981999999995,0.0208542000000009,-0.0364079999999999,0,sub_24
-0.0096144000000003,-0.0045711999999987,-0.0208886,-0.0349241999999995,0.0033936000000009,-0.0050747999999999,0,sub_24
-0.0101834000000002,-0.0011619999999987,-0.021216,-0.0199047999999995,0.0017138000000009,0.0230295999999999,0,sub_24
-0.0101830000000002,0.0029834000000012,-0.0169658,-0.0082145999999995,0.0175222000000009,0.0495929999999999,0,sub_24
-0.0167894000000002,0.0030242000000012,-0.0202406,-0.0003349999999995,0.0382508000000009,0.0744131999999999,0,sub_24
-0.0260196000000002,0.0042576000000012,-0.0245154,0.0048104000000004,0.0626324000000009,0.0938687999999999,0,sub_24
-0.0359100000000002,0.0071666000000012,-0.0261608,0.0056512000000004,0.0766218000000009,0.1111593999999999,0,sub_24
-0.0401402000000002,0.0091214000000012,-0.0282434,0.0051118000000004,0.0673972000000009,0.127402,0,sub_24
-0.0400848000000002,0.0102322000000012,-0.028323,0.0060392000000004,0.0464724000000009,0.1379014,0,sub_24
-0.0286032000000002,0.0084890000000012,-0.019372,0.0081302000000004,0.0417584000000009,0.142835,0,sub_24
-0.0149802000000002,0.0037656000000012,-0.0057,0.0038738000000004,0.0494220000000009,0.1481358,0,sub_24
-0.0073588000000002,0.0028436000000012,0.0033143999999999,-0.0057231999999995,0.0575236000000009,0.1551085999999999,0,sub_24
-0.0074478000000002,0.0022352000000012,0.0023079999999999,-0.0097935999999994,0.0590088000000009,0.1602056,0,sub_24
-0.0108566000000002,0.0014476000000012,-0.0041386,-0.0125663999999994,0.0598684000000009,0.160826,0,sub_24
-0.0114968000000002,0.0053330000000012,-0.0069556,-0.0162613999999994,0.0412688000000009,0.1572113999999999,0,sub_24
-0.0131094000000002,0.0054468000000012,-0.011617,-0.0149399999999994,-0.000571399999999,0.1536616,0,sub_24
-0.0149474000000002,0.0062026000000012,-0.0135686,-0.0145799999999994,-0.024277199999999,0.1447401999999999,0,sub_24
-0.0109340000000002,0.0117780000000012,-0.011191,-0.0202995999999994,-0.026008399999999,0.1336115999999999,0,sub_24
-0.0060328000000002,0.0184266000000012,-0.009201,-0.0281017999999994,-0.016015999999999,0.1228807999999999,0,sub_24
-0.0111594000000002,0.0226868000000012,-0.0142128,-0.0371093999999994,0.0102650000000009,0.1118877999999999,0,sub_24
-0.0172600000000002,0.0297336000000012,-0.0200058,-0.0518377999999994,0.0393608000000009,0.0946553999999999,0,sub_24
-0.0206344000000002,0.0327276000000012,-0.0266462,-0.0647267999999994,0.0469450000000009,0.0740451999999999,0,sub_24
-0.0151864000000002,0.0260568000000012,-0.0326454,-0.0752927999999995,0.0455216000000009,0.0502723999999999,0,sub_24
-0.0012190000000002,0.0190040000000011,-0.0331798,-0.0827217999999995,0.0321474000000009,0.0286732,0,sub_24
0.0213471999999997,0.0118648000000011,-0.0292352,-0.0904383999999995,0.0110692000000009,0.0158414,0,sub_24
0.0402805999999997,0.0052944000000012,-0.0193822,-0.1040765999999995,0.0076716000000009,0.0089292,0,sub_24
0.0502275999999996,0.0041118000000012,-0.0106296,-0.1253775999999995,0.0134426000000009,0.006866,0,sub_24
0.0479503999999996,0.0095796000000012,-0.0045806,-0.1547299999999995,0.0314534000000009,0.003862,0,sub_24
0.0389529999999996,0.0136782000000012,-0.0032286,-0.1920831999999995,0.0661398000000009,-0.0064829999999999,0,sub_24
0.0291733999999996,0.0162386000000012,0.0057281999999999,-0.2324169999999995,0.0942644000000009,-0.0249589999999999,0,sub_24
0.0251121999999996,0.0193774000000012,0.0080297999999999,-0.2664673999999994,0.0955240000000009,-0.0439991999999999,0,sub_24
0.0274005999999996,0.0144718000000012,0.0181377999999999,-0.2922145999999994,0.0964454000000009,-0.0580447999999999,0,sub_24
