userAcceleration.x,userAcceleration.y,userAcceleration.z,rotationRate.x,rotationRate.y,rotationRate.z,label,subject
0.0378041999999996,0.0161644000000012,0.0130648,-0.0452935999999994,0.0086584000000008,-0.026676,0,sub_16
0.0338987999999996,0.0165952000000012,0.0150132,-0.0523819999999994,-0.0038785999999991,-0.028846,0,sub_16
0.0229309999999996,0.0135704000000012,0.0243754,-0.0488957999999994,-0.0262977999999991,-0.01982,0,sub_16
0.0074369999999996,0.0082594000000012,0.0384724,-0.0331029999999994,-0.0479031999999991,-0.0032088,0,sub_16
-0.0070552000000003,0.0055312000000012,0.0506063999999999,-0.0123537999999994,-0.0571747999999991,0.0149167999999999,0,sub_16
-0.0192676000000003,0.0078046000000012,0.0588283999999999,0.0025112000000005,-0.0491569999999991,0.0302017999999999,0,sub_16
-0.0192556000000003,0.0090144000000012,0.0557617999999999,0.0091640000000005,-0.0253101999999991,0.0368631999999999,0,sub_16
-0.0095296000000003,0.0118192000000012,0.0419765999999999,0.0065262000000005,0.0079932000000008,0.0310563999999999,0,sub_16
0.0045269999999996,0.0184516000000012,0.0258527999999999,-0.0071359999999994,0.0389948000000008,0.0157523999999999,0,sub_16
0.0208325999999996,0.0224930000000012,0.0106576,-0.0234189999999994,0.0531880000000008,-0.0029666,0,sub_16
0.0326511999999996,0.0185688000000012,0.001118,-0.0346855999999994,0.0449892000000008,-0.0207672,0,sub_16
0.0390159999999996,0.0143584000000012,0.0002044,-0.0403043999999994,0.0162984000000008,-0.033802,0,sub_16
0.0384543999999996,0.0136238000000012,0.0072906,-0.0415779999999994,-0.0256201999999991,-0.039284,0,sub_16
0.0343975999999996,0.0142778000000012,0.017991,-0.0394539999999994,-0.0656553999999991,-0.0391898,0,sub_16
0.0272961999999996,0.0167770000000012,0.0288664,-0.0394079999999994,-0.0918407999999991,-0.0376324,0,sub_16
0.0218271999999996,0.0228206000000012,0.0377708,-0.0420697999999994,-0.1037401999999991,-0.0365396,0,sub_16
0.0161019999999996,0.0256940000000012,0.0427228,-0.0418971999999994,-0.1037123999999991,-0.0369376,0,sub_16
0.0113603999999996,0.0242864000000012,0.0447194,-0.0352471999999994,-0.0981867999999991,-0.0392482,0,sub_16
0.0066109999999996,0.0207298000000012,0.045005,-0.0234905999999994,-0.0946015999999991,-0.0402388,0,sub_16
0.0023869999999996,0.0136844000000012,0.0457958,-0.0079105999999994,-0.0916817999999991,-0.0379972,0,sub_16
0.0018487999999996,0.0061050000000012,0.045942,0.0072266000000005,-0.0842151999999991,-0.0323174,0,sub_16
0.0047033999999996,0.0017286000000012,0.0459399999999999,0.0168324000000005,-0.0707727999999991,-0.0243338,0,sub_16
0.0099751999999996,-0.0004511999999987,0.0446445999999999,0.0177130000000005,-0.0526111999999991,-0.0168446,0,sub_16
0.0175723999999996,-0.0011299999999987,0.0413879999999999,0.0109266000000005,-0.0348343999999991,-0.0130404,0,sub_16
0.0239903999999996,0.0008074000000012,0.0379449999999999,-0.0016323999999994,-0.0232015999999991,-0.0129006,0,sub_16
0.0288209999999996,0.0022338000000012,0.0340091999999999,-0.0159147999999994,-0.0227151999999991,-0.0155648,0,sub_16
0.0326381999999996,0.0028440000000012,0.030927,-0.0293859999999994,-0.0326673999999991,-0.0192782,0,sub_16
0.0350137999999996,0.0032116000000012,0.029389,-0.0407485999999994,-0.0499197999999991,-0.0214444,0,sub_16
0.0359589999999996,0.0032638000000012,0.0301439999999999,-0.0497851999999994,-0.0686845999999991,-0.0203878,0,sub_16
0.0374899999999996,0.0041300000000012,0.0325079999999999,-0.0566957999999994,-0.0872513999999991,-0.0173938,0,sub_16
0.0377323999999996,0.0056170000000012,0.0351224,-0.0612639999999994,-0.1054063999999991,-0.0128884,0,sub_16
0.0369853999999996,0.0073892000000012,0.0375096,-0.0637099999999994,-0.1250643999999991,-0.007298,0,sub_16
0.0326733999999996,0.0102034000000012,0.040878,-0.0633983999999994,-0.1442661999999991,-0.0008618,0,sub_16
0.0279673999999996,0.0122554000000012,0.043875,-0.0583895999999994,-0.1622087999999991,0.0062465999999999,0,sub_16
0.0232023999999996,0.0120500000000012,0.0453498,-0.0488883999999994,-0.176549399999999,0.0144497999999999,0,sub_16
0.0165221999999996,0.0115062000000012,0.0475052,-0.0360955999999994,-0.1844887999999991,0.0233383999999999,0,sub_16
0.0094787999999996,0.0102384000000012,0.04893,-0.0230509999999994,-0.1834821999999991,0.0326445999999999,0,sub_16
0.0063743999999996,0.0101952000000012,0.0484594,-0.0127417999999994,-0.1739439999999991,0.0419205999999999,0,sub_16
0.0027857999999996,0.0110492000000012,0.0465812,-0.0062387999999994,-0.1575709999999991,0.0503065999999999,0,sub_16
0.0002067999999995,0.0119938000000012,0.0424752,-0.0041783999999994,-0.1349945999999991,0.0563037999999999,0,sub_16
0.0017403999999996,0.0133270000000012,0.0379182,-0.0057779999999994,-0.1066703999999991,0.0607427999999999,0,sub_16
0.0054347999999996,0.0159494000000012,0.0353478,-0.0103435999999994,-0.0734365999999991,0.0653683999999999,0,sub_16
0.0095825999999996,0.0182840000000012,0.0342956,-0.0189575999999994,-0.0393345999999991,0.0695373999999998,0,sub_16
0.0120519999999996,0.0219058000000012,0.0310582,-0.0284347999999994,-0.0120285999999991,0.0690089999999998,0,sub_16
0.0097221999999996,0.0266702000000012,0.0294504,-0.0332349999999994,-0.0006691999999991,0.0563557999999999,0,sub_16
0.0036513999999996,0.0298698000000012,0.0284366,-0.0346383999999994,-0.0077987999999991,0.0290087999999999,0,sub_16
-0.0078986000000003,0.0290538000000012,0.0292594,-0.0328633999999993,-0.0310861999999991,-0.0096186,0,sub_16
-0.0190210000000003,0.0248214000000012,0.0309886,-0.0249023999999993,-0.0580043999999991,-0.0514028,0,sub_16
-0.0236612000000003,0.0188280000000012,0.0376172,-0.0154209999999993,-0.0706865999999991,-0.0848626,0,sub_16
-0.0205100000000003,0.0119256000000012,0.0452736,-0.0095419999999993,-0.0565967999999991,-0.0970172,0,sub_16
-0.0148920000000003,0.0067160000000012,0.0503919999999999,-0.0051355999999993,-0.0148967999999991,-0.086144,0,sub_16
-0.0059054000000003,0.0048386000000012,0.048538,0.0003550000000005,0.0448518000000008,-0.0609722,0,sub_16
0.0018257999999996,0.0057916000000012,0.0434788,0.0079658000000005,0.1045810000000008,-0.0327944,0,sub_16
0.0051311999999996,0.0085540000000012,0.0378871999999999,0.0183112000000005,0.1487750000000008,-0.0114142,0,sub_16
0.0060331999999996,0.0112372000000012,0.0340277999999999,0.0288134000000005,0.1674540000000008,-0.0030328,0,sub_16
0.0084879999999995,0.0128810000000012,0.0334924,0.0358460000000005,0.1619046000000008,-0.0066086,0,sub_16
0.0128371999999996,0.0135922000000012,0.036212,0.0370878000000005,0.1442534000000008,-0.015764,0,sub_16
0.0168873999999996,0.0122746000000012,0.0382138,0.0327916000000005,0.1279034000000009,-0.0258144,0,sub_16
0.0205479999999996,0.0082748000000012,0.0372846,0.0240376000000005,0.1185920000000008,-0.0339822,0,sub_16
0.0217841999999996,0.0056624000000012,0.0344852,0.0144502000000005,0.1199114000000008,-0.0359736,0,sub_16
0.0210715999999996,0.0039478000000012,0.0307292,0.0080692000000005,0.1295006000000008,-0.030903,0,sub_16
0.0185307999999996,0.0032062000000012,0.0292941999999999,0.0065794000000005,0.1399070000000009,-0.0213126,0,sub_16
0.0182887999999996,0.0041520000000012,0.0323001999999999,0.0076166000000005,0.1466672000000008,-0.0078544,0,sub_16
0.0194685999999996,0.0057980000000012,0.0364657999999999,0.0096890000000005,0.1485150000000009,0.0077537999999999,0,sub_16
0.0228393999999996,0.0058806000000012,0.0405215999999999,0.0119614000000005,0.1461062000000008,0.0220869999999999,0,sub_16
0.0256143999999996,0.0068608000000012,0.0434271999999999,0.0123106000000005,0.1394576000000008,0.0327801999999999,0,sub_16
0.0294437999999996,0.0077718000000012,0.043922,0.0107404000000005,0.1300578000000008,0.0404723999999999,0,sub_16
0.0310499999999996,0.0082364000000012,0.0404478,0.0083166000000005,0.1181146000000008,0.0455981999999999,0,sub_16
0.0332637999999996,0.0095948000000012,0.0373232,0.0054554000000005,0.1040414000000008,0.0509373999999999,0,sub_16
0.0358967999999996,0.0118608000000012,0.0332168,0.0032190000000005,0.0886792000000008,0.0584189999999999,0,sub_16
0.0394457999999996,0.0126988000000012,0.0290608,0.0035306000000005,0.0718116000000008,0.0672021999999999,0,sub_16
0.0419359999999996,0.0126220000000012,0.02513,0.0061730000000005,0.0494040000000008,0.0740859999999999,0,sub_16
0.0437195999999996,0.0141758000000012,0.0232282,0.0109472000000005,0.0252898000000008,0.0797049999999999,0,sub_16
0.0431951999999996,0.0159830000000012,0.0215464,0.0161474000000005,-0.0026463999999991,0.0816997999999999,0,sub_16
0.0396149999999996,0.0162170000000012,0.0203366,0.0213494000000005,-0.0360981999999991,0.0777197999999999,0,sub_16
0.0338871999999996,0.0158678000000012,0.0207581999999999,0.0235728000000005,-0.0714417999999991,0.0698757999999999,0,sub_16
0.0279357999999996,0.0158720000000012,0.0225765999999999,0.0228408000000005,-0.0997439999999991,0.0620019999999999,0,sub_16
0.0215965999999996,0.0141486000000012,0.0243629999999999,0.0195750000000005,-0.1220719999999991,0.0541029999999999,0,sub_16
0.0160011999999996,0.0107938000000012,0.0268307999999999,0.0159198000000005,-0.1341793999999991,0.0481109999999999,0,sub_16
0.0115467999999996,0.0089030000000012,0.0300909999999999,0.0118734000000005,-0.1352193999999991,0.0453065999999999,0,sub_16
0.0077669999999996,0.0083646000000012,0.0324598,0.0087922000000005,-0.1285515999999991,0.0455211999999999,0,sub_16
0.0050215999999996,0.0087938000000012,0.0338548,0.0054994000000005,-0.1186983999999991,0.0485077999999999,0,sub_16
0.0050507999999996,0.0107096000000012,0.0369272,0.0013446000000005,-0.1069399999999991,0.0553313999999999,0,sub_16
0.0071977999999996,0.0152636000000012,0.039472,-0.0041027999999994,-0.0949759999999991,0.0651367999999999,0,sub_16
0.0098917999999996,0.0207200000000012,0.040691,-0.0095539999999994,-0.0834397999999991,0.0753699999999999,0,sub_16
0.0126045999999996,0.0258990000000012,0.0406998,-0.0146777999999994,-0.0806657999999991,0.0787489999999999,0,sub_16
0.0125083999999996,0.0303232000000012,0.0397826,-0.0155101999999994,-0.0806439999999991,0.0740429999999999,0,sub_16
0.0086323999999996,0.0302854000000012,0.0371506,-0.0107747999999994,-0.0874141999999991,0.0580613999999999,0,sub_16
0.0017751999999996,0.0256894000000012,0.0347852,-0.0001907999999994,-0.0991769999999991,0.0347133999999999,0,sub_16
-0.0046334000000003,0.0200686000000012,0.0342919999999999,0.0118878000000005,-0.112217199999999,0.0098817999999999,0,sub_16
-0.0079156000000003,0.0144226000000012,0.0353295999999999,0.0239770000000005,-0.1150623999999991,-0.0070578,0,sub_16
-0.0072708000000003,0.0102316000000012,0.0374898,0.0349868000000005,-0.1102757999999991,-0.0135462,0,sub_16
-0.0028782000000003,0.0095988000000012,0.0390173999999999,0.0421484000000005,-0.0948723999999991,-0.0076838,0,sub_16
0.0026943999999996,0.0113914000000012,0.0397187999999999,0.0458322000000005,-0.0695827999999991,0.0051279999999999,0,sub_16
0.0074327999999996,0.0124468000000012,0.0388741999999999,0.0501706000000005,-0.0398265999999991,0.0192207999999999,0,sub_16
0.0092107999999996,0.0128752000000012,0.0384114,0.0560064000000005,-0.0128307999999991,0.0296953999999999,0,sub_16
0.0095339999999996,0.0098862000000012,0.0377603999999999,0.0601578000000005,0.0058908000000008,0.0327387999999999,0,sub_16
0.0095903999999996,0.0056202000000012,0.0380206,0.0625934000000005,0.0167592000000008,0.0297983999999999,0,sub_16
0.0096597999999996,0.0011000000000012,0.0394086,0.0620286000000005,0.0221090000000008,0.0242803999999999,0,sub_16
0.0106215999999996,-0.0022619999999987,0.0406024,0.0571914000000005,0.0264084000000008,0.0187337999999999,0,sub_16
0.0125863999999996,-0.0035499999999987,0.0411142,0.0504340000000005,0.0330488000000008,0.0155209999999999,0,sub_16
0.0143357999999996,-0.0021863999999987,0.0410496,0.0427928000000005,0.0422362000000008,0.0156695999999999,0,sub_16
0.0144653999999996,-0.0005177999999987,0.0398716,0.0351614000000005,0.0535540000000008,0.0158153999999999,0,sub_16
0.0150353999999996,0.0016370000000012,0.0376236,0.0279518000000005,0.0631684000000008,0.0153253999999999,0,sub_16
0.0163663999999996,0.0038694000000012,0.0362038,0.0187990000000005,0.0686804000000008,0.0147257999999999,0,sub_16
0.0178003999999996,0.0058052000000012,0.0348235999999999,0.0068646000000005,0.0735586000000008,0.0151759999999999,0,sub_16
0.0196985999999996,0.0080450000000012,0.0334959999999999,-0.0048551999999994,0.0803468000000008,0.0173341999999999,0,sub_16
0.0215605999999996,0.0122144000000012,0.0317267999999999,-0.0140223999999994,0.0875436000000008,0.0216463999999999,0,sub_16
0.0227323999999996,0.0163330000000012,0.0303811999999999,-0.0187153999999994,0.0928090000000008,0.0255649999999999,0,sub_16
0.0222669999999996,0.0197076000000012,0.0296687999999999,-0.0170025999999994,0.0951424000000008,0.0266421999999999,0,sub_16
0.0207043999999996,0.0214210000000012,0.0284372,-0.0103811999999994,0.0936398000000008,0.0236991999999999,0,sub_16
0.0186793999999996,0.0220398000000012,0.0281601999999999,-0.0016347999999994,0.0872414000000008,0.0177865999999999,0,sub_16
0.0181129999999995,0.0211176000000012,0.0290573999999999,0.0092414000000005,0.0789226000000008,0.0108229999999999,0,sub_16
0.0169889999999996,0.0200636000000012,0.0292729999999999,0.0207674000000005,0.0725198000000008,0.0036477999999999,0,sub_16
0.0156161999999996,0.0190960000000012,0.0289495999999999,0.0314514000000005,0.0703742000000008,-0.0018294,0,sub_16
0.0154039999999996,0.0184134000000012,0.0295433999999999,0.0400026000000005,0.0701468000000008,-0.005615,0,sub_16
0.0146829999999996,0.0162548000000012,0.0296221999999999,0.0460018000000005,0.0731190000000008,-0.0081408,0,sub_16
0.0130293999999996,0.0142158000000012,0.0299427999999999,0.0473204000000005,0.0793024000000008,-0.0104898,0,sub_16
0.0124341999999996,0.0125090000000012,0.0309039999999999,0.0450078000000005,0.0854950000000008,-0.0120094,0,sub_16
0.0140151999999996,0.0119696000000012,0.0324663999999999,0.0405558000000005,0.0897802000000008,-0.0141826,0,sub_16
0.0153839999999996,0.0122004000000012,0.0336887999999999,0.0367448000000005,0.0927908000000008,-0.017845,0,sub_16
0.0170803999999996,0.0135854000000012,0.0348561999999999,0.0335760000000005,0.0941032000000008,-0.0236372,0,sub_16
0.0178755999999996,0.0117080000000012,0.0357909999999999,0.0321092000000005,0.0930712000000008,-0.0306961999999999,0,sub_16
0.0190341999999996,0.0090324000000012,0.0363954,0.0312872000000005,0.0924658000000008,-0.0383924,0,sub_16
0.0183509999999996,0.0045106000000012,0.0359924,0.0304594000000005,0.0918552000000008,-0.0448066,0,sub_16
0.0169827999999996,0.0025468000000012,0.0350402,0.0306862000000005,0.0910176000000008,-0.0486494,0,sub_16
0.0155181999999996,0.0029378000000012,0.0352136,0.0319634000000005,0.0899496000000008,-0.0490664,0,sub_16
0.0157755999999996,0.0061066000000012,0.0365994,0.0319434000000005,0.0888708000000008,-0.045647,0,sub_16
0.0161021999999996,0.0090248000000012,0.038003,0.0323424000000005,0.0894812000000008,-0.0388084,0,sub_16
0.0169937999999996,0.0127378000000012,0.038677,0.0336036000000005,0.0930670000000008,-0.0308994,0,sub_16
0.0195523999999996,0.0132930000000012,0.0401328,0.0340188000000005,0.0981480000000008,-0.023212,0,sub_16
0.0231699999999996,0.0116126000000012,0.0390838,0.0329520000000005,0.1040934000000008,-0.017245,0,sub_16
0.0266335999999996,0.0096748000000012,0.0363002,0.0327452000000005,0.1098294000000008,-0.0129808,0,sub_16
0.0308679999999996,0.0083286000000012,0.0335146,0.0303886000000005,0.1117388000000008,-0.0089404,0,sub_16
0.0353731999999996,0.0072338000000012,0.031022,0.0265056000000005,0.1081074000000008,-0.0031944,0,sub_16
0.0380401999999996,0.0066308000000012,0.0284248,0.0228130000000005,0.1004230000000008,0.0036263999999999,0,sub_16
0.0394731999999996,0.0070330000000012,0.0271867999999999,0.0208054000000005,0.0884688000000008,0.0111051999999999,0,sub_16
0.0380103999999996,0.0080336000000012,0.0282159999999999,0.0202770000000005,0.0724650000000008,0.0177449999999999,0,sub_16
0.0334623999999996,0.0080852000000012,0.0307713999999999,0.0210356000000005,0.0560382000000008,0.0224713999999999,0,sub_16
0.0278227999999996,0.0066328000000012,0.0345663999999999,0.0226672000000005,0.0423796000000008,0.0260799999999999,0,sub_16
0.0227721999999996,0.0043018000000012,0.0383185999999999,0.0232454000000005,0.0314952000000008,0.0294641999999999,0,sub_16
0.0188673999999996,0.0020688000000012,0.0406366,0.0219176000000005,0.0233890000000008,0.0324043999999999,0,sub_16
0.0180753999999996,0.0008770000000012,0.0402892,0.0163396000000005,0.0180716000000008,0.0342429999999999,0,sub_16
0.0196415999999996,0.0024928000000012,0.037618,0.0073600000000005,0.0140504000000008,0.0345607999999999,0,sub_16
0.0228779999999996,0.0068374000000012,0.033236,-0.0020369999999994,0.0104682000000008,0.0327905999999999,0,sub_16
0.0267743999999996,0.0111848000000012,0.028198,-0.0116397999999994,0.0064692000000008,0.0288829999999999,0,sub_16
0.0293327999999996,0.0151242000000012,0.0243528,-0.0193241999999994,0.0009764000000008,0.0239223999999999,0,sub_16
0.0301833999999996,0.0172086000000012,0.0219854,-0.0227573999999994,-0.0077289999999991,0.0194229999999999,0,sub_16
0.0292769999999996,0.0174228000000012,0.021991,-0.0221499999999994,-0.0190067999999991,0.0153823999999999,0,sub_16
0.0262881999999996,0.0148036000000012,0.0239033999999999,-0.0204851999999994,-0.0307213999999991,0.0130589999999999,0,sub_16
0.0223401999999996,0.0121330000000012,0.0263321999999999,-0.0173277999999994,-0.0405321999999991,0.0128799999999999,0,sub_16
0.0181231999999996,0.0091232000000012,0.0293115999999999,-0.0139463999999994,-0.0465147999999991,0.0141931999999999,0,sub_16
0.0143843999999995,0.0075338000000012,0.0315885999999999,-0.0109791999999994,-0.0497259999999991,0.0154997999999999,0,sub_16
0.0120449999999996,0.0064114000000012,0.0318593999999999,-0.0082167999999994,-0.0508069999999991,0.0170159999999999,0,sub_16
0.0113201999999996,0.0073590000000012,0.0304056,-0.0065145999999994,-0.051029399999999,0.0178827999999999,0,sub_16
0.0119983999999996,0.0094640000000012,0.0283954,-0.0067297999999994,-0.0516669999999991,0.0176683999999999,0,sub_16
0.0141181999999996,0.0120966000000012,0.0265106,-0.0084433999999994,-0.0535767999999991,0.0172315999999999,0,sub_16
0.0168083999999996,0.0144090000000012,0.024996,-0.0110125999999994,-0.0548487999999991,0.0178561999999999,0,sub_16
0.0190451999999996,0.0177290000000012,0.023579,-0.0133711999999994,-0.055699599999999,0.0195499999999999,0,sub_16
0.0211711999999996,0.0208118000000012,0.021576,-0.0140265999999994,-0.0561353999999991,0.0225369999999999,0,sub_16
0.0224617999999996,0.0224978000000012,0.0200168,-0.0112737999999994,-0.0553149999999991,0.0281099999999999,0,sub_16
0.0236381999999996,0.0240806000000012,0.0176686,-0.0063997999999994,-0.0549375999999991,0.0360483999999999,0,sub_16
0.0239557999999996,0.0257504000000012,0.0147112,0.0001660000000005,-0.0575505999999991,0.0444297999999999,0,sub_16
0.0234893999999996,0.0257580000000012,0.0118002,0.0088510000000005,-0.0627301999999991,0.0534699999999999,0,sub_16
0.0206771999999996,0.0257962000000012,0.006263,0.0102630000000005,-0.0715079999999991,0.0628913999999999,0,sub_16
0.0180663999999996,0.0267220000000012,0.0034006,-0.0013693999999994,-0.086207599999999,0.0726565999999999,0,sub_16
0.0142613999999996,0.0282134000000012,0.0051376,0.0059576000000005,-0.105669199999999,0.0846967999999999,0,sub_16
0.0118573999999996,0.0213582000000012,0.008759,0.0319018000000005,-0.114537999999999,0.0955715999999999,0,sub_16
0.0102283999999996,0.0148018000000012,0.0132054,0.0559678000000005,-0.114662199999999,0.1057811999999999,0,sub_16
0.0097451999999996,0.0073592000000012,0.0230378,0.0837140000000005,-0.106264399999999,0.1128009999999999,0,sub_16
0.0115383999999996,-0.0048341999999987,0.026642,0.1211452000000005,-0.0874279999999991,0.1117563999999999,0,sub_16
0.0144841999999996,-0.0193007999999987,0.0253948,0.1304708000000005,-0.0646207999999991,0.1011101999999999,0,sub_16
0.0172283999999996,-0.0269963999999987,0.0222712,0.1094810000000005,-0.0529687999999991,0.0825751999999999,0,sub_16
0.0195173999999996,-0.0347359999999987,0.0192754,0.0792952000000005,-0.0542477999999991,0.0556603999999999,0,sub_16
0.0231139999999996,-0.0397979999999987,0.0146154,0.0422488000000005,-0.0686881999999991,0.0227323999999999,0,sub_16
0.0251539999999996,-0.0364717999999987,0.0125322,-0.0063625999999994,-0.0926757999999991,-0.010264,0,sub_16
0.0278191999999996,-0.0279475999999987,0.0097264,-0.0598797999999994,-0.1134615999999991,-0.0405214,0,sub_16
0.0307683999999996,-0.0143429999999987,0.0069858,-0.1170327999999994,-0.1285127999999991,-0.0631202,0,sub_16
0.0315559999999996,0.0010798000000012,0.0002944,-0.1761109999999994,-0.1420763999999991,-0.0831706,0,sub_16
0.0280421999999995,0.0160442000000012,-0.0105797999999999,-0.2238843999999994,-0.1611999999999991,-0.1078352,0,sub_16
0.0203859999999996,0.0331800000000012,-0.0228165999999999,-0.2535279999999994,-0.1931249999999991,-0.1436798,0,sub_16
0.0103479999999996,0.0510190000000012,-0.0322301999999999,-0.2693385999999994,-0.2465629999999991,-0.19286,0,sub_16
-0.0008904000000003,0.0597800000000012,-0.0374905999999999,-0.2774927999999994,-0.3161773999999991,-0.2526482,0,sub_16
-0.0049672000000003,0.0634532000000012,-0.033162,-0.2888493999999993,-0.3857821999999991,-0.3120316,0,sub_16
-0.0023634000000003,0.0641016000000012,-0.0198404,-0.3194229999999994,-0.4430243999999991,-0.3561826,0,sub_16
0.0076731999999996,0.0592324000000012,-0.0003132,-0.3685599999999994,-0.4813157999999992,-0.3814732,0,sub_16
0.0201359999999996,0.0495690000000012,0.0178697999999999,-0.4279121999999994,-0.4934467999999991,-0.3865724,0,sub_16
0.0284677999999996,0.0434830000000012,0.0297387999999999,-0.4853045999999993,-0.4851783999999991,-0.3799336,0,sub_16
0.0293631999999996,0.0467228000000012,0.037225,-0.5273121999999993,-0.4701535999999991,-0.3712732,0,sub_16
0.0258789999999996,0.0556026000000012,0.0434037999999999,-0.5460265999999994,-0.4545367999999991,-0.3656472,0,sub_16
0.0191781999999996,0.0577826000000012,0.0459594,-0.5308243999999994,-0.4445643999999991,-0.3631956,0,sub_16
0.0179061999999996,0.0549762000000012,0.0442539999999999,-0.4855661999999994,-0.4406651999999991,-0.3598852,0,sub_16
0.0180391999999996,0.0465750000000012,0.0429614,-0.4147619999999994,-0.4436977999999991,-0.350192,0,sub_16
0.0202385999999996,0.0285584000000012,0.039566,-0.3119949999999994,-0.4532465999999991,-0.3370624,0,sub_16
0.0169813999999996,0.0016380000000012,0.0341418,-0.1977203999999994,-0.4632779999999991,-0.3251418,0,sub_16
0.0141269999999996,-0.0192261999999987,0.0288206,-0.1158609999999994,-0.4646927999999991,-0.3087584,0,sub_16
0.0060741999999996,-0.0340487999999987,0.0365328,-0.0794011999999994,-0.4546585999999991,-0.2922796,0,sub_16
0.0012227999999996,-0.0455209999999987,0.0499166,-0.0902409999999993,-0.4337873999999991,-0.2808452,0,sub_16
-0.0014122000000003,-0.0533047999999987,0.0667388,-0.1592729999999994,-0.4033239999999991,-0.2734616,0,sub_16
0.0080787999999996,-0.0530697999999987,0.08472,-0.2632941999999994,-0.3706127999999991,-0.2650434,0,sub_16
