userAcceleration.x,userAcceleration.y,userAcceleration.z,rotationRate.x,rotationRate.y,rotationRate.z,label,subject
0.0123631999999996,0.0014174000000013,-0.0479901999999999,-0.0118095999999993,0.0217546000000007,-0.0068252,0,sub_5
0.0186805999999996,-0.0037399999999986,-0.0351973999999999,-0.0282835999999994,0.0356292000000007,-0.0035282,0,sub_5
0.0225775999999995,-0.0057339999999986,-0.0230039999999999,-0.0462147999999994,0.0582416000000007,0.0003883999999999,0,sub_5
0.0194465999999995,-0.0035333999999986,-0.0203577999999999,-0.0630773999999994,0.0844596000000007,0.0075125999999999,0,sub_5
0.0147889999999995,-0.0019031999999986,-0.0199463999999999,-0.0754629999999994,0.1093852000000007,0.0142421999999999,0,sub_5
0.0067533999999996,-0.0011377999999986,-0.0246809999999999,-0.0766837999999994,0.1249332000000007,0.0165637999999998,0,sub_5
-0.0026998000000003,0.0002978000000013,-0.0356031999999999,-0.0672705999999994,0.1274690000000007,0.0136351999999999,0,sub_5
-0.0113210000000003,-0.0021123999999986,-0.0459493999999999,-0.0515145999999994,0.1142276000000007,0.0079937999999999,0,sub_5
-0.0161646000000003,-0.0077991999999986,-0.0537367999999999,-0.0283955999999994,0.0850624000000007,0.0011479999999999,0,sub_5
-0.0200638000000003,-0.0060465999999986,-0.0670759999999999,-1.699999999943691e-05,0.0420192000000007,-0.0028658,0,sub_5
-0.0210398000000003,-0.0027991999999986,-0.0772961999999999,0.0219126000000005,-0.0118667999999992,-0.0071244,0,sub_5
-0.0189342000000003,-0.0006677999999986,-0.0824123999999999,0.0365750000000005,-0.0687091999999992,-0.0116436,0,sub_5
-0.0117674000000003,0.0007272000000013,-0.0821375999999999,0.0410194000000005,-0.1153087999999991,-0.0113336,0,sub_5
-0.0030154000000003,0.0011818000000013,-0.0782377999999999,0.0295516000000005,-0.1459675999999992,-0.0066742,0,sub_5
0.0072131999999996,-0.0044435999999986,-0.0642481999999999,0.0042816000000005,-0.1582691999999992,0.0012835999999999,0,sub_5
0.0170735999999996,-0.0060313999999986,-0.0501397999999999,-0.0232463999999994,-0.1456555999999992,0.0143211999999998,0,sub_5
0.0239439999999996,-0.0049745999999986,-0.0390435999999999,-0.0477475999999994,-0.1153921999999992,0.0282259999999998,0,sub_5
0.0250065999999996,-0.0030579999999986,-0.0337033999999999,-0.0613015999999994,-0.0766209999999992,0.0362143999999998,0,sub_5
0.0226571999999996,0.0023508000000013,-0.0377581999999999,-0.0573225999999994,-0.0372419999999992,0.0368467999999998,0,sub_5
0.0157039999999996,0.0063038000000012,-0.0463403999999999,-0.0390657999999994,-0.0123585999999992,0.0271289999999998,0,sub_5
0.0062023999999996,0.0053408000000012,-0.0563173999999999,-0.0136185999999994,-0.0098387999999992,0.0093713999999998,0,sub_5
-0.0022264000000003,0.0019612000000012,-0.0645853999999999,0.0126368000000005,-0.0262605999999992,-0.0092248000000001,0,sub_5
-0.0063880000000003,0.0001994000000012,-0.0700277999999999,0.0304680000000005,-0.0578105999999992,-0.0201694000000001,0,sub_5
-0.0076664000000003,-0.0036181999999987,-0.0662899999999999,0.0337180000000005,-0.0974375999999992,-0.0233006,0,sub_5
-0.0053438000000003,-0.0042203999999986,-0.0586791999999999,0.0247452000000005,-0.1292481999999992,-0.0172986,0,sub_5
-0.0019040000000003,-0.0049771999999986,-0.0503471999999999,0.0072624000000005,-0.1493357999999992,-0.0051754,0,sub_5
0.0013671999999996,-0.0033141999999986,-0.0440625999999999,-0.0137863999999994,-0.1547141999999992,0.0079721999999999,0,sub_5
-0.0001508000000003,-0.0024963999999986,-0.0410451999999999,-0.0307091999999994,-0.1490085999999992,0.0162207999999999,0,sub_5
-0.0019192000000003,-0.0022601999999986,-0.0411795999999999,-0.0390529999999994,-0.1379883999999992,0.0200359999999999,0,sub_5
-0.0031074000000003,-0.0030671999999986,-0.0457791999999999,-0.0368903999999993,-0.1311797999999992,0.0204695999999999,0,sub_5
-0.0030840000000003,-0.0050937999999986,-0.0527615999999999,-0.0249299999999993,-0.1312113999999992,0.0179895999999998,0,sub_5
-0.0031942000000003,-0.0043929999999986,-0.0581725999999999,-0.0068085999999993,-0.1402009999999992,0.0125729999999998,0,sub_5
-0.0024910000000003,-0.0042701999999986,-0.0622305999999999,0.0101412000000005,-0.1556333999999992,0.0055013999999998,0,sub_5
-0.0012044000000003,-0.0053529999999986,-0.0631695999999999,0.0217616000000005,-0.1695575999999992,-0.0011820000000001,0,sub_5
0.0010351999999996,-0.0048573999999986,-0.0599627999999999,0.0229332000000005,-0.1772853999999992,-0.0032460000000001,0,sub_5
0.0048941999999996,-0.0016549999999986,-0.0530937999999999,0.0127760000000006,-0.1820205999999992,0.0020843999999999,0,sub_5
0.0090161999999996,-0.0015337999999986,-0.0474173999999999,-0.0044167999999993,-0.1809967999999992,0.0118447999999999,0,sub_5
0.0132423999999996,-0.0006123999999986,-0.0420549999999999,-0.0219083999999993,-0.1696847999999992,0.0219629999999999,0,sub_5
0.0170753999999996,0.0008902000000013,-0.0394159999999999,-0.0346771999999993,-0.1528463999999992,0.0312525999999999,0,sub_5
0.0190097999999996,0.0010982000000013,-0.0409267999999999,-0.0388879999999993,-0.1362295999999992,0.0352609999999999,0,sub_5
0.0175897999999996,0.0034116000000012,-0.0441575999999999,-0.0328781999999994,-0.1220967999999992,0.0323185999999999,0,sub_5
0.0146435999999996,0.0042634000000012,-0.0479385999999999,-0.0209235999999994,-0.1194699999999992,0.0245187999999999,0,sub_5
0.0116563999999996,0.0008238000000013,-0.0525789999999999,-0.0064757999999994,-0.1362219999999992,0.0122745999999999,0,sub_5
0.0065079999999996,-0.0002667999999986,-0.0472427999999999,0.0130708000000005,-0.1653191999999992,-0.0073958,0,sub_5
-0.0042374000000003,0.0019924000000013,-0.0411721999999999,0.0355798000000005,-0.2003905999999992,-0.027465,0,sub_5
-0.0043116000000003,-0.0010135999999986,-0.0384933999999999,0.0521682000000005,-0.2236271999999992,-0.0384288,0,sub_5
0.0060355999999996,-0.0023787999999986,-0.0354425999999999,0.0586028000000005,-0.2172537999999992,-0.0394602,0,sub_5
0.0163905999999996,0.0011500000000013,-0.0317943999999999,0.0566128000000005,-0.1818931999999992,-0.036101,0,sub_5
0.0202327999999996,0.0041316000000013,-0.0370861999999999,0.0441106000000005,-0.1339887999999992,-0.027277,0,sub_5
0.0290491999999995,0.0028306000000013,-0.0394957999999999,0.0216152000000005,-0.0762567999999992,-0.0166126,0,sub_5
0.0292161999999995,0.0046930000000013,-0.0373751999999999,-0.0032021999999994,-0.0161601999999992,-0.0091722000000001,0,sub_5
0.0215671999999995,0.0064928000000012,-0.0375253999999999,-0.0210089999999994,0.0305160000000007,-0.0082886000000001,0,sub_5
0.0124613999999995,0.0077696000000012,-0.0408387999999999,-0.0298857999999994,0.0675836000000007,-0.0098940000000001,0,sub_5
0.0101299999999995,0.0056274000000012,-0.0454187999999999,-0.0346313999999994,0.0978772000000007,-0.0157344000000001,0,sub_5
0.0100853999999995,0.0026184000000012,-0.0506141999999999,-0.0342635999999994,0.1219924000000007,-0.0260176,0,sub_5
0.0087723999999996,-0.0010263999999986,-0.0568943999999999,-0.0227995999999994,0.1450086000000007,-0.0375038,0,sub_5
0.0072599999999996,-0.0030831999999986,-0.0652587999999999,-0.0055047999999994,0.1662244000000007,-0.0463886,0,sub_5
0.0067951999999995,-0.0045933999999986,-0.0698159999999999,0.0098400000000005,0.1850864000000007,-0.051011,0,sub_5
0.0028879999999996,-0.0027271999999987,-0.0721529999999999,0.0215248000000005,0.2015978000000007,-0.050742,0,sub_5
-0.0004546000000003,0.0009886000000012,-0.0760933999999999,0.0282368000000005,0.2078828000000007,-0.046222,0,sub_5
0.0032075999999996,0.0030250000000012,-0.0784059999999999,0.0222822000000005,0.1986522000000007,-0.0400612,0,sub_5
0.0078353999999996,0.0043078000000012,-0.0745011999999999,0.0072618000000005,0.1895048000000007,-0.0305404,0,sub_5
0.0125895999999996,0.0049602000000012,-0.0711381999999999,-0.0096799999999994,0.1816364000000007,-0.0195392,0,sub_5
0.0201645999999996,0.0044158000000013,-0.0677261999999999,-0.0253259999999994,0.1761114000000008,-0.0096002,0,sub_5
0.0239305999999995,0.0028282000000013,-0.0638043999999999,-0.0398543999999993,0.1776304000000008,-0.0039352,0,sub_5
0.0179851999999995,0.0026438000000013,-0.0600217999999999,-0.0483901999999994,0.1761740000000007,-0.0052748,0,sub_5
0.0069225999999995,0.0010292000000013,-0.0593551999999999,-0.0531245999999993,0.1608762000000007,-0.0116976,0,sub_5
-0.0118604000000004,0.0003940000000013,-0.0595553999999999,-0.0543381999999993,0.1170362000000007,-0.022973,0,sub_5
-0.0266014000000003,-0.0018601999999986,-0.0564877999999999,-0.0545989999999994,0.0467782000000007,-0.0352762,0,sub_5
-0.0204858000000003,-0.0096853999999986,-0.0510417999999999,-0.0506307999999994,-0.0262873999999992,-0.0417778,0,sub_5
-0.0095752000000003,-0.0128153999999986,-0.0492887999999999,-0.0390257999999994,-0.0504229999999992,-0.036752,0,sub_5
0.0020771999999996,-0.0122467999999986,-0.0470273999999999,-0.0229911999999994,-0.0360211999999992,-0.0291808,0,sub_5
0.0171891999999996,-0.0082249999999986,-0.0434425999999999,-0.0062367999999994,0.0066718000000007,-0.0109588,0,sub_5
0.0313323999999996,-0.0020559999999986,-0.0422877999999999,0.0080106000000005,0.0695806000000007,0.0155519999999999,0,sub_5
0.0305185999999996,0.0087960000000013,-0.0432325999999999,0.0139578000000006,0.1348714000000007,0.0396515999999999,0,sub_5
0.0294969999999996,0.0128534000000013,-0.0402167999999999,0.0067808000000006,0.1629762000000008,0.0504611999999999,0,sub_5
0.0304573999999996,0.0109978000000013,-0.0371301999999999,-0.0068895999999993,0.1632234000000007,0.0537835999999999,0,sub_5
0.0354993999999996,0.0041000000000013,-0.0342139999999999,-0.0235317999999994,0.1562798000000008,0.0464123999999999,0,sub_5
0.0363051999999996,-0.0034447999999986,-0.0339991999999999,-0.0367243999999993,0.1506290000000008,0.0324405999999999,0,sub_5
0.0335255999999996,-0.0080835999999986,-0.0353637999999999,-0.0388323999999994,0.1402616000000008,0.0162021999999999,0,sub_5
0.0283735999999996,-0.0077985999999986,-0.0378315999999999,-0.0326597999999993,0.1234626000000007,0.0028071999999999,0,sub_5
0.0242131999999996,-0.0039739999999986,-0.0388173999999999,-0.0224531999999993,0.1068436000000007,-0.0058596,0,sub_5
0.0210903999999996,-7.39999999866698e-06,-0.0417373999999999,-0.0122409999999993,0.0961714000000007,-0.0098338,0,sub_5
0.0202121999999996,0.0030298000000013,-0.0434623999999999,-0.0034907999999993,0.0959304000000007,-0.0104132,0,sub_5
0.0181599999999996,0.0055382000000012,-0.0443799999999999,0.0015262000000006,0.1086082000000007,-0.0067752,0,sub_5
0.0159711999999996,0.0049728000000012,-0.0477757999999999,0.0035664000000005,0.1272474000000007,0.0004661999999999,0,sub_5
0.0136465999999995,0.0035656000000012,-0.0521859999999999,0.0027992000000005,0.1392884000000007,0.0085509999999998,0,sub_5
0.0104129999999995,0.0014470000000012,-0.0563741999999999,0.0007288000000005,0.1434618000000007,0.0138593999999998,0,sub_5
0.0073453999999995,-0.0002117999999986,-0.0607865999999999,-7.859999999941716e-05,0.1397640000000007,0.0151273999999998,0,sub_5
0.0048583999999995,-0.0022207999999986,-0.0654931999999999,-0.0011827999999994,0.1293368000000007,0.0129965999999998,0,sub_5
0.0031325999999996,-0.0025185999999986,-0.0685403999999999,-0.0016621999999994,0.1138008000000007,0.0091675999999999,0,sub_5
0.0011335999999996,-0.0025029999999986,-0.0707081999999999,-0.0021437999999993,0.0969136000000007,0.0060751999999999,0,sub_5
8.699999999962115e-05,-0.0016089999999986,-0.0711855999999999,-0.0022129999999993,0.0798000000000007,0.0059767999999999,0,sub_5
-0.0002056000000003,-0.0004475999999986,-0.0713361999999999,-0.0046503999999993,0.0620392000000007,0.0099219999999999,0,sub_5
-0.0001878000000003,0.0001490000000013,-0.0709471999999999,-0.0092195999999993,0.0468340000000007,0.0159853999999998,0,sub_5
0.0003479999999996,0.0008052000000013,-0.0693435999999999,-0.0159081999999993,0.0354686000000007,0.0226699999999998,0,sub_5
0.0009755999999996,9.580000000131289e-05,-0.0670537999999999,-0.0221515999999993,0.0282260000000007,0.0277629999999998,0,sub_5
0.0013121999999996,-0.0006871999999986,-0.0650123999999999,-0.0262391999999993,0.0229054000000007,0.0298777999999998,0,sub_5
0.0023047999999996,-0.0009907999999986,-0.0633749999999999,-0.0266821999999994,0.0190728000000007,0.0296659999999999,0,sub_5
0.0018093999999996,-0.0016893999999986,-0.0602381999999999,-0.0238591999999994,0.0122652000000007,0.0285193999999999,0,sub_5
0.0018527999999996,-0.0026989999999986,-0.0585551999999999,-0.0182583999999994,0.0054514000000007,0.0265375999999999,0,sub_5
0.0021541999999996,-0.0014769999999986,-0.0589819999999999,-0.0120125999999994,-0.0007237999999992,0.0241321999999999,0,sub_5
0.0040249999999996,-0.0012475999999986,-0.0606137999999999,-0.0061935999999994,-0.0064729999999992,0.0221503999999999,0,sub_5
0.0051473999999996,-0.0017047999999986,-0.0623497999999999,-0.0007927999999994,-0.0096665999999992,0.0208033999999999,0,sub_5
0.0060437999999996,-0.0011765999999986,-0.0662515999999999,0.0028424000000005,-0.0086113999999992,0.0201863999999999,0,sub_5
0.0059505999999996,4.400000000131296e-05,-0.0697951999999999,0.0041284000000005,-0.0075495999999992,0.0199803999999999,0,sub_5
0.0060669999999996,0.0009782000000013,-0.0713497999999999,0.0051914000000005,-0.0071321999999992,0.0212691999999998,0,sub_5
0.0049065999999996,0.0016596000000013,-0.0712435999999999,0.0021868000000005,-0.0088347999999992,0.0233869999999998,0,sub_5
0.0045631999999996,0.0015992000000013,-0.0703201999999999,-0.0044555999999994,-0.0135047999999991,0.0248421999999998,0,sub_5
0.0060727999999996,0.0005060000000013,-0.0689313999999999,-0.0113181999999994,-0.0192409999999991,0.0267243999999998,0,sub_5
0.0076037999999996,-0.0012567999999986,-0.0665083999999999,-0.0186053999999994,-0.0247619999999992,0.0283897999999998,0,sub_5
0.0091739999999996,-0.0034907999999986,-0.0642845999999999,-0.0269509999999994,-0.0287861999999992,0.0296185999999998,0,sub_5
0.0102451999999996,-0.0037013999999986,-0.0631231999999999,-0.0318583999999994,-0.0309489999999992,0.0311113999999998,0,sub_5
0.0104667999999996,-0.0029033999999986,-0.0620573999999999,-0.0335497999999994,-0.0292897999999992,0.0330489999999999,0,sub_5
0.0104447999999996,-0.0024605999999986,-0.0618345999999999,-0.0335169999999994,-0.0250747999999992,0.0337135999999998,0,sub_5
0.0107901999999995,-0.0018609999999986,-0.0627205999999999,-0.0296205999999993,-0.0166085999999992,0.0335449999999998,0,sub_5
0.0103241999999995,-0.0012591999999986,-0.0644001999999999,-0.0225091999999993,-0.0066553999999992,0.0316877999999998,0,sub_5
0.0100947999999995,-0.0017467999999986,-0.0646111999999999,-0.0132707999999993,0.0039788000000007,0.0283203999999998,0,sub_5
0.0091635999999995,-0.0021523999999986,-0.0655905999999999,-0.0016873999999994,0.0131178000000007,0.0239029999999998,0,sub_5
0.0076873999999995,-0.0017337999999986,-0.0656683999999999,0.0122364000000005,0.0203328000000007,0.0190771999999998,0,sub_5
0.0054447999999995,-0.0008629999999986,-0.0657693999999999,0.0244360000000005,0.0235066000000007,0.0140309999999998,0,sub_5
0.0040219999999996,-7.899999999868697e-05,-0.0657131999999999,0.0340656000000005,0.0260442000000007,0.0104629999999998,0,sub_5
0.0021855999999996,-0.0001431999999986,-0.0666189999999999,0.0398352000000005,0.0258196000000007,0.0083669999999998,0,sub_5
0.0011969999999996,-3.939999999866702e-05,-0.0666039999999999,0.0406752000000005,0.0217728000000007,0.0073099999999999,0,sub_5
0.0015163999999996,-0.0006031999999986,-0.0667223999999999,0.0363782000000005,0.0156074000000007,0.0077151999999999,0,sub_5
0.0023285999999996,-0.0016993999999986,-0.0656275999999999,0.0305760000000005,0.0083760000000007,0.0096067999999998,0,sub_5
0.0025439999999996,-0.0026361999999986,-0.0641019999999999,0.0243460000000005,0.0005086000000007,0.0110689999999998,0,sub_5
0.0035781999999996,-0.0028721999999986,-0.0631425999999999,0.0196288000000005,-0.0033149999999992,0.0123227999999998,0,sub_5
0.0038171999999996,-0.0037563999999986,-0.0622539999999999,0.0179124000000005,-0.0045907999999992,0.0131669999999998,0,sub_5
0.0024865999999996,-0.0035551999999986,-0.0617123999999999,0.0200402000000005,-0.0052399999999992,0.0138235999999998,0,sub_5
0.0021785999999996,-0.0031437999999986,-0.0614903999999999,0.0238722000000005,-0.0067465999999992,0.0142795999999998,0,sub_5
0.0021615999999996,-0.0025735999999986,-0.0614795999999999,0.0287598000000005,-0.0114499999999992,0.0141059999999998,0,sub_5
0.0023511999999996,-0.0016739999999986,-0.0615321999999999,0.0349150000000005,-0.0197763999999992,0.0130915999999998,0,sub_5
0.0033973999999996,-0.0002829999999986,-0.0617147999999999,0.0410672000000005,-0.0293785999999992,0.0114375999999998,0,sub_5
0.0053045999999996,0.0005884000000013,-0.0622013999999999,0.0461604000000005,-0.0391823999999992,0.0078537999999998,0,sub_5
0.0053371999999996,-7.199999998686989e-06,-0.0620859999999999,0.0523232000000005,-0.0491995999999992,0.0034229999999998,0,sub_5
0.0035635999999996,-0.0026869999999986,-0.0597741999999999,0.0633888000000005,-0.0579649999999992,0.0013751999999998,0,sub_5
0.0013485999999996,-0.0048491999999986,-0.0575631999999999,0.0782750000000005,-0.0671861999999992,0.0034137999999998,0,sub_5
0.0035001999999996,-0.0062015999999986,-0.0568827999999999,0.0965828000000005,-0.0723805999999992,0.0078211999999998,0,sub_5
0.0036367999999996,-0.0063239999999986,-0.0551831999999999,0.1197896000000005,-0.0822681999999992,0.0094913999999998,0,sub_5
0.0019913999999996,-0.0048641999999986,-0.0579873999999999,0.1425698000000005,-0.0891833999999992,0.0141459999999998,0,sub_5
0.0021355999999996,-0.0012393999999986,-0.0631681999999999,0.1512796000000005,-0.0909457999999992,0.0210455999999998,0,sub_5
0.0040187999999996,0.0026412000000013,-0.0673629999999999,0.1446604000000006,-0.0856219999999992,0.0274017999999999,0,sub_5
0.0046169999999996,0.0049626000000013,-0.0681963999999999,0.1241730000000005,-0.0834317999999992,0.0302469999999999,0,sub_5
0.0069313999999996,0.0041020000000013,-0.0662883999999999,0.0949534000000005,-0.0780135999999992,0.0325997999999999,0,sub_5
0.0108371999999996,0.0026570000000013,-0.0607111999999999,0.0657462000000005,-0.0749185999999992,0.0298279999999999,0,sub_5
0.0141317999999996,0.0007972000000013,-0.0578445999999999,0.0435996000000005,-0.0690723999999992,0.0256065999999999,0,sub_5
0.0161549999999996,-0.0005353999999986,-0.0554539999999999,0.0272264000000005,-0.0625985999999992,0.0192881999999999,0,sub_5
0.0147445999999996,-0.0017679999999986,-0.0541253999999999,0.0196140000000005,-0.0525369999999992,0.0138809999999999,0,sub_5
0.0125255999999996,-0.0021501999999986,-0.0553215999999999,0.0190400000000005,-0.0405927999999992,0.0110841999999999,0,sub_5
0.0111915999999996,-0.0020403999999986,-0.0594711999999999,0.0195358000000005,-0.0254665999999992,0.0108545999999999,0,sub_5
0.0096855999999996,-0.0003585999999986,-0.0624243999999999,0.0210688000000005,-0.0186463999999992,0.0089337999999999,0,sub_5
0.0086013999999996,0.0003026000000013,-0.0646519999999999,0.0247220000000005,-0.0167261999999992,0.0051113999999999,0,sub_5
0.0074157999999996,0.0004354000000013,-0.0675441999999999,0.0275102000000005,-0.0175717999999992,0.0010727999999999,0,sub_5
0.0071913999999996,0.0002432000000013,-0.0713939999999999,0.0260292000000005,-0.0162821999999992,-0.0004346,0,sub_5
0.0072711999999996,-0.0003363999999986,-0.0738997999999999,0.0206968000000005,-0.0160497999999992,-0.0006856000000001,0,sub_5
0.0086339999999996,-0.0013503999999986,-0.0721301999999999,0.0138822000000005,-0.0128309999999991,-0.0005236000000001,0,sub_5
0.0089385999999996,-0.0025967999999986,-0.0695409999999999,0.0093864000000005,-0.0075119999999991,0.0009151999999998,0,sub_5
0.0098659999999996,-0.0025293999999986,-0.0678123999999999,0.0048878000000005,-0.0009223999999992,0.0042751999999998,0,sub_5
0.0112939999999996,-0.0010263999999986,-0.0643769999999999,-0.0015293999999993,0.0052514000000007,0.0067677999999998,0,sub_5
0.0123445999999996,0.0002686000000013,-0.0608783999999999,-0.0060117999999993,0.0120678000000007,0.0067091999999998,0,sub_5
0.0127055999999996,-0.0001171999999986,-0.0597325999999999,-0.0087879999999993,0.0165432000000007,0.0045291999999998,0,sub_5
0.0127277999999996,-0.0013537999999986,-0.0594345999999999,-0.0102613999999993,0.0189006000000007,0.0023793999999998,0,sub_5
0.0117961999999996,-0.0026019999999986,-0.0583791999999999,-0.0100355999999993,0.0189110000000007,-0.0003964000000001,0,sub_5
0.0113863999999996,-0.0033015999999986,-0.0589783999999999,-0.0057603999999994,0.0182662000000007,-0.0027158,0,sub_5
0.0108031999999996,-0.0035585999999986,-0.0592631999999999,-0.0011169999999994,0.0183856000000007,-0.0047202,0,sub_5
0.0102869999999996,-0.0035291999999986,-0.0620033999999999,0.0054696000000005,0.0238238000000007,-0.0065044,0,sub_5
0.0097649999999996,-0.0022647999999986,-0.0660567999999999,0.0094918000000005,0.0292674000000007,-0.0074518,0,sub_5
0.0097385999999995,-0.0018505999999986,-0.0692417999999999,0.0118012000000005,0.0330142000000007,-0.0088364,0,sub_5
0.0073425999999995,-0.0017379999999986,-0.0729249999999999,0.0140954000000005,0.0331400000000007,-0.0104302,0,sub_5
0.0049797999999995,-0.0015959999999986,-0.0765507999999999,0.0145154000000005,0.0335570000000007,-0.008505,0,sub_5
0.0042981999999995,-0.0021871999999986,-0.0778121999999999,0.0102162000000005,0.0301486000000007,-0.0048986,0,sub_5
0.0047239999999996,-0.0034213999999986,-0.0755139999999999,0.0057066000000005,0.0258946000000007,-0.0027882,0,sub_5
0.0036715999999996,-0.0042461999999986,-0.0742823999999999,0.0033280000000006,0.0218430000000007,0.0001913999999999,0,sub_5
0.0046787999999995,-0.0045521999999986,-0.0731231999999999,-0.0022445999999993,0.0209916000000007,0.0048537999999999,0,sub_5
0.0060105999999995,-0.0050087999999986,-0.0693761999999999,-0.0078211999999993,0.0169536000000007,0.0071699999999999,0,sub_5
0.0056481999999995,-0.0043703999999986,-0.0662235999999999,-0.0082669999999993,0.0135428000000007,0.0080257999999999,0,sub_5
0.0056207999999995,-0.0036507999999986,-0.0664647999999999,-0.0061589999999993,0.0077830000000007,0.0080477999999999,0,sub_5
0.0063891999999996,-0.0029625999999986,-0.0651759999999999,-0.0031909999999994,0.0022382000000007,0.0067937999999999,0,sub_5
0.0068365999999996,-0.0037601999999986,-0.0641999999999999,0.0036274000000005,-0.0016137999999991,0.0051371999999999,0,sub_5
0.0073757999999996,-0.0046035999999986,-0.0662307999999999,0.0117298000000005,-0.0048301999999991,0.0032751999999999,0,sub_5
0.0071129999999996,-0.0050057999999986,-0.0691175999999999,0.0172650000000005,-0.0099535999999991,0.0009703999999999,0,sub_5
0.0057043999999996,-0.0041867999999986,-0.0713937999999999,0.0213142000000005,-0.0120939999999991,-6.680000000008485e-05,0,sub_5
0.0038299999999996,-0.0036873999999986,-0.0745955999999999,0.0238594000000005,-0.0146629999999991,0.0008087999999999,0,sub_5
0.0039181999999996,-0.0026767999999986,-0.0777163999999999,0.0236230000000005,-0.0182901999999991,0.0023073999999999,0,sub_5
0.0039539999999996,-0.0017027999999986,-0.0789917999999999,0.0206214000000005,-0.0202023999999991,0.0035707999999999,0,sub_5
0.0048231999999996,-0.0015405999999986,-0.0785011999999999,0.0184762000000005,-0.0212661999999991,0.0050525999999999,0,sub_5
0.0052935999999996,-0.0022635999999986,-0.0786163999999999,0.0167520000000005,-0.0231853999999992,0.0069659999999999,0,sub_5
0.0074565999999996,-0.0025383999999986,-0.0784893999999999,0.0129064000000005,-0.0229639999999992,0.0082207999999999,0,sub_5
0.0078109999999996,-0.0025965999999986,-0.0753307999999999,0.0084226000000005,-0.0237997999999992,0.0079767999999999,0,sub_5
0.0079257999999996,-0.0030109999999986,-0.0721893999999999,0.0086304000000005,-0.0246543999999992,0.0084065999999999,0,sub_5
0.0082961999999996,-0.0031783999999986,-0.0700547999999999,0.0086208000000005,-0.0250871999999992,0.0101161999999999,0,sub_5
0.0091103999999996,-0.0025205999999986,-0.0674217999999999,0.0077740000000005,-0.0240171999999991,0.0096815999999999,0,sub_5
0.0095829999999996,-0.0021305999999986,-0.0652515999999999,0.0097068000000005,-0.0229517999999991,0.0079845999999999,0,sub_5
0.0096343999999996,-0.0028179999999986,-0.0641919999999999,0.0133524000000005,-0.0208261999999991,0.0060845999999998,0,sub_5
0.0103481999999996,-0.0033421999999986,-0.0641435999999999,0.0157166000000005,-0.0189093999999991,0.0041757999999998,0,sub_5
0.0102019999999996,-0.0026265999999986,-0.0653085999999999,0.0172360000000005,-0.0150719999999991,0.0022587999999998,0,sub_5
0.0098635999999996,-0.0024419999999986,-0.0665705999999999,0.0176916000000005,-0.0095307999999991,0.0014001999999998,0,sub_5
0.0092007999999996,-0.0031189999999986,-0.0679793999999999,0.0177184000000005,-0.0044141999999991,0.0005391999999998,0,sub_5
0.0075123999999996,-0.0037473999999986,-0.0717429999999999,0.0194426000000005,-0.0010095999999992,0.0001195999999998,0,sub_5
