userAcceleration.x,userAcceleration.y,userAcceleration.z,rotationRate.x,rotationRate.y,rotationRate.z,label,subject
-0.0163782000000002,0.0102260000000012,0.0659139999999999,0.0100994000000004,0.0419154000000007,0.0109563999999999,0,sub_15
-0.0228226000000002,0.0120736000000012,0.0719883999999999,0.0246912000000004,0.0640068000000007,0.0148755999999999,0,sub_15
-0.0293614000000002,0.0162290000000012,0.0803135999999999,0.0311806000000004,0.0867684000000007,0.0180965999999999,0,sub_15
-0.0317744000000002,0.0189252000000012,0.0886241999999999,0.0286634000000004,0.0978502000000007,0.0195603999999999,0,sub_15
-0.0311254000000002,0.0163472000000012,0.0958193999999999,0.0235824000000004,0.0996036000000007,0.0197917999999999,0,sub_15
-0.0282122000000002,0.0096992000000012,0.1012009999999999,0.0197740000000004,0.0975262000000007,0.0179005999999999,0,sub_15
-0.0213078000000002,-0.0014963999999987,0.1073055999999999,0.0204714000000004,0.0986384000000007,0.0136865999999999,0,sub_15
-0.0134292000000002,-0.0098533999999987,0.1132599999999999,0.0248276000000004,0.1035854000000006,0.0062883999999999,0,sub_15
-0.0060210000000002,-0.0123229999999987,0.1161711999999999,0.0289800000000004,0.1093906000000007,-0.002394,0,sub_15
-0.0004164000000002,-0.0103401999999987,0.1173019999999999,0.0302986000000004,0.1072982000000006,-0.0130644,0,sub_15
0.0068451999999997,-0.0069275999999987,0.1100667999999999,0.0238696000000004,0.0903198000000007,-0.0239834,0,sub_15
0.0114285999999997,0.0002874000000012,0.0971459999999999,0.0072980000000004,0.0516306000000006,-0.0313134,0,sub_15
0.0139087999999997,0.0034364000000012,0.0814007999999999,-0.0123853999999995,-0.0075301999999993,-0.031375,0,sub_15
0.0131059999999997,0.0029590000000012,0.0669397999999999,-0.0269831999999995,-0.0701357999999993,-0.0269102,0,sub_15
0.0097285999999997,0.0020586000000012,0.0553553999999999,-0.0368313999999995,-0.1155199999999992,-0.0175204,0,sub_15
0.0010597999999997,0.0015702000000012,0.0525067999999999,-0.0388945999999995,-0.1338895999999993,-0.0040518,0,sub_15
-0.0097850000000002,0.0024776000000012,0.0550477999999999,-0.0314369999999995,-0.1250127999999992,0.0073119999999999,0,sub_15
-0.0179374000000002,0.0060928000000012,0.0591997999999999,-0.0189501999999995,-0.0950367999999992,0.0127019999999999,0,sub_15
-0.0220146000000002,0.0097454000000012,0.0661869999999999,-0.0053533999999995,-0.0586601999999992,0.0148867999999999,0,sub_15
-0.0230938000000002,0.0127648000000012,0.0742977999999999,0.0084308000000004,-0.0307953999999993,0.0143063999999999,0,sub_15
-0.0202586000000002,0.0133408000000012,0.0832233999999999,0.0213108000000004,-0.0167657999999993,0.0111737999999999,0,sub_15
-0.0149012000000002,0.0104816000000012,0.0907499999999999,0.0303068000000004,-0.0116735999999993,0.0086663999999999,0,sub_15
-0.0116084000000002,0.0047396000000012,0.1013073999999999,0.0350182000000004,-0.0074307999999993,0.0091209999999999,0,sub_15
-0.0093684000000002,-0.0012865999999987,0.1111191999999999,0.0369538000000004,-0.0021187999999993,0.0110503999999999,0,sub_15
-0.0095212000000002,-0.0073619999999987,0.1190855999999999,0.0374748000000004,0.0093938000000006,0.0129845999999999,0,sub_15
-0.0112992000000002,-0.0100837999999987,0.1226173999999999,0.0341838000000004,0.0254016000000006,0.0129635999999999,0,sub_15
-0.0139000000000002,-0.0088303999999987,0.1201275999999999,0.0244726000000004,0.0348366000000006,0.0105559999999999,0,sub_15
-0.0144162000000002,-0.0040589999999987,0.1122305999999999,0.0076740000000004,0.0310990000000006,0.0051247999999999,0,sub_15
-0.0132456000000002,0.0028300000000012,0.1005099999999999,-0.0128047999999995,0.0133218000000006,-0.0026642,0,sub_15
-0.0102870000000002,0.0079442000000012,0.0869807999999999,-0.0308287999999995,-0.0166251999999993,-0.010443,0,sub_15
-0.0072658000000001,0.0111416000000012,0.0761521999999999,-0.0396929999999995,-0.0495887999999993,-0.0177266,0,sub_15
-0.0050364000000001,0.0128792000000012,0.0704593999999999,-0.0357223999999995,-0.0751411999999993,-0.0247164,0,sub_15
-0.0038020000000002,0.0125866000000012,0.0669725999999999,-0.0216819999999995,-0.0902941999999993,-0.0303672,0,sub_15
-0.0037188000000002,0.0093688000000012,0.0671453999999999,-0.0027003999999995,-0.0954611999999992,-0.0334326,0,sub_15
-0.0025208000000002,0.0071144000000012,0.0744011999999999,0.0169654000000004,-0.0910421999999993,-0.0367192,0,sub_15
-0.0025086000000002,0.0054824000000012,0.0830193999999999,0.0349672000000004,-0.0780907999999993,-0.0410966,0,sub_15
-0.0139658000000002,0.0015272000000012,0.0929829999999999,0.0429300000000004,-0.0600207999999993,-0.038073,0,sub_15
-0.0329212000000002,0.0010014000000012,0.0976247999999999,0.0340364000000004,-0.0310697999999993,-0.0242854,0,sub_15
-0.0398376000000002,0.0074234000000012,0.1044799999999999,0.0157736000000004,0.0062070000000007,-0.0065146,0,sub_15
-0.0440138000000002,0.0149388000000012,0.1074995999999999,0.0004472000000004,0.0323938000000007,0.0115045999999999,0,sub_15
-0.0398150000000002,0.0137934000000012,0.1051831999999999,-0.0115859999999995,0.0266312000000006,0.0244601999999999,0,sub_15
-0.0219546000000002,0.0133944000000012,0.1001407999999999,-0.0176543999999995,0.0008924000000007,0.0195369999999999,0,sub_15
-0.0032976000000002,0.0095816000000012,0.0969973999999999,-0.0104955999999995,-0.0367775999999992,0.0031847999999999,0,sub_15
-0.0008310000000002,0.0008078000000012,0.0919081999999999,0.0013546000000004,-0.0793471999999992,-0.0174014,0,sub_15
-0.0031094000000002,-0.0079747999999987,0.0855911999999999,0.0030166000000004,-0.1046449999999993,-0.0327397999999999,0,sub_15
-0.0097422000000002,-0.0062873999999987,0.0831907999999999,-0.0052741999999995,-0.1003445999999993,-0.0353669999999999,0,sub_15
-0.0136026000000002,-0.0009761999999987,0.0826667999999999,-0.0158957999999995,-0.0818041999999993,-0.0273465999999999,0,sub_15
-0.0119444000000002,0.0035636000000012,0.0853739999999999,-0.0220451999999995,-0.0641357999999993,-0.0182255999999999,0,sub_15
-0.0086596000000002,0.0058442000000012,0.0865759999999999,-0.0232841999999995,-0.0458453999999993,-0.0090709999999999,0,sub_15
-0.0073230000000002,0.0073032000000012,0.0881403999999999,-0.0160017999999995,-0.0358725999999993,-0.0051871999999999,0,sub_15
-0.0096990000000002,0.0064714000000012,0.0904201999999999,2.0400000000463105e-05,-0.0342139999999993,-0.0076409999999999,0,sub_15
-0.0146998000000002,0.0047474000000012,0.0924747999999999,0.0213758000000004,-0.0332113999999992,-0.0104839999999999,0,sub_15
-0.0180394000000002,0.0036218000000012,0.0942951999999999,0.0402420000000004,-0.0274981999999992,-0.0144225999999999,0,sub_15
-0.0194852000000002,0.0035314000000012,0.0978079999999999,0.0582478000000004,-0.0249709999999992,-0.0200722,0,sub_15
-0.0198940000000002,0.0020338000000012,0.1020383999999999,0.0721862000000004,-0.0262611999999992,-0.0266,0,sub_15
-0.0155120000000002,0.0012150000000012,0.1072241999999999,0.0780184000000004,-0.0264601999999992,-0.032545,0,sub_15
-0.0168590000000002,-0.0017765999999987,0.1111641999999999,0.0786684000000004,-0.0407011999999992,-0.0389354,0,sub_15
-0.0164776000000002,-0.0039713999999987,0.1138175999999999,0.0747566000000004,-0.0636685999999993,-0.0461972,0,sub_15
-0.0163490000000002,-0.0048717999999987,0.1127161999999999,0.0657318000000004,-0.0830037999999993,-0.0515765999999999,0,sub_15
-0.0149966000000002,-0.0020057999999987,0.1071477999999999,0.0492438000000004,-0.0978523999999993,-0.0535955999999999,0,sub_15
-0.0174524000000002,0.0002130000000012,0.0985695999999999,0.0331546000000004,-0.1161223999999992,-0.0528299999999999,0,sub_15
-0.0151994000000002,0.0031160000000012,0.0908167999999999,0.0174860000000004,-0.1263405999999993,-0.0493045999999999,0,sub_15
-0.0140502000000002,0.0052018000000012,0.0830813999999999,0.0063002000000004,-0.1338141999999993,-0.0434011999999999,0,sub_15
-0.0137186000000002,0.0078620000000012,0.0767219999999999,0.0032062000000004,-0.1466355999999993,-0.0391435999999999,0,sub_15
-0.0139506000000002,0.0072798000000012,0.0736649999999999,0.0094976000000004,-0.1620387999999993,-0.0367399999999999,0,sub_15
-0.0114552000000002,0.0090862000000012,0.0688733999999999,0.0199006000000004,-0.1682803999999992,-0.0379511999999999,0,sub_15
-0.0101570000000002,0.0105630000000012,0.0633687999999999,0.0306364000000004,-0.1536161999999993,-0.0381085999999999,0,sub_15
-0.0104856000000002,0.0113048000000012,0.0580531999999999,0.0407350000000004,-0.1370373999999993,-0.0369911999999999,0,sub_15
-0.0101076000000002,0.0096896000000012,0.0509535999999999,0.0442180000000004,-0.1185265999999992,-0.033786,0,sub_15
-0.0072484000000002,0.0097034000000012,0.0433659999999999,0.0408884000000004,-0.0942487999999993,-0.0282855999999999,0,sub_15
-0.0053940000000002,0.0086394000000012,0.0395197999999999,0.0332952000000004,-0.0667697999999993,-0.020469,0,sub_15
-0.0019674000000002,0.0086808000000012,0.0370471999999999,0.0250178000000004,-0.0503619999999992,-0.0139247999999999,0,sub_15
0.0026945999999997,0.0097808000000012,0.0358495999999999,0.0193450000000004,-0.0228895999999992,-0.0060947999999999,0,sub_15
0.0060835999999997,0.0119468000000012,0.0379343999999999,0.0190160000000004,0.0071192000000007,0.0021966,0,sub_15
0.0064235999999997,0.0121884000000012,0.0420979999999999,0.0252992000000004,0.0371956000000007,0.009076,0,sub_15
0.0047787999999997,0.0109970000000012,0.0461313999999999,0.0339238000000004,0.0647122000000007,0.014693,0,sub_15
0.0028709999999997,0.0083954000000012,0.0508035999999999,0.0436056000000004,0.0890336000000006,0.0192533999999999,0,sub_15
0.0007937999999997,0.0060078000000012,0.0549255999999999,0.0500416000000004,0.0997454000000006,0.0201767999999999,0,sub_15
0.0008469999999997,0.0049712000000012,0.0582141999999999,0.0517654000000004,0.1043034000000006,0.0189385999999999,0,sub_15
0.0014913999999997,0.0062374000000012,0.0590687999999999,0.0496172000000004,0.0998418000000006,0.0176473999999999,0,sub_15
0.0020171999999997,0.0077456000000012,0.0597927999999999,0.0467982000000004,0.0892014000000006,0.0170003999999999,0,sub_15
0.0022571999999997,0.0092466000000012,0.0596905999999999,0.0420540000000004,0.0792000000000006,0.0180481999999999,0,sub_15
0.0021591999999997,0.0111108000000012,0.0608665999999999,0.0390256000000004,0.0725956000000006,0.0205991999999999,0,sub_15
0.0005805999999997,0.0114882000000012,0.0626497999999999,0.0387950000000004,0.0719444000000006,0.0238029999999999,0,sub_15
-0.0008754000000002,0.0111222000000012,0.0650841999999999,0.0411546000000004,0.0783132000000007,0.0274433999999999,0,sub_15
-0.0034926000000002,0.0108660000000012,0.0668783999999999,0.0443830000000004,0.0883002000000006,0.0312987999999999,0,sub_15
-0.0066578000000002,0.0110498000000012,0.0691741999999999,0.0497470000000004,0.0963716000000006,0.0328213999999999,0,sub_15
-0.0098144000000001,0.0102482000000012,0.0714981999999999,0.0563932000000004,0.1027426000000006,0.0322185999999999,0,sub_15
-0.0114376000000001,0.0094922000000012,0.0735417999999999,0.0655978000000004,0.1065566000000006,0.0295005999999999,0,sub_15
-0.0116270000000002,0.0085100000000012,0.0765885999999999,0.0762914000000004,0.1063294000000006,0.0238071999999999,0,sub_15
-0.0102896000000002,0.0062556000000012,0.0816359999999999,0.0874002000000004,0.1012098000000006,0.0157727999999999,0,sub_15
-0.0087076000000002,0.0043582000000012,0.0875137999999999,0.0944502000000004,0.0956756000000006,0.0083515999999999,0,sub_15
-0.0070156000000002,0.0034758000000012,0.0913727999999999,0.0946684000000004,0.0897374000000006,0.0013105999999999,0,sub_15
-0.0059758000000002,0.0029946000000012,0.0938869999999999,0.0867334000000004,0.0763606000000006,-0.0032142,0,sub_15
-0.0052852000000002,0.0026380000000012,0.0896829999999999,0.0700002000000004,0.0551186000000006,-0.0045858,0,sub_15
-0.0027052000000002,0.0049136000000012,0.0807685999999999,0.0525810000000004,0.0257742000000006,-0.0038152,0,sub_15
0.0024063999999997,0.0072644000000012,0.0699699999999999,0.0415484000000004,-0.0055149999999993,-0.0017156,0,sub_15
0.0082105999999997,0.0094048000000012,0.0597445999999999,0.0326562000000004,-0.0312883999999993,0.0044509999999999,0,sub_15
0.0099319999999997,0.0124612000000012,0.0494363999999999,0.0377004000000004,-0.0413479999999993,0.0115493999999999,0,sub_15
0.0099857999999997,0.0152762000000012,0.0481845999999999,0.0609340000000004,-0.0418749999999992,0.0166261999999999,0,sub_15
0.0074225999999997,0.0150578000000012,0.0525093999999999,0.0821336000000004,-0.0212979999999992,0.0205935999999999,0,sub_15
0.0021593999999997,0.0131698000000012,0.0616839999999999,0.0989282000000004,0.0150648000000006,0.0234415999999999,0,sub_15
-0.0034992000000002,0.0106438000000012,0.0670507999999999,0.1213352000000004,0.0109572000000007,0.0189031999999999,0,sub_15
-0.0022532000000002,0.0072108000000012,0.0683575999999999,0.1451534000000004,-0.0186927999999992,0.0071435999999999,0,sub_15
0.0035853999999997,0.0050218000000012,0.0706871999999999,0.1599908000000004,-0.0512995999999993,-0.0033932,0,sub_15
0.0090257999999997,0.0053132000000012,0.0734077999999999,0.1680136000000004,-0.0736847999999992,-0.0067268,0,sub_15
0.0118265999999997,0.0056796000000012,0.0744711999999999,0.1657456000000004,-0.1001095999999992,-0.0032904,0,sub_15
0.0119377999999997,0.0051326000000012,0.0806115999999999,0.1535670000000004,-0.0937155999999992,0.0066575999999999,0,sub_15
0.0076153999999997,0.0052830000000012,0.0911055999999999,0.1241034000000004,-0.0813213999999992,0.0228863999999999,0,sub_15
0.0006343999999997,0.0047596000000012,0.0967223999999999,0.0830468000000004,-0.0840159999999992,0.0396945999999999,0,sub_15
-0.0081592000000002,0.0033228000000012,0.0970153999999999,0.0420884000000004,-0.1163095999999993,0.0524821999999999,0,sub_15
-0.0148150000000002,0.0031024000000012,0.0946983999999999,0.0149686000000004,-0.1639573999999993,0.0568403999999999,0,sub_15
-0.0209772000000002,0.0041586000000012,0.0927483999999999,2.4000000004657448e-06,-0.2192945999999992,0.0555247999999999,0,sub_15
-0.0250290000000002,0.0016284000000012,0.0927473999999999,0.0089186000000004,-0.2897951999999993,0.0426451999999999,0,sub_15
-0.0263498000000002,0.0014420000000012,0.0951479999999999,0.0360500000000004,-0.3498913999999993,0.0228291999999999,0,sub_15
-0.0209362000000002,0.0013056000000012,0.0992767999999999,0.0617142000000004,-0.3571427999999993,0.0025077999999999,0,sub_15
-0.0183470000000002,0.0021842000000012,0.0969547999999999,0.0811440000000004,-0.3234809999999993,-0.014064,0,sub_15
-0.0161568000000002,0.0034696000000012,0.0943923999999999,0.0999568000000004,-0.2821573999999993,-0.028086,0,sub_15
-0.0140754000000002,0.0081442000000012,0.0931981999999999,0.0988130000000004,-0.2058731999999992,-0.0296872,0,sub_15
-0.0158810000000002,0.0090392000000012,0.0878171999999999,0.0865854000000004,-0.1214765999999992,-0.0258216,0,sub_15
-0.0192478000000002,0.0096988000000012,0.0847741999999999,0.0850298000000004,-0.0873839999999992,-0.0254488,0,sub_15
-0.0194942000000002,0.0103322000000012,0.0893837999999999,0.0857362000000004,-0.0737465999999992,-0.0265296,0,sub_15
-0.0178882000000002,0.0100146000000012,0.0933469999999999,0.0790568000000004,-0.0383651999999992,-0.0242714,0,sub_15
-0.0168108000000002,0.0095102000000012,0.0926341999999999,0.0759492000000004,-0.0172633999999992,-0.023893,0,sub_15
-0.0142426000000002,0.0104138000000012,0.0947371999999999,0.0713414000000004,0.0019278000000007,-0.0239498,0,sub_15
-0.0149678000000002,0.0116202000000012,0.0948135999999999,0.0579104000000004,0.0373434000000007,-0.0191798,0,sub_15
-0.0139544000000002,0.0109718000000012,0.0954099999999999,0.0420594000000004,0.0553018000000006,-0.0156862,0,sub_15
-0.0139696000000002,0.0121186000000011,0.0937941999999999,0.0225322000000004,0.0604974000000006,-0.0141248,0,sub_15
-0.0130542000000002,0.0123318000000012,0.0938973999999999,0.0019334000000004,0.0663290000000007,-0.0108624,0,sub_15
-0.0132558000000002,0.0119660000000012,0.0919599999999999,-0.0173929999999995,0.0715128000000006,-0.006522,0,sub_15
-0.0110990000000002,0.0109924000000012,0.0910429999999999,-0.0291457999999995,0.0694164000000006,-0.0048924,0,sub_15
-0.0104204000000002,0.0110180000000012,0.0885769999999999,-0.0395713999999995,0.0790284000000006,-0.0019864,0,sub_15
-0.0092122000000002,0.0098096000000012,0.0876929999999999,-0.0434091999999995,0.0813786000000006,-0.0003072,0,sub_15
-0.0083134000000002,0.0084904000000012,0.0841103999999999,-0.0448893999999995,0.0835178000000006,-0.0011748,0,sub_15
-0.0071808000000002,0.0077890000000012,0.0806767999999999,-0.0407969999999995,0.0901160000000007,-0.0030776,0,sub_15
-0.0066202000000002,0.0086580000000012,0.0766843999999999,-0.0324053999999995,0.1020324000000007,-0.0066661999999999,0,sub_15
-0.0073850000000002,0.0101652000000012,0.0714781999999999,-0.0182805999999995,0.1071134000000006,-0.0108469999999999,0,sub_15
-0.0060242000000002,0.0113678000000012,0.0679053999999999,-0.0039607999999995,0.1083578000000007,-0.0148077999999999,0,sub_15
-0.0056288000000002,0.0132358000000012,0.0668005999999999,0.0082522000000004,0.1179094000000006,-0.0164439999999999,0,sub_15
-0.0047266000000002,0.0153572000000012,0.0667641999999999,0.0161824000000004,0.1249160000000007,-0.0172521999999999,0,sub_15
-0.0054874000000002,0.0164548000000012,0.0671203999999999,0.0182834000000004,0.1204234000000007,-0.0144543999999999,0,sub_15
-0.0046486000000002,0.0160390000000012,0.0693687999999999,0.0154722000000004,0.1161560000000007,-0.0104093999999999,0,sub_15
-0.0049406000000002,0.0135770000000012,0.0704241999999999,0.0073104000000004,0.1104072000000007,-0.0042631999999999,0,sub_15
-0.0052444000000002,0.0110338000000012,0.0707663999999999,-0.0049553999999995,0.0940182000000007,0.0022952,0,sub_15
-0.0055362000000002,0.0091654000000012,0.0705837999999999,-0.0185185999999995,0.0731620000000007,0.0082093999999999,0,sub_15
-0.0043152000000002,0.0075360000000012,0.0696389999999999,-0.0301403999999995,0.0552886000000007,0.0124239999999999,0,sub_15
-0.0022146000000002,0.0058910000000012,0.0686677999999999,-0.0379187999999995,0.0361312000000007,0.0147443999999999,0,sub_15
-0.0020284000000002,0.0066128000000012,0.0683997999999999,-0.0441525999999995,0.0280484000000007,0.0168475999999999,0,sub_15
-0.0020590000000002,0.0087816000000012,0.0693507999999999,-0.0486487999999995,0.0259284000000007,0.0181005999999999,0,sub_15
-0.0038156000000002,0.0099976000000012,0.0683735999999999,-0.0542137999999995,0.0252960000000007,0.0212671999999999,0,sub_15
-0.0059222000000002,0.0112780000000012,0.0668519999999999,-0.0621429999999995,0.0229588000000007,0.0265559999999999,0,sub_15
-0.0090324000000002,0.0153586000000012,0.0651217999999999,-0.0753979999999995,0.0251040000000007,0.0343653999999999,0,sub_15
-0.0047370000000002,0.0207118000000012,0.0592543999999999,-0.0876225999999995,0.0176640000000007,0.0406987999999999,0,sub_15
0.0087481999999997,0.0214050000000012,0.0529719999999999,-0.0971363999999995,-0.0008761999999992,0.0500565999999999,0,sub_15
0.0282489999999997,0.0172578000000012,0.0504697999999999,-0.1079689999999995,-0.0219925999999992,0.0653903999999999,0,sub_15
0.0438911999999997,0.0127616000000012,0.0502943999999999,-0.1188647999999995,-0.0565337999999992,0.0813817999999999,0,sub_15
0.0530531999999997,0.0029224000000012,0.0569123999999999,-0.1141061999999995,-0.1315683999999992,0.0870659999999999,0,sub_15
0.0524241999999997,-0.0074467999999987,0.0718247999999999,-0.1024391999999995,-0.1910645999999992,0.0904283999999999,0,sub_15
0.0254243999999997,-0.0065665999999987,0.0963247999999999,-0.1012971999999995,-0.2185655999999992,0.0936761999999999,0,sub_15
-0.0173864000000003,-0.0040085999999987,0.1190747999999999,-0.0905041999999995,-0.2422371999999992,0.0899361999999999,0,sub_15
-0.0591450000000002,-0.0008175999999987,0.1349887999999999,-0.0690423999999995,-0.2311665999999992,0.0734077999999999,0,sub_15
-0.0901756000000002,0.0048882000000012,0.1439125999999999,-0.0589745999999995,-0.1433591999999992,0.0575559999999999,0,sub_15
-0.1104652000000002,0.0069710000000012,0.1477897999999999,-0.0601761999999995,-0.0491113999999992,0.0392671999999999,0,sub_15
-0.1086394000000002,-2.639999999874583e-05,0.1410433999999999,-0.0616649999999995,0.0234270000000007,0.015663,0,sub_15
-0.0856094000000002,-0.0075375999999987,0.1300653999999999,-0.0782957999999995,0.0970862000000007,-0.0086893999999999,0,sub_15
-0.0574970000000002,-0.0150379999999987,0.1207651999999999,-0.1105851999999995,0.1626630000000007,-0.0228859999999999,0,sub_15
-0.0322890000000002,-0.0187555999999987,0.1072539999999999,-0.1529131999999995,0.1905158000000007,-0.0251401999999999,0,sub_15
-0.0134286000000002,-0.0161817999999987,0.0890417999999999,-0.1954087999999995,0.1891480000000007,-0.0192396,0,sub_15
0.0026991999999997,-0.0110079999999987,0.0709967999999999,-0.2302585999999994,0.1849632000000007,-0.0081546,0,sub_15
0.0080047999999997,-0.0009109999999987,0.0576089999999999,-0.2556939999999995,0.1903178000000007,0.0068295999999999,0,sub_15
0.0099857999999997,0.0086612000000012,0.0483001999999999,-0.2664363999999995,0.1890162000000007,0.0219249999999999,0,sub_15
0.0088441999999997,0.0168870000000012,0.0435623999999999,-0.2620293999999995,0.1832056000000007,0.0326453999999999,0,sub_15
0.0062603999999997,0.0227332000000012,0.0433171999999999,-0.2406739999999995,0.1909986000000007,0.0366301999999999,0,sub_15
0.0027041999999997,0.0261134000000012,0.0439965999999999,-0.2021383999999995,0.2147452000000007,0.0321687999999999,0,sub_15
0.0004185999999997,0.0275358000000012,0.0433971999999999,-0.1524643999999995,0.2399766000000007,0.0196647999999999,0,sub_15
-0.0012736000000002,0.0260786000000012,0.0432959999999999,-0.1025931999999995,0.2575536000000007,0.0031127999999999,0,sub_15
9.199999999974436e-05,0.0218656000000012,0.0446581999999999,-0.0559791999999995,0.2602374000000007,-0.0157929999999999,0,sub_15
0.0048263999999997,0.0141326000000012,0.0504871999999999,-0.0243407999999995,0.2376328000000007,-0.0328531999999999,0,sub_15
0.0101019999999997,0.0072174000000012,0.0564225999999999,-0.0184663999999994,0.1871778000000007,-0.0425799999999999,0,sub_15
0.0145199999999997,0.0008828000000012,0.0623875999999999,-0.0329983999999995,0.1150282000000007,-0.0438757999999999,0,sub_15
0.0185319999999997,-0.0032683999999987,0.0645469999999999,-0.0599405999999995,0.0409814000000007,-0.0394873999999999,0,sub_15
0.0208871999999997,-0.0054967999999987,0.0639051999999999,-0.0917729999999995,-0.0234839999999992,-0.0293769999999999,0,sub_15
0.0191631999999997,-0.0060997999999987,0.0587341999999999,-0.1191321999999995,-0.0673343999999992,-0.0154113999999999,0,sub_15
0.0136545999999997,-0.0047061999999987,0.0542757999999999,-0.1295331999999995,-0.0933285999999992,-0.0060503999999999,0,sub_15
0.0075905999999997,-0.0001607999999987,0.0506345999999999,-0.1266465999999995,-0.1127387999999992,-0.0030141999999999,0,sub_15
0.0020925999999997,0.0052422000000012,0.0494599999999999,-0.1167157999999995,-0.1334441999999993,-0.0018502,0,sub_15
-0.0031026000000002,0.0091884000000012,0.0484507999999999,-0.1022851999999995,-0.1520261999999992,-0.0027938,0,sub_15
-0.0081654000000002,0.0121540000000012,0.0503859999999999,-0.0844155999999994,-0.1661417999999992,-0.0047874,0,sub_15
-0.0121802000000002,0.0126546000000012,0.0548341999999999,-0.0710151999999994,-0.1755629999999993,-0.0046816,0,sub_15
-0.0158666000000002,0.0092726000000012,0.0605657999999999,-0.0620611999999994,-0.1760253999999993,-0.0033366,0,sub_15
-0.0165208000000002,0.0039278000000012,0.0672307999999999,-0.0582013999999994,-0.1719899999999992,-0.0035284,0,sub_15
-0.0169190000000002,-0.0012169999999987,0.0739075999999999,-0.0613711999999994,-0.1651611999999993,-0.0035594,0,sub_15
-0.0172594000000002,-0.0044183999999987,0.0779101999999999,-0.0726251999999995,-0.1531899999999993,-0.0038669999999999,0,sub_15
-0.0165934000000002,-0.0038909999999987,0.0795233999999999,-0.0885543999999995,-0.1371533999999993,-0.0044261999999999,0,sub_15
-0.0158464000000002,-0.0021395999999987,0.0796059999999999,-0.1044787999999995,-0.1175051999999992,-0.0024261999999999,0,sub_15
-0.0189814000000002,0.0013406000000012,0.0778061999999999,-0.1161203999999995,-0.0927653999999992,0.0013064,0,sub_15
-0.0224826000000002,0.0046152000000012,0.0752679999999999,-0.1204881999999994,-0.0637897999999992,0.0050843999999999,0,sub_15
-0.0227876000000002,0.0080314000000012,0.0729343999999999,-0.1161075999999995,-0.0352691999999992,0.0084967999999999,0,sub_15
-0.0211754000000002,0.0088730000000012,0.0699697999999999,-0.1042647999999995,-0.0091141999999992,0.0108961999999999,0,sub_15
-0.0190162000000002,0.0106828000000012,0.0666013999999999,-0.0917885999999995,0.0155472000000006,0.0133017999999999,0,sub_15
