userAcceleration.x,userAcceleration.y,userAcceleration.z,rotationRate.x,rotationRate.y,rotationRate.z,label,subject
-0.0192576000000004,-0.0029911999999987,-0.0143394,-0.3402629999999995,0.1617242000000005,0.0136981999999999,0,sub_9
-0.0228806000000004,0.0011490000000012,-0.0179,-0.3058945999999995,0.1645886000000005,0.0135071999999999,0,sub_9
-0.0304540000000004,0.0032064000000012,-0.0197046,-0.2658429999999995,0.1525098000000005,0.0157251999999999,0,sub_9
-0.0348046000000004,0.0058308000000012,-0.0245848,-0.2281459999999995,0.1393714000000006,0.0185689999999999,0,sub_9
-0.0300378000000004,0.0117514000000012,-0.0305252,-0.1899715999999995,0.1368868000000006,0.0207615999999999,0,sub_9
-0.0228668000000004,0.0170148000000012,-0.037588,-0.1515711999999995,0.1371710000000006,0.0229521999999999,0,sub_9
-0.0109310000000004,0.0206960000000012,-0.0430712,-0.1144529999999995,0.1368214000000006,0.0249211999999999,0,sub_9
0.0089971999999995,0.0237776000000012,-0.049419,-0.0856793999999994,0.1328730000000006,0.0283319999999999,0,sub_9
0.0243835999999995,0.0251858000000012,-0.0498124,-0.0539203999999995,0.1301856000000005,0.0334711999999999,0,sub_9
0.0314855999999995,0.0202512000000012,-0.0482492,-0.0249917999999995,0.1157866000000005,0.0394601999999999,0,sub_9
0.0268625999999995,0.0130090000000012,-0.04012,-0.0095565999999995,0.0880208000000005,0.0432355999999999,0,sub_9
0.0215691999999995,0.0132426000000012,-0.0397776,-0.0044055999999995,0.0483700000000006,0.0443905999999999,0,sub_9
0.0177615999999995,0.0131056000000012,-0.0394896,-0.0009813999999995,0.0017048000000006,0.0429787999999999,0,sub_9
0.0133349999999995,0.0082842000000012,-0.0378784,0.0051010000000004,-0.0251477999999993,0.0396373999999999,0,sub_9
0.0070505999999995,0.0035204000000012,-0.034564,0.0112294000000004,-0.0443203999999993,0.0337225999999999,0,sub_9
0.0046085999999995,-0.0036253999999987,-0.0328768,0.0210926000000004,-0.0447363999999993,0.0226825999999999,0,sub_9
0.0045435999999995,-0.0135339999999987,-0.0233624,0.0209772000000005,-0.0336141999999993,0.0119851999999999,0,sub_9
-0.0004270000000004,-0.0161013999999987,-0.013247,0.0029518000000005,-0.0166881999999993,0.0039327999999999,0,sub_9
0.0035685999999995,-0.0112377999999987,-0.0075406,-0.0309495999999994,-0.0144253999999993,0.0002747999999999,0,sub_9
0.0044955999999995,-0.0099497999999987,-0.0018208,-0.0695719999999994,-0.0138675999999993,0.0008589999999999,0,sub_9
0.0110381999999995,-0.0021895999999987,-0.0009044,-0.1076519999999994,-0.0299507999999993,0.0065955999999999,0,sub_9
0.0176139999999995,0.0035762000000012,-0.0044432,-0.1339477999999994,-0.0358457999999993,0.0117605999999999,0,sub_9
0.0206147999999995,0.0061062000000012,-0.0073792,-0.1396733999999995,-0.0249717999999993,0.0146975999999999,0,sub_9
0.0181243999999995,0.0075564000000012,-0.0078198,-0.1388293999999995,-0.0258321999999993,0.0159863999999999,0,sub_9
0.0215055999999995,0.0151262000000012,-0.0125548,-0.1352345999999995,-0.0330887999999993,0.0160207999999999,0,sub_9
0.0264767999999995,0.0199836000000012,-0.016372,-0.1260451999999995,-0.0286517999999993,0.0173611999999999,0,sub_9
0.0287853999999995,0.0210518000000012,-0.0171874,-0.1104553999999995,-0.0223283999999993,0.0208803999999999,0,sub_9
0.0324613999999995,0.0216470000000012,-0.017935,-0.0920565999999994,-0.0081315999999993,0.0244089999999999,0,sub_9
0.0371175999999995,0.0194194000000012,-0.017529,-0.0755597999999994,0.0077858000000006,0.0255719999999999,0,sub_9
0.0405127999999995,0.0172804000000012,-0.014954,-0.0636081999999994,0.0102930000000006,0.0275749999999999,0,sub_9
0.0405847999999995,0.0151726000000012,-0.0147574,-0.0572377999999995,0.0047260000000006,0.0289083999999999,0,sub_9
0.0376379999999995,0.0151974000000012,-0.0141298,-0.0551405999999995,-0.0029529999999993,0.0293601999999999,0,sub_9
0.0312507999999995,0.0151992000000012,-0.0139416,-0.0544781999999995,-0.0125173999999993,0.0278661999999999,0,sub_9
0.0212563999999995,0.0142956000000012,-0.0158178,-0.0503625999999995,-0.0148439999999993,0.0248913999999999,0,sub_9
0.0163535999999995,0.0124914000000012,-0.0172986,-0.0478693999999995,-0.0015987999999993,0.0186805999999999,0,sub_9
0.0191669999999995,0.0144868000000012,-0.0142812,-0.0487709999999995,0.0167682000000006,0.0132941999999999,0,sub_9
0.0248599999999995,0.0158980000000012,-0.011732,-0.0501003999999995,0.0370454000000006,0.0100385999999999,0,sub_9
0.0270033999999995,0.0147064000000012,-0.0134768,-0.0470373999999994,0.0528052000000006,0.0089715999999999,0,sub_9
0.0284125999999995,0.0152058000000012,-0.0148852,-0.0431583999999994,0.0617382000000006,0.0094145999999999,0,sub_9
0.0254727999999995,0.0146760000000012,-0.014216,-0.0382489999999994,0.0634202000000006,0.0107285999999999,0,sub_9
0.0183147999999995,0.0101858000000012,-0.015698,-0.0305771999999994,0.0610506000000006,0.0105715999999999,0,sub_9
0.0114375999999995,0.0055014000000012,-0.0165374,-0.0235425999999994,0.0559272000000006,0.0069953999999999,0,sub_9
0.0104217999999995,0.0038612000000012,-0.0101222,-0.0216135999999995,0.0504108000000006,-0.0004616,0,sub_9
0.0095817999999995,0.0027728000000012,-0.0032084,-0.0230869999999994,0.0457656000000006,-0.0096526,0,sub_9
0.0077495999999995,0.0030868000000012,-0.0015674,-0.0260319999999994,0.0445404000000006,-0.0203538,0,sub_9
0.0046139999999995,0.0051716000000012,-0.0034534,-0.0312973999999994,0.0490766000000006,-0.0312922,0,sub_9
0.0014775999999995,0.0085490000000012,-0.0065828,-0.0356785999999994,0.0614886000000006,-0.0411664,0,sub_9
-0.0011140000000004,0.0111968000000012,-0.0121992,-0.0391811999999994,0.0813468000000006,-0.0491212,0,sub_9
-0.0027328000000004,0.0132162000000012,-0.0162134,-0.0405473999999994,0.1045952000000006,-0.054288,0,sub_9
-0.0035804000000004,0.0143412000000012,-0.0196148,-0.0389309999999994,0.1288900000000006,-0.0572988,0,sub_9
-0.0020588000000004,0.0146212000000012,-0.0221258,-0.0345551999999994,0.1508280000000006,-0.0594328,0,sub_9
0.0010927999999995,0.0148048000000012,-0.0243764,-0.0289317999999995,0.1665788000000006,-0.0604818,0,sub_9
0.0058801999999995,0.0169590000000012,-0.0263726,-0.0197097999999995,0.1761374000000006,-0.0612842,0,sub_9
0.0115087999999995,0.0183160000000012,-0.0297584,-0.0070861999999995,0.1812170000000006,-0.0637662,0,sub_9
0.0162167999999995,0.0174030000000012,-0.0312908,0.0067848000000004,0.1807458000000006,-0.0645232,0,sub_9
0.0202041999999995,0.0162044000000012,-0.0304102,0.0205888000000004,0.1700294000000006,-0.0605674,0,sub_9
0.0207315999999995,0.0141124000000012,-0.0297924,0.0333098000000004,0.1559070000000006,-0.0564012,0,sub_9
0.0165693999999995,0.0093954000000012,-0.0301816,0.0434682000000004,0.1422164000000006,-0.051399,0,sub_9
0.0109339999999995,0.0052942000000012,-0.0317034,0.0502040000000004,0.1278932000000006,-0.045138,0,sub_9
0.0072689999999995,0.0021742000000012,-0.0334288,0.0547860000000004,0.1097400000000006,-0.0382462,0,sub_9
0.0042227999999995,-0.0004363999999987,-0.0342758,0.0555666000000004,0.0914230000000006,-0.0403538,0,sub_9
0.0041639999999995,-0.0020571999999986,-0.0323508,0.0544278000000004,0.0724770000000006,-0.0433286,0,sub_9
0.0056253999999995,-0.0018545999999986,-0.028773,0.0506950000000004,0.0458708000000006,-0.0465252,0,sub_9
0.0049785999999995,-0.0023925999999986,-0.0242194,0.0445960000000004,0.0158606000000006,-0.0488794,0,sub_9
0.0004909999999995,-0.0007151999999986,-0.0184402,0.0353310000000004,-0.0092271999999994,-0.0540394,0,sub_9
-0.0085840000000004,0.0004766000000013,-0.0163252,0.0267300000000004,-0.0247467999999993,-0.0549342,0,sub_9
-0.0205312000000004,3.0600000001303806e-05,-0.018478,0.0162268000000004,-0.0351507999999993,-0.0547806,0,sub_9
-0.0335626000000004,-6.139999999871621e-05,-0.0217754,0.0085560000000004,-0.0340535999999993,-0.0561174,0,sub_9
-0.0433628000000004,0.0021004000000012,-0.0254264,0.0053880000000004,-0.0246765999999993,-0.0540152,0,sub_9
-0.0481574000000004,0.0041446000000012,-0.0311096,0.0035308000000004,-0.0137913999999993,-0.0572468,0,sub_9
-0.0485064000000004,0.0066654000000012,-0.0370296,0.0040400000000004,0.0030442000000006,-0.0587602,0,sub_9
-0.0449888000000004,0.0102500000000012,-0.0428068,0.0090358000000004,0.0226280000000006,-0.0587504,0,sub_9
-0.0373170000000004,0.0128486000000012,-0.0474986,0.0152810000000004,0.0381482000000006,-0.0559492,0,sub_9
-0.0276338000000004,0.0131930000000012,-0.0509202,0.0230208000000004,0.0500566000000006,-0.0569786,0,sub_9
-0.0172084000000004,0.0120850000000012,-0.0525814,0.0334876000000004,0.0591550000000006,-0.0502942,0,sub_9
-0.0074382000000004,0.0114286000000012,-0.051727,0.0436960000000004,0.0580284000000006,-0.0438122,0,sub_9
-0.0010776000000004,0.0104044000000012,-0.0494762,0.0519782000000004,0.0545692000000006,-0.0384088,0,sub_9
0.0009711999999995,0.0078596000000012,-0.0483856,0.0561882000000004,0.0485614000000006,-0.0315352,0,sub_9
-0.0008760000000004,0.0058546000000012,-0.048997,0.0552600000000004,0.0389488000000006,-0.024479,0,sub_9
-0.0081940000000004,0.0044442000000012,-0.0507556,0.0528410000000004,0.0280708000000006,-0.0193544,0,sub_9
-0.0157254000000004,0.0029074000000012,-0.052499,0.0497674000000004,0.0123016000000006,-0.0159374,0,sub_9
-0.0229200000000004,0.0010116000000012,-0.0510944,0.0472544000000004,-0.0203043999999993,-0.0116402,0,sub_9
-0.0290300000000004,0.0011180000000012,-0.0478168,0.0473700000000004,-0.0445827999999993,-0.0141719999999999,0,sub_9
-0.0347148000000004,0.0009758000000013,-0.0440728,0.0484468000000004,-0.0541589999999993,-0.0135253999999999,0,sub_9
-0.0393334000000004,0.0005838000000013,-0.0405994,0.0488942000000004,-0.0601161999999993,-0.0116059999999999,0,sub_9
-0.0434162000000004,0.0009192000000013,-0.0366652,0.0502218000000004,-0.0603231999999993,-0.0099014,0,sub_9
-0.0469424000000004,0.0014438000000013,-0.035557,0.0503660000000004,-0.0411293999999993,-0.0103664,0,sub_9
-0.0492096000000004,0.0024026000000013,-0.0365726,0.0493512000000004,-0.0302895999999993,0.0013489999999999,0,sub_9
-0.0493210000000004,0.0027650000000012,-0.0344638,0.0486948000000004,-0.0332727999999993,0.0019891999999999,0,sub_9
-0.0467004000000004,0.0036192000000012,-0.030348,0.0508218000000004,-0.0354081999999993,0.0013657999999999,0,sub_9
-0.0444166000000004,0.0031968000000012,-0.026357,0.0518848000000004,-0.0369005999999993,0.0007341999999999,0,sub_9
-0.0436564000000004,0.0010224000000012,-0.022874,0.0520646000000004,-0.0430849999999993,0.0020253999999999,0,sub_9
-0.0438780000000004,-0.0019679999999986,-0.019117,0.0505836000000004,-0.0468881999999993,-0.004603,0,sub_9
-0.0453910000000004,-0.0034743999999986,-0.017361,0.0493006000000004,-0.0485837999999993,-0.005678,0,sub_9
-0.0468126000000004,-0.0048855999999986,-0.0160052,0.0446072000000004,-0.0511129999999993,-0.0084848,0,sub_9
-0.0469436000000004,-0.0056691999999986,-0.014843,0.0373478000000004,-0.0549115999999993,-0.011308,0,sub_9
-0.0461726000000004,-0.0043369999999986,-0.0143044,0.0288138000000004,-0.0576395999999993,-0.0143552,0,sub_9
-0.0463802000000004,-0.0033759999999987,-0.0147556,0.0198540000000004,-0.0584553999999993,-0.0156986,0,sub_9
-0.0484076000000004,-0.0024205999999987,-0.018546,0.0098340000000004,-0.0565027999999993,-0.0157712,0,sub_9
-0.0478360000000004,-0.0010905999999987,-0.0226868,0.0021604000000004,-0.0541349999999993,-0.015187,0,sub_9
-0.0470758000000004,0.0010680000000012,-0.0262696,-0.0005971999999995,-0.0500789999999993,-0.014784,0,sub_9
-0.0446424000000004,0.0033746000000012,-0.0282652,0.0004794000000004,-0.0468909999999993,-0.0137124,0,sub_9
-0.0413394000000004,0.0046880000000012,-0.0314052,0.0041154000000004,-0.0432885999999993,-0.0119824,0,sub_9
-0.0369430000000004,0.0065848000000012,-0.0319836,0.0103110000000004,-0.0384227999999993,-0.0087406,0,sub_9
-0.0369788000000004,0.0078088000000012,-0.0348234,0.0156500000000004,-0.0333441999999993,-0.0046506,0,sub_9
-0.0361094000000004,0.0060476000000012,-0.0378894,0.0188488000000004,-0.0295373999999993,-0.0003604,0,sub_9
-0.0351186000000004,0.0032480000000012,-0.0401118,0.0218608000000004,-0.0218865999999993,0.0017873999999999,0,sub_9
-0.0331058000000004,0.0044996000000012,-0.0392452,0.0229276000000004,-0.0195561999999993,0.0041417999999999,0,sub_9
-0.0268610000000004,0.0053374000000012,-0.0382938,0.0198742000000004,-0.0346707999999993,0.0037125999999999,0,sub_9
-0.0210870000000004,0.0069344000000012,-0.0357356,0.0149340000000004,-0.0421097999999993,0.0034739999999999,0,sub_9
-0.0193152000000004,0.0110750000000012,-0.0322144,0.0104120000000004,-0.0493455999999993,0.0053745999999999,0,sub_9
-0.0174600000000004,0.0113492000000012,-0.0262698,0.0096636000000004,-0.0725693999999993,0.0062535999999999,0,sub_9
-0.0149262000000004,0.0043468000000012,-0.0114784,0.0144570000000004,-0.1017593999999993,0.0024789999999999,0,sub_9
-0.0195670000000004,-0.0023099999999987,0.0148367999999999,0.0228902000000004,-0.1241607999999993,0.0027801999999999,0,sub_9
-0.0289634000000004,-0.0085213999999986,0.0485171999999999,0.0282722000000004,-0.1557331999999993,0.0081993999999999,0,sub_9
-0.0410198000000004,-0.0197297999999986,0.0780653999999999,0.0212976000000004,-0.1779085999999993,0.0186475999999999,0,sub_9
-0.0575260000000004,-0.0288605999999986,0.0958527999999999,-0.0097103999999995,-0.1759521999999993,0.0357337999999999,0,sub_9
-0.0791482000000004,-0.0336223999999987,0.0946435999999999,-0.0604823999999995,-0.1541207999999993,0.0547927999999999,0,sub_9
-0.0962516000000004,-0.0386611999999986,0.0762369999999999,-0.1216023999999995,-0.1185765999999993,0.0635069999999999,0,sub_9
-0.1018462000000004,-0.0422405999999987,0.0477369999999999,-0.1826045999999995,-0.0744395999999993,0.0544785999999999,0,sub_9
-0.0943882000000004,-0.0386009999999987,0.0207229999999999,-0.2322663999999995,-0.0426217999999993,0.0261035999999999,0,sub_9
-0.0827006000000004,-0.0293795999999987,-0.0003778,-0.2623505999999995,-0.0283195999999993,-0.0078808,0,sub_9
-0.0673652000000004,-0.0174987999999987,-0.0162984,-0.2786633999999995,-0.0290071999999993,-0.034913,0,sub_9
-0.0538998000000004,0.0014626000000012,-0.035448,-0.2843667999999995,-0.0276625999999993,-0.0464914,0,sub_9
-0.0463282000000004,0.0198582000000012,-0.0540116,-0.2730185999999995,-0.0174815999999993,-0.0449296,0,sub_9
-0.0455428000000004,0.0356258000000012,-0.0706064,-0.2418315999999995,-0.0001591999999993,-0.0349064,0,sub_9
-0.0391752000000004,0.0462966000000012,-0.0844296,-0.1924427999999995,0.0264944000000006,-0.0298954,0,sub_9
-0.0149392000000004,0.0526132000000012,-0.0863836,-0.1244463999999995,0.0539712000000005,-0.0337286,0,sub_9
0.0127065999999995,0.0513732000000012,-0.076694,-0.0483505999999995,0.0712252000000006,-0.0398356,0,sub_9
0.0424625999999995,0.0466706000000012,-0.0630342,0.0122300000000004,0.0678140000000006,-0.0327786,0,sub_9
0.0555191999999995,0.0379938000000012,-0.0566722,0.0496762000000004,0.0580370000000006,-0.0122018,0,sub_9
0.0601679999999995,0.0298870000000012,-0.0503132,0.0704066000000005,0.0340360000000006,0.0101993999999999,0,sub_9
0.0467569999999995,0.0219654000000012,-0.0506958,0.0776686000000004,0.0007224000000006,0.0288863999999999,0,sub_9
0.0281877999999995,0.0143438000000012,-0.0466492,0.0747108000000004,-0.0274421999999993,0.0417205999999999,0,sub_9
0.0056983999999995,0.0074056000000012,-0.0439428,0.0693122000000004,-0.0427591999999993,0.0406341999999999,0,sub_9
-0.0037558000000004,0.0041696000000012,-0.035908,0.0650276000000004,-0.0552793999999993,0.0318609999999999,0,sub_9
-0.0104008000000004,0.0033376000000012,-0.0280068,0.0583008000000004,-0.0555553999999993,0.0240423999999999,0,sub_9
-0.0167478000000004,0.0041474000000012,-0.0191346,0.0497142000000004,-0.0402805999999993,0.0183273999999999,0,sub_9
-0.0204722000000004,0.0029552000000012,-0.0157976,0.0411418000000004,-0.0222341999999993,0.0121815999999999,0,sub_9
-0.0237662000000004,0.0019722000000012,-0.0141396,0.0361518000000004,-0.0129407999999993,0.0073539999999999,0,sub_9
-0.0227826000000004,0.0028358000000012,-0.0111196,0.0335068000000004,-0.0040817999999993,0.0025433999999999,0,sub_9
-0.0206196000000004,0.0041456000000012,-0.0086278,0.0324678000000004,-0.0004459999999993,-3.220000000002856e-05,0,sub_9
-0.0135180000000004,0.0053772000000012,-0.0087944,0.0300976000000004,-0.0025801999999993,0.0029449999999999,0,sub_9
-0.0074860000000004,0.0070998000000012,-0.0118412,0.0268482000000004,-0.0081295999999993,0.0082705999999999,0,sub_9
-0.0074848000000004,0.0080060000000012,-0.020307,0.0242666000000004,-0.0113223999999993,0.0097521999999999,0,sub_9
-0.0127200000000004,0.0074762000000012,-0.030502,0.0244878000000004,-0.0106795999999993,0.0086845999999999,0,sub_9
-0.0199670000000004,0.0058094000000012,-0.038526,0.0277200000000004,-0.0038721999999993,0.0084847999999999,0,sub_9
-0.0285446000000004,0.0051530000000012,-0.0403338,0.0329196000000004,0.0112460000000006,0.0061515999999999,0,sub_9
-0.0305398000000004,0.0055454000000012,-0.042255,0.0376866000000004,0.0240264000000006,0.0027501999999999,0,sub_9
-0.0219844000000004,0.0070288000000012,-0.0376082,0.0413284000000004,0.0274216000000006,0.0029849999999999,0,sub_9
-0.0133232000000004,0.0077362000000012,-0.0332544,0.0427894000000004,0.0222946000000006,0.0051381999999999,0,sub_9
-0.0088052000000004,0.0068126000000012,-0.032655,0.0410298000000004,0.0114314000000006,0.0059943999999999,0,sub_9
-0.0092678000000004,0.0048066000000012,-0.0378374,0.0383686000000004,-0.0111423999999993,0.0057911999999999,0,sub_9
-0.0142650000000004,0.0060806000000012,-0.0416578,0.0384842000000004,-0.0345721999999993,0.0041127999999999,0,sub_9
-0.0190500000000004,0.0072890000000012,-0.0445084,0.0399298000000004,-0.0484129999999993,0.0009359999999999,0,sub_9
-0.0187838000000004,0.0077364000000012,-0.0446146,0.0403220000000004,-0.0599039999999993,-0.0028922,0,sub_9
-0.0120890000000004,0.0085778000000012,-0.0392038,0.0409198000000004,-0.0711903999999993,-0.0047964,0,sub_9
-0.0067836000000004,0.0089318000000012,-0.033696,0.0397984000000004,-0.0812085999999993,-0.002655,0,sub_9
-0.0056830000000004,0.0052474000000012,-0.0308452,0.0350122000000004,-0.0971889999999993,0.0018185999999999,0,sub_9
-0.0102660000000004,0.0019032000000012,-0.0297174,0.0304096000000004,-0.1193503999999993,0.0067285999999999,0,sub_9
-0.0189362000000004,0.0016610000000012,-0.0282194,0.0277474000000004,-0.1385299999999993,0.0101529999999999,0,sub_9
-0.0310208000000004,0.0015214000000012,-0.0307214,0.0244952000000004,-0.1491747999999993,0.0109985999999999,0,sub_9
-0.0395002000000004,0.0005266000000012,-0.034565,0.0198018000000004,-0.1521283999999994,0.0077649999999999,0,sub_9
-0.0429284000000004,0.0007186000000013,-0.035481,0.0168624000000004,-0.1463459999999993,0.0028231999999999,0,sub_9
-0.0432644000000004,0.0012804000000013,-0.034114,0.0143796000000004,-0.1341725999999993,-0.0023372,0,sub_9
-0.0404910000000004,0.0009586000000013,-0.0355634,0.0084704000000004,-0.1224225999999993,-0.005171,0,sub_9
-0.0362094000000004,0.0019220000000013,-0.0369284,0.0029562000000005,-0.1149463999999993,-0.0052192,0,sub_9
-0.0327610000000004,0.0047196000000013,-0.036646,-0.0002155999999994,-0.1055727999999993,-0.0022624,0,sub_9
-0.0309676000000004,0.0060290000000012,-0.034003,-0.0018985999999994,-0.0951477999999993,0.0028399999999999,0,sub_9
-0.0280864000000004,0.0074108000000012,-0.0344574,-0.0046609999999994,-0.0870641999999993,0.0083651999999999,0,sub_9
-0.0257284000000004,0.0077868000000012,-0.0350168,-0.0042159999999995,-0.0785615999999993,0.0128439999999999,0,sub_9
-0.0189744000000004,0.0112032000000012,-0.036251,-0.0035797999999995,-0.0760207999999993,0.0162635999999999,0,sub_9
-0.0094700000000004,0.0141214000000012,-0.0358928,0.0004236000000004,-0.0839315999999993,0.0197199999999999,0,sub_9
-0.0011778000000004,0.0176050000000012,-0.036318,0.0118806000000004,-0.0918811999999993,0.0264331999999999,0,sub_9
-0.0050022000000004,0.0171974000000012,-0.0310282,0.0310334000000004,-0.0913569999999993,0.0385301999999999,0,sub_9
-0.0146500000000004,0.0147550000000013,-0.0264994,0.0482840000000004,-0.0895363999999993,0.0478349999999999,0,sub_9
-0.0270480000000004,0.0074444000000013,-0.0209404,0.0660150000000004,-0.0834257999999993,0.0494463999999999,0,sub_9
-0.0405506000000004,0.0003030000000013,-0.0155818,0.0784836000000004,-0.0678957999999993,0.0443861999999999,0,sub_9
-0.0507094000000003,-0.0069137999999986,-0.0091628,0.0766898000000004,-0.0505881999999993,0.0334555999999999,0,sub_9
-0.0506234000000004,-0.0095475999999986,-0.0078948,0.0616574000000004,-0.0406699999999993,0.0171009999999999,0,sub_9
-0.0467156000000004,-0.0093631999999986,-0.0060306,0.0446778000000004,-0.0331031999999993,0.0043677999999999,0,sub_9
-0.0454234000000004,-0.0066935999999986,-0.0062674,0.0259624000000004,-0.0227973999999993,0.0008055999999999,0,sub_9
-0.0446584000000004,-0.0038053999999986,-0.0088554,0.0085002000000004,-0.0125197999999993,0.0032341999999999,0,sub_9
-0.0453386000000004,0.0006048000000012,-0.0162518,-0.0019357999999995,-0.0046147999999993,0.0067831999999999,0,sub_9
-0.0402870000000004,0.0063838000000012,-0.0254306,-0.0029883999999995,0.0019800000000006,0.0101857999999999,0,sub_9
-0.0313286000000004,0.0109136000000012,-0.0328126,0.0043524000000004,0.0128154000000006,0.0142623999999999,0,sub_9
-0.0224396000000004,0.0140354000000012,-0.0381812,0.0176648000000004,0.0238396000000006,0.0192351999999999,0,sub_9
-0.0173408000000004,0.0168114000000012,-0.040293,0.0339366000000004,0.0290992000000006,0.0246631999999999,0,sub_9
-0.0139216000000004,0.0175534000000012,-0.0402902,0.0514550000000004,0.0273218000000006,0.0305361999999999,0,sub_9
-0.0165740000000004,0.0141596000000012,-0.035584,0.0698376000000004,0.0274606000000006,0.0359853999999999,0,sub_9
-0.0211370000000004,0.0086434000000012,-0.0295424,0.0819902000000004,0.0267730000000006,0.0375665999999999,0,sub_9
-0.0250048000000004,0.0035682000000012,-0.0221474,0.0864882000000004,0.0267728000000006,0.0337523999999999,0,sub_9
-0.0268598000000004,-0.0011399999999987,-0.0170656,0.0846158000000004,0.0308538000000006,0.0271109999999999,0,sub_9
-0.0284994000000004,-0.0043645999999987,-0.0137868,0.0772072000000004,0.0362378000000006,0.0191475999999999,0,sub_9
-0.0292284000000004,-0.0053963999999987,-0.0119494,0.0650832000000004,0.0371632000000006,0.0113705999999999,0,sub_9
-0.0294430000000004,-0.0027725999999987,-0.0098416,0.0538022000000004,0.0372274000000006,0.0050961999999999,0,sub_9
-0.0325752000000004,0.0003584000000012,-0.0121002,0.0437700000000004,0.0351370000000006,0.0037467999999999,0,sub_9
-0.0328310000000004,0.0032354000000012,-0.0166684,0.0394700000000004,0.0279082000000006,0.0037261999999999,0,sub_9
-0.0301032000000003,0.0060150000000012,-0.0202444,0.0415902000000004,0.0257668000000006,0.0045981999999999,0,sub_9
-0.0263650000000003,0.0083702000000012,-0.0244158,0.0475532000000004,0.0246748000000006,0.0061367999999999,0,sub_9
