userAcceleration.x,userAcceleration.y,userAcceleration.z,rotationRate.x,rotationRate.y,rotationRate.z,label,subject
-0.0129842000000002,0.0019918000000012,0.0001001999999999,0.0756982000000004,-0.023404199999999,0.0298167999999999,0,sub_24
-0.0113894000000002,-0.0013601999999987,-0.0093298,0.0741698000000004,-0.034677199999999,0.0264017999999999,0,sub_24
-0.0062564000000002,-0.0002643999999987,-0.015012,0.0659540000000004,-0.058935999999999,0.0261613999999999,0,sub_24
-0.0063348000000002,-0.0006379999999987,-0.0090926,0.0588530000000004,-0.074243399999999,0.0242081999999999,0,sub_24
-0.0013490000000002,0.0038024000000012,-0.0037622,0.0496732000000004,-0.073366799999999,0.0260653999999999,0,sub_24
0.0038323999999997,0.0082598000000012,-0.003236,0.0461206000000004,-0.054189399999999,0.0285793999999999,0,sub_24
0.0020853999999997,0.0107702000000012,-0.0030684,0.0399674000000004,-0.044375799999999,0.0306601999999999,0,sub_24
-0.0067270000000002,0.0090880000000012,-0.0041156,0.0312508000000004,-0.038587399999999,0.0293097999999999,0,sub_24
-0.0148494000000002,0.0072596000000012,-0.0066484,0.0208350000000004,-0.033847399999999,0.0251709999999999,0,sub_24
-0.0154430000000002,0.0062854000000012,-0.0091762,0.0140468000000004,-0.030180999999999,0.0199903999999999,0,sub_24
-0.0152300000000002,0.0044356000000012,-0.0100286,0.0101634000000004,-0.042937999999999,0.0167735999999999,0,sub_24
-0.0160048000000002,0.0049300000000012,-0.0099394,0.0062886000000004,-0.053352999999999,0.0139809999999999,0,sub_24
-0.0147484000000002,0.0038418000000012,-0.0102564,-9.999999999950256e-05,-0.054593799999999,0.0100907999999999,0,sub_24
-0.0095284000000002,0.0037520000000012,-0.0120756,-0.0148039999999995,-0.055375999999999,0.0052875999999999,0,sub_24
-0.0052562000000003,0.0042916000000012,-0.0092288,-0.0342337999999995,-0.063384599999999,0.0002473999999999,0,sub_24
-0.0039164000000003,0.0058118000000012,0.0055231999999999,-0.0589603999999995,-0.060304999999999,-0.0024938,0,sub_24
0.0014595999999996,0.0108572000000012,0.0160023999999999,-0.0716721999999995,-0.036624799999999,0.0008047999999999,0,sub_24
0.0131671999999996,0.0162214000000012,0.0131197999999999,-0.0749965999999995,-0.008309799999999,0.0090778,0,sub_24
0.0063721999999996,0.0134560000000012,0.0051375999999999,-0.0667049999999995,-0.010061799999999,0.0138387999999999,0,sub_24
-0.0098136000000002,0.0088686000000012,-0.0038776,-0.0528351999999995,-0.010320599999999,0.0132958,0,sub_24
-0.0083408000000003,0.0052288000000012,-0.0186912,-0.0368069999999995,-0.008444399999999,0.0097741999999999,0,sub_24
-0.0045864000000003,0.0005014000000012,-0.0230262,-0.0247727999999995,-0.041067799999999,0.0058415999999999,0,sub_24
-0.0086786000000003,0.0001050000000012,-0.0125514,-0.0144307999999995,-0.071549399999999,0.0006117999999999,0,sub_24
-0.0010114000000003,0.0037650000000012,-0.0034422,-0.0105631999999995,-0.066021599999999,0.0002043999999999,0,sub_24
0.0133003999999996,0.0080130000000012,0.0003115999999999,-0.0099047999999995,-0.055609599999999,0.0066049999999999,0,sub_24
0.0144987999999997,0.0097966000000012,-0.0002234,-0.0128747999999995,-0.043276199999999,0.0151141999999999,0,sub_24
0.0062701999999996,0.0098646000000012,-0.003016,-0.0245191999999995,-0.019175399999999,0.0188475999999999,0,sub_24
-0.0054662000000002,0.0059124000000012,-0.0067148,-0.0381111999999995,-0.006338399999999,0.0172401999999999,0,sub_24
-0.0099184000000002,0.0051082000000012,-0.0053138,-0.0425577999999995,-0.002259999999999,0.0135713999999999,0,sub_24
-0.0100778000000002,0.0055460000000012,-0.003753,-0.0400145999999995,-0.010135599999999,0.0095393999999999,0,sub_24
-0.0098338000000002,0.0067210000000012,-0.0029086,-0.0300559999999995,-0.029330799999999,0.0060009999999999,0,sub_24
-0.0088264000000002,0.0048732000000012,-0.0056858,-0.0183625999999995,-0.040019199999999,0.0048139999999999,0,sub_24
-0.0034888000000003,0.0052424000000012,-0.0063536,-0.0109073999999995,-0.040693799999999,0.0072171999999999,0,sub_24
0.0007327999999996,0.0072438000000012,-0.004457,-0.0083685999999995,-0.040934599999999,0.0119355999999999,0,sub_24
0.0023553999999997,0.0097840000000012,-0.0015552,-0.0077111999999995,-0.034343199999999,0.0147091999999999,0,sub_24
0.0018715999999997,0.0116132000000012,0.0022767999999999,-0.0098153999999995,-0.028579599999999,0.0138327999999999,0,sub_24
0.0014035999999997,0.0129596000000012,0.0056397999999999,-0.0157721999999995,-0.028330199999999,0.0099453999999999,0,sub_24
0.0021883999999997,0.0126664000000012,0.0061217999999999,-0.0236265999999995,-0.023809599999999,0.0051845999999999,0,sub_24
0.0034285999999997,0.0111622000000012,0.0032011999999999,-0.0310071999999995,-0.006686199999999,0.0012559999999999,0,sub_24
0.0042513999999997,0.0094222000000012,0.0010995999999999,-0.0366765999999995,0.0134054000000009,-0.0005278,0,sub_24
0.0030815999999997,0.0084758000000012,-0.0023496,-0.0400061999999995,0.0326330000000009,-0.0014396,0,sub_24
0.0017749999999997,0.0067066000000012,-0.0057478,-0.0384555999999995,0.0448162000000009,-0.003163,0,sub_24
0.0007585999999997,0.0055000000000012,-0.0063586,-0.0339731999999995,0.0435708000000009,-0.005917,0,sub_24
0.0005859999999997,0.0049206000000012,-0.003112,-0.0305913999999995,0.0333444000000009,-0.0088714,0,sub_24
0.0007819999999997,0.0045938000000012,-0.0012232,-0.0282661999999995,0.0258896000000009,-0.0114094,0,sub_24
0.0028765999999997,0.0038174000000012,-0.0001144,-0.0240053999999995,0.0239590000000009,-0.0118044,0,sub_24
0.0042991999999997,0.0044964000000012,0.0014473999999999,-0.0190979999999995,0.0256396000000009,-0.0100628,0,sub_24
0.0055731999999996,0.0046882000000012,0.0034271999999999,-0.0169435999999995,0.0326538000000009,-0.0077062,0,sub_24
0.0068421999999996,0.0046932000000012,0.0026377999999999,-0.0149793999999995,0.0443574000000008,-0.005784,0,sub_24
0.0084415999999996,0.0046584000000012,0.0029493999999999,-0.0123875999999995,0.0524404000000008,-0.004707,0,sub_24
0.0080251999999996,0.0066904000000012,0.0043905999999999,-0.0108763999999995,0.0549980000000008,-0.0061942,0,sub_24
0.0084315999999996,0.0060520000000012,0.0049775999999999,-0.0106147999999995,0.0622558000000008,-0.0098326,0,sub_24
0.0089283999999997,0.0061422000000012,0.0048343999999999,-0.0082337999999995,0.0665226000000008,-0.0132386,0,sub_24
0.0095881999999997,0.0050436000000012,0.0060243999999999,-0.0048053999999995,0.0686468000000009,-0.0144978,0,sub_24
0.0091759999999997,0.0039854000000012,0.0061605999999999,-0.0022285999999995,0.0737464000000009,-0.0132032,0,sub_24
0.0087319999999997,0.0019012000000012,0.0051121999999999,0.0005560000000004,0.0801134000000009,-0.009345,0,sub_24
0.0056059999999997,0.0030518000000012,0.0030787999999999,0.0050170000000004,0.0805054000000009,-0.0046132,0,sub_24
0.0027233999999997,0.0042888000000012,0.0025513999999999,0.0105458000000004,0.0796212000000009,-0.0013686,0,sub_24
-0.0002436000000002,0.0065598000000012,0.0029433999999999,0.0160566000000004,0.0717180000000009,-0.0011066,0,sub_24
-0.0023556000000002,0.0084744000000012,0.0044491999999999,0.0192222000000004,0.0619518000000009,-0.004288,0,sub_24
-0.0031902000000002,0.0104102000000012,0.0059949999999999,0.0213486000000004,0.0570946000000009,-0.008765,0,sub_24
-0.0009242000000002,0.0104756000000012,0.0081173999999999,0.0222004000000004,0.0543692000000009,-0.0123988,0,sub_24
7.659999999970837e-05,0.0108250000000012,0.0083857999999999,0.0207020000000004,0.0514372000000009,-0.015621,0,sub_24
0.0002935999999997,0.0113126000000012,0.0085009999999999,0.0173002000000004,0.0525592000000009,-0.018648,0,sub_24
0.0003109999999997,0.0121086000000012,0.0083023999999999,0.0141136000000004,0.0530088000000009,-0.021662,0,sub_24
-0.0002248000000002,0.0127902000000011,0.0073231999999999,0.0107020000000004,0.0489926000000008,-0.0265948,0,sub_24
-0.0011332000000002,0.0123494000000012,0.0057847999999999,0.0064430000000004,0.0437222000000009,-0.0336784,0,sub_24
-0.0004508000000002,0.0107202000000012,0.0029541999999999,0.0032504000000004,0.0388718000000009,-0.0401142,0,sub_24
0.0006497999999997,0.0092062000000012,0.0002625999999999,0.0011348000000004,0.0365724000000009,-0.0461184,0,sub_24
0.0027991999999997,0.0064844000000012,-0.003903,0.0035138000000004,0.0399986000000009,-0.0493206,0,sub_24
0.0052051999999996,0.0034176000000012,-0.0064234,0.0080272000000004,0.0463882000000009,-0.0495204,0,sub_24
0.0061749999999996,0.0015624000000012,-0.006847,0.0138026000000004,0.0523218000000009,-0.0464958,0,sub_24
0.0049395999999996,0.0009074000000012,-0.0057898,0.0210716000000004,0.0605842000000009,-0.0411138,0,sub_24
0.0029297999999996,0.0008152000000012,-0.0052062,0.0295938000000004,0.0647866000000009,-0.0337952,0,sub_24
-3.520000000031137e-05,0.0027256000000012,-0.0022568,0.0361696000000004,0.0600630000000009,-0.027981,0,sub_24
-0.0034496000000002,0.0055334000000012,0.0004773999999999,0.0403708000000004,0.0478966000000009,-0.0236697999999999,0,sub_24
-0.0048270000000002,0.0091322000000012,0.0025631999999999,0.0432840000000004,0.0306350000000009,-0.0227798,0,sub_24
-0.0034622000000002,0.0114832000000012,0.0038789999999999,0.0459970000000004,0.0125374000000009,-0.0257356,0,sub_24
-0.0015624000000002,0.0135532000000012,0.0056959999999999,0.0474708000000004,0.0006348000000009,-0.031699,0,sub_24
0.0004811999999997,0.0138236000000012,0.0083373999999999,0.0476708000000004,-0.007864999999999,-0.0374556,0,sub_24
0.0045823999999997,0.0116622000000012,0.0081769999999999,0.0487942000000004,3.420000000093348e-05,-0.0423715999999999,0,sub_24
0.0090541999999997,0.0090460000000012,0.0067093999999999,0.0474358000000004,0.0277468000000009,-0.0449798,0,sub_24
0.0125205999999997,0.0053202000000012,0.0047487999999999,0.0428824000000004,0.0565274000000009,-0.0448502,0,sub_24
0.0115253999999997,0.0023638000000012,0.0004383999999999,0.0412506000000004,0.0748408000000009,-0.0404134,0,sub_24
0.0080907999999997,-0.0001941999999987,-0.0049198,0.0428066000000004,0.0916458000000009,-0.0344572,0,sub_24
0.0030173999999997,-0.0005607999999987,-0.0073382,0.0459934000000004,0.0914004000000009,-0.0284682,0,sub_24
-0.0033008000000002,0.0014414000000012,-0.007711,0.0535402000000004,0.0632336000000009,-0.023482,0,sub_24
-0.0091042000000002,0.0039880000000012,-0.0095868,0.0640556000000004,0.0308046000000009,-0.0214449999999999,0,sub_24
-0.0104848000000002,0.0051510000000012,-0.0098998,0.0705542000000004,0.0030914000000009,-0.0230746,0,sub_24
-0.0086462000000002,0.0060992000000012,-0.0062046,0.0766162000000004,-0.028448399999999,-0.0264114,0,sub_24
-0.0077482000000002,0.0066142000000012,-0.0029432,0.0814658000000004,-0.047423199999999,-0.0291464,0,sub_24
-0.0065986000000002,0.0046316000000012,-0.000872,0.0808712000000004,-0.042732199999999,-0.0313084,0,sub_24
-0.0038708000000002,0.0048912000000012,0.0050339999999999,0.0773028000000004,-0.032712999999999,-0.031361,0,sub_24
-0.0021072000000002,0.0056234000000012,0.0097391999999999,0.0741684000000004,-0.020141999999999,-0.0305592,0,sub_24
-0.0036946000000002,0.0065456000000012,0.0079185999999999,0.0684992000000004,-0.002021799999999,-0.029996,0,sub_24
-0.0056582000000002,0.0065728000000012,0.0039345999999999,0.0634150000000004,0.0052442000000009,-0.0311098,0,sub_24
-0.0089624000000002,0.0064390000000012,0.0003371999999999,0.0633664000000004,-0.008166999999999,-0.0338712,0,sub_24
-0.0134880000000002,0.0053960000000012,-0.0023758,0.0670970000000004,-0.037137799999999,-0.0382964,0,sub_24
-0.0141592000000002,0.0048556000000012,-0.0037556,0.0740418000000004,-0.065714399999999,-0.0418578,0,sub_24
-0.0113340000000002,0.0051128000000012,-0.0042102,0.0790980000000004,-0.085556199999999,-0.0437342,0,sub_24
-0.0032326000000002,0.0059302000000012,-0.0021108,0.0833052000000004,-0.101146399999999,-0.0424162,0,sub_24
0.0034769999999997,0.0062900000000012,-0.000113,0.0864876000000004,-0.104599999999999,-0.0383428,0,sub_24
0.0057663999999997,0.0072572000000012,-0.0015516,0.0844010000000004,-0.093334999999999,-0.0341108,0,sub_24
0.0055031999999997,0.0081666000000012,-0.002351,0.0803872000000004,-0.082462799999999,-0.0322292,0,sub_24
0.0047221999999997,0.0077420000000012,-0.0017574,0.0797540000000004,-0.080756799999999,-0.0320214,0,sub_24
0.0004601999999997,0.0075688000000012,-0.0010896,0.0802268000000004,-0.071380599999999,-0.0328846,0,sub_24
-0.0001546000000002,0.0050414000000012,-0.0048348,0.0784078000000004,-0.046881199999999,-0.0307924,0,sub_24
0.0004549999999997,0.0021726000000012,-0.0055496,0.0767742000000004,-0.0228317999999991,-0.0229298,0,sub_24
-0.0008358000000002,-0.0006041999999987,-0.006187,0.0753132000000004,-0.0051855999999991,-0.0122804,0,sub_24
-0.0067446000000002,-0.0019941999999987,-0.0105438,0.0733968000000004,0.0047972000000008,-0.0029066,0,sub_24
-0.0139706000000002,-0.0005307999999987,-0.0151224,0.0714236000000004,-0.0041571999999991,0.0002941999999999,0,sub_24
-0.0206082000000002,0.0033374000000012,-0.0128352,0.0731978000000004,-0.041854999999999,-0.0045612,0,sub_24
-0.0234560000000002,0.0058344000000012,-0.0114222,0.0760110000000004,-0.089978999999999,-0.0136692,0,sub_24
-0.0222318000000002,0.0067374000000012,-0.011557,0.0771276000000004,-0.134055999999999,-0.021085,0,sub_24
-0.0169482000000002,0.0073570000000012,-0.009438,0.0759106000000004,-0.169624599999999,-0.022973,0,sub_24
-0.0108990000000002,0.0054460000000012,-0.0070524,0.0730292000000004,-0.189021399999999,-0.0182692,0,sub_24
-0.0066132000000002,0.0038712000000012,-0.0072156,0.0661618000000004,-0.190942999999999,-0.0112652,0,sub_24
-0.0037158000000002,0.0034386000000012,-0.0090244,0.0614562000000004,-0.187542399999999,-0.0051072,0,sub_24
-0.0052458000000002,0.0034098000000012,-0.0095784,0.0584414000000004,-0.190740399999999,-0.0019202,0,sub_24
-0.0103444000000002,0.0039886000000012,-0.0088918,0.0573208000000004,-0.205427199999999,-0.0044742,0,sub_24
-0.0144362000000002,0.0049020000000012,-0.009248,0.0563802000000004,-0.228844999999999,-0.0082984,0,sub_24
-0.0127140000000002,0.0088578000000012,-0.008312,0.0567102000000004,-0.251851399999999,-0.0095505999999999,0,sub_24
-0.0068574000000002,0.0113514000000012,-0.005793,0.0551320000000004,-0.270595799999999,-0.0093255999999999,0,sub_24
-0.0004396000000002,0.0128070000000012,-0.0043258,0.0495148000000004,-0.286341599999999,-0.0095591999999999,0,sub_24
0.0060189999999997,0.0130024000000012,-0.0054988,0.0411880000000004,-0.289076199999999,-0.0111093999999999,0,sub_24
0.0112739999999997,0.0128316000000012,-0.0065124,0.0335552000000004,-0.283276999999999,-0.0160831999999999,0,sub_24
0.0136001999999996,0.0116038000000012,-0.0068708,0.0274150000000004,-0.2791813999999991,-0.0225393999999999,0,sub_24
0.0138261999999996,0.0096026000000012,-0.007352,0.0219454000000004,-0.267209399999999,-0.0279325999999999,0,sub_24
0.0138435999999996,0.0079830000000012,-0.006244,0.0184096000000004,-0.248229399999999,-0.0292617999999999,0,sub_24
0.0115329999999996,0.0095080000000012,-0.002309,0.0158972000000004,-0.235020999999999,-0.0267309999999999,0,sub_24
0.0078555999999996,0.0102810000000012,0.0017781999999999,0.0135774000000004,-0.225862999999999,-0.0237665999999999,0,sub_24
-0.0002542000000002,0.0098770000000012,0.0033821999999999,0.0106336000000004,-0.214566599999999,-0.0223057999999999,0,sub_24
-0.0107754000000002,0.0134278000000012,0.0056129999999999,0.0066010000000004,-0.211774199999999,-0.024475,0,sub_24
-0.0203862000000002,0.0188334000000012,0.0087109999999999,0.0027594000000004,-0.216004999999999,-0.0287714,0,sub_24
-0.0243780000000002,0.0186062000000012,0.0094559999999999,-0.0008369999999995,-0.211932599999999,-0.0317948,0,sub_24
-0.0258452000000002,0.0164260000000012,0.0105291999999999,-0.0070091999999995,-0.207864999999999,-0.031418,0,sub_24
-0.0248818000000002,0.0134460000000012,0.0120803999999999,-0.0122111999999995,-0.223409399999999,-0.029086,0,sub_24
-0.0242358000000002,0.0077514000000012,0.0111065999999999,-0.0129707999999995,-0.246430599999999,-0.0256451999999999,0,sub_24
-0.0190568000000002,0.0015264000000012,0.0065659999999999,-0.0107091999999995,-0.263915199999999,-0.0241131999999999,0,sub_24
-0.0120252000000002,-0.0022191999999987,0.0035789999999999,-0.0061357999999995,-0.288654199999999,-0.0219148,0,sub_24
-0.0041238000000002,-0.0028315999999987,0.0001875999999999,0.0001538000000004,-0.314722799999999,-0.0182206,0,sub_24
0.0018249999999997,-0.0022791999999987,-0.005716,0.0073652000000004,-0.322696599999999,-0.0115514,0,sub_24
0.0083263999999996,-0.0016893999999987,-0.0105964,0.0114466000000004,-0.313408799999999,-0.0032162,0,sub_24
0.0091453999999996,0.0016946000000012,-0.0133798,0.0121316000000004,-0.299425199999999,0.0059443999999999,0,sub_24
0.0054515999999997,0.0049070000000012,-0.013074,0.0120246000000004,-0.275835199999999,0.0110275999999999,0,sub_24
-0.0009552000000002,0.0072414000000012,-0.0125476,0.0102582000000004,-0.241528399999999,0.0113987999999999,0,sub_24
-0.0061466000000002,0.0077812000000012,-0.0098424,0.0067902000000004,-0.207210799999999,0.0104751999999999,0,sub_24
-0.0135880000000002,0.0084436000000012,-0.0081762,0.0034924000000004,-0.184178999999999,0.0078573999999999,0,sub_24
-0.0207710000000002,0.0090474000000012,-0.0039292,0.0016802000000004,-0.166040199999999,0.0020503999999999,0,sub_24
-0.0237014000000002,0.0100222000000012,-0.0022346,-0.0014527999999995,-0.157057199999999,-0.003968,0,sub_24
-0.0252174000000002,0.0113668000000012,-0.0005282,-0.0031653999999995,-0.162149799999999,-0.0078224,0,sub_24
-0.0252118000000002,0.0127046000000011,0.0024221999999999,-0.0051153999999995,-0.174477799999999,-0.0135918,0,sub_24
-0.0219256000000002,0.0141260000000012,0.0067053999999999,-0.0083145999999995,-0.179345999999999,-0.018952,0,sub_24
-0.0156308000000002,0.0123186000000012,0.0071429999999999,-0.0119329999999995,-0.179749399999999,-0.0215424,0,sub_24
-0.0092548000000002,0.0100190000000012,0.0062163999999999,-0.0144997999999995,-0.180594599999999,-0.0211332,0,sub_24
-0.0059030000000002,0.0105586000000012,0.0053857999999999,-0.0177037999999995,-0.180798199999999,-0.0207286,0,sub_24
-0.0037218000000002,0.0124352000000012,0.0035295999999999,-0.0208951999999995,-0.1792929999999991,-0.0213942,0,sub_24
-0.0014502000000002,0.0122052000000012,0.0016867999999999,-0.0226091999999994,-0.181414999999999,-0.0220444,0,sub_24
0.0008349999999997,0.0131102000000012,0.0011801999999999,-0.0241051999999994,-0.182684599999999,-0.0229076,0,sub_24
0.0027773999999997,0.0136726000000012,0.0025663999999999,-0.0281003999999994,-0.171582999999999,-0.025086,0,sub_24
0.0063527999999997,0.0119024000000012,0.0045455999999999,-0.0331205999999994,-0.152164199999999,-0.02835,0,sub_24
0.0086841999999997,0.0109898000000012,0.0037977999999999,-0.0381225999999994,-0.128697399999999,-0.0316188,0,sub_24
0.0072787999999997,0.0110000000000012,0.0024887999999999,-0.0420517999999995,-0.104804799999999,-0.0357352,0,sub_24
0.0044183999999997,0.0092770000000012,0.0032095999999999,-0.0457579999999995,-0.079631199999999,-0.0407068,0,sub_24
0.0019461999999997,0.0101876000000012,0.0041967999999999,-0.0482129999999995,-0.060853799999999,-0.0456615999999999,0,sub_24
0.0022111999999997,0.0093046000000012,0.0035307999999999,-0.0466901999999995,-0.055739799999999,-0.0471529999999999,0,sub_24
0.0007839999999997,0.0072316000000012,0.0052049999999999,-0.0460565999999995,-0.056171599999999,-0.0462933999999999,0,sub_24
-0.0002886000000002,0.0077746000000012,0.0071437999999999,-0.0462911999999994,-0.058310599999999,-0.0439423999999999,0,sub_24
-0.0006838000000002,0.0090586000000012,0.0069991999999999,-0.0454943999999994,-0.067699799999999,-0.0409338,0,sub_24
-0.0010778000000002,0.0074352000000012,0.0065691999999999,-0.0432077999999994,-0.080068399999999,-0.0400476,0,sub_24
-0.0021696000000002,0.0084116000000012,0.0056341999999999,-0.0421447999999995,-0.082196599999999,-0.0415332,0,sub_24
-0.0018250000000002,0.0104200000000012,0.0058577999999999,-0.0410511999999994,-0.076445999999999,-0.0419606,0,sub_24
0.0020791999999997,0.0084560000000012,0.0053487999999999,-0.0411991999999995,-0.062593399999999,-0.042834,0,sub_24
0.0081523999999996,0.0070084000000012,0.0046683999999999,-0.0417883999999995,-0.050449599999999,-0.042212,0,sub_24
0.0092427999999996,0.0065672000000012,0.0022143999999999,-0.0421965999999995,-0.041093999999999,-0.0370978,0,sub_24
0.0084297999999996,0.0042998000000012,0.0018435999999999,-0.0428247999999995,-0.033653399999999,-0.0324099999999999,0,sub_24
0.0082381999999996,0.0020268000000012,0.0019187999999999,-0.0398351999999995,-0.031751199999999,-0.0311081999999999,0,sub_24
0.0080455999999996,0.0017106000000012,0.0017489999999999,-0.0338939999999995,-0.037742399999999,-0.0297755999999999,0,sub_24
0.0065465999999996,0.0013164000000012,0.0020921999999999,-0.0275161999999995,-0.040967999999999,-0.027803,0,sub_24
0.0099199999999996,0.0007122000000012,0.0021171999999999,-0.0219659999999995,-0.037377199999999,-0.0247768,0,sub_24
0.0130843999999996,0.0021000000000012,0.0021513999999999,-0.0181199999999995,-0.031443599999999,-0.0200558,0,sub_24
0.0153243999999996,0.0026450000000012,-0.0003146,-0.0140659999999995,-0.026152399999999,-0.0146912,0,sub_24
0.0156755999999997,0.0044250000000012,-0.0012946,-0.0117129999999995,-0.021274399999999,-0.011047,0,sub_24
0.0145423999999997,0.0059784000000012,-0.0021314,-0.0110451999999995,-0.013824599999999,-0.0097679999999999,0,sub_24
0.0143397999999997,0.0067082000000012,-0.001478,-0.0107867999999995,-0.004872599999999,-0.0108437999999999,0,sub_24
0.0160273999999997,0.0056508000000012,-0.00147,-0.0098805999999995,0.0059938000000009,-0.0117041999999999,0,sub_24
0.0147737999999997,0.0065110000000012,0.0010107999999999,-0.0117697999999995,0.0128194000000009,-0.0119375999999999,0,sub_24
0.0115247999999997,0.0072000000000012,0.0019205999999999,-0.0149449999999995,0.0179466000000009,-0.0126056,0,sub_24
0.0055887999999997,0.0081238000000012,0.0025575999999999,-0.0181143999999995,0.0224426000000009,-0.0151962,0,sub_24
-0.0004482000000002,0.0096674000000012,0.0033927999999999,-0.0204295999999995,0.0231166000000009,-0.0218364,0,sub_24
-0.0074030000000002,0.0112984000000012,0.0038685999999999,-0.0229667999999995,0.0178420000000009,-0.03253,0,sub_24
-0.0079314000000002,0.0101098000000012,0.0028219999999999,-0.0252379999999995,0.0191324000000009,-0.043673,0,sub_24
-0.0042034000000002,0.0088978000000012,0.0005909999999999,-0.0255761999999994,0.0257322000000009,-0.052245,0,sub_24
0.0027585999999997,0.0078668000000012,-0.002145,-0.0246539999999994,0.0320974000000009,-0.0565344,0,sub_24
0.0087541999999997,0.0057374000000012,-0.0036956,-0.0239665999999994,0.0384440000000009,-0.05591,0,sub_24
0.0146889999999997,0.0040530000000012,-0.0045712,-0.0222267999999995,0.0454106000000009,-0.0514332,0,sub_24
0.0186649999999996,0.0034436000000012,-0.0055996,-0.0183919999999995,0.0506964000000009,-0.0445742,0,sub_24
0.0186679999999996,0.0036514000000012,-0.0041434,-0.0158413999999995,0.0555590000000009,-0.0372962,0,sub_24
0.0177873999999996,0.0042050000000012,-0.0023338,-0.0135043999999995,0.0606346000000009,-0.0298062,0,sub_24
0.0148795999999996,0.0054246000000012,-0.0031406,-0.0107101999999995,0.0718896000000009,-0.0229626,0,sub_24
