userAcceleration.x,userAcceleration.y,userAcceleration.z,rotationRate.x,rotationRate.y,rotationRate.z,label,subject
-0.0024186000000002,0.0126798000000012,0.0299473999999998,-0.0001159999999994,0.0687558000000009,0.0043345999999999,0,sub_24
-0.0040552000000002,0.0156474000000012,0.0227435999999998,-0.0104473999999994,0.0863058000000009,-0.0066562,0,sub_24
-0.0054736000000002,0.0191916000000012,0.0141915999999999,-0.0197449999999994,0.0980928000000009,-0.0159238,0,sub_24
-0.0080940000000002,0.0211340000000012,0.0081927999999999,-0.0280361999999994,0.0968776000000009,-0.0245272,0,sub_24
-0.0087450000000002,0.0171444000000012,0.0047697999999999,-0.0361875999999994,0.0811658000000009,-0.0309748,0,sub_24
-0.0086716000000002,0.0135850000000012,0.0011497999999999,-0.0449825999999994,0.0639674000000009,-0.0380662,0,sub_24
-0.0040360000000002,0.0127336000000012,-0.0018238,-0.0510051999999994,0.0456966000000009,-0.0457772,0,sub_24
0.0003307999999997,0.0086176000000012,-0.001483,-0.0547175999999995,0.0229052000000009,-0.0523838,0,sub_24
0.0032033999999997,0.0050756000000012,-0.0018564,-0.0605155999999994,0.0114104000000009,-0.0583784,0,sub_24
0.0056053999999997,0.0069176000000012,-0.0018716,-0.0681621999999994,0.0150524000000009,-0.0652598,0,sub_24
0.0072147999999997,0.0076520000000012,-0.0028832,-0.0745573999999994,0.0133594000000009,-0.0710568,0,sub_24
0.0061331999999997,0.0061388000000012,-0.0059086,-0.0809913999999995,0.0018702000000009,-0.0779098,0,sub_24
0.0038155999999997,0.0071140000000012,-0.0129948,-0.0873849999999994,-0.006377199999999,-0.0877714,0,sub_24
0.0064607999999997,0.0080170000000012,-0.0189962,-0.0905877999999994,-0.016979199999999,-0.0976072,0,sub_24
0.0123145999999997,0.0050242000000012,-0.0219332,-0.0887045999999995,-0.033147799999999,-0.1050498,0,sub_24
0.0204341999999997,0.0016256000000012,-0.0203352,-0.0831623999999995,-0.038924599999999,-0.1101168,0,sub_24
0.0279657999999997,-0.0028197999999987,-0.015855,-0.0769325999999994,-0.027684799999999,-0.1087901999999999,0,sub_24
0.0347447999999997,-0.0024147999999987,-0.0089536,-0.0728053999999994,-0.003889599999999,-0.101939,0,sub_24
0.0378605999999997,-0.0011741999999987,-0.0022088,-0.0697333999999995,0.0233156000000009,-0.0944586,0,sub_24
0.0326223999999997,-3.879999999875667e-05,0.0035607999999999,-0.0679529999999995,0.0492426000000009,-0.0859174,0,sub_24
0.0240567999999997,0.0006938000000012,0.0035913999999999,-0.0685101999999995,0.0747834000000009,-0.078901,0,sub_24
0.0168099999999997,0.0035328000000012,0.0021005999999999,-0.0684349999999995,0.0947978000000009,-0.07572,0,sub_24
0.0099463999999996,0.0029860000000012,-0.0003632,-0.0641573999999995,0.1009202000000009,-0.0731258,0,sub_24
0.0045191999999996,0.0023742000000012,-0.0027286,-0.0573593999999994,0.0999952000000009,-0.0685824,0,sub_24
0.0046795999999996,0.0009234000000012,-0.0058124,-0.0475803999999994,0.0977806000000009,-0.0638032,0,sub_24
0.0072829999999996,0.0023914000000012,-0.0059248,-0.0348545999999995,0.0891536000000009,-0.0564312,0,sub_24
0.0097999999999996,0.0017202000000012,-0.0030594,-0.0217385999999994,0.0751880000000009,-0.0462718,0,sub_24
0.0118259999999996,0.0009516000000012,0.0017393999999999,-0.0094753999999995,0.0597668000000009,-0.036551,0,sub_24
0.0133459999999996,0.0015082000000012,0.0052627999999999,0.0015158000000004,0.0458432000000008,-0.027268,0,sub_24
0.0144055999999996,0.0041632000000012,0.0101401999999999,0.0084686000000004,0.0332216000000008,-0.0203648,0,sub_24
0.0156355999999996,0.0060594000000012,0.0155941999999999,0.0133076000000004,0.0229288000000008,-0.0177528,0,sub_24
0.0133395999999997,0.0128534000000012,0.0158497999999999,0.0154280000000004,0.0207588000000008,-0.0194434,0,sub_24
0.0115379999999997,0.0170930000000012,0.0116865999999999,0.0127218000000004,0.0318340000000008,-0.0258849999999999,0,sub_24
0.0080277999999997,0.0188226000000012,0.0082493999999999,0.0049418000000004,0.0448786000000008,-0.0409109999999999,0,sub_24
0.0108257999999997,0.0184562000000012,0.0036467999999999,-0.0019773999999995,0.0547430000000008,-0.0606269999999999,0,sub_24
0.0181873999999997,0.0127800000000012,-0.0037066,-0.0105683999999995,0.0701922000000008,-0.0803599999999999,0,sub_24
0.0304197999999996,0.0002204000000012,-0.0077652,-0.0174469999999995,0.0939152000000008,-0.0928269999999999,0,sub_24
0.0372111999999996,0.0032026000000012,-0.0146248,-0.0235613999999995,0.1069460000000008,-0.0960883999999999,0,sub_24
0.0428499999999996,0.0014670000000012,-0.0247414,-0.0263309999999995,0.1171438000000008,-0.0865035999999999,0,sub_24
0.0426211999999996,-0.0054489999999987,-0.0299848,-0.0169699999999995,0.1287564000000008,-0.0682905999999999,0,sub_24
0.0394339999999996,-0.0023439999999987,-0.0292212,-0.0035789999999995,0.1384236000000009,-0.0466296,0,sub_24
0.0314091999999997,0.0045874000000012,-0.0260862,0.0065470000000004,0.1308568000000008,-0.0279608,0,sub_24
0.0265001999999997,-0.0017299999999987,-0.017967,0.0169104000000004,0.1262814000000008,-0.0116442,0,sub_24
0.0195505999999997,-0.0011517999999987,-0.0084118,0.0281236000000004,0.1200030000000008,0.0036117999999999,0,sub_24
0.0079373999999997,0.0033968000000012,-0.0057714,0.0272054000000004,0.1174018000000009,0.0155735999999999,0,sub_24
-0.0058202000000002,0.0018546000000012,-0.0069258,0.0254640000000004,0.1152554000000009,0.0211191999999999,0,sub_24
-0.0155290000000002,0.0020368000000012,-0.0079078,0.0306026000000004,0.1171626000000009,0.0192291999999999,0,sub_24
-0.0243684000000002,0.0038452000000012,-0.0082502,0.0378756000000004,0.1154558000000008,0.0135125999999999,0,sub_24
-0.0307384000000002,0.0039888000000012,-0.0064274,0.0419702000000004,0.1156896000000008,0.0047803999999999,0,sub_24
-0.0324000000000002,0.0068514000000012,-0.0026012,0.0460684000000004,0.1161390000000008,-0.004593,0,sub_24
-0.0315030000000002,0.0090184000000012,0.0009985999999999,0.0492756000000004,0.1125262000000008,-0.009696,0,sub_24
-0.0291426000000002,0.0111128000000012,0.0026383999999999,0.0462620000000004,0.1059354000000008,-0.0105656,0,sub_24
-0.0277082000000002,0.0094110000000012,0.0047303999999999,0.0428148000000004,0.1012498000000009,-0.0080224,0,sub_24
-0.0258830000000002,0.0080076000000012,0.0065917999999999,0.0413088000000004,0.1006082000000009,-0.0061124,0,sub_24
-0.0239118000000002,0.0071042000000012,0.0072977999999999,0.0393672000000004,0.0972018000000009,-0.0050568,0,sub_24
-0.0240028000000002,0.0066916000000012,0.0069109999999999,0.0378562000000004,0.0914630000000009,-0.0071992,0,sub_24
-0.0252934000000002,0.0055868000000012,0.0059585999999999,0.0380704000000004,0.0882808000000009,-0.0108288,0,sub_24
-0.0248304000000002,0.0063120000000012,0.0053641999999999,0.0372246000000004,0.0838352000000009,-0.0172414,0,sub_24
-0.0242930000000002,0.0077718000000012,0.0048409999999999,0.0335924000000004,0.0762050000000009,-0.0240968,0,sub_24
-0.0239626000000002,0.0079772000000012,0.0030129999999999,0.0297440000000004,0.0679364000000009,-0.0309532,0,sub_24
-0.0229190000000002,0.0090506000000012,0.0018715999999999,0.0248138000000004,0.0592336000000009,-0.0348252,0,sub_24
-0.0223718000000002,0.0087152000000012,2.7599999999913284e-05,0.0202924000000004,0.0483912000000009,-0.0367686,0,sub_24
-0.0211888000000002,0.0093992000000012,-0.0017016,0.0163844000000004,0.0361976000000009,-0.0374266,0,sub_24
-0.0193734000000002,0.0081898000000012,-0.0033864,0.0169450000000004,0.0222798000000009,-0.0369824,0,sub_24
-0.0165704000000002,0.0073074000000012,-0.0032758,0.0179334000000004,0.0104834000000009,-0.0346148,0,sub_24
-0.0148590000000002,0.0080028000000012,-0.002886,0.0176310000000004,-0.001954599999999,-0.030546,0,sub_24
-0.0130200000000002,0.0096994000000012,-0.0021118,0.0171074000000004,-0.014186399999999,-0.0245558,0,sub_24
-0.0117164000000002,0.0016476000000012,-0.0026398,0.0193732000000004,-0.024664799999999,-0.0168366,0,sub_24
-0.0082748000000002,-0.0013661999999987,-0.0031046,0.0216708000000004,-0.030870999999999,-0.0119,0,sub_24
-0.0053278000000002,-0.0025427999999987,-0.00293,0.0267098000000004,-0.043694199999999,-0.0062944,0,sub_24
-0.0052912000000002,-0.0022553999999987,-0.0026448,0.0319620000000004,-0.055244799999999,0.0005929999999999,0,sub_24
-0.0051480000000002,-0.0034111999999987,-0.003002,0.0355304000000004,-0.061676199999999,0.0074619999999999,0,sub_24
-0.0046478000000002,0.0025618000000012,-0.001917,0.0365506000000004,-0.067663199999999,0.0119625999999999,0,sub_24
-0.0061266000000002,0.0055104000000012,-0.0009878,0.0375438000000004,-0.0777059999999991,0.0183909999999999,0,sub_24
-0.0097110000000002,0.0073864000000012,-0.0007954,0.0362052000000004,-0.0862413999999991,0.0228781999999999,0,sub_24
-0.0101754000000002,0.0065452000000012,-0.0011828,0.0370070000000004,-0.096263799999999,0.0243907999999999,0,sub_24
-0.0096182000000002,0.0074628000000012,-0.0010578,0.0392956000000004,-0.108843799999999,0.0248489999999999,0,sub_24
-0.0082646000000002,0.0093116000000012,-0.0014008,0.0407144000000004,-0.122708399999999,0.0276529999999999,0,sub_24
-0.0071580000000002,0.0091412000000012,-0.0012892,0.0404022000000004,-0.141468999999999,0.0308785999999999,0,sub_24
-0.0031844000000002,0.0085640000000012,-0.0012602,0.0411780000000004,-0.155333999999999,0.0343193999999999,0,sub_24
0.0035279999999997,0.0063802000000012,-0.001073,0.0400766000000004,-0.160453599999999,0.0368823999999999,0,sub_24
0.0092031999999997,0.0054808000000012,0.0004239999999999,0.0370884000000004,-0.1595949999999991,0.0379295999999999,0,sub_24
0.0117721999999997,0.0069218000000012,0.0017465999999999,0.0351842000000004,-0.1561783999999991,0.0376995999999999,0,sub_24
0.0120875999999997,0.0074044000000012,0.0012507999999999,0.0339708000000004,-0.144018599999999,0.0348997999999999,0,sub_24
0.0120411999999997,0.0074076000000012,0.0003069999999999,0.0302286000000004,-0.128214199999999,0.0286591999999999,0,sub_24
0.0116837999999996,0.0077328000000012,0.0001309999999999,0.0277400000000004,-0.118804199999999,0.0220081999999999,0,sub_24
0.0096345999999996,0.0124166000000012,-0.0007634,0.0277934000000004,-0.112814599999999,0.0160203999999999,0,sub_24
0.0110475999999996,0.0159036000000012,-0.002209,0.0204210000000004,-0.100183199999999,0.0071947999999999,0,sub_24
0.0119123999999996,0.0148082000000012,4.819999999993337e-05,0.0117876000000005,-0.081800599999999,-0.0001514,0,sub_24
0.0135977999999996,0.0131202000000012,0.0018383999999999,0.0052990000000005,-0.061505599999999,-0.0081252,0,sub_24
0.0119065999999997,0.0133638000000012,0.0027639999999999,0.0002894000000005,-0.042289599999999,-0.0139512,0,sub_24
0.0090985999999997,0.0074192000000012,0.0014927999999999,-0.0047589999999994,-0.030959999999999,-0.0189134,0,sub_24
0.0043763999999997,0.0024550000000012,-0.001425,-0.0009093999999994,-0.030753199999999,-0.020595,0,sub_24
0.0026261999999997,0.0049464000000012,-0.0067652,0.0054520000000005,-0.038874799999999,-0.019685,0,sub_24
0.0017239999999996,0.0070758000000012,-0.0089576,0.0111470000000004,-0.048078999999999,-0.013865,0,sub_24
0.0028077999999996,0.0077928000000012,-0.0086396,0.0155704000000004,-0.055785599999999,-0.0084826,0,sub_24
0.0059123999999996,0.0098470000000012,-0.0068522,0.0187440000000004,-0.056882199999999,-0.0033308,0,sub_24
0.0073807999999996,0.0100654000000012,-0.0031188,0.0179078000000004,-0.049224399999999,0.0005003999999999,0,sub_24
0.0073101999999996,0.0091758000000012,0.0004009999999999,0.0139228000000004,-0.032809199999999,0.0015207999999999,0,sub_24
0.0044803999999997,0.0104418000000012,0.0010397999999999,0.0086630000000004,-0.017445399999999,0.0001833999999999,0,sub_24
-0.0009736000000002,0.0093898000000012,-0.0009962,0.0038128000000004,-0.009101199999999,-0.0043476,0,sub_24
-0.0056020000000002,0.0071092000000012,-0.0032124,0.0017386000000005,-0.003735799999999,-0.0122742,0,sub_24
-0.0058204000000002,0.0060852000000012,-0.0042254,0.0024224000000005,-0.000516599999999,-0.0186838,0,sub_24
-0.0026516000000002,0.0058158000000012,-0.004579,0.0034734000000005,-0.005627599999999,-0.0201658,0,sub_24
-0.0003186000000002,0.0039620000000012,-0.0046192,0.0061884000000005,-0.013965799999999,-0.0152226,0,sub_24
0.0002057999999996,0.0057994000000012,-0.0072626,0.0099782000000004,-0.014449399999999,-0.0040862,0,sub_24
-4.800000000031029e-05,0.0064028000000012,-0.007457,0.0126876000000004,-0.013243599999999,0.0117407999999999,0,sub_24
-0.0026804000000002,0.0050404000000012,-0.0050066,0.0153958000000004,-0.013311999999999,0.0265011999999999,0,sub_24
-0.0077158000000002,0.0034604000000012,-0.0026104,0.0202414000000004,-0.016991799999999,0.0367939999999999,0,sub_24
-0.0119756000000002,0.0053744000000012,-0.0027586,0.0246640000000004,-0.024062199999999,0.0428147999999999,0,sub_24
-0.0132702000000002,0.0069030000000012,-0.0006572,0.0239942000000004,-0.028967199999999,0.0445239999999999,0,sub_24
-0.0140682000000002,0.0100826000000012,-0.0004632,0.0184550000000004,-0.028940399999999,0.0425609999999999,0,sub_24
-0.0149722000000002,0.0117182000000012,-0.0021324,0.0129150000000004,-0.031460799999999,0.0382507999999999,0,sub_24
-0.0153608000000002,0.0147488000000012,-0.0055456,0.0075688000000004,-0.035327199999999,0.0335137999999999,0,sub_24
-0.0157062000000002,0.0156568000000012,-0.0066886,0.0017998000000004,-0.036854399999999,0.0302663999999999,0,sub_24
-0.0145000000000002,0.0116264000000012,-0.00551,-0.0018467999999994,-0.044128599999999,0.0238365999999999,0,sub_24
-0.0090042000000002,0.0121018000000012,-0.0034534,0.0008742000000005,-0.060579399999999,0.0157541999999999,0,sub_24
-0.0035456000000002,0.0160118000000012,-0.0024228,0.0018620000000005,-0.078108199999999,0.0123621999999999,0,sub_24
0.0007703999999997,0.0144518000000012,0.0009209999999999,-0.0017817999999994,-0.083202599999999,0.0108477999999999,0,sub_24
0.0053957999999997,0.0115208000000012,0.0048861999999999,-0.0058067999999994,-0.080403199999999,0.0069709999999999,0,sub_24
0.0088927999999997,0.0133834000000012,0.0074957999999999,-0.0094103999999994,-0.0740021999999991,0.0077931999999999,0,sub_24
0.0057113999999997,0.0106290000000012,0.0068575999999999,-0.0164337999999995,-0.0627245999999991,0.0111475999999999,0,sub_24
0.0015749999999997,0.0086000000000012,0.0044575999999999,-0.0221535999999995,-0.051218799999999,0.0095961999999999,0,sub_24
-0.0020432000000002,0.0096448000000012,0.0009767999999999,-0.0244753999999995,-0.046105399999999,0.0052991999999999,0,sub_24
-0.0023480000000002,0.0093204000000012,0.0005013999999999,-0.0240585999999995,-0.047823599999999,0.0020979999999999,0,sub_24
-0.0005982000000002,0.0094942000000012,0.0004235999999999,-0.0225825999999995,-0.049976599999999,0.0001869999999999,0,sub_24
0.0040259999999997,0.0087950000000012,0.0023843999999999,-0.0219669999999994,-0.054880599999999,0.0006253999999999,0,sub_24
0.0086379999999997,0.0071342000000012,0.0041335999999999,-0.0207153999999995,-0.057880399999999,0.0038439999999999,0,sub_24
0.0128917999999997,0.0056558000000012,0.0054569999999999,-0.0181807999999995,-0.058972199999999,0.0083511999999999,0,sub_24
0.0127511999999997,0.0059508000000012,0.0045987999999999,-0.0160807999999995,-0.0583697999999991,0.0122121999999999,0,sub_24
0.0101979999999997,0.0072262000000012,0.0044397999999999,-0.0158713999999995,-0.053065999999999,0.0141307999999999,0,sub_24
0.0069253999999996,0.0102342000000012,0.0043005999999999,-0.0167079999999995,-0.045829799999999,0.0132617999999999,0,sub_24
0.0039197999999997,0.0119402000000012,0.0043931999999999,-0.0185989999999995,-0.037729999999999,0.0104611999999999,0,sub_24
0.0010707999999997,0.0115800000000012,0.0045013999999999,-0.0211261999999995,-0.031534599999999,0.0048807999999999,0,sub_24
0.0011095999999997,0.0129616000000012,0.0055359999999999,-0.0259821999999994,-0.028499599999999,-0.0039162,0,sub_24
0.0026493999999997,0.0109470000000012,0.0063309999999999,-0.0297875999999994,-0.031212199999999,-0.0148348,0,sub_24
0.0062019999999997,0.0075708000000012,0.0078521999999999,-0.0310045999999994,-0.027118599999999,-0.0251028,0,sub_24
0.0082801999999996,0.0173756000000012,0.0062579999999999,-0.0258353999999994,-0.019013199999999,-0.0331933999999999,0,sub_24
0.0100319999999996,0.0244878000000012,0.0025063999999999,-0.0311951999999994,-0.018151599999999,-0.0321613999999999,0,sub_24
0.0072915999999996,0.0175594000000012,0.0009515999999999,-0.0344197999999994,-0.014962599999999,-0.0289811999999999,0,sub_24
0.0067097999999996,0.0168486000000012,-0.0011726,-0.0294833999999994,-0.003054799999999,-0.0287464,0,sub_24
0.0025337999999996,0.0179442000000012,-0.0031294,-0.0220465999999994,-0.004578399999999,-0.0284774,0,sub_24
0.0006191999999996,0.0079480000000012,-0.0021024,-0.0218981999999994,-0.018429999999999,-0.0278176,0,sub_24
-0.0004674000000002,0.0021882000000012,0.0013165999999999,-0.0129461999999994,-0.024199199999999,-0.0313796,0,sub_24
0.0023397999999997,0.0070958000000012,0.0008445999999999,-0.0046267999999994,-0.026139599999999,-0.0328143999999999,0,sub_24
0.0030683999999997,0.0077290000000012,0.0013197999999999,-0.0027809999999995,-0.032553799999999,-0.0278799999999999,0,sub_24
0.0051113999999997,0.0069946000000012,0.0008781999999999,-0.0026373999999995,-0.035137999999999,-0.0201847999999999,0,sub_24
0.0044197999999997,0.0068672000000012,-0.0002166,-0.0009559999999995,-0.029412599999999,-0.0139851999999999,0,sub_24
0.0039015999999997,0.0044264000000012,0.0004671999999999,0.0013714000000004,-0.024320799999999,-0.0097032,0,sub_24
0.0022887999999997,0.0050534000000012,0.0016377999999999,0.0039092000000004,-0.022415399999999,-0.0079794,0,sub_24
0.0001373999999997,0.0048364000000012,0.0015539999999999,0.0056092000000004,-0.024336999999999,-0.0083924,0,sub_24
-0.0028388000000002,0.0050326000000012,0.0010409999999999,0.0064682000000004,-0.025395799999999,-0.0107354,0,sub_24
-0.0031848000000002,0.0039006000000012,0.0018345999999999,0.0071128000000004,-0.026666799999999,-0.0130798,0,sub_24
-0.0038890000000002,0.0050990000000012,0.0013817999999999,0.0083664000000004,-0.028989999999999,-0.015422,0,sub_24
-0.0051152000000002,0.0048198000000012,0.0006001999999999,0.0093930000000004,-0.032809799999999,-0.0162686,0,sub_24
-0.0065262000000002,0.0037196000000012,-0.000557,0.0108448000000004,-0.035783999999999,-0.0158316,0,sub_24
-0.0055744000000002,0.0033068000000012,-0.0017846,0.0144400000000004,-0.035998599999999,-0.0147422,0,sub_24
-0.0046124000000002,0.0034416000000012,-0.0028342,0.0182324000000004,-0.037289399999999,-0.011086,0,sub_24
-0.0046428000000002,0.0044798000000012,-0.0035778,0.0211776000000004,-0.040520399999999,-0.0048662,0,sub_24
-0.0045058000000002,0.0056812000000012,-0.0043054,0.0245710000000004,-0.038428999999999,0.0019909999999999,0,sub_24
-0.0034370000000002,0.0067586000000012,-0.0053536,0.0264860000000004,-0.032923599999999,0.0088335999999999,0,sub_24
-0.0047796000000002,0.0063296000000012,-0.0050618,0.0264322000000004,-0.032710799999999,0.0156637999999999,0,sub_24
-0.0081828000000002,0.0042020000000012,-0.003929,0.0242454000000004,-0.032702199999999,0.0220517999999999,0,sub_24
-0.0101914000000002,0.0082678000000012,-0.003868,0.0233906000000004,-0.027983399999999,0.0216061999999999,0,sub_24
-0.0111574000000002,0.0096206000000011,-0.0031062,0.0235776000000004,-0.031141999999999,0.0188277999999999,0,sub_24
-0.0133670000000002,0.0095230000000011,-7.36000000000861e-05,0.0241594000000004,-0.041120599999999,0.0162741999999999,0,sub_24
-0.0133284000000002,0.0105210000000012,0.0034271999999998,0.0239550000000004,-0.042596799999999,0.0126411999999999,0,sub_24
-0.0107898000000002,0.0117342000000012,0.0065871999999998,0.0243866000000004,-0.045351799999999,0.0085869999999999,0,sub_24
-0.0088904000000002,0.0069638000000012,0.0094795999999998,0.0241260000000004,-0.053879999999999,0.0103041999999999,0,sub_24
-0.0080130000000002,0.0054254000000012,0.0098921999999999,0.0227840000000004,-0.060245199999999,0.0130737999999999,0,sub_24
-0.0060700000000002,0.0060386000000012,0.0072909999999999,0.0229676000000004,-0.059796999999999,0.0156319999999999,0,sub_24
-0.0035930000000002,0.0056884000000012,0.0044983999999999,0.0244232000000004,-0.059573199999999,0.0199087999999999,0,sub_24
0.0002305999999997,0.0060990000000012,0.0027007999999999,0.0278108000000004,-0.056799199999999,0.0241963999999999,0,sub_24
0.0051965999999997,0.0047212000000012,0.0012815999999999,0.0333496000000004,-0.050834399999999,0.0278545999999999,0,sub_24
0.0099321999999997,0.0053762000000012,0.0009847999999999,0.0370036000000004,-0.040849599999999,0.0319277999999999,0,sub_24
0.0127031999999996,0.0080574000000012,0.0018457999999999,0.0361670000000004,-0.032342999999999,0.0366127999999999,0,sub_24
0.0104661999999996,0.0090694000000012,0.0003149999999999,0.0327710000000004,-0.025736399999999,0.0391457999999999,0,sub_24
0.0064469999999996,0.0107266000000012,-0.002586,0.0285390000000004,-0.019323799999999,0.0376135999999999,0,sub_24
0.0019839999999997,0.0128816000000012,-0.0058544,0.0219582000000004,-0.013477599999999,0.0317889999999999,0,sub_24
-0.0002908000000002,0.0113736000000012,-0.0076922,0.0168560000000004,-0.012955199999999,0.0240585999999999,0,sub_24
-0.0007854000000002,0.0087914000000012,-0.0091526,0.0145222000000004,-0.016903999999999,0.0131483999999999,0,sub_24
0.0037743999999997,0.0082380000000012,-0.0093964,0.0132514000000004,-0.020223199999999,0.0037407999999999,0,sub_24
0.0058781999999996,0.0073366000000012,-0.00972,0.0124048000000004,-0.018665799999999,-0.0001148,0,sub_24
0.0077375999999996,0.0078318000000012,-0.0112704,0.0098408000000004,-0.019085199999999,0.0005101999999999,0,sub_24
0.0083111999999996,0.0085290000000012,-0.0127628,0.0096424000000004,-0.015464799999999,0.0011465999999999,0,sub_24
0.0103085999999996,0.0072042000000012,-0.0106998,0.0113612000000004,-0.012221799999999,-0.0007678,0,sub_24
0.0111411999999996,0.0065808000000012,-0.0076852,0.0147848000000004,-0.010259599999999,-0.0035234,0,sub_24
0.0145805999999997,0.0047986000000012,-0.0048406,0.0180176000000004,-0.004880999999999,-0.0079938,0,sub_24
0.0166883999999997,0.0052350000000012,-0.0009442,0.0234106000000004,0.0051824000000009,-0.0137364,0,sub_24
0.0143871999999997,0.0075460000000012,0.0005647999999999,0.0238562000000004,0.0088620000000008,-0.0171555999999999,0,sub_24
0.0092831999999997,0.0098814000000012,-0.0014832,0.0213310000000004,0.0154810000000008,-0.0184622,0,sub_24
0.0053835999999997,0.0111496000000012,-0.0046606,0.0188224000000004,0.0233876000000008,-0.0221205999999999,0,sub_24
0.0042567999999997,0.0121860000000012,-0.0060472,0.0162862000000004,0.0234182000000008,-0.0274785999999999,0,sub_24
0.0057683999999997,0.0094174000000012,-0.005032,0.0145616000000004,0.0192318000000008,-0.0306895999999999,0,sub_24
0.0126801999999997,0.0052354000000012,-0.0030448,0.0160566000000004,0.0229026000000008,-0.0302552,0,sub_24
0.0204547999999997,0.0021512000000012,-0.0018484,0.0199110000000004,0.0380354000000008,-0.021059,0,sub_24
0.0223733999999997,0.0012548000000012,0.0002497999999999,0.0248120000000004,0.0559052000000008,-0.0045944,0,sub_24
0.0201219999999997,0.0019202000000012,0.0017307999999999,0.0316026000000004,0.0688604000000009,0.0138123999999999,0,sub_24
0.0148037999999997,0.0023498000000012,0.0027633999999999,0.0377958000000004,0.0862448000000009,0.0300725999999999,0,sub_24
0.0092507999999997,0.0047928000000012,0.0024153999999999,0.0431480000000004,0.1019456000000009,0.0418415999999999,0,sub_24
