userAcceleration.x,userAcceleration.y,userAcceleration.z,rotationRate.x,rotationRate.y,rotationRate.z,label,subject
0.0074237999999996,0.0077794000000012,0.0390076,-0.0090929999999994,-0.0094657999999991,0.0048679999999999,0,sub_18
0.0101681999999996,0.0084554000000012,0.038048,-0.0090997999999994,-0.0128669999999991,0.0029493999999999,0,sub_18
0.0133571999999996,0.0086322000000012,0.0383108,-0.0106125999999994,-0.0224277999999991,-0.00239,0,sub_18
0.0159589999999996,0.0078182000000012,0.0372508,-0.0164127999999994,-0.0389941999999991,-0.010314,0,sub_18
0.0178757999999996,0.0062256000000012,0.0363864,-0.0247813999999994,-0.0574683999999991,-0.0184672,0,sub_18
0.0174343999999996,0.0062226000000012,0.0374898,-0.0318579999999994,-0.072117199999999,-0.0253346,0,sub_18
0.0147831999999996,0.0063806000000012,0.0390196,-0.0368113999999994,-0.088268199999999,-0.0313304,0,sub_18
0.0112949999999996,0.0069092000000012,0.0391233999999999,-0.0396215999999994,-0.098264399999999,-0.03326,0,sub_18
0.0082095999999996,0.0065500000000012,0.038625,-0.0394043999999994,-0.092956799999999,-0.0287788,0,sub_18
0.0050031999999996,0.0096870000000012,0.0399574,-0.0350869999999994,-0.0734049999999991,-0.020228,0,sub_18
0.0040027999999996,0.0121724000000012,0.0404814,-0.0313829999999994,-0.0470365999999991,-0.0108354,0,sub_18
0.0057659999999996,0.0125826000000012,0.0399694,-0.0268083999999994,-0.0168363999999991,-0.0014418,0,sub_18
0.0082813999999996,0.0117372000000012,0.0404092,-0.0222403999999994,0.0086896000000008,0.0047531999999999,0,sub_18
0.0120631999999996,0.0113574000000012,0.0407976,-0.0200577999999994,0.0199724000000008,0.0051811999999999,0,sub_18
0.0162275999999996,0.0082134000000012,0.0388656,-0.0211265999999994,0.0159426000000008,0.0015469999999999,0,sub_18
0.0196963999999996,0.0051588000000012,0.0375206,-0.0256429999999994,0.0034068000000008,-0.0031688,0,sub_18
0.0223159999999995,0.0045018000000012,0.0387954,-0.0344457999999994,-0.0129505999999991,-0.0074824,0,sub_18
0.0233839999999995,0.0056558000000012,0.0396853999999999,-0.0438973999999994,-0.0320721999999991,-0.0126514,0,sub_18
0.0222353999999995,0.0074298000000012,0.041548,-0.0505895999999994,-0.0543991999999991,-0.017797,0,sub_18
0.0211305999999995,0.0071146000000012,0.0439436,-0.0536343999999994,-0.0709913999999991,-0.0216426,0,sub_18
0.0210647999999995,0.0077334000000012,0.0452626,-0.0532545999999994,-0.0814323999999991,-0.0216266,0,sub_18
0.0206835999999996,0.0080610000000012,0.0446804,-0.0505095999999994,-0.0838017999999991,-0.017545,0,sub_18
0.0219659999999996,0.0086180000000012,0.0441454,-0.0462527999999994,-0.0780965999999991,-0.0094042,0,sub_18
0.0247847999999996,0.0086724000000012,0.0436874,-0.0423977999999994,-0.0651529999999991,0.0004337999999999,0,sub_18
0.0277857999999996,0.0095172000000012,0.0431178,-0.0408839999999994,-0.0519839999999991,0.0091867999999999,0,sub_18
0.0303735999999996,0.0080602000000012,0.0444338,-0.0423737999999994,-0.0470947999999991,0.0132293999999999,0,sub_18
0.0309971999999996,0.0079840000000012,0.0460862,-0.0439075999999993,-0.0579475999999991,0.0113097999999999,0,sub_18
0.0302457999999996,0.0067134000000012,0.0461884,-0.0495185999999994,-0.077294799999999,0.0059543999999999,0,sub_18
0.0275675999999996,0.0045800000000012,0.0447332,-0.0576975999999994,-0.098549599999999,0.0003697999999999,0,sub_18
0.0233219999999995,0.0044338000000012,0.043517,-0.0639465999999994,-0.1230359999999991,-0.005168,0,sub_18
0.0190489999999995,0.0074574000000012,0.041367,-0.0665633999999994,-0.1471065999999991,-0.011322,0,sub_18
0.0169441999999995,0.0089108000000012,0.0385584,-0.0657059999999994,-0.1571301999999991,-0.0168288,0,sub_18
0.0159589999999995,0.0102046000000012,0.0367082,-0.0584041999999994,-0.1556787999999991,-0.0203826,0,sub_18
0.0157583999999995,0.0132936000000012,0.0360032,-0.0457317999999994,-0.1455135999999991,-0.023269,0,sub_18
0.0157243999999996,0.0152298000000012,0.0358624,-0.0292197999999994,-0.1285217999999991,-0.0244572,0,sub_18
0.0160557999999996,0.0152954000000012,0.036371,-0.0112179999999994,-0.1094163999999991,-0.0226466,0,sub_18
0.0161553999999996,0.0152174000000012,0.037169,0.0039958000000005,-0.0915873999999991,-0.0189312,0,sub_18
0.0156063999999996,0.0132596000000012,0.0376458,0.0168818000000005,-0.0722667999999991,-0.0140422,0,sub_18
0.0133497999999996,0.0128682000000012,0.0398364,0.0299802000000005,-0.0527355999999991,-0.0087248,0,sub_18
0.0126113999999996,0.0118152000000012,0.0429482,0.0445762000000005,-0.0325693999999991,-0.0036114,0,sub_18
0.0126899999999996,0.0090482000000012,0.0459016,0.0593892000000005,-0.0115517999999991,0.0015023999999999,0,sub_18
0.0109303999999996,0.0064468000000012,0.0487322,0.0727364000000005,0.0162862000000008,0.0072381999999999,0,sub_18
0.0069741999999996,0.0062070000000012,0.0521066,0.0862680000000005,0.0405094000000008,0.0117881999999999,0,sub_18
0.0038319999999996,0.0047252000000012,0.054327,0.1044776000000005,0.0589724000000008,0.0142417999999999,0,sub_18
-9.480000000036334e-05,-2.7799999998693453e-05,0.0543056,0.1258876000000005,0.0763630000000008,0.0156507999999999,0,sub_18
-0.0060786000000003,-0.0048477999999986,0.0530388,0.1480244000000005,0.0965870000000008,0.0173779999999998,0,sub_18
-0.0117724000000003,-0.0098037999999986,0.05171,0.1724612000000005,0.1063632000000008,0.0191345999999998,0,sub_18
-0.0169026000000003,-0.0068921999999986,0.0450278,0.1934670000000005,0.1127408000000008,0.0212989999999999,0,sub_18
-0.0191142000000003,-0.0023057999999986,0.0368376,0.2059348000000005,0.1199944000000008,0.0248981999999999,0,sub_18
-0.0199306000000003,0.0082666000000013,0.030591,0.2098706000000005,0.1285538000000008,0.0290769999999999,0,sub_18
-0.0202980000000003,0.0213068000000013,0.0230618,0.2135028000000005,0.1317284000000008,0.0312347999999999,0,sub_18
-0.0200560000000003,0.0360388000000012,0.0163586,0.2156280000000005,0.1278936000000008,0.0293317999999999,0,sub_18
-0.0165338000000003,0.0430888000000012,0.015798,0.2194648000000005,0.1204498000000008,0.0227451999999999,0,sub_18
-0.0152830000000003,0.0351178000000012,0.014637,0.2232282000000006,0.1101840000000008,0.0145447999999999,0,sub_18
-0.0160192000000003,0.0214192000000012,0.0123556,0.2218342000000005,0.0929010000000008,0.0073855999999999,0,sub_18
-0.0172084000000003,0.0023572000000012,0.0107664,0.2078646000000005,0.0833132000000008,0.0048287999999999,0,sub_18
-0.0178642000000003,-0.0148735999999987,0.0084696,0.1862298000000005,0.0850134000000008,0.0098951999999999,0,sub_18
-0.0196940000000003,-0.0302711999999987,0.0042208,0.1613628000000005,0.0869088000000008,0.0222025999999999,0,sub_18
-0.0215704000000003,-0.0286293999999987,0.0017682,0.1365252000000005,0.0852210000000008,0.0395501999999999,0,sub_18
-0.0219004000000003,-0.0235809999999987,0.0004626,0.1204206000000005,0.0834890000000008,0.0603771999999999,0,sub_18
-0.0204180000000003,-0.0152457999999986,0.0005432,0.1168542000000005,0.0710578000000008,0.0819461999999999,0,sub_18
-0.0142852000000003,-0.0091781999999986,-0.0003757999999999,0.1211366000000005,0.0485848000000008,0.1037967999999999,0,sub_18
-0.0059912000000003,2.840000000128712e-05,0.002025,0.1230680000000005,0.0270608000000008,0.1265467999999999,0,sub_18
0.0030461999999996,0.0066230000000012,0.007102,0.1092712000000005,0.0179542000000008,0.1478889999999999,0,sub_18
0.0054005999999996,0.0129698000000012,0.0174118,0.0699044000000005,0.0087554000000008,0.1611479999999999,0,sub_18
0.0005431999999996,0.0365030000000012,0.0274804,0.0077776000000005,0.0007606000000008,0.1595051999999999,0,sub_18
-0.0097892000000003,0.0642430000000012,0.0380526,-0.0516727999999994,-0.0086255999999991,0.1305361999999999,0,sub_18
-0.0160628000000003,0.0626894000000012,0.0447006,-0.0946723999999994,-0.0289679999999991,0.0868921999999999,0,sub_18
-0.0256772000000003,0.0526298000000012,0.0508472,-0.1086455999999994,-0.0502539999999991,0.0408883999999999,0,sub_18
-0.0327874000000003,0.0429282000000013,0.0526978,-0.1093015999999994,-0.0500753999999991,-0.0031272,0,sub_18
-0.0380816000000003,0.0168568000000013,0.0575922,-0.1082371999999994,-0.0422517999999991,-0.0424404,0,sub_18
-0.0412542000000003,-0.0130825999999986,0.0621312,-0.1249487999999994,-0.0335761999999991,-0.0662828,0,sub_18
-0.0466532000000003,-0.0175259999999986,0.0631498,-0.1444265999999994,-0.0138495999999991,-0.0807584,0,sub_18
-0.0423252000000003,-0.0142437999999986,0.0575878,-0.1587929999999994,0.0098824000000008,-0.0890076,0,sub_18
-0.0271998000000003,-0.0067267999999986,0.0477168,-0.1470115999999994,0.0268584000000008,-0.0821104,0,sub_18
-0.0096610000000003,0.0044314000000013,0.035848,-0.1043391999999994,0.0515352000000008,-0.0564202,0,sub_18
0.0054407999999996,0.0112058000000012,0.0308093999999999,-0.0390587999999994,0.0807928000000008,-0.0237414,0,sub_18
0.0187429999999996,0.0113314000000012,0.0305434,0.0118922000000005,0.1013702000000008,0.0075665999999999,0,sub_18
0.0271859999999996,0.0127290000000012,0.0340874,0.0367598000000005,0.1026824000000008,0.0308121999999998,0,sub_18
0.0282555999999996,0.0128280000000012,0.0382568,0.0379692000000005,0.0970976000000008,0.0410827999999998,0,sub_18
0.0274475999999996,0.0101262000000012,0.0409026,0.0234196000000005,0.0831072000000008,0.0358715999999999,0,sub_18
0.0252325999999996,0.0096408000000012,0.0397406,0.0010136000000005,0.0708762000000008,0.0237665999999999,0,sub_18
0.0158049999999996,0.0105862000000012,0.0423246,-0.0172597999999994,0.0722816000000008,0.0078275999999999,0,sub_18
0.0051481999999996,0.0062110000000012,0.0512477999999999,-0.0482711999999994,0.0871576000000008,-0.0090724,0,sub_18
-0.0020816000000003,-0.0013331999999987,0.06026,-0.1015069999999993,0.0931690000000007,-0.0276118,0,sub_18
0.0002733999999996,-0.0074293999999987,0.0617252,-0.1656399999999994,0.1028120000000007,-0.0391816,0,sub_18
0.0081813999999996,-0.0086083999999987,0.0623726,-0.2342653999999994,0.1192508000000008,-0.0413912,0,sub_18
0.0208467999999996,-0.0024517999999987,0.0556374,-0.2988921999999994,0.1279870000000008,-0.0388628,0,sub_18
0.0341769999999996,0.0064914000000012,0.0426978,-0.3341321999999994,0.1217142000000008,-0.0380326,0,sub_18
0.0445689999999996,0.0115060000000012,0.0347086,-0.3386053999999994,0.1170710000000008,-0.0371956,0,sub_18
0.0496153999999996,0.0094584000000012,0.0354048,-0.3320205999999994,0.1015338000000008,-0.0388312,0,sub_18
0.0502343999999996,0.0010504000000013,0.0361202,-0.3229145999999994,0.0774646000000008,-0.0402244,0,sub_18
0.0507453999999996,-0.0087349999999986,0.0384716,-0.3151099999999994,0.0546542000000008,-0.0356464,0,sub_18
0.0496531999999996,-0.0181611999999986,0.039948,-0.3134805999999994,0.0437598000000008,-0.02194,0,sub_18
0.0448377999999995,-0.0228979999999986,0.0433706,-0.3150517999999994,0.0441204000000008,-0.004219,0,sub_18
0.0379745999999996,-0.0214671999999986,0.0486116,-0.3155091999999994,0.0551290000000008,0.0137097999999999,0,sub_18
0.0283827999999996,-0.0113129999999986,0.055311,-0.3095251999999994,0.0735782000000008,0.0301785999999999,0,sub_18
0.0148631999999996,0.0089196000000013,0.061959,-0.2842321999999994,0.1088178000000008,0.0401377999999999,0,sub_18
0.0021349999999996,0.0336664000000013,0.0590878,-0.2332683999999994,0.1493316000000008,0.0408689999999999,0,sub_18
-0.0037288000000003,0.0564862000000013,0.0525962,-0.1562731999999994,0.1840252000000008,0.0360213999999999,0,sub_18
0.0021733999999996,0.0639270000000012,0.0396479999999999,-0.0654719999999994,0.1990916000000008,0.0257405999999999,0,sub_18
0.0146659999999996,0.0569534000000012,0.0255861999999999,0.0269634000000005,0.1975354000000008,0.0150649999999999,0,sub_18
0.0304429999999996,0.0361296000000012,0.0167153999999999,0.0968738000000005,0.1736692000000008,0.0087471999999999,0,sub_18
0.0460377999999996,0.0097968000000012,0.0205789999999999,0.1282632000000005,0.1311622000000008,0.0088073999999999,0,sub_18
0.0537669999999996,-0.0139789999999987,0.0242289999999999,0.1263080000000006,0.0821412000000008,0.0150521999999999,0,sub_18
0.0489049999999996,-0.0215149999999987,0.0304205999999999,0.1111754000000005,0.0510374000000008,0.0275913999999998,0,sub_18
0.0359181999999996,-0.0169935999999987,0.039566,0.0916530000000005,0.0435846000000008,0.0434879999999998,0,sub_18
0.0216077999999996,-0.0096793999999987,0.0473122,0.0655880000000005,0.0491630000000008,0.0563311999999998,0,sub_18
0.0062047999999996,-0.0010389999999987,0.0518398,0.0404262000000005,0.0609366000000008,0.0642587999999999,0,sub_18
-0.0057776000000003,0.0099810000000012,0.0511862,0.0221480000000005,0.0754944000000008,0.0626169999999999,0,sub_18
-0.0117146000000003,0.0201366000000012,0.0508477999999999,0.0102750000000005,0.0817572000000008,0.0518437999999999,0,sub_18
-0.0089856000000003,0.0255202000000012,0.0458495999999999,0.0090398000000005,0.0771332000000008,0.0370995999999999,0,sub_18
0.0033349999999996,0.0216446000000012,0.0439099999999999,0.0241816000000005,0.0656146000000008,0.0273923999999999,0,sub_18
0.0156593999999996,0.0188402000000012,0.0441049999999999,0.0458910000000005,0.0493626000000008,0.0235055999999999,0,sub_18
0.0265345999999996,0.0129824000000012,0.0470445999999999,0.0654044000000005,0.0235136000000008,0.0238885999999998,0,sub_18
0.0301549999999996,0.0081984000000012,0.0497384,0.0742202000000005,-0.0061431999999991,0.0267655999999998,0,sub_18
0.0290273999999996,0.0018962000000012,0.0564696,0.0723656000000005,-0.0402203999999991,0.0255143999999998,0,sub_18
0.0197871999999995,0.0015978000000012,0.0596854,0.0602960000000005,-0.0708429999999991,0.0216237999999998,0,sub_18
0.0089577999999996,-6.319999999873753e-05,0.0595438,0.0463856000000005,-0.0841997999999991,0.0172707999999999,0,sub_18
0.0015191999999996,-6.7999999987173805e-06,0.059779,0.0312504000000005,-0.0849827999999991,0.0131067999999999,0,sub_18
-0.0014674000000003,-0.0009891999999987,0.0608292,0.0223464000000006,-0.0770487999999991,0.0081205999999999,0,sub_18
-0.0011390000000003,-0.0007417999999987,0.0610372,0.0102580000000005,-0.0646331999999991,0.0039609999999999,0,sub_18
-0.0012440000000003,0.0013950000000012,0.0591588,0.0009454000000005,-0.0524375999999991,-0.00082,0,sub_18
0.0013425999999996,0.0034606000000012,0.0596438,-0.0024099999999994,-0.0455831999999991,-0.0070478,0,sub_18
0.0023959999999996,0.0070718000000012,0.0581512,-0.0025945999999994,-0.0444957999999991,-0.0123916,0,sub_18
0.0036713999999996,0.0085974000000012,0.0596622,-5.999999994420191e-07,-0.0408675999999991,-0.0162238,0,sub_18
0.0039169999999996,0.0090632000000012,0.0582665999999999,0.0019236000000005,-0.0404463999999991,-0.016638,0,sub_18
0.0037779999999996,0.0089572000000012,0.0557281999999999,0.0053480000000005,-0.0374779999999991,-0.0159768,0,sub_18
0.0026299999999996,0.0112552000000012,0.0533297999999999,0.0070760000000005,-0.0315235999999991,-0.0146906,0,sub_18
0.0022009999999996,0.0097396000000012,0.0534621999999999,0.0103362000000005,-0.0157791999999991,-0.0121242,0,sub_18
0.0010523999999996,0.0074656000000012,0.0521507999999999,0.0114596000000005,0.0029410000000008,-0.0059446,0,sub_18
-0.0018346000000003,0.0065824000000012,0.051545,0.0138852000000005,0.0257082000000008,-0.0006158,0,sub_18
-0.0033658000000003,0.0071440000000012,0.0527871999999999,0.0122588000000005,0.0453082000000008,0.0010567999999999,0,sub_18
-0.0035114000000003,0.0068820000000012,0.0524531999999999,0.0091282000000005,0.0598112000000008,-5.180000000006673e-05,0,sub_18
-0.0028018000000003,0.0062016000000012,0.0521053999999999,0.0064194000000005,0.0715498000000008,-0.0028632,0,sub_18
-0.0023060000000003,0.0057230000000012,0.0506678,0.0036992000000005,0.0798832000000008,-0.0065248,0,sub_18
-0.0002366000000003,0.0054540000000012,0.0486448,0.0024612000000005,0.0856546000000008,-0.0101728,0,sub_18
0.0010355999999996,0.0062038000000012,0.0470756,0.0022794000000005,0.0892908000000008,-0.013597,0,sub_18
0.0018119999999996,0.0066676000000012,0.045822,0.0029406000000005,0.0907928000000008,-0.016799,0,sub_18
0.0021111999999996,0.0064512000000012,0.044692,0.0038232000000005,0.0926750000000008,-0.0197892,0,sub_18
0.0033775999999996,0.0056098000000013,0.0432104,0.0040668000000005,0.0960456000000008,-0.0215042,0,sub_18
0.0037493999999996,0.0054502000000013,0.0418964,0.0023966000000005,0.1019752000000008,-0.0221674,0,sub_18
0.0035325999999996,0.0045992000000013,0.0402406,8.820000000061729e-05,0.1089698000000008,-0.0221956,0,sub_18
0.0038133999999996,0.0038952000000013,0.0378332,-0.0026439999999994,0.1168172000000008,-0.0220142,0,sub_18
0.0038105999999996,0.0052548000000013,0.0351494,-0.0038923999999994,0.1240646000000008,-0.0218186,0,sub_18
0.0049165999999996,0.0056242000000012,0.0336824,-0.0042913999999994,0.1300324000000008,-0.0220426,0,sub_18
0.0058205999999996,0.0051140000000012,0.0318942,-0.0040577999999994,0.1338692000000008,-0.0226868,0,sub_18
0.0071025999999996,0.0040408000000012,0.0310748,-0.0051033999999994,0.1379236000000008,-0.0233402,0,sub_18
0.0071817999999996,0.0033570000000012,0.0309428,-0.0084905999999994,0.1430522000000008,-0.024225,0,sub_18
0.0078965999999996,0.0015784000000012,0.0300064,-0.0155155999999994,0.1450012000000008,-0.0259858,0,sub_18
0.0074257999999996,0.0016872000000012,0.028766,-0.0250915999999994,0.1476042000000008,-0.0292606,0,sub_18
0.0082361999999996,0.0013252000000012,0.0283914,-0.0338073999999994,0.1514834000000008,-0.0327448,0,sub_18
0.0096697999999996,0.0012416000000012,0.0280192,-0.0425221999999994,0.1560000000000008,-0.0358024,0,sub_18
0.0102377999999996,0.0006232000000012,0.0280002,-0.0506053999999994,0.1594458000000009,-0.0379996,0,sub_18
0.0095947999999996,0.0019564000000012,0.0290918,-0.0578553999999994,0.1590510000000008,-0.0395452,0,sub_18
0.0085275999999996,0.0048450000000012,0.0307632,-0.0621361999999994,0.1550222000000008,-0.0406382,0,sub_18
0.0068505999999996,0.0076218000000012,0.0327875999999999,-0.0625895999999994,0.1490582000000008,-0.0406338,0,sub_18
0.0065421999999996,0.0086796000000012,0.0381034,-0.0596559999999994,0.1402998000000008,-0.0373976,0,sub_18
0.0072867999999996,0.0100806000000012,0.0433988,-0.0569693999999994,0.1259950000000008,-0.032233,0,sub_18
0.0076389999999996,0.0118802000000012,0.0483488,-0.0549285999999994,0.1114752000000008,-0.0260044,0,sub_18
0.0069665999999996,0.0123246000000012,0.0511748,-0.0513989999999994,0.0954604000000008,-0.0201908,0,sub_18
0.0058379999999996,0.0108482000000012,0.0538884,-0.0453023999999994,0.0805038000000008,-0.014788,0,sub_18
0.0034715999999996,0.0098216000000012,0.052623,-0.0372575999999994,0.0704458000000008,-0.0106596,0,sub_18
0.0012611999999996,0.0070368000000012,0.0518966,-0.0279027999999994,0.0665636000000008,-0.0069574,0,sub_18
-0.0001320000000003,0.0040216000000012,0.0508252,-0.0202433999999994,0.0648196000000008,-0.003697,0,sub_18
-0.0007306000000003,0.0018076000000012,0.0499322,-0.0145073999999994,0.0615944000000008,-0.0013028,0,sub_18
-0.0010088000000003,0.0021166000000012,0.0489638,-0.0106983999999994,0.0560356000000008,0.0002265999999999,0,sub_18
-0.0014088000000003,0.0033868000000012,0.0483994,-0.0071073999999994,0.0475026000000008,-0.0001646,0,sub_18
-0.0004102000000003,0.0049544000000012,0.0481866,-0.0022361999999994,0.0379040000000008,-0.0016138,0,sub_18
0.0013701999999996,0.0054640000000012,0.0491368,0.0056182000000005,0.0274428000000008,-0.0030412,0,sub_18
0.0026229999999996,0.0046660000000012,0.05077,0.0143206000000005,0.0176100000000008,-0.0025406,0,sub_18
0.0040205999999996,0.0040970000000012,0.0525661999999999,0.0208796000000005,0.0065030000000008,-0.0011988,0,sub_18
0.0043531999999996,0.0047534000000012,0.0528311999999999,0.0246570000000005,-0.0056621999999991,0.0007659999999999,0,sub_18
0.0035653999999996,0.0058008000000012,0.0520309999999999,0.0269428000000005,-0.0178203999999991,0.0022929999999999,0,sub_18
0.0022407999999996,0.0063056000000012,0.0503929999999999,0.0290286000000005,-0.0267829999999991,0.0040281999999999,0,sub_18
0.0012031999999996,0.0065124000000012,0.0483123999999999,0.0311240000000005,-0.0338269999999991,0.0055473999999999,0,sub_18
0.0002947999999996,0.0057714000000012,0.0508676,0.0328148000000005,-0.0361815999999991,0.0068441999999999,0,sub_18
-0.0004052000000003,0.0046272000000012,0.0537516,0.0319756000000005,-0.0308607999999991,0.0089677999999998,0,sub_18
0.0009411999999996,0.0027076000000012,0.055023,0.0279032000000005,-0.0353189999999991,0.0085177999999998,0,sub_18
0.0002163999999996,0.0044104000000012,0.0541172,0.0289576000000005,-0.0383045999999991,0.0083153999999998,0,sub_18
-0.0014636000000003,0.0077690000000012,0.0544618,0.0325800000000005,-0.0387459999999991,0.0089821999999999,0,sub_18
-0.0047156000000003,0.0106906000000012,0.0499088,0.0366532000000005,-0.0340747999999991,0.0094317999999999,0,sub_18
-0.0048566000000003,0.0099442000000012,0.0456766,0.0424354000000005,-0.0291955999999991,0.0096795999999999,0,sub_18
-0.0071234000000003,0.0111906000000012,0.0440838,0.0533902000000005,-0.0098585999999991,0.0129359999999999,0,sub_18
-0.0076946000000003,0.0075282000000012,0.0450284,0.0575316000000005,0.0114248000000008,0.0148603999999999,0,sub_18
-0.0078434000000003,0.0038558000000012,0.0447848,0.0546452000000005,0.0338058000000008,0.0148115999999999,0,sub_18
-0.0072384000000003,0.0019642000000012,0.0435037999999999,0.0487560000000005,0.0517274000000008,0.0136793999999998,0,sub_18
-0.0082282000000003,0.0024202000000012,0.0427713999999999,0.0443500000000005,0.0647538000000008,0.0099999999999999,0,sub_18
-0.0077520000000003,0.0023530000000012,0.0433841999999999,0.0382342000000005,0.0762982000000008,0.0054559999999999,0,sub_18
-0.0070606000000003,0.0035114000000012,0.0426633999999999,0.0336014000000005,0.0867670000000008,0.0022055999999999,0,sub_18
-0.0060074000000003,0.0045966000000012,0.043528,0.0334454000000005,0.0956836000000008,-0.0001602,0,sub_18
-0.0043172000000003,0.0050392000000012,0.0448874,0.0337240000000005,0.1052422000000008,-0.003592,0,sub_18
-0.0021384000000003,0.0058284000000012,0.0453076,0.0329242000000005,0.1128844000000008,-0.0063878,0,sub_18
-0.0023560000000003,0.0062068000000012,0.0454744,0.0376730000000005,0.1209326000000008,-0.0089318,0,sub_18
-0.0032024000000003,0.0064208000000012,0.0471656,0.0422084000000005,0.1291938000000008,-0.0112638,0,sub_18
-0.0036070000000003,0.0070662000000012,0.0464032,0.0450216000000005,0.1360096000000008,-0.0131756,0,sub_18
-0.0040920000000003,0.0095752000000012,0.0450804,0.0522964000000005,0.1408828000000008,-0.0127038,0,sub_18
-0.0050784000000003,0.0125762000000012,0.044466,0.0644758000000005,0.1457364000000008,-0.0115568,0,sub_18
-0.0047292000000003,0.0133562000000012,0.042565,0.0753664000000005,0.1484646000000008,-0.0106296,0,sub_18
-0.0012462000000003,0.0116212000000012,0.0385474,0.0872990000000005,0.1460742000000008,-0.0092614,0,sub_18
