userAcceleration.x,userAcceleration.y,userAcceleration.z,rotationRate.x,rotationRate.y,rotationRate.z,label,subject
0.0205881999999996,-0.0004529999999986,-0.0063771999999999,-0.0368537999999993,0.3097576000000007,-0.0068052000000001,0,sub_5
-0.0036634000000003,-0.0020859999999986,-0.0206479999999999,-0.0218533999999994,0.3091260000000008,-0.0216546000000001,0,sub_5
-0.0212756000000003,-0.0012897999999986,-0.0293385999999999,-0.0131999999999994,0.2744222000000008,-0.0352230000000001,0,sub_5
-0.0308894000000003,-0.0001215999999986,-0.0322893999999999,-0.0104179999999994,0.2211792000000008,-0.0428264,0,sub_5
-0.0311784000000003,0.0013242000000013,-0.0311753999999999,-0.0136727999999994,0.1655674000000007,-0.0389324,0,sub_5
-0.0242296000000003,0.0032270000000013,-0.0257921999999999,-0.0250203999999993,0.1218808000000007,-0.0265642,0,sub_5
-0.0169898000000003,0.0035346000000013,-0.0203827999999999,-0.0386631999999994,0.0901318000000007,-0.0138002,0,sub_5
-0.0144190000000003,0.0033912000000013,-0.0173447999999999,-0.0500821999999994,0.0745828000000007,-0.0048868,0,sub_5
-0.0135410000000003,0.0038878000000013,-0.0150027999999999,-0.0593241999999993,0.0647940000000007,0.0001885999999999,0,sub_5
-0.0188478000000003,0.0020908000000013,-0.0142039999999999,-0.0632415999999993,0.0481876000000007,0.0006097999999999,0,sub_5
-0.0255428000000003,0.0012028000000013,-0.0151425999999999,-0.0612065999999993,0.0251748000000007,-0.0004148,0,sub_5
-0.0304440000000003,0.0014542000000013,-0.0152837999999999,-0.0564429999999993,-0.0061637999999992,0.0002995999999999,0,sub_5
-0.0292154000000003,0.0004906000000013,-0.0137463999999999,-0.0497991999999993,-0.0445473999999992,0.0029587999999999,0,sub_5
-0.0252548000000003,-3.9999999869007676e-07,-0.0128901999999999,-0.0452881999999994,-0.0833469999999992,0.0049627999999998,0,sub_5
-0.0147170000000003,0.0017916000000013,-0.0111347999999999,-0.0464691999999994,-0.1091209999999992,0.0045603999999998,0,sub_5
-0.0060388000000003,0.0023298000000013,-0.0079919999999999,-0.0499233999999994,-0.1191183999999992,0.0034809999999998,0,sub_5
0.0007041999999996,0.0025838000000013,-0.0050791999999999,-0.0544059999999994,-0.1176189999999992,0.0053705999999998,0,sub_5
0.0098565999999996,0.0047446000000013,-0.0025629999999999,-0.0605687999999994,-0.1071773999999992,0.0102279999999998,0,sub_5
0.0206437999999996,0.0069460000000013,-0.0005257999999999,-0.0679725999999994,-0.0886327999999992,0.0144253999999999,0,sub_5
0.0311557999999996,0.0085352000000013,-0.0003879999999999,-0.0749839999999994,-0.0606439999999992,0.0175761999999999,0,sub_5
0.0384557999999996,0.0085644000000013,-0.0020585999999999,-0.0815225999999993,-0.0268863999999992,0.0162363999999999,0,sub_5
0.0475375999999996,0.0075368000000013,-0.0048575999999999,-0.0856837999999994,0.0141764000000007,0.0080777999999999,0,sub_5
0.0529241999999996,0.0062064000000012,-0.0079283999999999,-0.0853333999999994,0.0586458000000007,-0.0034718,0,sub_5
0.0536033999999996,0.0025542000000012,-0.0136881999999999,-0.0732073999999994,0.1128714000000007,-0.0140972,0,sub_5
0.0462521999999996,-0.0010129999999987,-0.0212397999999999,-0.0556559999999993,0.1672320000000008,-0.0266386,0,sub_5
0.0396951999999996,-0.0034661999999986,-0.0304173999999999,-0.0392089999999994,0.2151972000000007,-0.0372568,0,sub_5
0.0246655999999996,-0.0059803999999986,-0.0400245999999999,-0.0234401999999994,0.2490540000000007,-0.046163,0,sub_5
0.0024415999999996,-0.0068465999999986,-0.0498261999999999,-0.0116089999999994,0.2603450000000007,-0.0561362,0,sub_5
-0.0166884000000003,-0.0039189999999986,-0.0567817999999999,-0.0095509999999994,0.2382012000000007,-0.0614344,0,sub_5
-0.0239380000000003,-0.0006405999999986,-0.0590445999999999,-0.0150845999999993,0.1903230000000007,-0.0570922,0,sub_5
-0.0247090000000003,0.0008894000000013,-0.0554179999999999,-0.0240935999999994,0.1343384000000007,-0.0472092,0,sub_5
-0.0172870000000003,0.0033760000000013,-0.0487995999999999,-0.0362981999999994,0.0832500000000007,-0.0335092,0,sub_5
-0.0044970000000003,0.0024810000000013,-0.0393123999999999,-0.0475831999999994,0.0472836000000007,-0.0193948,0,sub_5
0.0012731999999996,-0.0009531999999986,-0.0307065999999999,-0.0511005999999994,0.0253724000000007,-0.0103718,0,sub_5
-0.0033974000000003,-0.0031455999999986,-0.0287749999999999,-0.0469127999999994,0.0144644000000007,-0.003492,0,sub_5
-0.0139928000000003,-0.0046839999999986,-0.0311577999999999,-0.0387033999999994,-0.0060355999999992,0.0010781999999998,0,sub_5
-0.0276450000000003,-0.0050929999999986,-0.0331521999999999,-0.0247971999999994,-0.0450743999999992,0.0014389999999998,0,sub_5
-0.0401794000000003,-0.0035161999999986,-0.0376141999999999,-0.0093227999999993,-0.1031009999999991,0.0019097999999998,0,sub_5
-0.0406056000000003,-0.0029851999999986,-0.0435781999999999,0.0035260000000005,-0.1730597999999992,0.0049413999999998,0,sub_5
-0.0350882000000003,-0.0018085999999986,-0.0416181999999999,0.0148754000000005,-0.2470501999999992,0.0051901999999998,0,sub_5
-0.0233498000000003,0.0024544000000013,-0.0338431999999999,0.0286314000000006,-0.3086885999999992,0.0045853999999999,0,sub_5
-0.0073226000000003,0.0041186000000013,-0.0234789999999999,0.0399092000000006,-0.3490245999999992,0.0069269999999999,0,sub_5
0.0128601999999996,-0.0002435999999986,-0.0188071999999999,0.0496716000000006,-0.3554717999999992,0.0123445999999999,0,sub_5
0.0271113999999996,-0.0007381999999986,-0.0119705999999999,0.0563868000000006,-0.3320633999999992,0.0134295999999999,0,sub_5
0.0359127999999996,0.0016884000000013,-0.0057807999999999,0.0591630000000006,-0.2875307999999992,0.0099735999999999,0,sub_5
0.0401533999999996,0.0008478000000013,-0.0044971999999999,0.0573964000000005,-0.2294825999999992,0.0041705999999999,0,sub_5
0.0389831999999996,-0.0022949999999986,-0.0114829999999999,0.0529010000000006,-0.1628967999999992,-0.003158,0,sub_5
0.0276591999999996,0.0004874000000013,-0.0156205999999999,0.0464604000000006,-0.1048143999999991,-0.0134802,0,sub_5
0.0131507999999996,0.0051426000000013,-0.0183603999999999,0.0377960000000005,-0.0637805999999992,-0.020805,0,sub_5
0.0067263999999996,0.0046260000000013,-0.0210383999999999,0.0287916000000006,-0.0428053999999991,-0.019988,0,sub_5
0.0034543999999996,0.0052488000000013,-0.0224509999999999,0.0187582000000006,-0.0374695999999991,-0.0136556,0,sub_5
0.0034507999999996,0.0090524000000013,-0.0179921999999999,0.0050736000000006,-0.0372351999999991,-0.0071284,0,sub_5
0.0086055999999996,0.0109274000000012,-0.0115603999999999,-0.0111619999999993,-0.0344369999999991,-0.0001952000000001,0,sub_5
0.0157025999999996,0.0069688000000013,-0.0076417999999999,-0.0248195999999993,-0.0252767999999991,0.0069809999999998,0,sub_5
0.0171385999999996,0.0026730000000013,-0.0057877999999999,-0.0356429999999993,-0.0077965999999992,0.0090387999999998,0,sub_5
0.0178941999999996,0.0019088000000013,-0.0033441999999999,-0.0400295999999993,0.0143612000000007,0.0079309999999998,0,sub_5
0.0179343999999996,0.0003478000000013,-0.0043357999999999,-0.0339637999999993,0.0343578000000007,0.0054033999999998,0,sub_5
0.0138799999999996,-0.0021475999999986,-0.0068355999999999,-0.0223703999999993,0.0466780000000007,-0.0002804000000001,0,sub_5
0.0091101999999996,-0.0046857999999986,-0.0099055999999999,-0.0093047999999993,0.0509208000000007,-0.0070312000000001,0,sub_5
0.0070243999999996,-0.0049105999999986,-0.0170621999999999,0.0071250000000005,0.0476802000000007,-0.010117,0,sub_5
0.0031833999999996,-0.0070571999999986,-0.0260933999999999,0.0213884000000005,0.0378400000000007,-0.0125686,0,sub_5
0.0010855999999996,-0.0035253999999986,-0.0304301999999999,0.0279456000000005,0.0237968000000007,-0.0132652,0,sub_5
0.0050095999999996,0.0020900000000013,-0.0300587999999999,0.0268126000000005,0.0101972000000007,-0.011666,0,sub_5
0.0105953999999996,0.0063676000000012,-0.0266577999999999,0.0178348000000005,0.0077040000000007,-0.0101358,0,sub_5
0.0145063999999996,0.0086922000000012,-0.0195211999999999,0.0014388000000005,0.0165280000000007,-0.0084582,0,sub_5
0.0184867999999996,0.0079980000000012,-0.0147685999999999,-0.0149457999999994,0.0300304000000007,-0.0046502000000001,0,sub_5
0.0188429999999996,0.0055846000000012,-0.0143617999999999,-0.0259855999999993,0.0462460000000007,-0.0009026000000001,0,sub_5
0.0161679999999996,0.0039604000000012,-0.0169975999999999,-0.0310325999999993,0.0645788000000007,0.0009613999999998,0,sub_5
0.0126343999999996,0.0046570000000012,-0.0195097999999999,-0.0324609999999993,0.0784350000000007,0.0002927999999998,0,sub_5
0.0078205999999996,0.0012158000000013,-0.0225463999999999,-0.0313651999999993,0.0833752000000007,-0.0045392,0,sub_5
0.0016623999999996,-0.0007225999999987,-0.0230011999999999,-0.0287975999999993,0.0802272000000007,-0.0125552,0,sub_5
-0.0023608000000003,-0.0055135999999987,-0.0247343999999999,-0.0243615999999994,0.0674774000000007,-0.018623,0,sub_5
-0.0029250000000003,-0.0063515999999987,-0.0282571999999999,-0.0150593999999994,0.0506418000000007,-0.0195242,0,sub_5
-0.0031376000000003,-0.0042695999999986,-0.0308435999999999,-0.0044787999999994,0.0361344000000007,-0.0176422,0,sub_5
-0.0027872000000003,0.0018420000000012,-0.0308769999999999,0.0022946000000005,0.0256642000000007,-0.0158724,0,sub_5
0.0011241999999996,0.0053172000000012,-0.0279529999999999,0.0035460000000005,0.0205414000000007,-0.0145752,0,sub_5
0.0057485999999995,0.0090448000000012,-0.0226683999999999,-0.0026445999999994,0.0211970000000007,-0.0133374,0,sub_5
0.0087893999999995,0.0074424000000012,-0.0159777999999999,-0.0160591999999994,0.0229264000000007,-0.0093278000000001,0,sub_5
0.0115849999999996,0.0054666000000012,-0.0119737999999999,-0.0279993999999993,0.0227236000000007,-0.0029554000000001,0,sub_5
0.0142247999999996,0.0066190000000012,-0.0084719999999999,-0.0348101999999993,0.0248448000000007,0.0038769999999998,0,sub_5
0.0144275999999996,0.0090182000000012,-0.0067363999999999,-0.0379753999999993,0.0301524000000007,0.0098761999999998,0,sub_5
0.0159541999999996,0.0066924000000012,-0.0046697999999999,-0.0368405999999993,0.0401426000000007,0.0133357999999998,0,sub_5
0.0156529999999996,0.0059612000000012,-0.0047781999999999,-0.0301445999999993,0.0552582000000007,0.0103719999999999,0,sub_5
0.0116631999999996,0.0039426000000012,-0.0061553999999999,-0.0210823999999993,0.0712314000000007,0.0040053999999999,0,sub_5
0.0055789999999996,-0.0012367999999987,-0.0099717999999999,-0.0094931999999994,0.0801632000000007,-0.0019072,0,sub_5
-0.0001582000000003,-0.0061919999999986,-0.0171053999999999,0.0046108000000005,0.0796772000000007,-0.0058276,0,sub_5
-0.0076514000000003,-0.0039757999999986,-0.0251343999999999,0.0205796000000005,0.0683128000000007,-0.0082256,0,sub_5
-0.0124316000000003,-0.0002339999999986,-0.0297301999999999,0.0324368000000005,0.0456646000000007,-0.0091422,0,sub_5
-0.0104842000000003,0.0035272000000013,-0.0297385999999999,0.0355178000000005,0.0181418000000007,-0.008832,0,sub_5
-0.0056704000000003,0.0057312000000013,-0.0263403999999999,0.0298574000000005,-0.0061613999999992,-0.0068778,0,sub_5
-0.0001816000000003,0.0097900000000013,-0.0210713999999999,0.0193072000000005,-0.0233975999999992,-0.0030838,0,sub_5
0.0052399999999996,0.0085872000000013,-0.0179399999999999,0.0051526000000005,-0.0335979999999992,0.0025987999999999,0,sub_5
0.0082915999999996,0.0054652000000013,-0.0159793999999999,-0.0085311999999994,-0.0342115999999992,0.0080587999999999,0,sub_5
0.0085421999999996,0.0023958000000013,-0.0149459999999999,-0.0157813999999994,-0.0290925999999992,0.0131671999999999,0,sub_5
0.0085121999999996,2.600000001311449e-06,-0.0168187999999999,-0.0157665999999994,-0.0233529999999992,0.0166163999999998,0,sub_5
0.0077423999999996,-0.0025337999999986,-0.0198537999999999,-0.0095561999999994,-0.0208111999999992,0.0151991999999998,0,sub_5
0.0076071999999996,-0.0012921999999986,-0.0202981999999999,0.0005084000000005,-0.0197561999999992,0.0093241999999998,0,sub_5
0.0077799999999996,0.0005880000000013,-0.0205645999999999,0.0112016000000006,-0.0214721999999992,0.0032433999999998,0,sub_5
0.0077461999999996,0.0006282000000013,-0.0220513999999999,0.0188936000000005,-0.0246725999999992,-0.0022536000000001,0,sub_5
0.0079471999999996,0.0019524000000012,-0.0232227999999999,0.0235908000000005,-0.0272327999999992,-0.0054222,0,sub_5
0.0071895999999996,0.0034292000000012,-0.0233033999999999,0.0238014000000005,-0.0282969999999992,-0.0058468,0,sub_5
0.0062313999999996,0.0037900000000012,-0.0233939999999999,0.0195696000000005,-0.0265547999999992,-0.0037038,0,sub_5
0.0066467999999996,0.0032362000000012,-0.0223079999999999,0.0121432000000005,-0.0220375999999992,-9.120000000009172e-05,0,sub_5
0.0065805999999996,0.0029464000000012,-0.0207463999999999,0.0062142000000005,-0.0173099999999992,0.0028905999999999,0,sub_5
0.0062235999999996,0.0024992000000013,-0.0188813999999999,0.0022122000000005,-0.0130075999999992,0.0039635999999998,0,sub_5
0.0075345999999996,0.0016322000000013,-0.0174305999999999,-7.89999999994219e-05,-0.0080711999999992,0.0048341999999999,0,sub_5
0.0085751999999996,0.0014564000000013,-0.0164411999999999,0.0003728000000005,-0.0023209999999992,0.0050435999999999,0,sub_5
0.0082595999999996,0.0009198000000013,-0.0168429999999999,0.0040298000000005,0.0029978000000007,0.0037805999999999,0,sub_5
0.0083577999999996,0.0015598000000013,-0.0176441999999999,0.0091822000000005,0.0081008000000007,0.0018873999999999,0,sub_5
0.0098983999999996,0.0023734000000013,-0.0187777999999999,0.0131026000000005,0.0129274000000007,0.0011009999999999,0,sub_5
0.0105325999999996,0.0033910000000013,-0.0192563999999999,0.0144672000000006,0.0186162000000007,8.199999999990841e-05,0,sub_5
0.0111109999999996,0.0034504000000012,-0.0196605999999999,0.0128418000000005,0.0238882000000007,-0.0007438,0,sub_5
0.0126605999999996,0.0031834000000012,-0.0195821999999999,0.0095036000000005,0.0287368000000007,-0.0007264,0,sub_5
0.0137469999999996,0.0030482000000012,-0.0189399999999999,0.0044558000000005,0.0338010000000007,0.0001333999999999,0,sub_5
0.0123665999999996,0.0030136000000012,-0.0200543999999999,0.0006294000000005,0.0378590000000007,0.0009559999999999,0,sub_5
0.0101387999999996,0.0017368000000012,-0.0218083999999999,-0.0008553999999994,0.0397816000000007,0.0009431999999999,0,sub_5
0.0084009999999996,0.0011648000000012,-0.0223767999999999,-0.0002113999999994,0.0402072000000007,0.0005199999999999,0,sub_5
0.0064517999999996,0.0007522000000012,-0.0225321999999999,0.0017520000000005,0.0351382000000007,0.0003543999999999,0,sub_5
0.0069445999999996,0.0013566000000012,-0.0220377999999999,0.0037008000000005,0.0279346000000007,0.0012595999999999,0,sub_5
0.0088865999999996,0.0025688000000012,-0.0196047999999999,0.0024596000000005,0.0235102000000007,0.0025663999999999,0,sub_5
0.0121813999999996,0.0032908000000012,-0.0167481999999999,-0.0024003999999993,0.0229256000000007,0.0057655999999999,0,sub_5
0.0142319999999996,0.0035212000000013,-0.0162945999999999,-0.0072449999999993,0.0259622000000007,0.0091739999999999,0,sub_5
0.0141235999999996,0.0035102000000013,-0.0175665999999999,-0.0093519999999993,0.0338450000000007,0.0110719999999999,0,sub_5
0.0064181999999996,0.0009654000000013,-0.0223443999999999,-0.0078333999999993,0.0381060000000007,0.0097951999999999,0,sub_5
-0.0017286000000003,-0.0025713999999986,-0.0277145999999999,0.0004824000000006,0.0331912000000007,0.0062275999999999,0,sub_5
-0.0106468000000003,-0.0049719999999986,-0.0342545999999999,0.0149724000000005,0.0175120000000007,0.0010209999999999,0,sub_5
-0.0178190000000003,-0.0047913999999986,-0.0375589999999999,0.0283370000000006,-0.0098865999999992,-0.0028966,0,sub_5
-0.0221990000000003,-0.0036001999999986,-0.0388723999999999,0.0356754000000005,-0.0468593999999992,-0.0049212,0,sub_5
-0.0180368000000003,-0.0001803999999986,-0.0354477999999999,0.0353218000000005,-0.0819049999999992,-0.0027290000000001,0,sub_5
-0.0110336000000003,0.0023538000000012,-0.0293433999999999,0.0266696000000005,-0.1092617999999992,0.0019589999999998,0,sub_5
-0.0030864000000003,0.0048508000000012,-0.0212531999999999,0.0124872000000005,-0.1245795999999992,0.0087161999999998,0,sub_5
0.0047983999999996,0.0045702000000012,-0.0150171999999999,-0.0014127999999994,-0.1249827999999992,0.0150289999999998,0,sub_5
0.0126401999999996,0.0043586000000012,-0.0087863999999999,-0.0120439999999994,-0.1117557999999992,0.0198515999999998,0,sub_5
0.0185617999999996,0.0034856000000012,-0.0049549999999999,-0.0166451999999994,-0.0889511999999992,0.0219265999999999,0,sub_5
0.0218971999999996,0.0034730000000013,-0.0033901999999999,-0.0158831999999994,-0.0623199999999992,0.0214703999999999,0,sub_5
0.0223559999999996,0.0039322000000013,-0.0038225999999999,-0.0112769999999994,-0.0378317999999992,0.0167751999999999,0,sub_5
0.0221549999999996,0.0062956000000013,-0.0046233999999999,-0.0047665999999994,-0.0195185999999992,0.0095371999999999,0,sub_5
0.0231703999999996,0.0073466000000013,-0.0074977999999999,0.0036476000000005,-0.0035607999999992,0.0035973999999999,0,sub_5
0.0235579999999996,0.0072058000000013,-0.0116463999999999,0.0105576000000005,0.0104830000000007,-0.001923,0,sub_5
0.0216795999999996,0.0063046000000013,-0.0161067999999999,0.0142624000000005,0.0251702000000007,-0.0057574,0,sub_5
0.0205605999999996,0.0049256000000013,-0.0204899999999999,0.0130512000000005,0.0398778000000007,-0.0064258,0,sub_5
0.0188641999999996,0.0025912000000013,-0.0256013999999999,0.0075346000000005,0.0539370000000007,-0.0039216,0,sub_5
0.0140887999999996,0.0011302000000013,-0.0295627999999999,-0.0014197999999994,0.0626818000000007,-0.0014346,0,sub_5
0.0079391999999996,0.0007846000000013,-0.0318823999999999,-0.0095511999999994,0.0648182000000007,0.0012801999999999,0,sub_5
0.0034057999999996,0.0007338000000013,-0.0333465999999999,-0.0147253999999994,0.0597030000000007,0.0033839999999999,0,sub_5
0.0009995999999996,0.0001974000000013,-0.0336439999999999,-0.0162855999999994,0.0509558000000007,0.0048767999999998,0,sub_5
-0.0002306000000003,-0.0009357999999986,-0.0313835999999999,-0.0150609999999994,0.0394430000000007,0.0057545999999998,0,sub_5
0.0004009999999996,-0.0005205999999986,-0.0289705999999999,-0.0131979999999994,0.0275020000000007,0.0066375999999998,0,sub_5
0.0024745999999996,4.640000000133062e-05,-0.0271427999999999,-0.0123991999999994,0.0166282000000007,0.0079389999999998,0,sub_5
0.0050371999999996,0.0018042000000012,-0.0255131999999999,-0.0126831999999994,0.0080244000000007,0.0100799999999998,0,sub_5
0.0067389999999996,0.0034816000000012,-0.0238115999999999,-0.0140235999999994,0.0015558000000007,0.0119973999999999,0,sub_5
0.0072237999999996,0.0039942000000013,-0.0229659999999999,-0.0144893999999993,-0.0017139999999992,0.0124211999999999,0,sub_5
0.0077075999999996,0.0028548000000013,-0.0230165999999999,-0.0130233999999993,-0.0030705999999992,0.0122149999999999,0,sub_5
0.0075615999999996,0.0007466000000013,-0.0241259999999999,-0.0094273999999993,-0.0052867999999992,0.0120247999999998,0,sub_5
0.0074231999999996,1.800000000133084e-05,-0.0259109999999999,-0.0053819999999993,-0.0084915999999992,0.0107753999999998,0,sub_5
0.0060535999999996,-0.0005921999999986,-0.0271545999999999,-0.0009087999999993,-0.0125459999999992,0.0084617999999998,0,sub_5
0.0049113999999996,-0.0003969999999986,-0.0283267999999999,0.0024852000000005,-0.0193661999999992,0.0061441999999998,0,sub_5
0.0052387999999996,-0.0008495999999986,-0.0286871999999999,0.0045600000000005,-0.0273363999999992,0.0055153999999998,0,sub_5
0.0069467999999996,0.0006504000000013,-0.0276349999999999,0.0045098000000005,-0.0325327999999992,0.0057227999999999,0,sub_5
0.0091789999999996,0.0014586000000013,-0.0250379999999999,0.0040472000000005,-0.0334709999999992,0.0069899999999999,0,sub_5
0.0137191999999996,0.0016392000000013,-0.0233837999999999,0.0038124000000005,-0.0316385999999992,0.0078277999999999,0,sub_5
0.0176789999999996,0.0012116000000013,-0.0221103999999999,0.0050980000000005,-0.0246947999999992,0.0078153999999999,0,sub_5
0.0183063999999996,0.0013696000000013,-0.0219003999999999,0.0072894000000005,-0.0138287999999992,0.0058939999999999,0,sub_5
0.0173133999999995,0.0011692000000012,-0.0229131999999999,0.0094816000000005,-0.0031741999999992,0.0035455999999999,0,sub_5
0.0161703999999995,0.0001412000000012,-0.0254119999999999,0.0112318000000005,0.0042852000000007,0.0014117999999999,0,sub_5
0.0131765999999996,0.0004706000000012,-0.0281335999999999,0.0133578000000005,0.0092984000000007,0.0011767999999999,0,sub_5
0.0091957999999996,0.0021474000000012,-0.0302721999999999,0.0137490000000005,0.0085634000000007,0.0013641999999999,0,sub_5
0.0063107999999996,0.0029774000000012,-0.0317347999999999,0.0117662000000005,0.0018710000000007,0.0015425999999999,0,sub_5
0.0035491999999996,0.0023644000000012,-0.0317125999999999,0.0097660000000005,-0.0088685999999992,0.0015123999999999,0,sub_5
0.0013135999999996,0.0019278000000013,-0.0307041999999999,0.0083870000000005,-0.0232347999999992,0.0021321999999999,0,sub_5
0.0014287999999996,0.0022632000000013,-0.0279725999999999,0.0070330000000005,-0.0387865999999992,0.0029971999999999,0,sub_5
0.0038027999999996,0.0011228000000013,-0.0260659999999999,0.0076260000000005,-0.0485917999999992,0.0036547999999999,0,sub_5
0.0050595999999996,0.0011328000000013,-0.0243315999999999,0.0108218000000005,-0.0503047999999992,0.0030383999999999,0,sub_5
0.0054551999999996,0.0013996000000013,-0.0226933999999999,0.0144704000000005,-0.0469033999999992,0.0017775999999999,0,sub_5
0.0050343999999996,0.0001134000000013,-0.0219519999999999,0.0178924000000005,-0.0430189999999992,-0.0014314,0,sub_5
0.0034075999999996,-0.0013717999999986,-0.0215197999999999,0.0210896000000005,-0.0416903999999992,-0.0046388,0,sub_5
0.0018841999999996,-0.0005289999999986,-0.0209211999999999,0.0221302000000006,-0.0431333999999992,-0.0055076,0,sub_5
-0.0041744000000003,-0.0029401999999986,-0.0236043999999999,0.0224980000000005,-0.0520301999999991,-0.0065852,0,sub_5
-0.0138974000000003,-0.0081975999999986,-0.0291149999999999,0.0275456000000005,-0.0719907999999991,-0.0155206,0,sub_5
-0.0301664000000004,-0.0131697999999986,-0.0360417999999999,0.0400416000000005,-0.1054327999999991,-0.0282092,0,sub_5
-0.0302268000000003,-0.0104183999999986,-0.0386695999999999,0.0560642000000005,-0.1553165999999992,-0.0348698,0,sub_5
-0.0227382000000003,-0.0067673999999986,-0.0395195999999999,0.0731188000000005,-0.2093063999999992,-0.035568,0,sub_5
-0.0007126000000003,-0.0012967999999986,-0.0396379999999999,0.0915370000000005,-0.2447651999999992,-0.0362804,0,sub_5
0.0223479999999996,0.0101996000000013,-0.0354379999999999,0.1023954000000005,-0.2484707999999992,-0.0323862,0,sub_5
0.0533569999999996,0.0250806000000013,-0.0252431999999999,0.0905410000000005,-0.2169787999999992,-0.0197226,0,sub_5
0.0751829999999996,0.0294622000000013,-0.0150119999999999,0.0553748000000005,-0.1515233999999992,-0.008761,0,sub_5
0.0898167999999996,0.0274752000000013,-0.0063663999999999,0.0096688000000005,-0.0582905999999992,-0.0010812,0,sub_5
0.0878707999999996,0.0241570000000013,0.002453,-0.0413349999999993,0.0470888000000007,0.0106051999999999,0,sub_5
0.0843675999999996,0.0173006000000013,0.0078574,-0.0895955999999993,0.1481870000000008,0.0248799999999999,0,sub_5
0.0720763999999996,0.0057502000000013,0.0049548,-0.1171955999999993,0.2339020000000007,0.0320549999999998,0,sub_5
0.0489199999999996,-0.0046623999999986,-0.0050143999999999,-0.1138921999999994,0.2980404000000007,0.0291765999999998,0,sub_5
0.0206327999999996,-0.0108413999999986,-0.0176213999999999,-0.0870385999999993,0.3242050000000007,0.0183927999999998,0,sub_5
-0.0022962000000003,-0.0122463999999986,-0.0271427999999999,-0.0497005999999994,0.3045456000000007,0.0028273999999998,0,sub_5
-0.0180752000000003,-0.0099903999999986,-0.0338441999999999,-0.0114527999999994,0.2512150000000007,-0.0114068,0,sub_5
-0.0241964000000003,-0.0040343999999986,-0.0333933999999999,0.0198914000000005,0.1851090000000007,-0.0216136,0,sub_5
-0.0258500000000003,0.0016364000000013,-0.0312301999999999,0.0394666000000005,0.1205042000000007,-0.0263078,0,sub_5
-0.0234582000000003,0.0068548000000013,-0.0264761999999999,0.0434972000000005,0.0689262000000007,-0.0251452,0,sub_5
-0.0189904000000003,0.0076826000000013,-0.0247531999999999,0.0358250000000005,0.0331544000000007,-0.0170714,0,sub_5
-0.0174994000000003,0.0044016000000013,-0.0259443999999999,0.0245674000000005,0.0086796000000007,-0.0071142,0,sub_5
-0.0202810000000003,0.0012934000000013,-0.0288075999999999,0.0141864000000005,-0.0121703999999992,0.0013489999999999,0,sub_5
