userAcceleration.x,userAcceleration.y,userAcceleration.z,rotationRate.x,rotationRate.y,rotationRate.z,label,subject
-0.0063506000000002,0.0053638000000012,0.0119983999999998,0.0046318000000006,0.0631936000000006,-0.0236175999999999,0,sub_21
-0.0040438000000002,0.0057214000000012,0.0100999999999999,-0.0003903999999993,0.0811240000000006,-0.0277347999999999,0,sub_21
0.0030219999999997,0.0060366000000012,0.0023081999999999,-0.0039609999999993,0.0888262000000006,-0.0326833999999999,0,sub_21
0.0173037999999997,0.0090242000000012,-0.0074074,-0.0084687999999993,0.0856350000000006,-0.0299333999999999,0,sub_21
0.0261839999999997,0.0104760000000012,-0.0169568,-0.0124149999999993,0.0694274000000007,-0.0226761999999999,0,sub_21
0.0295233999999997,0.0110836000000012,-0.0256946,-0.0126213999999993,0.0349268000000007,-0.0183799999999999,0,sub_21
0.0345843999999997,0.0108264000000012,-0.0330072,-0.0152467999999993,-0.0163933999999992,-0.0149339999999999,0,sub_21
0.0357307999999997,0.0114324000000012,-0.0350084,-0.0175029999999993,-0.0773153999999992,-0.0082683999999999,0,sub_21
0.0282541999999997,0.0099304000000012,-0.0322982,-0.0144121999999993,-0.1407913999999993,-0.0069031999999999,0,sub_21
0.0213359999999997,0.0093720000000012,-0.029954,-0.0072271999999993,-0.2008503999999992,-0.0110685999999999,0,sub_21
0.0155327999999997,0.0082642000000012,-0.0259878,0.0008662000000006,-0.2562545999999993,-0.0156411999999999,0,sub_21
0.0112025999999997,0.0086530000000012,-0.0193326,0.0143514000000006,-0.2986817999999992,-0.0199789999999999,0,sub_21
0.0053243999999997,0.0084190000000012,-0.0120626,0.0306768000000006,-0.3268563999999992,-0.0273283999999999,0,sub_21
0.0019881999999997,0.0084518000000012,-0.0080546,0.0429596000000006,-0.3509745999999992,-0.0332157999999999,0,sub_21
0.0017677999999997,0.0099778000000012,-0.001611,0.0503512000000006,-0.3686953999999992,-0.0363681999999999,0,sub_21
0.0038637999999997,0.0118720000000012,0.0064901999999999,0.0565162000000006,-0.3704487999999993,-0.0354903999999999,0,sub_21
0.0004993999999997,0.0119648000000012,0.0096229999999999,0.0644256000000006,-0.3645357999999993,-0.0352511999999999,0,sub_21
-0.0022728000000002,0.0103466000000012,0.0179701999999999,0.0668150000000006,-0.3528353999999992,-0.0328993999999999,0,sub_21
-0.0023036000000002,0.0107162000000012,0.0252331999999999,0.0672820000000006,-0.3409179999999993,-0.0299203999999999,0,sub_21
-0.0045174000000002,0.0111656000000012,0.0297445999999999,0.0695154000000006,-0.3151603999999993,-0.0263057999999999,0,sub_21
-0.0118630000000002,0.0101430000000012,0.0327607999999999,0.0698592000000006,-0.2851249999999992,-0.0252737999999999,0,sub_21
-0.0151240000000002,0.0085378000000012,0.0381297999999999,0.0648870000000006,-0.2495465999999992,-0.0258085999999999,0,sub_21
-0.0145816000000002,0.0090122000000012,0.0372499999999999,0.0570988000000006,-0.2203619999999992,-0.0233637999999999,0,sub_21
-0.0164112000000002,0.0090802000000012,0.0364225999999999,0.0515114000000006,-0.1760587999999992,-0.0207091999999999,0,sub_21
-0.0230690000000002,0.0063050000000012,0.0341283999999999,0.0480674000000006,-0.1334523999999993,-0.0218831999999999,0,sub_21
-0.0254390000000002,0.0049614000000012,0.0307215999999999,0.0465312000000006,-0.0961685999999992,-0.0256005999999999,0,sub_21
-0.0213352000000002,0.0054754000000012,0.0289637999999999,0.0385554000000006,-0.0644047999999992,-0.0233467999999999,0,sub_21
-0.0219074000000002,0.0048492000000012,0.0288811999999998,0.0280420000000006,-0.0283675999999992,-0.0219707999999999,0,sub_21
-0.0261740000000002,0.0031698000000012,0.0283461999999998,0.0192558000000006,0.0061962000000007,-0.0265629999999999,0,sub_21
-0.0247050000000002,0.0042436000000012,0.0247173999999998,0.0170420000000006,0.0281796000000007,-0.0342977999999999,0,sub_21
-0.0128002000000002,0.0073910000000012,0.0217521999999999,0.0120150000000006,0.0482278000000006,-0.0352131999999999,0,sub_21
-0.0071258000000002,0.0080940000000012,0.0179759999999999,0.0106000000000006,0.0667644000000007,-0.0341785999999999,0,sub_21
-0.0039300000000002,0.0085186000000012,0.0113661999999999,0.0166270000000006,0.0780634000000007,-0.0386483999999999,0,sub_21
0.0097845999999997,0.0113444000000012,0.0054481999999999,0.0191480000000006,0.0725284000000007,-0.0394891999999999,0,sub_21
0.0246855999999997,0.0136940000000012,0.0027241999999999,0.0118078000000006,0.0650772000000007,-0.0320641999999999,0,sub_21
0.0240219999999997,0.0125858000000012,-0.0027378,0.0074098000000006,0.0476020000000007,-0.0246057999999999,0,sub_21
0.0243291999999997,0.0124600000000012,-0.0081646,0.0119456000000006,0.0183998000000007,-0.0226247999999999,0,sub_21
0.0283853999999997,0.0126548000000012,-0.0109768,0.0153802000000006,-0.0212535999999992,-0.0193453999999999,0,sub_21
0.0259359999999997,0.0104496000000012,-0.0129944,0.0211724000000006,-0.0598445999999992,-0.0173325999999999,0,sub_21
0.0220527999999997,0.0086304000000012,-0.013988,0.0316770000000006,-0.0977993999999992,-0.0187061999999999,0,sub_21
0.0214181999999997,0.0092584000000012,-0.0122192,0.0445594000000006,-0.1325519999999992,-0.0236991999999999,0,sub_21
0.0195117999999997,0.0091504000000012,-0.0087444,0.0514626000000006,-0.1668637999999992,-0.0272389999999999,0,sub_21
0.0208671999999997,0.0099998000000012,-0.0043264,0.0548142000000006,-0.1830583999999993,-0.0295449999999999,0,sub_21
0.0102805999999997,0.0108468000000012,-0.0047896,0.0579670000000006,-0.1939345999999993,-0.0297227999999999,0,sub_21
0.0075883999999997,0.0104494000000012,-0.0061714,0.0604662000000006,-0.2063057999999992,-0.0284075999999999,0,sub_21
0.0086197999999997,0.0108664000000012,-0.0088662,0.0582328000000006,-0.2225141999999992,-0.0224203999999999,0,sub_21
0.0071785999999997,0.0106930000000012,-0.0110034,0.0598526000000006,-0.2304489999999993,-0.0108622,0,sub_21
-0.0009422000000002,0.0095590000000012,-0.0097814,0.0626894000000006,-0.2456593999999992,0.0075505999999999,0,sub_21
-0.0032660000000002,0.0054268000000012,-0.0015422,0.0561520000000006,-0.2591265999999993,0.0244001999999999,0,sub_21
-0.0183018000000002,0.0029106000000012,0.0078039999999999,0.0465242000000006,-0.2567817999999993,0.0324483999999999,0,sub_21
-0.0343656000000002,0.0012436000000012,0.0161135999999999,0.0411022000000006,-0.2292769999999993,0.0319479999999999,0,sub_21
-0.0457698000000002,0.0003686000000012,0.0213777999999999,0.0338710000000006,-0.1827807999999992,0.0256424,0,sub_21
-0.0532484000000002,-0.0013671999999987,0.0201559999999999,0.0252458000000006,-0.1209121999999992,0.0124706,0,sub_21
-0.0495508000000002,0.0020582000000012,0.0170173999999999,0.0196530000000006,-0.0456453999999992,0.002721,0,sub_21
-0.0414626000000002,0.0056352000000012,0.0158435999999999,0.0101908000000006,0.0351266000000007,0.0049016,0,sub_21
-0.0372200000000002,0.0052932000000012,0.0157933999999999,-0.0034233999999993,0.0994864000000007,0.0124152,0,sub_21
-0.0336960000000002,0.0049374000000012,0.0148645999999999,-0.0213691999999993,0.1489500000000007,0.0192766,0,sub_21
-0.0300640000000002,0.0057912000000012,0.0169251999999999,-0.0404115999999993,0.1922370000000007,0.0265656,0,sub_21
-0.0319422000000002,0.0048068000000012,0.0217577999999999,-0.0538967999999993,0.2344522000000007,0.0306902,0,sub_21
-0.0358092000000002,0.0023318000000012,0.0258139999999999,-0.0603425999999993,0.2713360000000007,0.029957,0,sub_21
-0.0372902000000002,0.0014530000000012,0.0286629999999999,-0.0680283999999993,0.3122918000000007,0.0242959999999999,0,sub_21
-0.0388822000000002,0.0015648000000012,0.0320453999999999,-0.0761399999999993,0.3536744000000007,0.0188451999999999,0,sub_21
-0.0406434000000002,0.0039926000000012,0.0368573999999999,-0.0829079999999993,0.4108116000000007,0.0150927999999999,0,sub_21
-0.0425442000000002,0.0058760000000012,0.0381217999999999,-0.0862495999999993,0.4690090000000007,0.0096537999999999,0,sub_21
-0.0390124000000002,0.0074550000000012,0.0363063999999999,-0.0953819999999993,0.5235928000000007,0.0071699999999999,0,sub_21
-0.0307488000000002,0.0080982000000012,0.0361249999999999,-0.1069027999999993,0.5730554000000008,0.0087354,0,sub_21
-0.0196324000000002,0.0102698000000012,0.0374103999999999,-0.1175719999999993,0.6216644000000008,0.0098804,0,sub_21
-0.0102756000000002,0.0128830000000012,0.0368157999999999,-0.1248693999999993,0.6591896000000007,0.009354,0,sub_21
0.0007063999999997,0.0130132000000012,0.0349039999999999,-0.1324481999999993,0.6841352000000007,0.0114056,0,sub_21
0.0111185999999997,0.0146720000000012,0.0306405999999999,-0.1406939999999993,0.7014198000000007,0.011753,0,sub_21
0.0176597999999997,0.0169884000000012,0.0256247999999998,-0.1482975999999993,0.7189160000000008,0.011891,0,sub_21
0.0194765999999997,0.0149638000000012,0.0201553999999998,-0.1539885999999993,0.7368232000000007,0.0141783999999999,0,sub_21
0.0243413999999997,0.0139040000000012,0.0120401999999998,-0.1564991999999993,0.7498208000000007,0.0160669999999999,0,sub_21
0.0270849999999997,0.0148158000000012,0.0060411999999998,-0.1537205999999993,0.7540594000000007,0.0192855999999999,0,sub_21
0.0278133999999997,0.0139968000000012,0.0039315999999998,-0.1426683999999993,0.7480406000000007,0.0230025999999999,0,sub_21
0.0278455999999997,0.0117638000000012,0.0004439999999999,-0.1269353999999993,0.7354154000000007,0.0231287999999999,0,sub_21
0.0298483999999997,0.0127098000000012,-0.0041412,-0.1105641999999993,0.7187544000000008,0.0196325999999999,0,sub_21
0.0278421999999997,0.0104308000000012,-0.004989,-0.0974291999999993,0.6957068000000007,0.0176173999999999,0,sub_21
0.0253217999999997,0.0082364000000012,-0.0031364,-0.0936383999999993,0.6757022000000007,0.0086964,0,sub_21
0.0223467999999997,0.0065108000000012,-0.0006338,-0.0938775999999993,0.6561576000000008,-0.0051671999999999,0,sub_21
0.0217843999999997,0.0068156000000012,0.0067713999999999,-0.0960229999999993,0.6402398000000007,-0.0186213999999999,0,sub_21
0.0189149999999997,0.0064368000000012,0.0150543999999999,-0.1029103999999993,0.6147468000000007,-0.0310281999999999,0,sub_21
0.0179091999999997,0.0050414000000012,0.0165003999999999,-0.1130375999999993,0.5762858000000006,-0.0477137999999999,0,sub_21
0.0198269999999997,0.0069422000000012,0.0164183999999999,-0.1209805999999993,0.5448198000000006,-0.0596921999999999,0,sub_21
0.0217413999999997,0.0102240000000012,0.0171567999999999,-0.1258943999999993,0.5269616000000007,-0.067394,0,sub_21
0.0191709999999997,0.0113220000000012,0.0133315999999999,-0.1259031999999993,0.5116302000000006,-0.0718602,0,sub_21
0.0188019999999997,0.0120602000000012,0.0066307999999999,-0.1199205999999993,0.5011738000000008,-0.0752224,0,sub_21
0.0215777999999997,0.0140844000000012,0.0023943999999999,-0.1079403999999993,0.4998416000000006,-0.0744952,0,sub_21
0.0218079999999997,0.0152150000000012,-0.0035792,-0.0915519999999993,0.4929570000000007,-0.0720217999999999,0,sub_21
0.0202901999999997,0.0125560000000012,-0.0082702,-0.0711485999999993,0.4768988000000006,-0.0699357999999999,0,sub_21
0.0177111999999997,0.0130168000000012,-0.0107296,-0.0482059999999993,0.4533858000000006,-0.0705999999999999,0,sub_21
0.0175609999999997,0.0131030000000012,-0.009245,-0.0233303999999993,0.4309382000000006,-0.0729611999999999,0,sub_21
0.0144859999999997,0.0112908000000012,-0.0041356,-0.0099559999999993,0.4132182000000007,-0.0754087999999999,0,sub_21
0.0135347999999997,0.0096652000000012,0.0014947999999999,-0.0051259999999993,0.3919120000000007,-0.0794069999999999,0,sub_21
0.0132723999999997,0.0130032000000012,0.0007783999999999,-0.0045559999999993,0.3723250000000007,-0.0834371999999999,0,sub_21
0.0129283999999997,0.0157334000000012,-9.940000000006888e-05,-0.0011737999999993,0.3612506000000007,-0.0874586,0,sub_21
0.0091963999999997,0.0147268000000012,0.0012807999999999,0.0065152000000006,0.3561378000000007,-0.0942349999999999,0,sub_21
0.0106653999999997,0.0139404000000012,0.0046963999999999,0.0176220000000006,0.3493188000000007,-0.1035492,0,sub_21
0.0116921999999997,0.0158414000000012,0.0021713999999999,0.0291162000000006,0.3384316000000006,-0.1081551999999999,0,sub_21
0.0027365999999997,0.0124148000000012,0.0069789999999999,0.0410804000000006,0.3390402000000007,-0.1108498,0,sub_21
-0.0033184000000002,0.0063284000000012,0.0145707999999999,0.0447980000000006,0.3529006000000007,-0.1170371999999999,0,sub_21
-0.0032698000000002,0.0067220000000012,0.0136389999999999,0.0382554000000006,0.3663562000000007,-0.1196639999999999,0,sub_21
-0.0021434000000002,0.0071506000000012,0.0087311999999999,0.0289198000000006,0.3812898000000007,-0.1165435999999999,0,sub_21
-0.0007062000000002,0.0046058000000012,0.0142817999999999,0.0138894000000006,0.4124296000000007,-0.1119881999999999,0,sub_21
0.0066179999999997,0.0067808000000012,0.0151897999999999,-0.0084551999999993,0.4344174000000007,-0.1034129999999999,0,sub_21
0.0126385999999997,0.0111164000000012,0.0108197999999999,-0.0259815999999993,0.4425158000000007,-0.0888043999999999,0,sub_21
0.0122597999999997,0.0132430000000012,0.0119145999999999,-0.0296759999999993,0.4411956000000007,-0.0751551999999999,0,sub_21
0.0061885999999997,0.0121886000000012,0.0146973999999999,-0.0232853999999993,0.4443470000000006,-0.0695597999999999,0,sub_21
0.0014169999999997,0.0103910000000012,0.0131993999999999,-0.0136855999999993,0.4419776000000007,-0.0714125999999999,0,sub_21
0.0022407999999997,0.0089988000000012,0.0133565999999999,-0.0021375999999993,0.4394138000000007,-0.0796607999999999,0,sub_21
0.0047597999999997,0.0054264000000012,0.0151343999999999,0.0070278000000006,0.4291876000000006,-0.0877021999999999,0,sub_21
0.0107565999999997,0.0016988000000012,0.0111525999999999,0.0044384000000006,0.4213196000000006,-0.0892057999999999,0,sub_21
0.0163253999999997,0.0081710000000012,0.0051893999999999,0.0002348000000006,0.3970100000000006,-0.0802309999999999,0,sub_21
0.0100779999999997,0.0162292000000012,0.0006765999999999,0.0131028000000006,0.3722180000000007,-0.0719907999999999,0,sub_21
-0.0014882000000002,0.0125250000000012,-0.0021162,0.0373468000000006,0.3538122000000007,-0.0722251999999999,0,sub_21
-0.0073640000000002,0.0069314000000013,-0.0021176,0.0503760000000006,0.3508078000000006,-0.0781123999999999,0,sub_21
-0.0077428000000002,0.0049068000000013,-0.0007908,0.0521770000000006,0.3631930000000006,-0.0866613999999999,0,sub_21
-0.0015842000000002,0.0008426000000013,-0.0009202,0.0465358000000006,0.3832664000000007,-0.0933495999999999,0,sub_21
0.0154411999999997,0.0013084000000013,-0.0020334,0.0281648000000006,0.3860704000000007,-0.0860039999999999,0,sub_21
0.0258229999999997,0.0156976000000012,-0.0066378,0.0145718000000006,0.3700686000000007,-0.0685595999999999,0,sub_21
0.0200297999999997,0.0136784000000012,-0.011963,0.0259664000000006,0.3472094000000007,-0.0628957999999999,0,sub_21
0.0112489999999997,0.0096816000000012,-0.010346,0.0412248000000006,0.3222354000000007,-0.0644663999999999,0,sub_21
0.0059079999999997,0.0090508000000012,-0.0074542,0.0522808000000006,0.3062466000000007,-0.0716323999999999,0,sub_21
0.0018281999999997,0.0029402000000012,-0.0086388,0.0678722000000006,0.2958080000000007,-0.0853969999999999,0,sub_21
0.0067755999999997,-0.0069023999999987,-0.0097786,0.0750922000000006,0.2815344000000007,-0.0919511999999999,0,sub_21
0.0151451999999997,0.0027018000000012,-0.0145278,0.0693634000000006,0.2523214000000006,-0.0808443999999999,0,sub_21
0.0167939999999997,0.0061606000000012,-0.0256818,0.0746454000000006,0.2064428000000006,-0.0675027999999999,0,sub_21
0.0115747999999997,0.0035826000000012,-0.0345456,0.0858626000000006,0.1477764000000006,-0.0581625999999999,0,sub_21
0.0085209999999997,9.46000000012723e-05,-0.0394336,0.0900424000000006,0.0889258000000006,-0.0499393999999999,0,sub_21
0.0208989999999997,-0.0038749999999987,-0.0465194,0.0858940000000006,0.0328570000000006,-0.0375051999999999,0,sub_21
0.0426541999999997,-0.0030097999999987,-0.0501018,0.0747326000000006,-0.0435115999999992,-0.0041567999999999,0,sub_21
0.0491785999999997,0.0214904000000012,-0.0478352,0.0753936000000006,-0.1312811999999993,0.0461668,0,sub_21
0.0225821999999997,0.0065288000000012,-0.0509978,0.1080686000000006,-0.1981691999999992,0.0682724,0,sub_21
0.0002549999999997,-0.0137809999999987,-0.051471,0.1343658000000006,-0.2387229999999992,0.0638078,0,sub_21
-0.0118490000000002,-0.0145723999999987,-0.04209,0.1320184000000006,-0.2682537999999993,0.0426792,0,sub_21
-0.0222546000000002,-0.0147019999999987,-0.0363932,0.1289602000000006,-0.2764345999999992,0.0110498,0,sub_21
-0.0188146000000002,-0.0325697999999987,-0.0337408,0.1171652000000006,-0.2864843999999993,-0.0251247999999999,0,sub_21
0.0048951999999997,-0.0117491999999987,-0.0280032,0.0850592000000006,-0.3206685999999993,-0.0289363999999999,0,sub_21
0.0138409999999997,0.0062664000000012,-0.0286238,0.0641324000000006,-0.3658295999999993,-0.0147097999999999,0,sub_21
0.0033231999999997,0.0040770000000012,-0.035702,0.0685590000000006,-0.4089483999999992,0.001827,0,sub_21
0.0003697999999997,0.0003588000000012,-0.0409154,0.0693612000000006,-0.4545983999999993,0.015137,0,sub_21
-0.0013314000000002,0.0071436000000012,-0.0381184,0.0607886000000006,-0.4910787999999993,0.0345654,0,sub_21
-0.0079352000000002,0.0075138000000012,-0.0345666,0.0570174000000006,-0.5117773999999993,0.0458888,0,sub_21
-0.0097758000000002,0.0059480000000012,-0.0304412,0.0646846000000006,-0.5213661999999993,0.0395454,0,sub_21
-0.0107032000000002,0.0028648000000012,-0.0233186,0.0660032000000006,-0.5277025999999992,0.0246076,0,sub_21
-0.0123064000000002,0.0049470000000012,-0.0136402,0.0594596000000006,-0.5225235999999993,0.013873,0,sub_21
-0.0168220000000002,-0.0005349999999987,-0.0080832,0.0561962000000006,-0.5085847999999993,-0.0058227999999999,0,sub_21
-0.0151750000000002,-0.0010703999999987,-0.0020842,0.0462904000000006,-0.4997405999999992,-0.0244903999999999,0,sub_21
-0.0154278000000002,0.0022510000000012,0.0030327999999999,0.0294790000000006,-0.4962463999999992,-0.0312353999999999,0,sub_21
-0.0140650000000002,0.0082954000000012,0.0085619999999999,0.0226924000000006,-0.4870611999999992,-0.0312945999999999,0,sub_21
-0.0220576000000002,0.0102314000000012,0.0130051999999999,0.0241262000000006,-0.4608285999999992,-0.0392229999999999,0,sub_21
-0.0237186000000002,0.0094096000000012,0.0130189999999999,0.0260230000000006,-0.4279869999999993,-0.0486521999999999,0,sub_21
-0.0226572000000002,0.0073986000000012,0.0131133999999999,0.0242704000000006,-0.3947277999999993,-0.0527663999999999,0,sub_21
-0.0220624000000002,0.0051996000000012,0.0152597999999999,0.0147980000000006,-0.3621123999999992,-0.0490285999999999,0,sub_21
-0.0266606000000002,0.0033342000000012,0.0152147999999999,0.0025614000000006,-0.3256593999999992,-0.0436059999999999,0,sub_21
-0.0285508000000002,0.0014920000000012,0.0113379999999999,-0.0059961999999993,-0.2859899999999992,-0.0464939999999999,0,sub_21
-0.0267442000000002,0.0013106000000012,0.0101807999999999,-0.0143287999999993,-0.2465231999999992,-0.0521575999999999,0,sub_21
-0.0192786000000002,0.0039668000000012,0.0082303999999999,-0.0209533999999993,-0.2028175999999992,-0.0537553999999999,0,sub_21
-0.0103754000000002,0.0099144000000012,0.0095911999999999,-0.0291463999999993,-0.1682977999999992,-0.0478749999999999,0,sub_21
-0.0037050000000002,0.0133502000000012,0.0118677999999999,-0.0329267999999993,-0.1446763999999992,-0.0376767999999999,0,sub_21
-0.0049870000000002,0.0139558000000012,0.0180999999999999,-0.0342089999999993,-0.1336391999999993,-0.0261629999999999,0,sub_21
-0.0124308000000002,0.0105828000000012,0.0190829999999999,-0.0356413999999993,-0.1159667999999992,-0.0221363999999999,0,sub_21
-0.0177604000000002,0.0076574000000012,0.0182275999999999,-0.0419265999999993,-0.0929235999999992,-0.0249871999999999,0,sub_21
-0.0194694000000002,0.0081044000000012,0.0204545999999999,-0.0500553999999993,-0.0547393999999992,-0.0297929999999999,0,sub_21
-0.0227034000000002,0.0088054000000012,0.0247453999999999,-0.0604833999999993,-0.0073795999999992,-0.0361221999999999,0,sub_21
-0.0249114000000002,0.0077646000000012,0.0243739999999999,-0.0675125999999993,0.0363472000000007,-0.0426367999999999,0,sub_21
-0.0268876000000002,0.0086064000000012,0.0255427999999999,-0.0694343999999993,0.0798320000000007,-0.0463377999999999,0,sub_21
-0.0302590000000002,0.0079538000000012,0.0287945999999999,-0.0674789999999993,0.1299140000000007,-0.0515157999999999,0,sub_21
-0.0313988000000002,0.0058982000000012,0.0320357999999999,-0.0652441999999993,0.1868444000000007,-0.0646054,0,sub_21
-0.0307908000000002,0.0056342000000012,0.0305331999999999,-0.0692641999999993,0.2322780000000007,-0.0743056,0,sub_21
-0.0295934000000002,0.0052256000000012,0.0295047999999999,-0.0784023999999993,0.2811272000000007,-0.0812686,0,sub_21
-0.0274482000000002,0.0033542000000012,0.0288755999999999,-0.0937561999999993,0.3244560000000007,-0.0876271999999999,0,sub_21
-0.0242454000000002,0.0030284000000012,0.0275107999999999,-0.1115145999999993,0.3584050000000006,-0.0905719999999999,0,sub_21
-0.0230608000000002,0.0053584000000012,0.0176543999999999,-0.1227513999999993,0.3784554000000006,-0.0866169999999999,0,sub_21
-0.0195182000000002,0.0063882000000012,0.0088201999999999,-0.1237089999999993,0.4046568000000006,-0.0847345999999999,0,sub_21
-0.0139374000000002,0.0080776000000012,0.0040959999999999,-0.1232083999999993,0.4233946000000005,-0.0824049999999999,0,sub_21
-0.0094184000000002,0.0104320000000012,0.0024285999999999,-0.1250855999999993,0.4399914000000006,-0.0753889999999999,0,sub_21
-0.0044330000000002,0.0118118000000012,-0.0008808,-0.1274241999999993,0.4497686000000006,-0.0675129999999999,0,sub_21
-0.0011674000000002,0.0107050000000012,-0.001366,-0.1319185999999993,0.4518942000000006,-0.0624195999999999,0,sub_21
0.0005503999999997,0.0100264000000012,-0.001595,-0.1402679999999993,0.4502010000000006,-0.0579891999999999,0,sub_21
0.0015895999999997,0.0099536000000012,-0.0020668,-0.1458387999999993,0.4487146000000006,-0.0543941999999999,0,sub_21
0.0041601999999997,0.0105274000000012,-0.0061602,-0.1450303999999993,0.4401834000000006,-0.0528821999999999,0,sub_21
0.0064855999999997,0.0109464000000012,-0.0062876,-0.1395583999999993,0.4260914000000007,-0.0500485999999999,0,sub_21
0.0072173999999997,0.0118598000000012,-0.005271,-0.1283395999999993,0.4117544000000007,-0.0441835999999999,0,sub_21
0.0080439999999997,0.0117608000000012,-0.0044704,-0.1135041999999993,0.3940002000000006,-0.0393569999999999,0,sub_21
0.0099015999999997,0.0088504000000012,-0.0032864,-0.1039591999999993,0.3768980000000007,-0.0356349999999999,0,sub_21
0.0103559999999997,0.0093402000000012,-0.0023152,-0.0963181999999993,0.3610904000000007,-0.0342779999999999,0,sub_21
0.0106097999999997,0.0098498000000012,-0.0024766,-0.0873979999999993,0.3442164000000006,-0.0337653999999999,0,sub_21
0.0115185999999997,0.0094068000000012,-0.0006382,-0.0776253999999993,0.3250044000000007,-0.0353801999999999,0,sub_21
0.0132819999999997,0.0094558000000012,-0.0011896,-0.0651055999999993,0.3019390000000007,-0.0348343999999999,0,sub_21
0.0148929999999997,0.0105868000000012,-0.004147,-0.0498721999999993,0.2752452000000006,-0.0325573999999999,0,sub_21
0.0164565999999997,0.0091214000000012,-0.005747,-0.0372127999999993,0.2470630000000007,-0.0288009999999999,0,sub_21
0.0173867999999997,0.0089876000000012,-0.0065016,-0.0275357999999993,0.2216540000000006,-0.0233595999999999,0,sub_21
0.0156087999999997,0.0112834000000012,-0.0097102,-0.0165879999999993,0.1936856000000007,-0.0183333999999999,0,sub_21
0.0151181999999997,0.0086978000000012,-0.0092876,-0.0077355999999993,0.1685176000000007,-0.0190937999999999,0,sub_21
0.0153499999999997,0.0089046000000012,-0.00806,-0.0046519999999993,0.1418774000000007,-0.0196789999999999,0,sub_21
0.0154923999999997,0.0102324000000012,-0.006582,-0.0024341999999993,0.1152290000000007,-0.0174927999999999,0,sub_21
0.0112051999999997,0.0092408000000012,-0.0082784,0.0008802000000006,0.0919986000000007,-0.0185081999999999,0,sub_21
0.0095377999999997,0.0068748000000012,-0.0068444,-0.0011235999999993,0.0719844000000007,-0.0199919999999999,0,sub_21
0.0066165999999997,0.0099418000000012,-0.0060402,-0.0054907999999993,0.0521760000000007,-0.0176471999999999,0,sub_21
