userAcceleration.x,userAcceleration.y,userAcceleration.z,rotationRate.x,rotationRate.y,rotationRate.z,label,subject
-0.0119346000000002,-0.0048769999999987,0.0234165999999999,-0.0713495999999993,0.2917938000000007,0.0115302,0,sub_21
-0.0031398000000002,-0.0067633999999987,0.0086883999999999,-0.0963241999999993,0.3224070000000008,-0.0034249999999999,0,sub_21
0.0073041999999997,-0.0118861999999987,-0.0008618,-0.1197261999999993,0.3369800000000008,-0.0044617999999999,0,sub_21
0.0058755999999997,-0.0092595999999987,-0.0081424,-0.1295689999999993,0.3369896000000008,0.0016652,0,sub_21
-0.0081652000000002,-0.0077289999999987,-0.0118938,-0.1193539999999993,0.3326860000000008,0.0034512,0,sub_21
-0.0247742000000002,-0.0064737999999987,-0.0157794,-0.1046025999999993,0.3445434000000008,0.0090938,0,sub_21
-0.0304374000000002,-0.0086559999999987,-0.019508,-0.1002449999999993,0.3681630000000008,0.012726,0,sub_21
-0.0316538000000002,-0.0076915999999987,-0.0244208,-0.1069655999999994,0.3890780000000007,0.0096612,0,sub_21
-0.0241298000000002,-0.0049039999999987,-0.0254618,-0.1256531999999993,0.4153236000000008,0.0159064,0,sub_21
-0.0079058000000002,-0.0029381999999987,-0.0193518,-0.1469961999999993,0.4285494000000008,0.0302682,0,sub_21
0.0025605999999997,0.0055902000000012,-0.0119556000000001,-0.1641963999999994,0.4125780000000008,0.0432008,0,sub_21
-0.0005396000000002,0.0123832000000012,0.0040889999999998,-0.1726741999999994,0.3931578000000008,0.0585488,0,sub_21
-0.0065184000000002,0.0142642000000012,0.0174165999999998,-0.1731871999999993,0.3941436000000008,0.0788402,0,sub_21
-0.0105594000000002,0.0080922000000012,0.0280623999999998,-0.1689417999999994,0.3932602000000008,0.0829302,0,sub_21
-0.0112172000000002,0.0096200000000012,0.0274927999999999,-0.1684995999999993,0.3943334000000008,0.0805818,0,sub_21
-0.0098756000000002,0.0174660000000012,0.0321409999999999,-0.1662261999999993,0.3821642000000008,0.0848862,0,sub_21
-0.0109124000000002,0.0201180000000012,0.0350971999999999,-0.1524547999999994,0.3750262000000008,0.099733,0,sub_21
-0.0088858000000002,0.0144960000000012,0.0358681999999998,-0.1314075999999993,0.3655474000000008,0.1075834,0,sub_21
-0.0011018000000002,0.0153546000000012,0.0219219999999998,-0.1188781999999993,0.3531430000000007,0.1085413999999999,0,sub_21
0.0009673999999997,0.0200314000000012,0.0175775999999998,-0.1116609999999993,0.3416256000000008,0.1054019999999999,0,sub_21
0.0027357999999997,0.0145450000000012,0.0092941999999999,-0.1025071999999993,0.3309648000000008,0.0994973999999999,0,sub_21
0.0162715999999997,0.0041914000000012,-0.0050732,-0.0905957999999993,0.3026672000000007,0.0795342,0,sub_21
0.0334729999999997,0.0028262000000012,-0.0223008,-0.0859369999999993,0.2678184000000008,0.0524785999999999,0,sub_21
0.0416581999999997,0.0009352000000012,-0.0269008,-0.0782851999999993,0.2418766000000007,0.0331236,0,sub_21
0.0490725999999997,-0.0061363999999987,-0.0353632,-0.0617407999999993,0.2071420000000007,0.020465,0,sub_21
0.0585423999999997,-0.0095023999999987,-0.0478678,-0.0524769999999993,0.1658314000000008,0.0069094,0,sub_21
0.0621815999999997,-0.0011369999999987,-0.0569558,-0.0603607999999993,0.1155990000000007,0.0015776,0,sub_21
0.0631915999999997,0.0053422000000012,-0.059812,-0.0636701999999993,0.0542092000000008,0.011888,0,sub_21
0.0624791999999997,0.0062772000000012,-0.0600812,-0.0574323999999993,-0.0121431999999991,0.0295354,0,sub_21
0.0580407999999997,0.0097578000000012,-0.064533,-0.0545423999999993,-0.0654807999999992,0.0454336,0,sub_21
0.0462411999999997,0.0183318000000012,-0.0614078,-0.0523707999999993,-0.0945041999999991,0.0555274,0,sub_21
0.0276851999999997,0.0215836000000012,-0.0498158,-0.0407031999999993,-0.1077621999999991,0.0575488,0,sub_21
0.0097449999999997,0.0145098000000012,-0.0372574,-0.0251327999999993,-0.1182195999999992,0.0484842,0,sub_21
0.0015879999999997,0.0101098000000012,-0.0298614,-0.0184501999999993,-0.1209407999999992,0.0305884,0,sub_21
0.0091829999999997,0.0130644000000012,-0.0247848,-0.0188147999999993,-0.1221569999999992,0.0154186,0,sub_21
0.0206491999999997,0.0136526000000012,-0.0258868,-0.0221035999999993,-0.1464151999999992,0.0107264,0,sub_21
0.0305997999999997,0.0185556000000012,-0.0304732,-0.0268213999999993,-0.1941429999999992,0.0156684,0,sub_21
0.0350219999999997,0.0237376000000012,-0.0341918,-0.0275337999999993,-0.2489309999999992,0.024493,0,sub_21
0.0288557999999997,0.0254068000000012,-0.0329664,-0.0209607999999993,-0.2990779999999992,0.0350864,0,sub_21
0.0122619999999997,0.0205028000000012,-0.0275114,-0.0155375999999993,-0.3193965999999992,0.0464882,0,sub_21
-0.0021432000000002,0.0154822000000012,-0.0175616,-0.0093851999999993,-0.3209643999999992,0.056803,0,sub_21
-0.0084594000000002,0.0075664000000012,-0.0098452,-0.0042755999999993,-0.3163533999999992,0.067957,0,sub_21
-0.0117904000000002,0.0049698000000012,-0.0047202,-0.0057403999999993,-0.3038319999999991,0.0779868,0,sub_21
-0.0082316000000002,0.0017900000000012,-0.0044542,-0.0104375999999993,-0.2966033999999992,0.0858496,0,sub_21
-0.0020400000000002,0.0006348000000012,-0.0082862,-0.0156341999999993,-0.3106579999999992,0.0886088,0,sub_21
0.0065017999999997,0.0006980000000012,-0.0174692,-0.0237911999999993,-0.3240417999999992,0.0860052,0,sub_21
0.0131047999999997,0.0017772000000012,-0.0334464,-0.0345287999999993,-0.3414663999999991,0.083816,0,sub_21
0.0235331999999997,0.0046366000000012,-0.043218,-0.0595359999999993,-0.3855329999999992,0.0965166,0,sub_21
0.0352255999999997,0.0163150000000012,-0.0493418,-0.0829645999999993,-0.4524251999999992,0.1150258,0,sub_21
0.0604333999999997,0.0346352000000012,-0.0311918,-0.0878341999999993,-0.5592581999999993,0.1422614,0,sub_21
0.0810383999999997,0.0421302000000012,-0.0140286,-0.0188499999999993,-0.6818157999999992,0.148455,0,sub_21
0.0783125999999997,0.0399958000000012,-0.0134464,0.0700842000000006,-0.7918281999999992,0.1436626,0,sub_21
0.0658453999999997,0.0334852000000012,-0.0230338,0.1332666000000006,-0.8932037999999991,0.1324834,0,sub_21
0.0673933999999997,0.0282438000000012,-0.0190454,0.1670314000000006,-0.9853269999999992,0.1240777999999999,0,sub_21
0.0607015999999997,0.0265616000000012,-0.0302762,0.1822792000000005,-1.024952199999999,0.1101346,0,sub_21
0.0516905999999997,0.0275322000000012,-0.0357098,0.1279676000000006,-1.0420533999999992,0.1181094,0,sub_21
0.0503639999999997,0.0223468000000012,-0.0183382,0.0553606000000006,-1.0501293999999992,0.12274,0,sub_21
0.0525025999999997,0.0213128000000012,0.0044427999999999,0.0312744000000006,-1.0462031999999992,0.1208574,0,sub_21
0.0442519999999997,0.0266350000000012,0.0160117999999999,0.0453760000000006,-1.0455987999999992,0.1173232,0,sub_21
0.0289119999999997,0.0227446000000012,0.0183305999999999,0.0644754000000006,-1.0330481999999992,0.1056902,0,sub_21
0.0069731999999997,0.0095932000000012,0.0203475999999999,0.0739456000000006,-0.9854969999999992,0.0875355999999999,0,sub_21
-0.0022748000000002,0.0073338000000012,0.0262967999999999,0.0717484000000006,-0.9164119999999992,0.0756811999999999,0,sub_21
-0.0099976000000002,0.0045378000000012,0.0363483999999999,0.0546660000000006,-0.8342855999999992,0.0654154,0,sub_21
-0.0245096000000002,-0.0001987999999987,0.0445585999999999,0.0352548000000005,-0.7421611999999993,0.0611024,0,sub_21
-0.0400880000000002,-0.0069305999999987,0.0549143999999999,0.0209214000000006,-0.6568833999999992,0.059611,0,sub_21
-0.0477968000000002,-0.0043207999999987,0.0616345999999999,0.0168222000000006,-0.5720725999999992,0.0594735999999999,0,sub_21
-0.0512678000000002,-0.0044585999999987,0.0604651999999999,0.0170212000000006,-0.4842787999999992,0.055517,0,sub_21
-0.0490358000000002,0.0033990000000012,0.0586349999999999,0.0144952000000006,-0.3847605999999992,0.0523808,0,sub_21
-0.0452482000000002,0.0034648000000012,0.0565107999999999,0.0001756000000006,-0.2562033999999992,0.0435704,0,sub_21
-0.0405290000000002,-0.0024487999999987,0.0536891999999999,-0.0161563999999993,-0.1423631999999992,0.0405331999999999,0,sub_21
-0.0349108000000002,-0.0032503999999987,0.0450591999999999,-0.0348119999999993,-0.0679413999999991,0.0403076,0,sub_21
-0.0299748000000002,0.0031886000000012,0.0419345999999999,-0.0496489999999993,0.0036888000000007,0.0422486,0,sub_21
-0.0274250000000002,0.0034966000000012,0.0384927999999999,-0.0580213999999993,0.0846896000000008,0.0395226,0,sub_21
-0.0256214000000002,0.0010732000000012,0.0348587999999999,-0.0606777999999993,0.1509884000000007,0.0321552,0,sub_21
-0.0216380000000002,0.0032736000000012,0.0289921999999999,-0.0666095999999993,0.2011048000000007,0.0252128,0,sub_21
-0.0119224000000002,0.0046654000000012,0.0259547999999999,-0.0696615999999993,0.2358368000000008,0.026856,0,sub_21
-0.0004538000000002,0.0035820000000012,0.0200399999999999,-0.0667077999999993,0.2413138000000008,0.0399018,0,sub_21
0.0076413999999997,0.0024930000000012,0.0139345999999999,-0.0590585999999993,0.2081770000000007,0.0615758,0,sub_21
0.0086937999999997,0.0121488000000012,0.0023687999999999,-0.0512955999999993,0.1528818000000008,0.0832788,0,sub_21
0.0041825999999997,0.0125474000000012,-0.005254,-0.0441037999999993,0.1014698000000007,0.0934362,0,sub_21
-0.0049260000000002,0.0066802000000012,-0.0080404,-0.0316105999999993,0.0794838000000007,0.0929108,0,sub_21
-0.0150998000000002,0.0042802000000012,-0.0050998,-0.0239081999999993,0.0741706000000007,0.0829302,0,sub_21
-0.0212368000000002,0.0029214000000012,-0.0045514,-0.0197601999999993,0.0818792000000007,0.0697034,0,sub_21
-0.0229452000000002,-0.0037379999999987,-0.0011228,-0.0116089999999993,0.0871944000000007,0.0654808,0,sub_21
-0.0213404000000002,-0.0064795999999987,0.0006289999999999,-0.0072345999999993,0.0715936000000007,0.0736498,0,sub_21
-0.0153912000000002,-0.0044333999999987,-0.0002358,-0.0130353999999993,0.0310700000000008,0.0894707999999999,0,sub_21
-0.0092198000000002,-0.0052883999999987,-0.004274,-0.0230053999999993,-0.0273665999999992,0.112977,0,sub_21
-0.0076508000000002,0.0043570000000012,-0.0056102,-0.0288961999999993,-0.0817635999999992,0.1350108,0,sub_21
-0.0098488000000002,0.0004782000000012,0.0008557999999999,-0.0325995999999993,-0.1331493999999992,0.148083,0,sub_21
-0.0112584000000002,0.0072684000000012,0.0016531999999999,-0.0160887999999993,-0.1534843999999992,0.1574112,0,sub_21
-0.0152502000000002,0.0080334000000012,0.0012715999999999,-0.0007505999999993,-0.1610163999999992,0.159252,0,sub_21
-0.0213924000000002,0.0059426000000012,0.0021065999999999,0.0187596000000006,-0.1504205999999992,0.15298,0,sub_21
-0.0260822000000002,0.0036292000000012,0.0016191999999999,0.0391214000000006,-0.1400415999999991,0.146928,0,sub_21
-0.0229376000000002,0.0049942000000012,-0.0070856,0.0580566000000005,-0.1090143999999992,0.146608,0,sub_21
-0.0206576000000002,-0.0029395999999987,-0.0060308,0.0503994000000005,-0.1066609999999991,0.1472072,0,sub_21
-0.0191528000000002,-0.0041281999999987,-0.0030486,0.0504012000000006,-0.1013541999999991,0.1521142,0,sub_21
-0.0138548000000002,0.0023374000000012,-0.0018502,0.0545968000000006,-0.1143771999999991,0.1551512,0,sub_21
-0.0066104000000002,-5.9199999998746367e-05,-0.0006388,0.0593844000000006,-0.1384795999999992,0.1577792,0,sub_21
-0.0003978000000002,-0.0003717999999987,0.0062847999999999,0.0540286000000006,-0.1885375999999992,0.1599424,0,sub_21
0.0018315999999997,0.0015930000000012,0.0079473999999999,0.0564376000000006,-0.2175403999999992,0.1646964,0,sub_21
0.0015617999999997,0.0024224000000012,0.0089373999999999,0.0571580000000006,-0.2471577999999992,0.1647394,0,sub_21
-0.0021668000000002,0.0050090000000012,0.0108589999999999,0.0613920000000006,-0.2565393999999992,0.1628582,0,sub_21
-0.0063750000000002,0.0037540000000012,0.0153385999999999,0.0561230000000006,-0.2456405999999991,0.1591756,0,sub_21
-0.0076092000000002,0.0028486000000012,0.0133239999999999,0.0583784000000006,-0.2234709999999991,0.154249,0,sub_21
0.0012895999999997,0.0028918000000012,0.0101595999999999,0.0591260000000006,-0.2027943999999991,0.1510232,0,sub_21
0.0062507999999997,0.0080746000000012,0.0092281999999999,0.0492258000000006,-0.1805761999999991,0.1445161999999999,0,sub_21
0.0156623999999997,0.0023498000000012,0.0037795999999999,0.0359136000000006,-0.1672569999999991,0.1285964,0,sub_21
0.0367243999999997,0.0006850000000012,-0.0008154,0.0271816000000006,-0.1818537999999991,0.1101805999999999,0,sub_21
0.0528885999999997,0.0142448000000012,-0.0026638,0.0170602000000006,-0.2147925999999992,0.0977608,0,sub_21
0.0578655999999997,0.0269820000000012,-0.006672,0.0221462000000006,-0.2744481999999991,0.0933862,0,sub_21
0.0635573999999997,0.0307420000000012,-0.0171164,0.0407098000000006,-0.3646547999999992,0.0983316,0,sub_21
0.0624753999999997,0.0379290000000012,-0.0231956,0.0513508000000006,-0.4520997999999991,0.1121914,0,sub_21
0.0514205999999997,0.0460704000000012,-0.0307082,0.0651228000000005,-0.5037775999999992,0.1298728,0,sub_21
0.0388387999999996,0.0423298000000012,-0.0367502,0.0840160000000005,-0.5124179999999992,0.1430482,0,sub_21
0.0339933999999997,0.0347118000000012,-0.0414322,0.0939452000000005,-0.4824305999999992,0.1477791999999999,0,sub_21
0.0371757999999997,0.0350198000000012,-0.0356326,0.0916206000000006,-0.4249177999999992,0.1528167999999999,0,sub_21
0.0443191999999997,0.0361636000000012,-0.0315002,0.0945736000000005,-0.3746887999999992,0.1632415999999999,0,sub_21
0.0453121999999997,0.0301226000000012,-0.0267496,0.0966502000000006,-0.3355115999999992,0.1676924,0,sub_21
0.0407333999999997,0.0215074000000012,-0.018268,0.0884554000000006,-0.3077839999999992,0.1671722,0,sub_21
0.0269143999999997,0.0182906000000012,-0.0095548,0.0760722000000005,-0.3122037999999992,0.164314,0,sub_21
0.0040825999999997,0.0228802000000012,-0.0062218,0.0848358000000005,-0.3221941999999992,0.1509284,0,sub_21
-0.0124448000000002,0.0128638000000012,-0.0010482,0.0980338000000005,-0.3091333999999992,0.1234436,0,sub_21
-0.0239346000000002,0.0161494000000012,-0.0008014,0.0989146000000005,-0.2741207999999992,0.1048178,0,sub_21
-0.0246918000000002,0.0205140000000012,-0.0051168,0.0827054000000006,-0.2390663999999992,0.0905592,0,sub_21
-0.0186256000000002,0.0247648000000012,-0.0026878,0.0649674000000006,-0.1677733999999992,0.0728252,0,sub_21
-0.0121180000000002,0.0154070000000012,0.0020477999999999,0.0257652000000006,-0.0693789999999992,0.0628112,0,sub_21
-0.0095290000000002,0.0166970000000012,0.0027207999999999,-0.0145623999999993,0.0270574000000007,0.0639016,0,sub_21
0.0011679999999997,0.0115752000000012,0.0128031999999999,-0.0573339999999993,0.0981640000000008,0.0611616,0,sub_21
0.0070541999999997,0.0034128000000012,0.0252533999999999,-0.0875989999999993,0.1553602000000007,0.0630134,0,sub_21
0.0122763999999997,0.0039206000000012,0.0395409999999999,-0.1181643999999993,0.1940182000000007,0.0657414,0,sub_21
0.0088859999999997,0.0036810000000012,0.0483979999999999,-0.1343135999999993,0.2072910000000007,0.0639026,0,sub_21
0.0004177999999997,0.0080984000000012,0.0625171999999999,-0.1430713999999993,0.2054032000000007,0.0640574,0,sub_21
-0.0175986000000002,0.0069026000000012,0.0688933999999999,-0.1351265999999993,0.2164542000000007,0.0640988,0,sub_21
-0.0265958000000002,0.0056752000000012,0.0684169999999999,-0.1247167999999993,0.2441538000000007,0.054522,0,sub_21
-0.0326002000000002,-0.0089607999999987,0.0565889999999999,-0.1085211999999993,0.2756748000000008,0.0432716,0,sub_21
-0.0178022000000002,-0.0020773999999987,0.0459047999999999,-0.1043183999999994,0.2984982000000007,0.0330166,0,sub_21
-0.0029816000000002,-0.0011403999999987,0.0354557999999998,-0.1018139999999993,0.3285500000000008,0.0280818,0,sub_21
0.0089957999999997,-0.0017647999999987,0.0213897999999998,-0.0949275999999993,0.3406736000000008,0.0272598,0,sub_21
0.0078067999999997,0.0101732000000012,0.0067083999999998,-0.0778483999999993,0.3431688000000007,0.0278032,0,sub_21
0.0181371999999996,0.0216368000000012,-0.001223,-0.0686417999999993,0.3454992000000007,0.0231642,0,sub_21
0.0271927999999996,0.0199502000000012,-0.0070654,-0.0547837999999993,0.3405342000000008,0.0243488,0,sub_21
0.0351919999999996,0.0220686000000012,-0.0121044,-0.0406745999999993,0.3048548000000007,0.0339064,0,sub_21
0.0383395999999997,0.0237396000000012,-0.0111666,-0.0212741999999993,0.2570230000000008,0.0409528,0,sub_21
0.0336913999999997,0.0089206000000012,-0.0085208,-0.0027261999999993,0.2019802000000007,0.040525,0,sub_21
0.0276541999999997,0.0038826000000012,-0.0132342,0.0145204000000006,0.1384350000000007,0.0362534,0,sub_21
0.0255579999999997,-0.0022937999999987,-0.019774,0.0216920000000006,0.0672704000000007,0.0310534,0,sub_21
0.0272337999999997,-0.0022009999999987,-0.0314292,0.0181990000000006,-0.0078851999999992,0.0208704,0,sub_21
0.0245899999999997,-0.0011933999999987,-0.0439984,0.0072274000000006,-0.0866315999999992,0.0093578,0,sub_21
0.0313971999999997,0.0053226000000012,-0.0541616,-0.0037737999999994,-0.1681629999999992,0.0016942,0,sub_21
0.0312949999999997,0.0088586000000012,-0.0615058,-0.0077835999999994,-0.2523095999999992,0.0026286,0,sub_21
0.0263137999999997,0.0118428000000012,-0.067111,0.0001968000000005,-0.3258511999999992,0.0051288,0,sub_21
0.0179999999999997,0.0108308000000012,-0.0675986,0.0144818000000005,-0.3768171999999992,0.0042256,0,sub_21
0.0180861999999997,0.0135364000000012,-0.064754,0.0249750000000005,-0.4158429999999992,0.004349,0,sub_21
0.0202015999999997,0.0166354000000012,-0.0556174,0.0358794000000006,-0.4538229999999992,0.0089604,0,sub_21
0.0165227999999997,0.0179964000000012,-0.0445842,0.0551496000000006,-0.4792731999999992,0.0163916,0,sub_21
0.0094529999999997,0.0150754000000012,-0.0318326,0.0713112000000006,-0.4825613999999992,0.0254818,0,sub_21
0.0047031999999997,0.0112376000000012,-0.0152642,0.0708778000000006,-0.4766243999999992,0.0329488,0,sub_21
0.0027293999999997,0.0098160000000012,-0.0037374,0.0607222000000005,-0.4540187999999991,0.0362671999999999,0,sub_21
0.0019349999999997,0.0121550000000012,0.0019901999999999,0.0521198000000005,-0.4184211999999991,0.0393661999999999,0,sub_21
0.0007629999999997,0.0166180000000012,0.0112643999999999,0.0441680000000005,-0.3772991999999991,0.0456671999999999,0,sub_21
-0.0013128000000002,0.0176880000000012,0.0211181999999999,0.0396166000000005,-0.3421427999999992,0.0490086,0,sub_21
0.0012189999999997,0.0151884000000012,0.0267303999999999,0.0414644000000005,-0.3106177999999991,0.0491948,0,sub_21
0.0083069999999997,0.0121932000000012,0.0321381999999999,0.0507362000000005,-0.2918899999999992,0.0464582,0,sub_21
0.0182875999999997,0.0097080000000012,0.0354633999999999,0.0610432000000005,-0.2840163999999993,0.039897,0,sub_21
0.0243753999999997,0.0066432000000012,0.0352231999999999,0.0681152000000005,-0.2867723999999992,0.030336,0,sub_21
0.0250243999999997,0.0089056000000012,0.0297075999999999,0.0732458000000006,-0.2944209999999992,0.020554,0,sub_21
0.0208413999999997,0.0172934000000012,0.0212081999999999,0.0799372000000005,-0.2886463999999992,0.0092702,0,sub_21
0.0205873999999997,0.0219986000000012,0.0127063999999999,0.0857538000000005,-0.2790681999999991,0.0065212,0,sub_21
0.0170729999999997,0.0238088000000012,0.0067787999999999,0.0881614000000005,-0.2626833999999992,0.009508,0,sub_21
0.0188299999999997,0.0225510000000012,0.0001845999999999,0.0935310000000005,-0.2516359999999992,0.012736,0,sub_21
0.0281049999999997,0.0192672000000012,-0.0005258,0.0993390000000005,-0.2395189999999992,0.0144702,0,sub_21
0.0362605999999997,0.0139984000000012,0.0038043999999999,0.1003444000000006,-0.2480653999999992,0.0196156,0,sub_21
0.0257383999999997,0.0103998000000012,0.0079043999999999,0.1007368000000005,-0.2540391999999992,0.021335,0,sub_21
0.0139401999999997,0.0059612000000012,0.0095869999999999,0.1052252000000006,-0.2563821999999992,0.0173102,0,sub_21
0.0045843999999997,0.0027936000000012,0.0122667999999999,0.1051250000000005,-0.2405779999999992,0.007889,0,sub_21
0.0018207999999997,0.0069910000000012,0.0131507999999999,0.1013792000000006,-0.2277481999999992,-0.0004857999999999,0,sub_21
-0.0015566000000002,0.0113720000000012,0.0139379999999999,0.0999576000000005,-0.2126127999999992,-0.0013697999999999,0,sub_21
-0.0016682000000002,0.0127258000000012,0.0232263999999999,0.0988906000000005,-0.2062429999999992,0.005024,0,sub_21
-0.0094840000000002,0.0066472000000012,0.0262795999999999,0.0905412000000005,-0.2011457999999992,0.0162822,0,sub_21
-0.0165478000000002,5.140000000125184e-05,0.0294231999999999,0.0798966000000006,-0.1892039999999992,0.0228154,0,sub_21
-0.0196654000000002,-0.0076097999999987,0.0312771999999999,0.0686838000000006,-0.1663735999999991,0.0242034,0,sub_21
-0.0173690000000002,-0.0102533999999987,0.0280093999999999,0.0627792000000005,-0.1561047999999992,0.018808,0,sub_21
-0.0116054000000002,-0.0103655999999987,0.0191071999999999,0.0635584000000006,-0.1337023999999991,0.010239,0,sub_21
-0.0049072000000002,-0.0013549999999987,0.0158363999999999,0.0645692000000006,-0.1078893999999991,0.0010264,0,sub_21
0.0059963999999997,0.0103314000000012,0.0079121999999999,0.0656772000000006,-0.0997927999999991,-4.439999999999792e-05,0,sub_21
0.0083027999999997,0.0169182000000012,0.0012065999999999,0.0648016000000006,-0.0968387999999991,0.0078506,0,sub_21
0.0053783999999997,0.0166346000000012,-0.0022058,0.0590464000000006,-0.0838693999999991,0.0195442,0,sub_21
0.0040061999999997,0.0157642000000012,-0.0062496,0.0471186000000006,-0.0729865999999991,0.0256426,0,sub_21
0.0113119999999997,0.0125998000000012,-0.0080956,0.0312212000000006,-0.0494947999999992,0.0255014,0,sub_21
0.0151277999999997,0.0127060000000012,-0.0109056,0.0134054000000006,-0.0240849999999992,0.02684,0,sub_21
0.0147663999999997,0.0114794000000012,-0.0133766,-0.0004033999999993,-0.0129483999999992,0.0243792,0,sub_21
0.0150883999999997,0.0111286000000012,-0.0170738,-0.0086351999999993,-0.0062877999999992,0.0142852,0,sub_21
0.0152317999999997,0.0114594000000012,-0.0203916,-0.0143197999999993,-0.0032553999999992,0.0035726,0,sub_21
0.0110609999999997,0.0142634000000012,-0.0165852,-0.0134743999999993,-0.0136897999999992,-0.0017359999999999,0,sub_21
0.0007353999999997,0.0108414000000012,-0.0069004,-0.0102607999999993,-0.0171109999999992,-0.0046869999999999,0,sub_21
-0.0028096000000002,0.0103666000000012,-0.0042572,-0.0059255999999994,-0.0077551999999992,-0.0070055999999999,0,sub_21
-0.0019600000000002,0.0115262000000012,-0.0008548,-0.0056047999999994,0.0186524000000007,-0.0044735999999999,0,sub_21
0.0030991999999997,0.0136024000000012,0.0018263999999999,-0.0067997999999994,0.0452578000000007,0.0031752,0,sub_21
0.0099183999999997,0.0110600000000012,0.0036267999999999,-0.0064961999999993,0.0722866000000007,0.010193,0,sub_21
0.0150923999999997,0.0112036000000012,-0.0033994,-0.0062309999999993,0.0865494000000007,0.012954,0,sub_21
