userAcceleration.x,userAcceleration.y,userAcceleration.z,rotationRate.x,rotationRate.y,rotationRate.z,label,subject
-0.0006184000000001,-0.0004751999999987,0.0011756,0.0016344000000004,0.0137824000000006,-0.0072264,0,sub_13
-0.0021208000000001,0.0002596000000012,0.0013924,0.0003494000000004,0.0129338000000006,-0.0070206,0,sub_13
-0.0036150000000001,-0.0001025999999987,0.0017241999999999,-0.0002861999999995,0.0138350000000006,-0.0066476,0,sub_13
-0.0045584000000001,-2.079999999873797e-05,0.0023299999999999,-0.0002729999999995,0.0160150000000006,-0.0069126,0,sub_13
-0.0063724000000001,0.0002488000000012,0.0013649999999999,0.0005976000000004,0.0173466000000006,-0.0088796,0,sub_13
-0.0070474000000001,0.0014406000000012,-0.000558,0.0020950000000004,0.0150566000000006,-0.0114786,0,sub_13
-0.0047956000000002,0.0014328000000012,-0.0009412,0.0027292000000004,0.0121246000000006,-0.0125874,0,sub_13
-0.0023924000000002,0.0006326000000012,-0.0013839999999999,0.0025072000000004,0.0104202000000006,-0.0123732,0,sub_13
-0.0020928000000002,0.0010566000000012,-0.0008231999999999,0.0022890000000004,0.0099922000000006,-0.0117332,0,sub_13
-0.0014150000000002,0.0023530000000012,3.099999999998666e-05,0.0027042000000004,0.0084950000000006,-0.0106602,0,sub_13
-0.0001162000000002,0.0026780000000012,0.0012653999999999,0.0014062000000004,0.0078588000000006,-0.0087782,0,sub_13
0.0001021999999997,0.0032204000000012,0.0010571999999999,0.0003312000000004,0.0085036000000006,-0.0077508,0,sub_13
-0.0007272000000002,0.0025352000000012,0.0008719999999999,-0.0005379999999995,0.0076554000000006,-0.0065064,0,sub_13
-0.0012604000000002,0.0023606000000012,0.0007255999999999,-0.0005623999999995,0.0046746000000006,-0.0054672,0,sub_13
-0.0013608000000002,0.0020808000000012,0.0017061999999999,-0.0014325999999995,0.0031890000000006,-0.0046494,0,sub_13
-0.0022088000000002,0.0013528000000012,0.0022296,-0.0010153999999995,0.0019058000000006,-0.0037902,0,sub_13
-0.0023460000000002,7.360000000122217e-05,0.0022182,-0.0010181999999995,0.0019032000000006,-0.0031494,0,sub_13
-0.0019046000000002,0.0006210000000012,0.0019188,-0.0016525999999995,0.0025472000000006,-0.0037956,0,sub_13
-0.0012418000000002,0.0012560000000012,0.0009936,-0.0010175999999995,0.0023050000000006,-0.004654,0,sub_13
-0.0007830000000002,0.0011064000000012,0.0001716,-0.0003903999999995,0.0014194000000006,-0.0044434,0,sub_13
-0.0001852000000001,0.0009190000000012,0.0002862,-0.0004003999999995,0.0011754000000006,-0.004238,0,sub_13
-0.0008642000000001,0.0012594000000012,0.0013832,-0.0012533999999995,0.0030656000000006,-0.0042548,0,sub_13
-0.0009170000000001,0.0015760000000012,0.0020198,-0.0010423999999995,0.0047372000000006,-0.0038368,0,sub_13
-0.0008988000000001,0.0010436000000012,0.0020137999999999,-0.0010433999999995,0.0053730000000006,-0.002983,0,sub_13
-0.0022846000000001,0.0009306000000012,0.0014591999999999,-0.0008337999999995,0.0049446000000006,-0.0025536,0,sub_13
-0.0018142000000002,0.0020186000000012,0.0013857999999999,-0.0006319999999995,0.0034482000000006,-0.0014822,0,sub_13
-0.0012818000000002,0.0031232000000012,0.0012421999999999,-1.2999999999543931e-05,3.2000000000621985e-05,-0.0001916,0,sub_13
-0.0014520000000002,0.0035292000000012,0.0012444,-3.9399999999543966e-05,-0.0025691999999993,0.0006717999999999,0,sub_13
0.0002713999999997,0.0028506000000012,0.0014226,-7.059999999956398e-05,-0.0055991999999993,0.0021765999999999,0,sub_13
0.0020851999999997,0.0021756000000012,0.0017856,-0.0009467999999995,-0.0062843999999993,0.0040995999999999,0,sub_13
0.0017207999999997,0.0005626000000012,0.0018742,-0.0018113999999995,-0.0054737999999993,0.0049527999999999,0,sub_13
0.0013645999999998,-0.0008849999999987,0.0011716,-0.0018137999999995,-0.0038097999999993,0.0047423999999999,0,sub_13
0.0011391999999998,-0.0015561999999987,0.000847,-0.0009497999999995,-0.0025301999999993,0.0036783999999999,0,sub_13
-0.0004588000000001,-0.0006617999999987,0.0012372,-0.0007201999999995,-0.0012431999999993,0.0013281999999999,0,sub_13
-0.0005856000000001,0.0003334000000012,0.0016038,-0.0007165999999995,-0.0008629999999993,-0.0014278,0,sub_13
0.0002213999999998,0.0006766000000012,0.000626,0.0005566000000004,-0.0024065999999993,-0.0037452,0,sub_13
0.0014481999999997,0.0014424000000012,0.0009822,0.0018240000000004,-0.0037429999999993,-0.0045674,0,sub_13
0.0031475999999997,0.0023856000000012,0.0011586,0.0020140000000004,-0.0059339999999993,-0.0039004,0,sub_13
0.0040257999999997,0.0030806000000012,0.0016058,0.0007124000000004,-0.0064203999999993,-0.0019642,0,sub_13
0.0043229999999997,0.0020560000000012,0.0016862,-0.0005697999999995,-0.0049321999999993,-5.220000000006851e-05,0,sub_13
0.0030395999999997,0.0018552000000012,0.0010868,-0.0020595999999995,-0.0028015999999993,0.0012163999999999,0,sub_13
0.0012601999999997,0.0016688000000012,0.0008482,-0.0029063999999995,-0.0015193999999993,0.0009951999999999,0,sub_13
-0.0004218000000002,0.0019114000000012,0.000672,-0.0026883999999995,0.0003418000000006,-0.0004648,0,sub_13
0.0002853999999998,8.480000000124187e-05,-0.0006365999999999,-0.0007635999999995,0.0013482000000006,-0.0027664,0,sub_13
0.0006155999999998,4.120000000124189e-05,-0.0008097999999999,0.0009412000000004,0.0010760000000006,-0.0048544,0,sub_13
0.0007553999999998,0.0006174000000012,-0.0001158,0.0022288000000004,0.0027236000000006,-0.0071612,0,sub_13
0.0009127999999997,0.0013810000000012,-0.0009232,0.0030868000000004,0.0039458000000006,-0.0092568,0,sub_13
0.0021727999999997,-9.119999999875816e-05,-0.0008802,0.0028792000000004,0.0043760000000006,-0.0101134,0,sub_13
0.0011155999999997,0.0007000000000012,-4.00000000000133e-05,0.0011790000000004,0.0056610000000006,-0.0103406,0,sub_13
0.0003575999999997,0.0006680000000012,9.740000000000672e-05,0.0007560000000004,0.0067268000000006,-0.0101312,0,sub_13
0.0005071999999997,5.960000000122173e-05,-0.0001079999999999,0.0005392000000004,0.0075292000000006,-0.0096714,0,sub_13
0.0009251999999997,-0.0003347999999987,0.0001714,-0.0001091999999995,0.0072678000000006,-0.0092132,0,sub_13
0.0006245999999997,-9.739999999877824e-05,-0.0005569999999999,-0.0011873999999995,0.0065810000000006,-0.0085438,0,sub_13
0.0011221999999997,-0.0007117999999987,-0.0005923999999999,-0.0009813999999995,0.0067420000000006,-0.0078666,0,sub_13
0.0001357999999997,0.0011876000000012,-0.0008305999999999,-0.0003407999999995,0.0077572000000006,-0.008042,0,sub_13
-0.0007392000000002,0.0035748000000012,-0.0002055999999999,-0.0007665999999995,0.0079718000000006,-0.0080452,0,sub_13
-0.0013366000000002,0.0046712000000012,8.180000000000673e-05,-0.0009789999999995,0.0090344000000006,-0.0071934,0,sub_13
-0.0007690000000002,0.0033308000000012,0.000701,8.880000000047587e-05,0.0113656000000006,-0.0050526,0,sub_13
-0.0021986000000002,0.0034754000000012,0.0008932,0.0009362000000004,0.0119596000000006,-0.0035234,0,sub_13
-0.0028944000000002,0.0021500000000012,0.0011136,0.0009194000000004,0.0097886000000006,-0.002424,0,sub_13
-0.0027004000000002,0.0008534000000012,0.0018912,0.0002636000000004,0.0074086000000006,-0.0017562,0,sub_13
-0.0013810000000002,-0.0011237999999987,0.0022334,-0.0008093999999995,0.0071606000000006,-0.0010942,0,sub_13
-0.0018570000000002,-0.0004373999999987,0.0020346,-0.0022955999999995,0.0073504000000006,-0.0029992,0,sub_13
-0.0019534000000002,8.560000000120145e-05,0.001902,-0.0031395999999995,0.0077864000000006,-0.0047148,0,sub_13
-0.0014242000000002,0.0009142000000012,0.0017156,-0.0029137999999995,0.0092822000000006,-0.005997,0,sub_13
-0.0010234000000002,0.0001266000000012,0.0011161999999999,-0.0022689999999995,0.0099208000000006,-0.0064206,0,sub_13
-0.0011140000000002,0.0003082000000011,0.0009523999999999,-0.0007805999999995,0.0086228000000006,-0.0066072,0,sub_13
-0.0006792000000002,0.0016182000000011,0.0015919999999999,0.0004926000000004,0.0077484000000006,-0.0059412,0,sub_13
0.0004549999999997,0.0024290000000011,0.0011619999999999,6.180000000049593e-05,0.0077312000000006,-0.0050748,0,sub_13
0.0018199999999997,0.0015582000000012,0.0008281999999999,-0.0005919999999995,0.0064330000000005,-0.0033536,0,sub_13
0.0024629999999997,0.0009780000000012,0.0007526,-0.0012409999999995,0.0062002000000006,-0.0016338,0,sub_13
0.0020243999999997,0.0006362000000012,0.0012624,-0.0018847999999995,0.0068356000000006,-0.0001436,0,sub_13
0.0004139999999997,0.0009396000000012,0.0013582,-0.0018847999999995,0.0076844000000006,0.0007097999999999,0,sub_13
-7.560000000021289e-05,0.0007966000000012,0.001746,-0.0008247999999995,0.0068260000000006,0.0013593999999999,0,sub_13
-0.0001326000000002,0.0004374000000012,0.0018012,-0.0010331999999995,0.0078870000000006,0.0015835999999999,0,sub_13
-0.0009278000000001,0.0007260000000012,0.000789,0.0002624000000004,0.0102252000000006,0.0007485999999999,0,sub_13
-0.0020160000000001,0.0018688000000012,0.0004936,0.0019762000000004,0.0106446000000006,-8.100000000006922e-05,0,sub_13
-0.0013288000000002,0.0018116000000012,0.0004926,0.0019628000000004,0.0080812000000006,0.0005765999999999,0,sub_13
-0.0007520000000002,0.0015004000000012,0.0008059999999999,0.0015180000000004,0.0053026000000006,0.0020859999999999,0,sub_13
-0.0002666000000002,0.0018708000000012,0.0007825999999999,0.0008664000000004,0.0040214000000006,0.0033649999999999,0,sub_13
0.0005625999999997,0.0022376000000012,0.0019655999999999,-3.3999999995443056e-06,0.0018878000000006,0.0048571999999999,0,sub_13
0.0003411999999997,0.0033188000000012,0.0015173999999999,-0.0006493999999995,0.0012482000000006,0.0054943999999999,0,sub_13
0.0011993999999997,0.0015038000000012,0.0006281999999999,-0.0006549999999995,0.0003834000000006,0.0057357999999999,0,sub_13
0.0011815999999998,0.0007240000000012,-0.0001379999999999,-0.0004521999999995,-0.0013349999999993,0.0061933999999999,0,sub_13
0.0008849999999998,0.0007356000000012,-0.0002273999999999,-3.319999999952423e-05,-0.0034761999999993,0.0055847999999999,0,sub_13
0.0004301999999998,0.0010898000000012,-0.0003871999999999,-4.259999999952418e-05,-0.0054051999999993,0.0056139999999999,0,sub_13
0.0014013999999997,3.460000000124145e-05,-0.0002293999999999,0.0001604000000004,-0.0069113999999993,0.0062849999999999,0,sub_13
0.0009887999999997,0.0010776000000012,0.000574,0.0003670000000004,-0.0077667999999993,0.0069285999999999,0,sub_13
0.0006783999999997,0.0015744000000012,0.0009604,-5.099999999952421e-05,-0.0069087999999993,0.0058563999999999,0,sub_13
6.659999999978706e-05,0.0018606000000012,0.0018358,-0.0006861999999995,-0.0062655999999993,0.0054239999999999,0,sub_13
0.0004137999999997,0.0012934000000012,0.0012732,-0.0002583999999995,-0.0069281999999993,0.0046041999999999,0,sub_13
0.0003135999999997,0.0005242000000012,0.0007126,-0.0004773999999995,-0.0090799999999993,0.0037819999999999,0,sub_13
0.0009881999999997,0.0006658000000012,0.0008142,-0.0013247999999995,-0.0095217999999993,0.0020985999999999,0,sub_13
0.0013035999999997,0.0005576000000012,0.0009914,-0.0013083999999995,-0.0074107999999993,0.0006315999999999,0,sub_13
0.0015333999999997,-5.7799999998778445e-05,0.0006454,-0.0004355999999995,-0.0048757999999993,-0.0010438,0,sub_13
0.0017157999999997,0.0002372000000012,0.000296,4.600000000475838e-06,-0.0035921999999993,-0.0027514,0,sub_13
0.0032619999999997,0.0005812000000012,0.000419,0.0002208000000004,-0.0031659999999993,-0.0029642,0,sub_13
0.0028893999999997,5.060000000122154e-05,0.0004932,0.0004312000000004,-0.0029569999999993,-0.0021084,0,sub_13
0.0017613999999997,-0.0003359999999987,0.0006275999999999,0.0002202000000004,-0.0025679999999993,-0.001654,0,sub_13
0.0012069999999997,-0.0003057999999987,0.0005837999999999,-0.0002023999999995,-0.0017519999999993,-0.0012016,0,sub_13
0.0004845999999997,-0.0011535999999987,0.0002051999999999,0.0002296000000004,-0.0005137999999993,-0.0005302,0,sub_13
-0.0003180000000002,-0.0014869999999987,0.0006527999999999,0.0002434000000004,0.0015824000000006,-0.000931,0,sub_13
-0.0017346000000002,-0.0005021999999987,0.0003373999999999,0.0002678000000004,0.0051732000000006,-0.0021884,0,sub_13
-0.0021832000000001,0.0004838000000012,0.0005459999999999,0.0013520000000004,0.0079436000000006,-0.0032526,0,sub_13
-0.0023616000000001,0.0012012000000012,-0.0004668,0.0026380000000004,0.0083686000000006,-0.0040988,0,sub_13
-0.0016402000000001,0.0026694000000012,0.0002117999999999,0.0024216000000004,0.0073058000000006,-0.0045264,0,sub_13
-0.0001766000000001,0.0020630000000012,0.0001008,0.0026364000000004,0.0070492000000006,-0.00429,0,sub_13
0.0015343999999998,0.0013616000000012,0.0002482,0.0026262000000004,0.0055100000000005,-0.0027718,0,sub_13
0.0015877999999997,0.0011014000000012,0.0009224,0.0006900000000004,0.0033356000000006,-0.0006254,0,sub_13
0.0021555999999997,0.0003918000000012,0.0021824,-0.0008135999999995,0.0026504000000006,0.0017359999999999,0,sub_13
0.0020285999999997,-0.0007401999999987,0.0021176,-0.0020817999999995,0.0055914000000006,0.0028125999999999,0,sub_13
0.0004625999999997,-0.0009809999999987,0.001585,-0.0024989999999995,0.0072990000000006,0.0023801999999999,0,sub_13
-0.0016622000000002,0.0004006000000012,0.0013506,-0.0007919999999995,0.0062320000000006,0.0013253999999999,0,sub_13
-0.0008444000000001,0.0013468000000012,0.0007749999999999,0.0006938000000004,0.0036736000000006,0.0004845999999999,0,sub_13
-0.0002014000000001,0.0012202000000012,-0.0001964,0.0013328000000004,0.0021476000000006,-0.0003576,0,sub_13
0.0009995999999998,0.0007968000000012,-0.0001776,0.0023946000000004,0.0012534000000006,0.0002977999999999,0,sub_13
0.0010293999999998,0.0019074000000012,0.0007901999999999,0.0021696000000004,0.0001456000000006,0.0022263999999999,0,sub_13
0.0011175999999998,0.0008768000000012,0.0008759999999999,0.0004596000000004,0.0003238000000006,0.0035019999999999,0,sub_13
2.559999999978673e-05,-0.0002517999999987,-0.0001253999999999,-0.0008149999999995,0.0015692000000006,0.0039245999999999,0,sub_13
-0.0009984000000002,-0.0009113999999987,-0.0004437999999999,-0.0014531999999995,0.0015732000000006,0.0034927999999999,0,sub_13
-0.0029396000000002,-0.0007091999999987,0.0002376,-0.0016635999999995,0.0009400000000006,0.0022101999999999,0,sub_13
-0.0038248000000002,-0.0006851999999987,-5.520000000001336e-05,-0.0014463999999995,-0.0001183999999993,0.0002901999999999,0,sub_13
-0.0029918000000002,-0.0001199999999987,0.0003141999999999,-0.0005865999999995,-0.0005509999999993,-0.001209,0,sub_13
-0.0012690000000002,0.0004650000000012,0.0013713999999999,6.260000000047582e-05,-0.0001315999999993,-0.0024972,0,sub_13
-0.0004796000000002,0.0015322000000012,0.0019475999999999,0.0009194000000004,6.980000000064192e-05,-0.0027154,0,sub_13
0.0003773999999997,0.0013940000000012,0.0014771999999999,0.0009132000000004,-0.0007953999999993,-0.00187,0,sub_13
0.0009641999999997,0.0017962000000012,0.0012058,0.0011118000000004,-0.0027299999999993,-0.0001672,0,sub_13
0.0017387999999997,0.0007028000000012,0.001327,2.8600000000475813e-05,-0.0038017999999993,0.0023901999999999,0,sub_13
0.0014261999999997,4.200000001221651e-06,0.0011098,-0.0008419999999995,-0.0050871999999993,0.0049495999999999,0,sub_13
0.0003677999999997,0.0012484000000012,0.0009088,-0.0017059999999995,-0.0059423999999993,0.0064401999999999,0,sub_13
0.0003347999999997,0.0015438000000012,0.0017796,-0.0012871999999995,-0.0074365999999993,0.0072933999999999,0,sub_13
0.0006363999999997,0.0006436000000012,0.00147,-0.0010643999999995,-0.0059437999999993,0.0072867999999999,0,sub_13
0.0001831999999997,0.0012356000000012,0.0010886,-0.0006281999999995,-0.0053005999999993,0.0064283999999999,0,sub_13
-0.0002080000000002,0.0022552000000012,0.0012946,2.2200000000475837e-05,-0.0042329999999993,0.0057845999999999,0,sub_13
0.0009515999999997,0.0012350000000012,0.0014432,0.0008784000000004,-0.0038095999999993,0.0062111999999999,0,sub_13
0.0008369999999997,0.0010694000000012,-0.0002521999999999,0.0004546000000004,-0.0029567999999993,0.0064207999999998,0,sub_13
0.0009489999999997,0.0008970000000012,-0.0006009999999999,2.020000000045584e-05,-0.0035987999999993,0.0074869999999998,0,sub_13
0.0001029999999997,0.0007120000000012,-0.0005305999999999,-0.0004085999999995,-0.0031745999999993,0.0083379999999998,0,sub_13
0.0002561999999997,0.0005346000000012,-0.0009183999999999,-0.0001907999999995,-0.0019053999999993,0.0085523999999998,0,sub_13
-0.0009294000000002,0.0011456000000012,-0.0008265999999999,-0.0008253999999994,-0.0012687999999993,0.0079071999999998,0,sub_13
-0.0010822000000002,0.0012204000000012,-0.0001827999999999,-0.0006131999999994,-0.0023387999999993,0.0070565999999998,0,sub_13
-0.0013422000000002,0.0014416000000012,0.0002202,-0.0006067999999994,-0.0021279999999993,0.0057753999999998,0,sub_13
-0.0007502000000002,0.0018898000000012,-0.0003469999999999,3.800000000049577e-05,-0.0025577999999993,0.0042859999999998,0,sub_13
-0.0008438000000001,0.0021420000000012,-0.0001701999999999,0.0004542000000004,-0.0051149999999993,0.0040785999999998,0,sub_13
0.0001011999999998,0.0023728000000012,0.0012606,0.0006598000000004,-0.0059713999999993,0.0049357999999998,0,sub_13
0.0003131999999998,0.0024728000000012,0.0017156,1.960000000047568e-05,-0.0046959999999993,0.0062115999999999,0,sub_13
0.0003031999999997,0.0019468000000012,0.0017654,-0.0006157999999995,-0.0034293999999993,0.0064177999999999,0,sub_13
-2.4400000000213225e-05,0.0017222000000012,0.0008486,-0.0006131999999995,-0.0028033999999993,0.0064157999999999,0,sub_13
-0.0002718000000002,0.0010624000000012,0.0009364,-0.0006113999999995,-0.0030269999999993,0.0057737999999999,0,sub_13
-0.0001298000000002,0.0003716000000012,0.0005186,-0.0006105999999995,-0.0038879999999993,0.0047053999999999,0,sub_13
-0.0007420000000002,0.0007860000000012,0.0002908,-0.0012391999999995,-0.0032519999999993,0.0027759999999999,0,sub_13
-0.0005924000000002,0.0010174000000012,-0.0006383999999999,-0.0012343999999995,-0.0040965999999993,0.0008543999999999,0,sub_13
0.0004033999999997,0.0015048000000012,-0.0006221999999999,-0.0012371999999995,-0.0057967999999993,-0.0002118,0,sub_13
0.0019217999999997,0.0015758000000012,-0.0013549999999999,-0.0012447999999995,-0.0075011999999993,-0.0002096,0,sub_13
0.0021393999999997,0.0005562000000012,-0.0024677999999999,-0.0010349999999995,-0.0077273999999993,0.0002159999999999,0,sub_13
0.0029295999999997,0.0001006000000012,-0.0023023999999999,-0.0004005999999995,-0.0077445999999993,0.0012853999999999,0,sub_13
0.0028155999999997,0.0012044000000012,-0.0006039999999999,-0.0004061999999995,-0.0079717999999993,0.0021367999999999,0,sub_13
0.0027157999999997,0.0010572000000012,-0.0001052,-0.0016851999999995,-0.0073395999999993,0.0023373999999999,0,sub_13
0.0025361999999997,0.0004408000000012,-2.000000000136875e-07,-0.0023221999999995,-0.0062835999999993,0.0025417999999999,0,sub_13
0.0023927999999997,0.0007018000000012,-0.0005246,-0.0012533999999995,-0.0058611999999993,0.0025485999999999,0,sub_13
0.0019899999999997,0.0004782000000012,5.500000000000643e-05,1.9200000000495903e-05,-0.0073577999999993,0.0027729999999999,0,sub_13
0.0010595999999997,0.0012848000000012,0.0005443999999999,0.0006592000000004,-0.0069355999999993,0.0032041999999999,0,sub_13
-3.040000000021333e-05,0.0016740000000012,0.0018765999999999,0.0006640000000004,-0.0056573999999993,0.0031939999999999,0,sub_13
-0.0006618000000002,0.0013694000000012,0.0016233999999999,-0.0001807999999995,-0.0041607999999993,0.0025365999999999,0,sub_13
-0.0011886000000002,0.0001854000000012,0.0013619999999999,-0.0014531999999995,-0.0028755999999993,0.0018765999999999,0,sub_13
-0.0022578000000002,-0.0002465999999987,0.0005023999999999,-0.0005899999999995,-0.0013839999999993,0.0010173999999999,0,sub_13
-0.0014986000000002,0.0004122000000012,-7.420000000001366e-05,5.900000000045608e-05,0.0001076000000006,0.0003705999999999,0,sub_13
-0.0006620000000002,0.0009486000000012,-0.0005414,0.0011384000000004,0.0024490000000006,-5.2200000000089326e-05,0,sub_13
-0.0003950000000002,0.0009836000000012,0.0005203999999999,0.0013634000000004,0.0047928000000006,-0.0002672,0,sub_13
-0.0010564000000002,0.0028752000000012,0.0014917999999999,-0.0001225999999995,0.0060780000000006,-0.0007066,0,sub_13
-0.0005814000000002,0.0046336000000011,0.0015205999999999,-0.0018185999999995,0.0082232000000006,-0.0011692,0,sub_13
-0.0005180000000002,0.0029928000000011,-2.2599999999993455e-05,-0.0016067999999995,0.0088652000000006,-0.0003348,0,sub_13
0.0005663999999997,0.0023338000000012,0.0001964,-0.0005577999999995,0.0071558000000006,0.0017903999999999,0,sub_13
0.0013725999999997,0.0035278000000012,-1.959999999999341e-05,0.0004912000000004,0.0058706000000006,0.0043423999999999,0,sub_13
0.0021315999999997,0.0021352000000012,-0.0002853999999999,0.0013384000000004,0.0065062000000006,0.0062495999999999,0,sub_13
0.0029719999999997,9.200000001221948e-06,-0.0009247999999999,0.0011222000000004,0.0069288000000006,0.0073157999999999,0,sub_13
0.0022543999999997,5.500000000122195e-05,0.0004004,0.0015556000000004,0.0075700000000005,0.0064633999999999,0,sub_13
0.0002573999999998,0.0003630000000012,0.0009916,0.0011270000000004,0.0060844000000006,0.0053941999999999,0,sub_13
-0.0012472000000001,0.0009410000000012,0.0014122,-0.0005819999999995,0.0041788000000006,0.0038891999999999,0,sub_13
-0.0013362000000001,0.0015202000000012,0.0011624,-0.0014455999999995,0.0012140000000006,0.0030069999999999,0,sub_13
-0.0018948000000001,0.0027438000000012,0.0016112,-0.0023101999999995,-0.0019637999999993,0.0021249999999999,0,sub_13
-0.0015712000000001,0.0031046000000012,0.001257,-0.0033965999999995,-0.0062095999999993,0.0020975999999999,0,sub_13
0.0005163999999997,0.0025638000000012,-1.759999999999351e-05,-0.0038247999999995,-0.0072583999999993,0.0012159999999999,0,sub_13
0.0018297999999997,0.0004756000000012,-0.0014977999999999,-0.0023305999999995,-0.0076755999999993,0.0005605999999999,0,sub_13
0.0023093999999997,0.0002446000000012,-0.0012391999999999,-0.0014799999999995,-0.0081053999999993,0.0007807999999999,0,sub_13
0.0026943999999997,0.0009902000000012,-6.139999999999358e-05,-0.0014875999999995,-0.0083243999999993,0.0022765999999999,0,sub_13
0.0025763999999997,0.0012090000000012,-0.0003373999999999,-0.0027701999999995,-0.0078781999999993,0.0035269999999999,0,sub_13
0.0012225999999997,0.0004818000000012,-0.0001531999999999,-0.0034069999999995,-0.0070047999999993,0.0039265999999999,0,sub_13
0.0003941999999997,0.0008536000000012,1.4800000000006387e-05,-0.0031893999999995,-0.0069821999999993,0.0032651999999999,0,sub_13
-0.0004210000000002,0.0019678000000012,0.0006406,-0.0027591999999995,-0.0078101999999993,0.0019653999999999,0,sub_13
-0.0013822000000002,0.0017418000000012,0.0001064,-0.0023367999999995,-0.0101301999999993,0.0008811999999999,0,sub_13
-0.0011206000000002,0.0014726000000012,0.0011228,-0.0023435999999995,-0.0118337999999993,0.0006695999999999,0,sub_13
-0.0003116000000002,0.0017214000000012,0.001174,-0.0029873999999995,-0.0122593999999993,0.0010929999999999,0,sub_13
0.0006191999999997,0.0014290000000012,0.0017266,-0.0034063999999995,-0.0103413999999993,0.0013011999999999,0,sub_13
0.0020211999999997,0.0004490000000012,0.0011302,-0.0031767999999995,-0.0077553999999993,0.0006399999999999,0,sub_13
0.0025159999999997,-0.0009977999999987,0.0006988,-0.0020927999999995,-0.0055959999999993,-0.0006558,0,sub_13
0.0021753999999997,-0.0014003999999987,0.0009204,-0.0016431999999995,-0.0023681999999993,-0.002171,0,sub_13
0.0013939999999997,-0.0005363999999987,0.00165,-0.0009889999999995,-0.0010585999999993,-0.0036822,0,sub_13
0.0007501999999997,0.0006638000000012,0.001685,-0.0005593999999995,-0.0016681999999993,-0.0045516,0,sub_13
0.0002563999999997,0.0009302000000012,0.0021892,0.0002882000000004,-0.0025249999999993,-0.0041174,0,sub_13
