userAcceleration.x,userAcceleration.y,userAcceleration.z,rotationRate.x,rotationRate.y,rotationRate.z,label,subject
0.0068053999999997,0.0065876000000012,0.0002487999999999,-0.0116963999999993,-0.0124531999999992,-0.0018179999999999,0,sub_21
0.0055361999999997,0.0067780000000012,-7.280000000007314e-05,-0.0106359999999993,-0.0141485999999992,-0.0018011999999999,0,sub_21
0.0035767999999997,0.0073702000000012,0.0029723999999999,-0.0119073999999993,-0.0122147999999992,-0.0015915999999999,0,sub_21
0.0009081999999997,0.0084140000000012,0.0046531999999999,-0.0127635999999993,-0.0132633999999992,-0.0018025999999999,0,sub_21
-0.0009804000000002,0.0089958000000012,0.0034441999999999,-0.0114599999999993,-0.0089915999999992,-0.0024327999999999,0,sub_21
0.0010557999999997,0.0106774000000012,0.0021893999999999,-0.0063149999999993,-0.0057931999999992,-0.0043165999999999,0,sub_21
0.0032475999999997,0.0116530000000012,6.839999999992685e-05,-0.0028885999999993,-0.0023987999999992,-0.0036559999999999,0,sub_21
0.0049023999999997,0.0106614000000012,-0.0003436,-0.0022379999999993,0.0010036000000007,-0.0025876,0,sub_21
0.0065029999999997,0.0104736000000012,-0.0039912,-0.0028771999999993,0.0003702000000007,-0.0034458,0,sub_21
0.0086031999999997,0.0112318000000012,-0.0039492,-0.0037247999999993,-0.0022261999999992,-0.0042896,0,sub_21
0.0076545999999997,0.0110152000000012,-0.0038008,-0.0030959999999993,-0.0069653999999992,-0.0034114,0,sub_21
0.0064903999999997,0.0097104000000012,-0.0013946,-0.0007651999999993,-0.0138367999999992,-0.0035866,0,sub_21
0.0066133999999997,0.0084128000000012,-0.0029966,0.0036842000000006,-0.0249731999999992,-0.0045961999999999,0,sub_21
0.0061565999999997,0.0064430000000012,-0.0006642,0.0032644000000006,-0.0271459999999992,-0.0052239999999999,0,sub_21
0.0053597999999997,0.0059236000000012,0.0007197999999999,0.0004848000000006,-0.0288389999999992,-0.0056685999999999,0,sub_21
0.0035403999999997,0.0069700000000013,0.0020953999999999,-0.0024995999999993,-0.0279771999999992,-0.0054767999999999,0,sub_21
0.0021725999999997,0.0090422000000013,0.0017017999999999,-0.0022851999999993,-0.0279769999999991,-0.0056889999999999,0,sub_21
0.0010461999999997,0.0096682000000012,0.0029801999999999,0.0009588000000006,-0.0273973999999992,-0.0067249999999999,0,sub_21
-0.0016618000000002,0.0091212000000013,0.0050427999999999,0.0039954000000006,-0.0246897999999992,-0.0069105999999999,0,sub_21
-0.0044440000000002,0.0079682000000013,0.0071323999999999,0.0046876000000006,-0.0215471999999991,-0.0073267999999999,0,sub_21
-0.0071552000000002,0.0076652000000013,0.0075313999999999,0.0026052000000006,-0.0183955999999991,-0.0075487999999999,0,sub_21
-0.0092398000000002,0.0070596000000013,0.0073835999999999,0.0007418000000006,-0.0143909999999992,-0.0081975999999999,0,sub_21
-0.0112390000000002,0.0094642000000013,0.0055503999999999,-0.0009219999999993,-0.0035243999999992,-0.0069411999999999,0,sub_21
-0.0124608000000002,0.0100388000000012,0.0057899999999999,0.0014652000000006,0.0069010000000007,-0.0054423999999999,0,sub_21
-0.0124842000000002,0.0104222000000012,0.0050181999999999,0.0034354000000006,0.0186096000000007,-0.0048025999999999,0,sub_21
-0.0113994000000002,0.0093272000000012,0.0068857999999999,0.0043484000000006,0.0311792000000007,-0.0054531999999999,0,sub_21
-0.0106442000000002,0.0075116000000012,0.0071829999999999,0.0044780000000006,0.0447226000000007,-0.0046069999999999,0,sub_21
-0.0112846000000002,0.0085406000000012,0.0058637999999999,0.0052284000000006,0.0540026000000007,-0.0037509999999999,0,sub_21
-0.0098210000000002,0.0102054000000012,0.0035763999999999,0.0067988000000006,0.0560348000000007,-0.0026663999999999,0,sub_21
-0.0098326000000002,0.0095152000000012,0.0052851999999999,0.0094562000000006,0.0633864000000007,-0.0007263999999999,0,sub_21
-0.0102626000000002,0.0085050000000012,0.0047917999999999,0.0112714000000006,0.0726610000000007,0.0005644,0,sub_21
-0.0110352000000002,0.0086892000000012,0.0050205999999999,0.0085406000000006,0.0822580000000007,0.000533,0,sub_21
-0.0089510000000002,0.0074286000000012,0.0043143999999999,0.0062272000000006,0.0873888000000007,-0.0018399999999999,0,sub_21
-0.0048454000000002,0.0072666000000012,0.0037197999999999,0.0044230000000006,0.0954128000000007,-0.0035625999999999,0,sub_21
-0.0004756000000002,0.0075474000000012,0.0024959999999999,0.0047066000000006,0.0951126000000007,-0.0033371999999999,0,sub_21
0.0021011999999997,0.0087754000000012,0.0001457999999999,0.0070856000000006,0.0867072000000007,-0.0026595999999999,0,sub_21
0.0051295999999997,0.0095292000000012,-0.0008916,0.0109542000000006,0.0772322000000007,-0.0021837999999999,0,sub_21
0.0061953999999997,0.0086182000000012,-0.000644,0.0146028000000006,0.0677520000000007,-0.0002139999999999,0,sub_21
0.0058047999999997,0.0077780000000012,-0.0014946,0.0162456000000006,0.0549570000000007,0.0013094,0,sub_21
0.0036891999999997,0.0074948000000012,-0.0022578,0.0132036000000006,0.0428234000000007,0.0013036,0,sub_21
0.0021463999999997,0.0057572000000012,-0.0003932,0.0084844000000006,0.0364516000000007,0.0004242,0,sub_21
0.0004325999999997,0.0056536000000012,-0.0006714,0.0070218000000006,0.0306570000000007,0.000222,0,sub_21
-0.0002596000000002,0.0076166000000012,-0.0005928,0.0062068000000006,0.0282624000000007,0.0017292,0,sub_21
-0.0018240000000002,0.0091934000000012,-0.000546,0.0075352000000006,0.0277786000000007,0.0030352,0,sub_21
-0.0012504000000002,0.0087566000000012,-0.000834,0.0086676000000005,0.0307060000000007,0.0039081999999999,0,sub_21
-0.0004794000000002,0.0091628000000012,-0.0023322,0.0089686000000005,0.0385368000000007,0.0047691999999999,0,sub_21
-0.0004042000000002,0.0091264000000012,-0.0017522,0.0064206000000005,0.0419522000000007,0.0053879999999999,0,sub_21
0.0006309999999997,0.0078270000000012,-0.002577,0.0042754000000005,0.0389786000000007,0.0049495999999999,0,sub_21
0.0020499999999997,0.0082134000000012,-0.006825,0.0019226000000006,0.0389816000000007,0.0062149999999999,0,sub_21
0.0026935999999997,0.0094062000000012,-0.008652,0.0019544000000006,0.0394190000000007,0.0075181999999999,0,sub_21
0.0048887999999997,0.0090170000000012,-0.0057918,0.0057848000000006,0.0300442000000007,0.0084331999999999,0,sub_21
0.0073625999999997,0.0097762000000012,-0.005299,0.0104726000000006,0.0215184000000007,0.0093532,0,sub_21
0.0071603999999997,0.0105582000000012,-0.005036,0.0130526000000006,0.0181160000000007,0.0096108,0,sub_21
0.0066903999999997,0.0081792000000012,-0.0009942,0.0141370000000006,0.0119586000000007,0.0075114,0,sub_21
0.0074409999999997,0.0076568000000012,0.0017005999999999,0.0134596000000006,0.0006810000000007,0.00453,0,sub_21
0.0050965999999997,0.0083788000000012,0.0017663999999999,0.0091614000000006,-0.0071827999999992,0.0034418,0,sub_21
0.0020725999999997,0.0081286000000012,0.0021973999999999,0.0057388000000006,-0.0099369999999992,0.0025668,0,sub_21
-0.0002196000000002,0.0078584000000012,0.0038915999999999,0.0044858000000006,-0.0092949999999992,0.0006624,0,sub_21
-0.0005632000000002,0.0085860000000012,0.0044205999999999,0.0034596000000006,-0.0056709999999992,-0.0012441999999999,0,sub_21
-0.0004158000000002,0.0091444000000012,0.0031047999999999,0.0018086000000006,0.0028494000000007,-0.0016659999999999,0,sub_21
0.0012021999999997,0.0087304000000012,0.0010957999999999,0.0001500000000006,0.0098776000000007,-0.0018723999999999,0,sub_21
0.0030227999999997,0.0084622000000012,-0.0004768,-0.0013163999999993,0.0117934000000007,-0.0024981999999999,0,sub_21
0.0059349999999997,0.0087588000000012,-0.003428,-0.0030329999999993,0.0098810000000007,-0.0022941999999999,0,sub_21
0.0073533999999997,0.0091958000000012,-0.0059108,-0.0030645999999993,0.0043356000000007,-0.0007917999999999,0,sub_21
0.0078471999999997,0.0084490000000012,-0.0077136,-0.0018255999999993,-0.0029203999999992,0.001149,0,sub_21
0.0077537999999997,0.0090794000000012,-0.0096484,6.36000000006048e-05,-0.0086313999999991,0.0011932,0,sub_21
0.0089517999999997,0.0087604000000012,-0.0093366,-0.0019041999999993,-0.0179507999999991,0.001215,0,sub_21
0.0079671999999997,0.0081280000000012,-0.0101102,-0.0030301999999993,-0.0285565999999992,0.0025264,0,sub_21
0.0067601999999997,0.0084238000000012,-0.0123346,-0.0033151999999993,-0.0419351999999991,0.003847,0,sub_21
0.0074449999999997,0.0092810000000012,-0.0131556,-0.0029675999999993,-0.0570203999999991,0.0051742,0,sub_21
0.0083209999999997,0.0092406000000012,-0.0122426,-0.0062285999999993,-0.0676729999999992,0.0079424,0,sub_21
0.0075313999999997,0.0083498000000012,-0.0110284,-0.0058631999999993,-0.0789757999999992,0.0103096,0,sub_21
0.0078151999999997,0.0079952000000012,-0.0069444,-0.0063549999999993,-0.0928253999999992,0.0109648,0,sub_21
0.0077161999999996,0.0088920000000012,-0.002718,-0.0072983999999993,-0.1051971999999992,0.0126982,0,sub_21
0.0040583999999996,0.0103514000000012,-3.3800000000072745e-05,-0.0069319999999993,-0.1116053999999992,0.0137924,0,sub_21
0.0030313999999997,0.0089438000000012,0.0026393999999999,-0.0052921999999993,-0.1220559999999992,0.0123368,0,sub_21
0.0024355999999997,0.0078578000000012,0.0065443999999999,-0.0089309999999993,-0.1214039999999992,0.0095482,0,sub_21
0.0016571999999997,0.0067406000000012,0.0061247999999999,-0.0117029999999993,-0.1177721999999991,0.0067618,0,sub_21
0.0003967999999997,0.0073442000000012,0.0042209999999999,-0.0116655999999993,-0.1124339999999991,0.0037642,0,sub_21
0.0008885999999997,0.0068570000000012,0.0038381999999999,-0.0088887999999993,-0.1139265999999991,0.001649,0,sub_21
0.0010361999999997,0.0085104000000012,0.0040839999999999,-0.0035533999999993,-0.1143687999999991,0.0010459999999999,0,sub_21
0.0014639999999997,0.0098672000000012,0.0028129999999999,0.0040972000000006,-0.1201521999999991,0.0021749999999999,0,sub_21
0.0002209999999997,0.0108620000000012,0.0060703999999999,0.0076802000000006,-0.1212481999999992,0.0039081999999999,0,sub_21
-0.0019822000000002,0.0086794000000012,0.0103267999999999,0.0087132000000006,-0.1225379999999991,0.0030601999999999,0,sub_21
-0.0038938000000002,0.0076650000000012,0.0109147999999999,0.0076298000000006,-0.1218953999999991,0.000272,0,sub_21
-0.0059856000000002,0.0073070000000012,0.0116641999999999,0.0055034000000006,-0.1150737999999992,-0.0016767999999999,0,sub_21
-0.0084118000000002,0.0066800000000012,0.0127353999999999,0.0027544000000006,-0.1048395999999991,-0.0040613999999999,0,sub_21
-0.0088144000000002,0.0070834000000012,0.0111495999999999,0.0027822000000006,-0.1009953999999991,-0.0064161999999999,0,sub_21
-0.0086756000000002,0.0085528000000012,0.0098363999999999,0.0041018000000006,-0.0924769999999992,-0.0066315999999999,0,sub_21
-0.0098166000000002,0.0095212000000012,0.0101837999999999,0.0058672000000005,-0.0786377999999991,-0.0057823999999999,0,sub_21
-0.0107264000000002,0.0096886000000012,0.0099353999999999,0.0067376000000006,-0.0658063999999991,-0.0053761999999999,0,sub_21
-0.0110934000000002,0.0089644000000012,0.0084211999999999,0.0076088000000006,-0.0527617999999991,-0.0049703999999999,0,sub_21
-0.0109438000000002,0.0090230000000012,0.0084843999999999,0.0065780000000006,-0.0348137999999991,-0.0037293999999999,0,sub_21
-0.0114808000000002,0.0083180000000012,0.0077859999999999,0.0065976000000006,-0.0209157999999991,-0.0029031999999999,0,sub_21
-0.0106678000000002,0.0074380000000012,0.0069591999999999,0.0072468000000006,-0.0100001999999991,-0.0027095999999999,0,sub_21
-0.0103708000000002,0.0070124000000012,0.0062553999999999,0.0094294000000006,0.0010704000000008,-0.0024949999999999,0,sub_21
-0.0107426000000002,0.0085994000000012,0.0052233999999999,0.0124578000000006,0.0110700000000008,-0.0016319999999999,0,sub_21
-0.0115680000000002,0.0083092000000012,0.0039209999999999,0.0163178000000006,0.0205484000000007,-0.0014105999999999,0,sub_21
-0.0105004000000002,0.0079934000000012,0.0036653999999999,0.0178336000000006,0.0296132000000007,-0.0022731999999999,0,sub_21
-0.0093568000000001,0.0072158000000012,0.0042153999999999,0.0165786000000006,0.0397512000000007,-0.0027293999999999,0,sub_21
-0.0083998000000001,0.0071402000000012,0.0037353999999999,0.0150852000000006,0.0449872000000007,-0.0025397999999999,0,sub_21
-0.0071506000000002,0.0078222000000012,0.0031785999999999,0.0142176000000006,0.0480862000000007,-0.0012749999999999,0,sub_21
-0.0064530000000002,0.0085866000000012,0.0029325999999999,0.0144388000000006,0.0506388000000007,-0.0004221999999999,0,sub_21
-0.0053606000000002,0.0086422000000012,0.0026211999999999,0.0146608000000006,0.0527678000000007,-0.0002095999999999,0,sub_21
-0.0034608000000002,0.0086580000000012,0.0035315999999999,0.0153142000000006,0.0559604000000007,4.600000000044152e-06,0,sub_21
-0.0034312000000002,0.0087164000000012,0.0038765999999999,0.0161706000000006,0.0575544000000007,0.0001996,0,sub_21
-0.0046286000000002,0.0077524000000012,0.0025507999999999,0.0159410000000006,0.0542546000000007,-0.0002475999999999,0,sub_21
-0.0039334000000002,0.0060950000000012,0.0038745999999999,0.0157180000000006,0.0513852000000007,-0.0017635999999999,0,sub_21
-0.0034646000000002,0.0058394000000012,0.0041289999999998,0.0167850000000006,0.0510662000000007,-0.0028465999999999,0,sub_21
-0.0043534000000002,0.0064480000000012,0.0025705999999998,0.0199590000000006,0.0447744000000007,-0.0039071999999999,0,sub_21
-0.0037498000000002,0.0069978000000012,0.0027215999999999,0.0235692000000006,0.0390170000000007,-0.0057973999999999,0,sub_21
-0.0020124000000002,0.0077450000000012,0.0046177999999999,0.0306162000000006,0.0379366000000007,-0.0080969999999999,0,sub_21
-0.0033062000000002,0.0076612000000012,0.0008483999999999,0.0361860000000006,0.0428174000000007,-0.0080643999999999,0,sub_21
-0.0040172000000002,0.0068114000000012,-0.0013898,0.0379314000000006,0.0503830000000007,-0.0076591999999999,0,sub_21
-0.0023704000000002,0.0063724000000012,2.59999999992714e-06,0.0373344000000006,0.0581732000000007,-0.0081251999999999,0,sub_21
-0.0002990000000002,0.0065006000000012,-0.0034426,0.0339166000000006,0.0585044000000007,-0.0056103999999999,0,sub_21
-0.0010388000000002,0.0072256000000012,-0.006088,0.0270734000000006,0.0588372000000007,-0.0005555999999999,0,sub_21
-0.0020588000000002,0.0080268000000012,-0.0043818,0.0206492000000006,0.0553422000000007,0.0023706,0,sub_21
-0.0034232000000002,0.0085044000000012,-0.003494,0.0144528000000006,0.0540830000000007,0.0029698,0,sub_21
-0.0045366000000002,0.0079404000000012,-0.00365,0.0091252000000006,0.0564418000000007,0.003784,0,sub_21
-0.0063888000000002,0.0078862000000012,-0.000906,0.0053066000000006,0.0613554000000007,0.003751,0,sub_21
-0.0079052000000002,0.0074988000000012,-0.0001554,0.0023376000000006,0.0637162000000007,0.0020179999999999,0,sub_21
-0.0098892000000002,0.0090792000000012,-0.0012732,-0.0014803999999993,0.0694874000000008,0.0009061999999999,0,sub_21
-0.0137796000000002,0.0091778000000012,0.0028523999999999,-0.0072235999999993,0.0761098000000007,0.0017027999999999,0,sub_21
-0.0208124000000002,0.0083576000000012,0.0103295999999999,-0.0144297999999993,0.0874334000000008,0.0003467999999999,0,sub_21
-0.0305238000000002,0.0069278000000012,0.0170525999999999,-0.0158527999999993,0.1027882000000008,-0.0018286,0,sub_21
-0.0412354000000002,0.0092698000000012,0.0208271999999999,-0.0048589999999993,0.1272610000000008,-0.0039289999999999,0,sub_21
-0.0521974000000002,0.0086456000000012,0.0253553999999999,0.0072980000000006,0.1717542000000008,-0.0056101999999999,0,sub_21
-0.0611222000000002,0.0060980000000012,0.0326519999999999,0.0120492000000006,0.2288488000000008,-0.0086411999999999,0,sub_21
-0.0628306000000002,0.0042768000000012,0.0358751999999999,0.0095766000000006,0.2961814000000008,-0.0083175999999999,0,sub_21
-0.0586250000000002,0.0049152000000012,0.0336273999999999,0.0017954000000006,0.3740624000000008,-0.0095391999999999,0,sub_21
-0.0506772000000002,0.0030490000000012,0.0345377999999999,-0.0132365999999993,0.4557918000000008,-0.0078254,0,sub_21
-0.0335498000000002,0.0081708000000012,0.0304747999999999,-0.0236569999999993,0.5164236000000008,-0.0088295999999999,0,sub_21
-0.0216924000000002,0.0159464000000012,0.0222027999999999,-0.0236813999999993,0.5699634000000009,-0.0035563999999999,0,sub_21
-0.0104246000000002,0.0150746000000012,0.0178529999999999,-0.0310449999999993,0.5954432000000008,-0.0076987999999999,0,sub_21
-0.0105820000000002,0.0165046000000012,0.0159841999999999,-0.0369149999999993,0.6191112000000007,-0.0073427999999999,0,sub_21
-0.0027310000000002,0.0138584000000012,0.0092157999999999,-0.0407037999999993,0.6261732000000009,-0.0118647999999999,0,sub_21
0.0054499999999997,0.0143044000000012,0.0038027999999999,-0.0465353999999993,0.6277516000000009,-0.0059225999999999,0,sub_21
0.0235097999999997,0.0123910000000013,-0.0024224,-0.0543679999999993,0.6108036000000008,-0.0006115999999999,0,sub_21
0.0334879999999997,0.0171372000000012,-0.0095274,-0.0534685999999993,0.5948714000000008,0.0094594,0,sub_21
0.0473635999999997,0.0117316000000012,-0.0069744,-0.0549363999999993,0.5615292000000008,0.0065038,0,sub_21
0.0440909999999997,0.0107928000000013,0.0034125999999999,-0.0529729999999993,0.5371030000000008,0.0086882,0,sub_21
0.0355261999999997,0.0038762000000013,0.0120801999999999,-0.0498605999999993,0.5123980000000008,0.0036142,0,sub_21
0.0267951999999997,0.0013332000000013,0.0131081999999999,-0.0426433999999993,0.4904828000000007,-0.0099805999999999,0,sub_21
0.0213541999999997,0.0033598000000012,0.0064863999999999,-0.0324743999999993,0.4685256000000007,-0.0156499999999999,0,sub_21
0.0219539999999997,0.0096098000000012,-0.0059366,-0.0230307999999993,0.4401288000000007,-0.0087109999999999,0,sub_21
0.0308321999999997,0.0125820000000012,-0.0202602,-0.0234751999999993,0.3906936000000007,-0.006728,0,sub_21
0.0353357999999997,0.0144504000000012,-0.0283182,-0.0248315999999993,0.3259310000000007,-0.0070817999999999,0,sub_21
0.0313115999999997,0.0149796000000012,-0.0324514,-0.0234725999999993,0.2532552000000008,-0.0022789999999999,0,sub_21
0.0306225999999997,0.0109172000000012,-0.032158,-0.0201481999999993,0.1861300000000007,-0.0019559999999999,0,sub_21
0.0295383999999997,0.0078986000000012,-0.0296668,-0.0173815999999993,0.1335100000000007,-0.0055011999999999,0,sub_21
0.0308811999999997,0.0064924000000012,-0.026259,-0.0107493999999993,0.0881134000000008,-0.0073193999999999,0,sub_21
0.0313933999999997,0.0047796000000012,-0.02653,-0.0043381999999993,0.0456818000000008,-0.0044429999999999,0,sub_21
0.0348411999999997,0.0027626000000012,-0.024753,-0.0028209999999993,0.0056134000000007,-0.0022445999999999,0,sub_21
0.0344129999999997,0.0034404000000012,-0.0251054,-0.0019525999999993,-0.0355213999999992,0.0008052,0,sub_21
0.0326959999999997,0.0061852000000012,-0.0252374,0.0031670000000006,-0.0796563999999992,0.0045294,0,sub_21
0.0277409999999997,0.0094074000000012,-0.026547,0.0072446000000006,-0.1188849999999992,0.0075991999999999,0,sub_21
0.0242285999999997,0.0117478000000012,-0.0247772,0.0118008000000006,-0.1512787999999992,0.0059633999999999,0,sub_21
0.0196087999999997,0.0115956000000012,-0.0230702,0.0144682000000006,-0.1783325999999992,0.0025984,0,sub_21
0.0162347999999997,0.0100984000000012,-0.017585,0.0145646000000006,-0.2087819999999992,-0.0018483999999999,0,sub_21
0.0125689999999997,0.0073984000000012,-0.0150592,0.0146926000000006,-0.2362325999999991,-0.0103581999999999,0,sub_21
0.0102423999999997,0.0051970000000012,-0.0099778,0.0148350000000006,-0.2604871999999991,-0.0188719999999999,0,sub_21
0.0075279999999997,0.0037530000000012,-0.0034742,0.0132456000000006,-0.2845457999999992,-0.0216295999999999,0,sub_21
0.0009931999999997,0.0061904000000012,-0.0014806,0.0147162000000006,-0.2939083999999992,-0.0258801999999999,0,sub_21
-0.0030236000000002,0.0077650000000012,0.0012313999999999,0.0159734000000006,-0.2990261999999992,-0.0258649999999999,0,sub_21
-0.0113250000000002,0.0089044000000012,0.0073437999999999,0.0143288000000006,-0.2858083999999992,-0.0265341999999999,0,sub_21
-0.0169784000000002,0.0077298000000012,0.0100305999999999,0.0109302000000006,-0.2800533999999992,-0.0242151999999999,0,sub_21
-0.0262780000000002,0.0097632000000012,0.0051435999999999,0.0102060000000006,-0.2572297999999992,-0.0302315999999999,0,sub_21
-0.0228316000000002,0.0083090000000012,0.0071537999999999,0.0044498000000006,-0.2519003999999992,-0.0260057999999999,0,sub_21
-0.0225728000000002,0.0087766000000012,0.0057357999999999,0.0010972000000006,-0.2371919999999992,-0.0249797999999999,0,sub_21
-0.0227380000000002,0.0103758000000012,0.0011255999999999,-0.0008029999999993,-0.2310135999999992,-0.0232919999999999,0,sub_21
-0.0204702000000002,0.0108898000000012,-0.0024592,-0.0037593999999993,-0.2207901999999992,-0.0199073999999999,0,sub_21
-0.0107368000000002,0.0102050000000012,-0.0018878,-0.0082775999999993,-0.2225053999999992,-0.0133137999999999,0,sub_21
-0.0019964000000002,0.0092004000000012,-0.0026456,-0.0088965999999993,-0.2182403999999992,-0.0137507999999999,0,sub_21
-0.0012290000000002,0.0112200000000012,-0.0034652,-0.0076239999999993,-0.2205859999999992,-0.0143797999999999,0,sub_21
0.0061079999999997,0.0093172000000012,-0.0040524,-0.0053919999999993,-0.2402187999999992,-0.0083569999999999,0,sub_21
0.0064815999999997,0.0103900000000012,-0.0037238,-0.0041779999999993,-0.2528019999999992,-0.0061959999999999,0,sub_21
0.0033399999999997,0.0070372000000012,-0.0009862,-0.0080127999999993,-0.2538445999999992,-0.0085713999999999,0,sub_21
-0.0050666000000002,0.0068224000000012,0.0009373999999999,-0.0148839999999993,-0.2663787999999992,-0.0115943999999999,0,sub_21
-0.0047260000000002,0.0065010000000012,0.0011573999999999,-0.0199627999999993,-0.2618671999999992,-0.0165493999999999,0,sub_21
-0.0056038000000002,0.0081024000000012,0.0023301999999999,-0.0269607999999993,-0.2537405999999992,-0.0181041999999999,0,sub_21
-0.0055848000000002,0.0076902000000012,0.0023741999999999,-0.0330717999999993,-0.2452179999999992,-0.0217973999999999,0,sub_21
-0.0023596000000002,0.0084466000000012,0.0003177999999999,-0.0384281999999993,-0.2531255999999992,-0.0199095999999999,0,sub_21
0.0003019999999997,0.0099414000000012,0.0010197999999999,-0.0415767999999993,-0.2416647999999991,-0.0150399999999999,0,sub_21
0.0044419999999997,0.0065748000000012,0.0077573999999999,-0.0421879999999993,-0.2359627999999992,-0.0107863999999999,0,sub_21
-4.900000000028146e-05,0.0064780000000012,0.0092657999999999,-0.0425945999999993,-0.2366353999999992,-0.0110095999999999,0,sub_21
-0.0043326000000002,0.0090152000000012,0.0116581999999999,-0.0481287999999993,-0.2317233999999992,-0.0091315999999999,0,sub_21
-0.0099790000000002,0.0088410000000012,0.0187015999999999,-0.0578421999999993,-0.2086809999999991,-0.0088015999999999,0,sub_21
-0.0158854000000002,0.0065616000000012,0.0284855999999999,-0.0681325999999993,-0.1762433999999992,-0.0131879999999999,0,sub_21
-0.0344802000000002,0.0083242000000012,0.0259403999999999,-0.0705347999999993,-0.1459611999999991,-0.0181573999999999,0,sub_21
-0.0381472000000002,0.0112156000000012,0.0240419999999999,-0.0599145999999993,-0.1091403999999992,-0.0179165999999999,0,sub_21
-0.0381228000000002,0.0098558000000012,0.0240651999999999,-0.0424079999999993,-0.0580741999999992,-0.0163643999999999,0,sub_21
-0.0379628000000002,0.0088546000000012,0.0266965999999999,-0.0233877999999993,-0.0010535999999992,-0.0133135999999999,0,sub_21
-0.0411114000000002,0.0072194000000013,0.0290841999999999,-0.0035829999999993,0.0423218000000007,-0.0085305999999999,0,sub_21
-0.0290328000000002,0.0101520000000013,0.0289043999999999,0.0065884000000006,0.0818830000000007,-0.0006053999999999,0,sub_21
-0.0227400000000002,0.0122280000000013,0.0290663999999999,0.0061534000000006,0.1323592000000007,0.0042406,0,sub_21
-0.0160232000000002,0.0176144000000013,0.0257943999999999,0.0015664000000006,0.1598450000000007,0.0078054,0,sub_21
-0.0053718000000002,0.0170788000000013,0.0238139999999999,0.0009694000000006,0.1698590000000007,0.0082155999999999,0,sub_21
0.0062065999999997,0.0175276000000012,0.0162467999999999,0.0059162000000006,0.1760306000000007,0.0056783999999999,0,sub_21
0.0098859999999997,0.0152202000000012,0.0149791999999999,0.0123308000000006,0.1758080000000008,0.0025187999999999,0,sub_21
