userAcceleration.x,userAcceleration.y,userAcceleration.z,rotationRate.x,rotationRate.y,rotationRate.z,label,subject
0.0190965999999995,0.0653056000000012,-0.065671,-0.2808365999999995,0.2109824000000006,-0.0327344,0,sub_9
0.0488289999999995,0.0482002000000012,-0.0563386,-0.3159811999999995,0.2413148000000006,0.0312881999999999,0,sub_9
0.0660939999999995,0.0284800000000012,-0.0397472,-0.3792851999999994,0.2721752000000006,0.0942587999999999,0,sub_9
0.0772179999999995,0.0125126000000012,-0.0326468,-0.4501963999999995,0.2632566000000006,0.1482541999999999,0,sub_9
0.0772487999999995,0.0009280000000012,-0.0295664,-0.4983751999999996,0.2166108000000006,0.1866469999999999,0,sub_9
0.0726255999999995,-0.0022859999999987,-0.0276168,-0.5136563999999996,0.1573644000000006,0.2041349999999999,0,sub_9
0.0568261999999995,-0.0025621999999987,-0.022301,-0.5052389999999995,0.0753426000000006,0.1957531999999999,0,sub_9
0.0363945999999995,-0.0065407999999987,-0.0234824,-0.4844707999999994,-0.0283891999999993,0.1712483999999999,0,sub_9
0.0063041999999995,-0.0019377999999987,-0.0305344,-0.4602981999999995,-0.1014209999999993,0.1444163999999999,0,sub_9
-0.0132762000000004,0.0069070000000012,-0.0341906,-0.4390255999999994,-0.1484763999999993,0.1241537999999999,0,sub_9
-0.0243904000000004,0.0096984000000012,-0.0326498,-0.4245435999999994,-0.1740423999999993,0.1170619999999999,0,sub_9
-0.0185474000000004,0.0139662000000012,-0.022746,-0.4194561999999995,-0.1365793999999993,0.1269153999999999,0,sub_9
-0.0178028000000004,0.0205506000000012,-0.0238826,-0.4093241999999994,-0.0597543999999993,0.1457267999999999,0,sub_9
-0.0185214000000004,0.0241480000000012,-0.027508,-0.3843609999999995,-0.0021461999999993,0.1565093999999999,0,sub_9
-0.0222218000000004,0.0226302000000012,-0.0363088,-0.3411235999999994,0.0245616000000006,0.1533587999999999,0,sub_9
-0.0144854000000004,0.0206022000000012,-0.0370808,-0.2885417999999994,0.0337968000000006,0.1426047999999999,0,sub_9
-0.0058454000000004,0.0179658000000012,-0.0355202,-0.2435163999999995,0.0240938000000006,0.1324631999999999,0,sub_9
0.0099951999999995,0.0120272000000012,-0.0215258,-0.2167283999999995,-0.0002771999999993,0.1299041999999999,0,sub_9
0.0247879999999995,0.0074062000000012,-0.0050966,-0.2095485999999994,-0.0124643999999993,0.1344565999999999,0,sub_9
0.0365837999999995,0.0031334000000013,0.0076937999999999,-0.2134209999999995,-0.0105693999999993,0.1434001999999999,0,sub_9
0.0334741999999995,0.0010358000000013,0.0071971999999999,-0.2179095999999995,-0.0088627999999993,0.1467849999999999,0,sub_9
0.0266331999999995,-0.0003039999999987,2.9999999999447134e-06,-0.2145013999999994,-0.0169433999999993,0.1399825999999999,0,sub_9
0.0214549999999995,0.0025176000000012,-0.0005622,-0.2023121999999995,-0.0286329999999993,0.1223501999999999,0,sub_9
0.0215611999999995,0.0044882000000012,0.0047583999999999,-0.1830003999999994,-0.0273305999999993,0.0996233999999999,0,sub_9
0.0279671999999995,0.0044576000000012,0.0125217999999999,-0.1604015999999995,-0.0085621999999993,0.0751881999999999,0,sub_9
0.0437561999999995,0.0032086000000012,0.0157341999999999,-0.1435859999999995,0.0027796000000006,0.0481581999999999,0,sub_9
0.0709949999999995,0.0031668000000012,0.0221217999999999,-0.1187675999999994,-0.0101913999999993,0.0203605999999999,0,sub_9
0.1100805999999995,0.0035476000000012,0.0296191999999999,-0.0929457999999994,-0.0319227999999993,-0.0020776,0,sub_9
0.1541033999999995,0.0114104000000012,0.0307865999999999,-0.0775199999999994,-0.0709437999999993,-0.0074746,0,sub_9
0.1891769999999995,0.0291832000000012,0.0272099999999999,-0.0721145999999994,-0.1283621999999993,0.0144283999999999,0,sub_9
0.2041111999999995,0.0457606000000012,0.0200969999999999,-0.0621183999999994,-0.1856767999999993,0.0596507999999999,0,sub_9
0.1779775999999995,0.0552360000000012,0.0023353999999999,-0.0512333999999995,-0.2255623999999993,0.1144709999999999,0,sub_9
0.1292661999999995,0.0607314000000012,-0.0209762,-0.0315003999999994,-0.2505357999999993,0.1620699999999999,0,sub_9
0.0684221999999995,0.0535924000000012,-0.038349,0.0046090000000005,-0.2624793999999993,0.1871203999999999,0,sub_9
0.0259809999999995,0.0335890000000012,-0.041623,0.0521584000000005,-0.2764675999999993,0.1808475999999999,0,sub_9
-0.0001438000000004,0.0133024000000013,-0.0305198,0.0946970000000005,-0.2880057999999993,0.1523173999999999,0,sub_9
0.0046437999999995,-0.0012077999999986,-0.0058054,0.1149036000000005,-0.2881551999999994,0.1189165999999999,0,sub_9
0.0145391999999995,-0.0155373999999986,0.0148493999999999,0.1109570000000005,-0.2935627999999993,0.0894129999999999,0,sub_9
0.0263231999999995,-0.0227013999999986,0.0286699999999999,0.0905316000000005,-0.3040491999999993,0.0655691999999999,0,sub_9
0.0273591999999995,-0.0228305999999986,0.0306895999999999,0.0553990000000005,-0.3117119999999994,0.0409779999999999,0,sub_9
0.0306387999999995,-0.0196569999999986,0.0279471999999999,0.0136452000000005,-0.3182965999999993,0.0189031999999999,0,sub_9
0.0325287999999995,-0.0133733999999986,0.0191043999999999,-0.0217363999999994,-0.3287487999999993,-0.0005586,0,sub_9
0.0314179999999995,-0.0065249999999986,0.0084177999999999,-0.0485589999999995,-0.3302969999999993,-0.01634,0,sub_9
0.0260621999999995,0.0027494000000012,-0.0055854,-0.0655471999999995,-0.3276185999999993,-0.0320582,0,sub_9
0.0201705999999995,0.0099200000000012,-0.0150774,-0.0671697999999994,-0.3222325999999993,-0.045536,0,sub_9
0.0152345999999995,0.0152832000000012,-0.0213836,-0.0562197999999994,-0.3186025999999994,-0.057001,0,sub_9
0.0153315999999995,0.0181366000000012,-0.028051,-0.0384809999999994,-0.3224583999999993,-0.067127,0,sub_9
0.0223099999999995,0.0246092000000012,-0.0292532,-0.0171371999999994,-0.3295295999999993,-0.0755146,0,sub_9
0.0348199999999995,0.0265918000000012,-0.0233162,0.0059012000000005,-0.3323737999999993,-0.0768456,0,sub_9
0.0288411999999995,0.0277326000000012,-0.0136932,0.0224382000000005,-0.3087815999999993,-0.076974,0,sub_9
-0.0005002000000004,0.0213500000000012,-0.0184902,0.0262726000000005,-0.2655333999999993,-0.0797799999999999,0,sub_9
-0.0358320000000004,0.0067256000000012,-0.014122,0.0256380000000005,-0.1887531999999993,-0.0993245999999999,0,sub_9
-0.0660738000000004,-0.0080399999999987,-0.0051088,0.0206478000000005,-0.0560589999999993,-0.1384128,0,sub_9
-0.0879868000000003,-0.0183317999999986,0.0069925999999999,0.0020286000000005,0.0756458000000006,-0.184645,0,sub_9
-0.0673568000000004,-0.0183941999999986,0.0147915999999999,-0.0247825999999994,0.1563980000000006,-0.2157004,0,sub_9
-0.0265606000000004,-0.0063619999999986,0.0277715999999999,-0.0456483999999994,0.2144196000000005,-0.2152796,0,sub_9
0.0098861999999995,0.0137598000000013,0.0256917999999999,-0.0525927999999994,0.2747954000000006,-0.1763084,0,sub_9
0.0230537999999995,0.0249794000000012,0.0097201999999999,-0.0483083999999994,0.2900956000000006,-0.116905,0,sub_9
0.0345663999999995,0.0305170000000012,-0.0059478,-0.0140197999999994,0.2673554000000006,-0.0617398,0,sub_9
0.0246529999999995,0.0241474000000012,-0.0205006,0.0282708000000005,0.2540200000000006,-0.0210584,0,sub_9
0.0209795999999995,0.0111794000000012,-0.0215508,0.0652046000000005,0.2576372000000005,-0.0060736,0,sub_9
0.0247521999999995,0.0012586000000012,-0.0172968,0.0786848000000005,0.2452246000000006,-0.0113146,0,sub_9
0.0474343999999995,0.0020040000000012,-0.0052772,0.0737012000000005,0.2550344000000005,-0.016713,0,sub_9
0.0619185999999995,0.0081148000000012,-0.0081444,0.0432362000000005,0.3177606000000005,-0.012306,0,sub_9
0.0684993999999995,0.0145658000000012,-0.0157048,0.0134824000000005,0.3970992000000006,-0.0070608,0,sub_9
0.0651983999999995,0.0220450000000012,-0.0323782,-0.0073961999999994,0.4508658000000006,-0.00813,0,sub_9
0.0623329999999995,0.0249586000000012,-0.0472332,-0.0176569999999994,0.4850274000000006,-0.0174322,0,sub_9
0.0596119999999995,0.0256384000000012,-0.0610494,-0.0197619999999994,0.4793310000000006,-0.0296172,0,sub_9
0.0599781999999995,0.0224638000000012,-0.0652904,-0.0198597999999994,0.4469896000000005,-0.0402586,0,sub_9
0.0634683999999995,0.0199874000000012,-0.0700216,-0.0248841999999994,0.4118896000000006,-0.0494354,0,sub_9
0.0683971999999995,0.0206612000000012,-0.0669156,-0.0288005999999994,0.3844618000000006,-0.0601098,0,sub_9
0.0755007999999995,0.0245642000000012,-0.0615964,-0.0293297999999994,0.3508444000000006,-0.0709662,0,sub_9
0.0859959999999995,0.0265008000000012,-0.053999,-0.0281319999999994,0.3263636000000006,-0.0771222,0,sub_9
0.0927287999999995,0.0281536000000012,-0.0444708,-0.0245889999999994,0.3122706000000006,-0.0723792,0,sub_9
0.0964015999999995,0.0299126000000012,-0.0336392,-0.0219705999999994,0.2919638000000005,-0.0580208,0,sub_9
0.0994931999999995,0.0310882000000012,-0.0311362,-0.0178861999999995,0.2748102000000006,-0.0342558,0,sub_9
0.1030429999999995,0.0295402000000012,-0.0327264,-0.0087173999999994,0.2542110000000006,-0.0057508,0,sub_9
0.1050041999999995,0.0300222000000012,-0.0361882,0.0085078000000005,0.2133784000000006,0.0140771999999999,0,sub_9
0.1112331999999995,0.0282996000000012,-0.0377192,0.0329964000000005,0.1578862000000006,0.0173103999999999,0,sub_9
0.1171843999999995,0.0189860000000012,-0.0322034,0.0627838000000005,0.0855800000000006,0.0116291999999999,0,sub_9
0.1173871999999995,0.0125706000000012,-0.0235124,0.0741856000000005,-0.0028209999999993,-0.002492,0,sub_9
0.1074747999999995,0.0100020000000012,-0.012557,0.0777616000000005,-0.0792495999999993,-0.0201014,0,sub_9
0.0994623999999995,0.0065704000000012,-0.0063424,0.0705956000000005,-0.1296273999999993,-0.0429469999999999,0,sub_9
0.0896185999999995,0.0061218000000012,-0.005884,0.0550098000000005,-0.1474063999999993,-0.0588427999999999,0,sub_9
0.0869041999999995,0.0162906000000012,-0.0138634,0.0348938000000005,-0.1281001999999993,-0.0741767999999999,0,sub_9
0.0922905999999995,0.0232646000000012,-0.019633,0.0351144000000005,-0.0871615999999994,-0.0823462,0,sub_9
0.1062205999999995,0.0292412000000012,-0.0241202,0.0507914000000005,-0.0644211999999993,-0.0818386,0,sub_9
0.1152757999999995,0.0317968000000012,-0.0201054,0.0700256000000005,-0.0379359999999993,-0.0618692,0,sub_9
0.1131911999999995,0.0312722000000012,-0.0174676,0.0722428000000005,0.0066928000000006,-0.0356326,0,sub_9
0.0902931999999996,0.0274300000000012,-0.019304,0.0784564000000005,0.0419194000000006,-0.0059378,0,sub_9
0.0543821999999996,0.0203584000000012,-0.0250548,0.0974790000000005,0.0660728000000006,0.0112555999999999,0,sub_9
0.0122075999999995,0.0109828000000012,-0.0243342,0.1144926000000005,0.0996814000000006,0.0100493999999999,0,sub_9
-0.0164976000000004,0.0044414000000012,-0.0254228,0.1352742000000005,0.1028672000000006,-0.0054056,0,sub_9
-0.0251418000000004,0.0029486000000012,-0.0260234,0.1675346000000005,0.0851786000000006,-0.0320768,0,sub_9
-0.0157738000000004,0.0050148000000012,-0.0196382,0.1944800000000004,0.0777114000000006,-0.0528162,0,sub_9
0.0033693999999995,0.0099240000000012,-0.0142922,0.2030418000000005,0.0813130000000006,-0.055111,0,sub_9
0.0233781999999995,0.0150826000000012,-0.0225904,0.1870418000000004,0.0979232000000006,-0.0392206,0,sub_9
0.0282771999999995,0.0208020000000012,-0.0324094,0.1656004000000004,0.1458408000000006,-0.0157172,0,sub_9
0.0257197999999995,0.0233318000000012,-0.0372546,0.1731538000000005,0.1881186000000006,0.0077821999999999,0,sub_9
0.0268745999999995,0.0195404000000012,-0.0326828,0.2041072000000005,0.2024528000000006,0.0193031999999999,0,sub_9
0.0291241999999995,0.0143438000000012,-0.025143,0.2406712000000004,0.1652806000000006,0.0127695999999999,0,sub_9
0.0363149999999995,0.0082756000000012,-0.0162686,0.2990524000000004,0.0759000000000006,-0.010209,0,sub_9
0.0580905999999995,-0.0026503999999987,0.0007363999999999,0.3701142000000005,-0.0446147999999993,-0.0371184,0,sub_9
0.0754685999999995,-0.0139883999999987,0.0197553999999999,0.4187738000000005,-0.1565615999999993,-0.0560766,0,sub_9
0.0830427999999995,-0.0225639999999987,0.0331389999999999,0.4399562000000004,-0.2380247999999993,-0.055397,0,sub_9
0.0697369999999995,-0.0284789999999986,0.0290663999999999,0.4597562000000004,-0.2763071999999994,-0.0361954,0,sub_9
0.0417663999999995,-0.0296173999999986,0.0164673999999999,0.4921350000000005,-0.2607653999999993,-0.0082154,0,sub_9
-0.0087854000000004,-0.0124551999999986,-0.010891,0.5424778000000006,-0.1920095999999993,0.0166173999999999,0,sub_9
-0.0614992000000004,-0.0086959999999986,-0.0611388,0.6160134000000005,-0.0960403999999993,0.0358087999999999,0,sub_9
-0.1129520000000003,0.0212660000000013,-0.1200762,0.6948556000000006,-0.0160295999999993,0.0452299999999999,0,sub_9
-0.1392900000000003,0.0589782000000012,-0.1695826,0.8094582000000005,0.1209400000000006,0.0509747999999999,0,sub_9
-0.1514276000000003,0.1028108000000012,-0.2005652,0.9443724000000004,0.2686976000000006,0.0585567999999999,0,sub_9
-0.1514508000000003,0.1287816000000012,-0.1998094,1.0987986000000003,0.3337572000000006,0.0574079999999999,0,sub_9
-0.1350638000000004,0.1621394000000012,-0.1550612,1.2498858000000006,0.3034486000000006,0.0390527999999999,0,sub_9
-0.1050392000000004,0.1522348000000012,-0.0803864,1.3516474000000005,0.2459060000000006,0.0009465999999999,0,sub_9
-0.0784384000000004,0.1214598000000012,0.0099091999999999,1.3483754000000006,0.1302262000000006,-0.0516982,0,sub_9
-0.0615436000000004,0.0763582000000012,0.0840323999999999,1.2606522000000004,0.0170030000000006,-0.1126272,0,sub_9
-0.0453536000000004,0.0321948000000012,0.1193143999999999,1.0866732000000006,-0.0507893999999993,-0.164603,0,sub_9
-0.0256600000000004,-0.0194245999999987,0.1156005999999999,0.8586048000000005,-0.0730983999999993,-0.1954368,0,sub_9
-0.0119150000000004,-0.0545763999999987,0.0893675999999999,0.6590062000000005,-0.0438607999999993,-0.1945184,0,sub_9
0.0007099999999995,-0.0806115999999987,0.0559473999999999,0.5076344000000005,0.0193768000000006,-0.159978,0,sub_9
0.0125881999999995,-0.0924529999999987,0.0359281999999999,0.3810042000000004,0.1050128000000006,-0.1005107999999999,0,sub_9
0.0181025999999995,-0.0964693999999987,0.0271993999999999,0.2792086000000005,0.2165248000000006,-0.0334257999999999,0,sub_9
0.0035113999999995,-0.0791487999999987,0.0251863999999999,0.2104226000000004,0.3009156000000006,0.0208922,0,sub_9
-0.0214504000000004,-0.0633739999999986,0.0138621999999999,0.1773316000000004,0.3148080000000006,0.0385893999999999,0,sub_9
-0.0494950000000004,-0.0407203999999986,0.0012195999999999,0.1642172000000004,0.2655352000000006,0.0110007999999999,0,sub_9
-0.0656004000000004,-0.0214573999999986,-0.016998,0.1776880000000004,0.1626178000000006,-0.0509438,0,sub_9
-0.0717396000000004,-0.0107997999999986,-0.0321644,0.2148652000000004,0.0545446000000006,-0.1227574,0,sub_9
-0.0701002000000004,-0.0088341999999986,-0.03825,0.2588592000000004,0.0005270000000006,-0.1854058,0,sub_9
-0.0604318000000004,-0.0124503999999987,-0.0306358,0.2932098000000004,0.0044148000000006,-0.2283272,0,sub_9
-0.0479600000000004,-0.0284707999999987,-0.013049,0.3142982000000005,0.0734432000000006,-0.2462146,0,sub_9
-0.0376182000000004,-0.0499371999999986,0.0047669999999999,0.3048142000000005,0.1947044000000006,-0.2462226,0,sub_9
-0.0233196000000004,-0.0701921999999986,0.0161835999999999,0.2548236000000005,0.2849660000000006,-0.2377144,0,sub_9
0.0035853999999995,-0.0862109999999986,0.0331003999999999,0.1692146000000005,0.3361300000000006,-0.2244912,0,sub_9
0.0274787999999995,-0.0897181999999986,0.0455747999999999,0.0645158000000004,0.3673250000000007,-0.209239,0,sub_9
0.0457183999999995,-0.0752295999999986,0.0411003999999999,-0.0312975999999995,0.3330848000000006,-0.1949092,0,sub_9
0.0601189999999995,-0.0560167999999986,0.0338413999999999,-0.1107141999999995,0.2527322000000006,-0.1716464,0,sub_9
0.0688645999999995,-0.0327665999999987,0.0278761999999999,-0.1773293999999995,0.1850658000000006,-0.1352782,0,sub_9
0.0559441999999995,-0.0098753999999987,0.0167663999999999,-0.2540875999999994,0.1448970000000006,-0.0934612,0,sub_9
0.0423787999999995,0.0115676000000012,0.0022503999999999,-0.3617629999999995,0.1078266000000006,-0.053787,0,sub_9
0.0317867999999995,0.0217340000000012,-0.009845,-0.4941367999999995,0.0838340000000006,-0.0130202,0,sub_9
0.0170029999999995,0.0279520000000012,-0.0239864,-0.6204511999999995,0.0255412000000006,0.0220643999999999,0,sub_9
-0.0005084000000004,0.0354866000000012,-0.0352818,-0.6920065999999995,-0.0620835999999993,0.0456049999999999,0,sub_9
-0.0244244000000004,0.0436762000000012,-0.0578414,-0.6747741999999995,-0.1656993999999993,0.0484217999999999,0,sub_9
-0.0323066000000004,0.0484862000000012,-0.0753106,-0.5665779999999995,-0.2880345999999993,0.0183557999999999,0,sub_9
-0.0286210000000004,0.0497442000000012,-0.084737,-0.4174195999999995,-0.3765873999999993,-0.0238588,0,sub_9
-0.0097854000000004,0.0367184000000012,-0.0820254,-0.2795833999999995,-0.3739099999999994,-0.0669102,0,sub_9
0.0031239999999995,0.0207544000000012,-0.07362,-0.2041777999999995,-0.2937169999999994,-0.1000284,0,sub_9
0.0241925999999995,0.0045892000000012,-0.0528916,-0.1984215999999995,-0.2052973999999993,-0.1054426,0,sub_9
0.0297407999999995,-0.0051475999999987,-0.0348396,-0.2393923999999994,-0.1232695999999993,-0.070369,0,sub_9
0.0275021999999995,-0.0066051999999987,-0.0270174,-0.2844177999999995,-0.0732485999999993,-0.0196866,0,sub_9
0.0162719999999995,0.0108144000000012,-0.0346814,-0.3099587999999995,-0.0512239999999993,0.0356543999999999,0,sub_9
0.0090717999999995,0.0321504000000012,-0.0524988,-0.3004663999999995,-0.0354395999999993,0.0760793999999999,0,sub_9
0.0049755999999995,0.0546322000000012,-0.0763036,-0.2553633999999995,-0.0013601999999993,0.0925877999999999,0,sub_9
-0.0015002000000004,0.0680662000000012,-0.096207,-0.1893895999999995,0.0518992000000006,0.0897757999999999,0,sub_9
-0.0092836000000004,0.0700328000000012,-0.1035984,-0.1263503999999995,0.1030938000000006,0.0730589999999999,0,sub_9
-0.0143212000000004,0.0604174000000012,-0.096021,-0.0740899999999995,0.1179416000000006,0.0443493999999999,0,sub_9
-0.0146944000000004,0.0432116000000013,-0.0808402,-0.0335135999999995,0.0953380000000006,0.0141105999999999,0,sub_9
-0.0093394000000004,0.0199088000000013,-0.061756,-0.0065015999999995,0.0537876000000006,-0.0080802,0,sub_9
0.0020467999999995,-0.0001229999999986,-0.0448706,0.0055446000000004,0.0169312000000006,-0.0190584,0,sub_9
0.0149171999999995,-0.0142205999999986,-0.032341,0.0016398000000004,0.0009726000000006,-0.0207744,0,sub_9
0.0238117999999995,-0.0229139999999986,-0.0256106,-0.0151841999999995,0.0013992000000006,-0.0136358,0,sub_9
0.0262055999999995,-0.0241337999999987,-0.0213164,-0.0403767999999995,-0.0028551999999993,-0.0007812,0,sub_9
0.0229949999999995,-0.0211977999999986,-0.0189842,-0.0702883999999995,-0.0109349999999993,0.0137545999999999,0,sub_9
0.0164807999999995,-0.0134651999999986,-0.0181424,-0.1061621999999995,-0.0132533999999993,0.0312321999999999,0,sub_9
0.0061911999999995,-0.0046887999999986,-0.0199926,-0.1327831999999995,0.0014412000000006,0.0485391999999999,0,sub_9
-0.0071078000000004,0.0054704000000013,-0.0220216,-0.1459433999999995,0.0310446000000006,0.0627233999999999,0,sub_9
-0.0192566000000004,0.0127858000000013,-0.0241964,-0.1464243999999995,0.0763872000000006,0.0727031999999999,0,sub_9
-0.0306282000000004,0.0188268000000012,-0.0238322,-0.1368261999999995,0.1283180000000006,0.0780447999999999,0,sub_9
-0.0399738000000004,0.0219602000000012,-0.0223709999999999,-0.1158873999999995,0.1819350000000006,0.0781223999999999,0,sub_9
-0.0447016000000004,0.0241372000000012,-0.0186278,-0.0904955999999994,0.2255382000000005,0.0743981999999999,0,sub_9
-0.0415104000000004,0.0230958000000012,-0.0131302,-0.0614927999999994,0.2623238000000006,0.0675033999999999,0,sub_9
-0.0335442000000004,0.0203440000000012,-0.0057216,-0.0335731999999994,0.2942180000000006,0.0593253999999999,0,sub_9
-0.0216076000000004,0.0146440000000012,0.0010973999999999,-0.0116509999999994,0.3210198000000006,0.0511119999999999,0,sub_9
-0.0077372000000004,0.0063896000000012,0.0069575999999999,-2.139999999949153e-05,0.3369900000000007,0.0432679999999999,0,sub_9
0.0056201999999995,-0.0007131999999987,0.0106017999999999,0.0019306000000005,0.3367992000000006,0.0360179999999999,0,sub_9
0.0172551999999995,-0.0066161999999987,0.0107435999999999,-0.0040973999999994,0.3197964000000005,0.0308701999999999,0,sub_9
0.0270867999999995,-0.0094823999999987,0.0077229999999999,-0.0157545999999994,0.2868254000000006,0.0278399999999999,0,sub_9
0.0340325999999995,-0.0097965999999987,0.0021855999999999,-0.0309187999999994,0.2374442000000006,0.0290791999999999,0,sub_9
0.0361817999999995,-0.0034303999999987,-0.0022024,-0.0424395999999994,0.1920968000000005,0.0307659999999999,0,sub_9
0.0355633999999995,-0.0001397999999987,-0.0056634,-0.0492535999999995,0.1522612000000006,0.0352559999999999,0,sub_9
0.0319335999999995,0.0058994000000012,-0.0063124,-0.0476943999999995,0.1247500000000006,0.0406433999999999,0,sub_9
0.0267177999999995,0.0103784000000012,-0.0058146,-0.0360309999999995,0.1138228000000006,0.0458663999999999,0,sub_9
0.0184275999999995,0.0138610000000012,-0.0024872,-0.0138105999999995,0.1224718000000006,0.0481469999999999,0,sub_9
0.0108403999999995,0.0133816000000012,0.0003539999999999,0.0120536000000004,0.1343056000000006,0.0500215999999999,0,sub_9
0.0023743999999995,0.0165384000000012,0.0033771999999999,0.0398754000000004,0.1495612000000006,0.0469915999999999,0,sub_9
-0.0032536000000004,0.0163818000000012,0.0046177999999999,0.0657866000000004,0.1618614000000006,0.0388245999999999,0,sub_9
-0.0066072000000004,0.0152478000000012,0.0065313999999999,0.0867786000000004,0.1671658000000006,0.0261455999999999,0,sub_9
-0.0017146000000004,0.0144898000000012,0.0077173999999999,0.1007130000000004,0.1675998000000006,0.0121417999999999,0,sub_9
0.0068003999999995,0.0125392000000012,0.0091283999999999,0.1097312000000004,0.1682554000000006,0.0002397999999999,0,sub_9
0.0176075999999995,0.0097368000000012,0.0109775999999999,0.1157468000000004,0.1697566000000006,-0.0074112,0,sub_9
0.0291575999999995,0.0080544000000012,0.0134165999999999,0.1185312000000004,0.1691196000000006,-0.010382,0,sub_9
0.0389445999999995,0.0069204000000012,0.0159233999999999,0.1197914000000004,0.1650654000000006,-0.0099406,0,sub_9
0.0440965999999995,0.0066296000000012,0.0183419999999999,0.1197580000000004,0.1586696000000006,-0.0088644,0,sub_9
0.0463633999999995,0.0053838000000012,0.0179577999999999,0.1167238000000004,0.1493014000000006,-0.0078052,0,sub_9
0.0479807999999995,0.0044098000000012,0.0159945999999999,0.1087764000000004,0.1399452000000006,-0.0054986,0,sub_9
0.0473901999999995,0.0031702000000012,0.0138505999999999,0.0967804000000004,0.1352768000000006,0.0001919999999999,0,sub_9
0.0471189999999995,0.0029558000000012,0.0106385999999999,0.0818118000000004,0.1374220000000006,0.0094849999999999,0,sub_9
0.0457567999999995,0.0027916000000012,0.0081673999999999,0.0668478000000004,0.1431788000000006,0.0213371999999999,0,sub_9
0.0446907999999995,0.0045090000000012,0.0086481999999999,0.0559400000000004,0.1484988000000006,0.0323635999999999,0,sub_9
