userAcceleration.x,userAcceleration.y,userAcceleration.z,rotationRate.x,rotationRate.y,rotationRate.z,label,subject
-0.0161940000000001,-0.0075629999999987,0.031307,-0.0315081999999995,0.0234870000000006,0.0051047999999999,0,sub_11
-0.0184294000000001,-0.0016151999999987,0.028216,-0.0448553999999995,0.0460472000000006,0.0053731999999999,0,sub_11
-0.0225324000000001,-0.0006167999999987,0.0255866,-0.0511545999999995,0.0666790000000006,0.0022749999999999,0,sub_11
-0.0271484000000001,-0.0024423999999987,0.023694,-0.0474399999999995,0.0818100000000006,-0.0019912,0,sub_11
-0.0326796000000002,-0.0056397999999987,0.0252366,-0.0363081999999995,0.0866844000000006,-0.0051244,0,sub_11
-0.0323374000000002,-0.0075303999999987,0.028348,-0.0213889999999995,0.0826656000000007,-0.0079898,0,sub_11
-0.0312462000000002,-0.0111615999999987,0.0342572,-0.0064755999999995,0.0758828000000006,-0.0123472,0,sub_11
-0.0282496000000002,-0.0121231999999987,0.0409652,0.0050218000000004,0.0686858000000007,-0.016728,0,sub_11
-0.0251564000000002,-0.0107519999999987,0.0480298,0.0101210000000004,0.0615138000000006,-0.0217944,0,sub_11
-0.0203384000000002,-0.0096841999999987,0.0507236,0.0084144000000004,0.0575682000000006,-0.0286216,0,sub_11
-0.0170806000000002,-0.0109903999999987,0.051331,0.0024688000000004,0.0578268000000006,-0.0348592,0,sub_11
-0.0133518000000002,-0.0081589999999987,0.0497276,-0.0058267999999995,0.0595766000000006,-0.0389786,0,sub_11
-0.0102940000000002,-0.0026505999999987,0.0451536,-0.0153967999999995,0.0651556000000006,-0.040548,0,sub_11
-0.0075206000000001,-0.0021105999999987,0.0371088,-0.0257823999999995,0.0778706000000006,-0.0397846,0,sub_11
-0.0091990000000001,-0.0006435999999987,0.029476,-0.0353193999999995,0.0939734000000006,-0.0345332,0,sub_11
-0.0139132000000001,0.0033912000000012,0.0237192,-0.0433925999999995,0.1068616000000006,-0.025849,0,sub_11
-0.0197206000000001,0.0058866000000012,0.0201876,-0.0485101999999995,0.1146184000000006,-0.0152148,0,sub_11
-0.0272570000000001,0.0021934000000012,0.0178246,-0.0481231999999995,0.1131928000000006,-0.0041032,0,sub_11
-0.0352236000000001,0.0005282000000012,0.0175068,-0.0409729999999995,0.1005546000000006,0.0066449999999999,0,sub_11
-0.0385526000000001,-0.0025849999999987,0.0191778,-0.0287343999999995,0.0781084000000007,0.0148777999999999,0,sub_11
-0.0410482000000001,-0.0076533999999987,0.0213866,-0.0160719999999995,0.0507774000000006,0.0188467999999999,0,sub_11
-0.0448132000000001,-0.0134043999999987,0.0230924,-0.0053117999999995,0.0228328000000006,0.0181031999999999,0,sub_11
-0.0453176000000001,-0.0116771999999987,0.0257336,0.0005840000000004,0.0008854000000006,0.0136859999999999,0,sub_11
-0.0397042000000001,-0.0113575999999987,0.0272952,0.0020508000000004,-0.0112389999999993,0.0075161999999999,0,sub_11
-0.0333388000000001,-0.0105319999999987,0.0278648,0.0012280000000004,-0.0116329999999993,0.0002469999999999,0,sub_11
-0.0256796000000001,-0.0099853999999987,0.0277746,0.0010818000000004,-0.0024477999999993,-0.0055342,0,sub_11
-0.0169690000000001,-0.0089153999999987,0.030169,-0.0007473999999995,0.0146160000000006,-0.0087736,0,sub_11
-0.0098496000000001,-0.0116517999999987,0.0323776,-0.0032005999999995,0.0365770000000006,-0.0107418,0,sub_11
-0.0078062000000001,-0.0107301999999987,0.0368748,-0.0052249999999995,0.0595992000000006,-0.0120674,0,sub_11
-0.0098444000000002,-0.0092127999999987,0.0425046,-0.0068369999999995,0.0796364000000006,-0.0131726,0,sub_11
-0.0143878000000002,-0.0070021999999987,0.0469926,-0.0084825999999995,0.0911556000000006,-0.0153352,0,sub_11
-0.0199592000000002,-0.0063173999999987,0.0481708,-0.0063479999999995,0.0900880000000006,-0.0166008,0,sub_11
-0.0288042000000001,-0.0072033999999987,0.0486262,-0.0012987999999995,0.0766376000000006,-0.0139844,0,sub_11
-0.0375116000000002,-0.0081607999999987,0.0479852,0.0043280000000004,0.0527316000000006,-0.0079324,0,sub_11
-0.0445644000000001,-0.0074965999999987,0.0461488,0.0103336000000004,0.0207178000000006,0.0006963999999999,0,sub_11
-0.0489842000000002,-0.0056697999999987,0.043114,0.0174360000000004,-0.0108925999999992,0.0110723999999999,0,sub_11
-0.0495530000000001,-0.0051283999999987,0.03912,0.0241474000000004,-0.0346185999999993,0.0214355999999999,0,sub_11
-0.0442692000000002,-0.0061893999999987,0.0344822,0.0283508000000004,-0.0487397999999992,0.0296323999999999,0,sub_11
-0.0389778000000002,-0.0075759999999987,0.0306636,0.0294074000000004,-0.0545259999999993,0.0341647999999999,0,sub_11
-0.0330046000000002,-0.0094597999999987,0.0284854,0.0273266000000004,-0.0494225999999992,0.0354565999999999,0,sub_11
-0.0323158000000002,-0.0128103999999987,0.0290218,0.0216260000000004,-0.0364043999999992,0.0349727999999999,0,sub_11
-0.0359384000000002,-0.0151335999999987,0.029431,0.0148756000000004,-0.0212453999999993,0.0327697999999999,0,sub_11
-0.0412932000000002,-0.0145307999999987,0.0297028,0.0076890000000004,-0.0109737999999993,0.0277925999999999,0,sub_11
-0.0433016000000002,-0.0132621999999987,0.028883,0.0017750000000004,-0.0051697999999993,0.0200525999999999,0,sub_11
-0.0436764000000002,-0.0133923999999987,0.0280594,-0.0011583999999995,-0.0021407999999993,0.0110551999999999,0,sub_11
-0.0399652000000002,-0.0133125999999987,0.0280626,0.0014568000000004,0.0006574000000006,0.0016695999999999,0,sub_11
-0.0361774000000001,-0.0115777999999987,0.031886,0.0072668000000004,0.0032272000000006,-0.0066252,0,sub_11
-0.0332920000000001,-0.0096231999999987,0.0354184,0.0147714000000004,0.0055676000000006,-0.0123442,0,sub_11
-0.0333042000000001,-0.0083065999999987,0.039178,0.0228824000000004,0.0051174000000006,-0.0133552,0,sub_11
-0.0326292000000001,-0.0078197999999987,0.041027,0.0279610000000004,-0.0004551999999993,-0.009467,0,sub_11
-0.0317986000000001,-0.0068549999999987,0.042049,0.0296110000000004,-0.0107685999999993,-0.0021688,0,sub_11
-0.0309048000000001,-0.0068221999999987,0.0413964,0.0288978000000004,-0.0236345999999993,0.0061845999999999,0,sub_11
-0.0299342000000001,-0.0063831999999987,0.0411022,0.0277644000000004,-0.0345833999999992,0.0149599999999999,0,sub_11
-0.0283516000000002,-0.0054635999999987,0.0396142,0.0277094000000004,-0.0434037999999992,0.0233127999999999,0,sub_11
-0.0304474000000002,-0.0032869999999987,0.0379212,0.0295768000000004,-0.0522291999999992,0.0312517999999999,0,sub_11
-0.0334548000000002,-0.0016569999999987,0.0344926,0.0307728000000004,-0.0639797999999992,0.0383255999999999,0,sub_11
-0.0352748000000002,1.2000000012447369e-06,0.0305334,0.0317428000000004,-0.0795601999999992,0.0443343999999999,0,sub_11
-0.0358896000000002,0.0005918000000012,0.0267966,0.0325974000000004,-0.0988063999999992,0.0472021999999999,0,sub_11
-0.0339914000000002,-7.639999999875532e-05,0.0232212,0.0315576000000004,-0.1167495999999992,0.0455685999999999,0,sub_11
-0.0268790000000002,-0.0008125999999987,0.0198908,0.0295056000000004,-0.1293355999999992,0.0370843999999999,0,sub_11
-0.0168338000000002,-0.0007371999999987,0.01806,0.0275274000000004,-0.1310335999999992,0.0230319999999999,0,sub_11
-0.0034092000000002,-0.0001345999999987,0.0160688,0.0247830000000004,-0.1173727999999992,0.0048953999999999,0,sub_11
0.0090301999999997,-0.0003389999999987,0.0142704,0.0203008000000004,-0.0887331999999992,-0.0137596,0,sub_11
0.0182843999999997,0.0003076000000012,0.0130024,0.0145796000000004,-0.0496545999999992,-0.0311548,0,sub_11
0.0231983999999997,0.0013900000000012,0.0136368,0.0075780000000004,-0.0056907999999992,-0.0436514,0,sub_11
0.0253085999999997,0.0028738000000012,0.0152092,0.0001766000000004,0.0347628000000007,-0.0507486,0,sub_11
0.0228047999999997,0.0045352000000012,0.0169846,-0.0077213999999995,0.0656068000000006,-0.051855,0,sub_11
0.0181473999999997,0.0076670000000012,0.0190788,-0.0161141999999995,0.0866306000000006,-0.0476112,0,sub_11
0.0125819999999997,0.0104904000000011,0.022534,-0.0228633999999995,0.0984674000000006,-0.0384304,0,sub_11
0.0063251999999997,0.0117586000000011,0.0263138,-0.0251871999999995,0.1011144000000006,-0.0260022,0,sub_11
-0.0008890000000002,0.0100014000000011,0.030765,-0.0222851999999995,0.0978452000000006,-0.0101682,0,sub_11
-0.0087162000000001,0.0051516000000011,0.0353184,-0.0144939999999995,0.0913594000000006,0.0065587999999999,0,sub_11
-0.0154782000000001,-0.0016805999999988,0.0403658,-0.0035155999999995,0.0808188000000006,0.0222449999999999,0,sub_11
-0.0226750000000002,-0.0079127999999987,0.0455142,0.0068296000000004,0.0669586000000006,0.0342829999999999,0,sub_11
-0.0292246000000002,-0.0109079999999987,0.0495602,0.0114492000000004,0.0556966000000006,0.0409365999999999,0,sub_11
-0.0329642000000002,-0.0122937999999987,0.0523262,0.0099384000000004,0.0496000000000006,0.0398495999999999,0,sub_11
-0.0351902000000002,-0.0121233999999987,0.0552146,0.0078240000000004,0.0454478000000006,0.0325599999999999,0,sub_11
-0.0388084000000002,-0.0106827999999987,0.0570017999999999,0.0080720000000004,0.0385424000000006,0.0190947999999999,0,sub_11
-0.0444008000000002,-0.0092425999999987,0.0572989999999999,0.0104554000000004,0.0296540000000006,0.0020313999999999,0,sub_11
-0.0473702000000002,-0.0098955999999987,0.0544121999999999,0.0155610000000004,0.0122220000000006,-0.0120112,0,sub_11
-0.0476460000000002,-0.0117351999999987,0.0505193999999999,0.0197402000000004,-0.0086669999999993,-0.0132372,0,sub_11
-0.0437280000000002,-0.0104723999999987,0.0454935999999999,0.0159428000000004,-0.0309259999999993,-0.0047036,0,sub_11
-0.0371772000000002,-0.0079203999999987,0.0399275999999999,0.0126276000000004,-0.0355243999999993,0.0091517999999999,0,sub_11
-0.0229286000000001,-0.0054937999999987,0.034891,0.0101670000000004,-0.0350321999999993,0.0279203999999999,0,sub_11
-0.0126254000000001,-0.0028819999999987,0.0346982,0.0092036000000004,-0.0330565999999993,0.0473385999999999,0,sub_11
-0.0143992000000001,-0.0024353999999987,0.0371644,0.0127836000000004,-0.0280703999999993,0.0558887999999999,0,sub_11
-0.0215736000000002,-0.0055201999999987,0.0401252,0.0292736000000004,-0.0168275999999993,0.0538529999999999,0,sub_11
-0.0306972000000001,-0.0101123999999987,0.0407104,0.0461378000000004,-0.0209115999999993,0.0482075999999999,0,sub_11
-0.0419754000000002,-0.0135119999999987,0.0408922,0.0606098000000004,-0.0379715999999993,0.0395709999999999,0,sub_11
-0.0500092000000002,-0.0164449999999987,0.0401708,0.0714138000000004,-0.0478713999999992,0.0271937999999999,0,sub_11
-0.0476046000000002,-0.0160305999999987,0.0375962,0.0811528000000004,-0.0560681999999992,0.0160889999999999,0,sub_11
-0.0437324000000002,-0.0139207999999987,0.0373456,0.0797772000000004,-0.0653041999999992,0.0081125999999999,0,sub_11
-0.0374614000000001,-0.0106161999999987,0.0390428,0.0673322000000004,-0.0666271999999992,0.0021849999999999,0,sub_11
-0.0319352000000001,-0.0090503999999987,0.0376098,0.0543122000000004,-0.0498527999999992,-0.0001378,0,sub_11
-0.0256408000000001,-0.0072503999999987,0.0333798,0.0436858000000004,-0.0389557999999992,0.0012695999999999,0,sub_11
-0.0209556000000001,-0.0044049999999987,0.028324,0.0328220000000004,-0.0331721999999993,0.0028953999999999,0,sub_11
-0.0160576000000001,-0.0027549999999987,0.021937,0.0232634000000004,-0.0239757999999993,0.0023893999999999,0,sub_11
-0.0143688000000001,-0.0030921999999987,0.0182714,0.0202602000000004,-0.0122949999999993,-0.0015048,0,sub_11
-0.0142568000000001,-0.0037175999999987,0.0158872,0.0166208000000004,-0.0042159999999993,-0.0098852,0,sub_11
-0.0156366000000001,-0.0046613999999987,0.0142822,0.0117242000000004,0.0064344000000006,-0.0208416,0,sub_11
-0.0186810000000001,-0.0039959999999987,0.0166202,0.0053312000000004,0.0164508000000007,-0.0318076,0,sub_11
-0.0224542000000001,-0.0022461999999987,0.0178968,0.0008174000000004,0.0209066000000006,-0.0391214,0,sub_11
-0.0229394000000002,0.0020684000000012,0.0156508,-0.0038747999999995,0.0190150000000006,-0.0415018,0,sub_11
-0.0223334000000002,0.0072798000000012,0.016601,-0.0077565999999995,0.0122014000000006,-0.0391702,0,sub_11
-0.0193664000000002,0.0094012000000012,0.0192596,-0.0103389999999995,0.0113418000000006,-0.035128,0,sub_11
-0.0151350000000002,0.0083518000000012,0.0183926,-0.0131213999999995,0.0136780000000006,-0.0308776,0,sub_11
-0.0120854000000002,0.0046730000000012,0.018774,-0.0182607999999995,0.0215036000000006,-0.0279426,0,sub_11
-0.0096270000000002,0.0001082000000012,0.0202786,-0.0261345999999995,0.0338298000000006,-0.0293054,0,sub_11
-0.0082450000000001,-0.0052995999999987,0.0209502,-0.0352321999999995,0.0530012000000006,-0.0364538,0,sub_11
-0.0087392000000001,-0.0088045999999987,0.0192778,-0.0434753999999995,0.0677144000000006,-0.0482908,0,sub_11
-0.0113142000000001,-0.0112749999999987,0.01899,-0.0453251999999995,0.0783666000000006,-0.062428,0,sub_11
-0.0132024000000001,-0.0119131999999987,0.0189056,-0.0407791999999995,0.0807430000000007,-0.074577,0,sub_11
-0.0195188000000001,-0.0085665999999987,0.0238178,-0.0286323999999995,0.0700768000000007,-0.0817424,0,sub_11
-0.0264600000000001,-0.0045187999999987,0.0310956,-0.0110321999999995,0.0548336000000007,-0.0841958,0,sub_11
-0.0331506000000002,4.060000000122438e-05,0.0397324,0.0093140000000004,0.0380706000000006,-0.0819276,0,sub_11
-0.0367078000000002,0.0010916000000012,0.0458188,0.0249288000000004,0.0185322000000006,-0.0741342,0,sub_11
-0.0384752000000002,0.0018200000000012,0.050542,0.0345346000000004,-0.0065331999999993,-0.0642392,0,sub_11
-0.0348476000000002,-0.0016733999999987,0.0512444,0.0375248000000004,-0.0313641999999993,-0.0539634,0,sub_11
-0.0284864000000002,-0.0055787999999987,0.0527412,0.0339642000000004,-0.0531269999999993,-0.0430644,0,sub_11
-0.0241954000000001,-0.0092007999999987,0.0542972,0.0257420000000004,-0.0676297999999992,-0.0322074,0,sub_11
-0.0219180000000001,-0.0094785999999987,0.0565598,0.0154588000000004,-0.0691159999999992,-0.0245862,0,sub_11
-0.0204038000000001,-0.0109739999999987,0.054459,0.0062894000000004,-0.0633493999999992,-0.0201712,0,sub_11
-0.0207668000000001,-0.0114479999999987,0.0507268,0.0008662000000004,-0.0534983999999992,-0.0192446,0,sub_11
-0.0243132000000002,-0.0112913999999987,0.0449224,0.0014106000000004,-0.0485551999999992,-0.0216884,0,sub_11
-0.0270230000000002,-0.0113589999999987,0.0401382,0.0072682000000004,-0.0495907999999993,-0.0253694,0,sub_11
-0.0291334000000002,-0.0106569999999987,0.0367146,0.0173550000000004,-0.0591635999999993,-0.0290098,0,sub_11
-0.0307760000000002,-0.0080657999999987,0.0378022,0.0323120000000004,-0.0762135999999993,-0.031752,0,sub_11
-0.0322486000000002,-0.0062243999999987,0.0412614,0.0478162000000004,-0.0922469999999993,-0.0316232,0,sub_11
-0.0306108000000002,-0.0031631999999987,0.0460476,0.0588244000000004,-0.1050951999999993,-0.0249068,0,sub_11
-0.0277140000000002,0.0006948000000012,0.0508178,0.0666962000000004,-0.1089177999999993,-0.0133668,0,sub_11
-0.0229006000000002,0.0034420000000012,0.053866,0.0760606000000004,-0.1078657999999993,0.0033047999999999,0,sub_11
-0.0169228000000001,0.0021166000000012,0.0550802,0.0815400000000004,-0.1123569999999993,0.0242293999999999,0,sub_11
-0.0129036000000001,-0.0002539999999987,0.0556724,0.0837902000000004,-0.1232285999999993,0.0451393999999999,0,sub_11
-0.0131252000000001,-0.0034165999999987,0.0552974,0.0899202000000004,-0.1313199999999993,0.0600909999999999,0,sub_11
-0.0114044000000001,-0.0066815999999987,0.0509806,0.0973038000000004,-0.1411823999999993,0.0691283999999999,0,sub_11
-0.0106338000000001,-0.0096583999999987,0.0466474,0.1012820000000004,-0.1525105999999993,0.0747255999999999,0,sub_11
-0.0128992000000001,-0.0076331999999987,0.0465734,0.1076822000000004,-0.1510483999999992,0.0764775999999999,0,sub_11
-0.0160660000000001,-0.0056657999999987,0.0452404,0.1196732000000004,-0.1398059999999993,0.0784697999999999,0,sub_11
-0.0167090000000001,-0.0045351999999987,0.042,0.1342762000000004,-0.1390073999999993,0.0845849999999999,0,sub_11
-0.0189462000000001,-0.0030569999999987,0.0401744,0.1483546000000004,-0.1573919999999993,0.0932847999999999,0,sub_11
-0.0261002000000001,-0.0021827999999987,0.0413684,0.1664718000000004,-0.1798363999999992,0.1013769999999999,0,sub_11
-0.0322246000000001,-0.0025917999999987,0.0395386,0.1842352000000004,-0.1877847999999993,0.1077389999999999,0,sub_11
-0.0304338000000001,-0.0012779999999987,0.0369174,0.1994400000000004,-0.1952981999999993,0.1140825999999999,0,sub_11
-0.0310308000000002,-0.0011685999999987,0.0390314,0.2134728000000004,-0.2011209999999993,0.1195291999999999,0,sub_11
-0.0345536000000002,-0.0024521999999987,0.0436638,0.2292892000000004,-0.1922399999999993,0.1226193999999999,0,sub_11
-0.0319328000000002,-0.0025663999999987,0.0451032,0.2376388000000004,-0.1812899999999992,0.1234631999999999,0,sub_11
-0.0293742000000002,-0.0031923999999987,0.043242,0.2455022000000004,-0.1839721999999993,0.1238935999999999,0,sub_11
-0.0320218000000002,-0.0056161999999987,0.0440148,0.2525044000000004,-0.1900533999999993,0.1226133999999999,0,sub_11
-0.0320382000000002,-0.0071895999999987,0.0414495999999999,0.2494992000000004,-0.1965053999999993,0.1161359999999999,0,sub_11
-0.0308328000000002,-0.0080307999999987,0.0372628,0.2381850000000004,-0.2022803999999992,0.1074631999999999,0,sub_11
-0.0324858000000002,-0.0097537999999987,0.0313872,0.2277786000000004,-0.2022003999999992,0.0964943999999999,0,sub_11
-0.0321940000000001,-0.0110133999999987,0.0282453999999999,0.2107578000000004,-0.2052803999999993,0.0822789999999999,0,sub_11
-0.0292996000000001,-0.0087481999999987,0.0282993999999999,0.1890456000000004,-0.2113121999999993,0.0644023999999999,0,sub_11
-0.0277322000000001,-0.0071687999999987,0.0286175999999999,0.1722668000000004,-0.2107597999999993,0.0474065999999998,0,sub_11
-0.0252960000000001,-0.0056375999999987,0.0277173999999999,0.1586906000000004,-0.2066095999999993,0.0336333999999999,0,sub_11
-0.0217680000000001,-0.0024145999999987,0.0275023999999999,0.1476750000000004,-0.1986485999999993,0.0237185999999998,0,sub_11
-0.0187944000000001,0.0006320000000012,0.0283921999999999,0.1423914000000004,-0.1907333999999993,0.0202531999999999,0,sub_11
-0.0187288000000001,0.0008536000000012,0.0281892,0.1428546000000004,-0.1798801999999993,0.0230199999999999,0,sub_11
-0.0185562000000001,0.0029552000000012,0.0233236,0.1411812000000004,-0.1675367999999993,0.0279063999999999,0,sub_11
-0.0183448000000001,0.0060996000000012,0.0220832,0.1390704000000004,-0.1609305999999993,0.0293785999999999,0,sub_11
-0.0172990000000001,0.0062494000000012,0.0257874,0.1397382000000004,-0.1558153999999993,0.0283085999999999,0,sub_11
-0.0170970000000001,0.0030428000000012,0.0277704,0.1406712000000004,-0.1411057999999992,0.0253051999999999,0,sub_11
-0.0161032000000001,0.0002334000000012,0.0265904,0.1375406000000004,-0.1295735999999992,0.0212093999999999,0,sub_11
-0.0161440000000001,-0.0008839999999987,0.0302078,0.1352654000000004,-0.1163449999999992,0.0183991999999999,0,sub_11
-0.0161148000000002,-0.0020355999999987,0.0339028,0.1331826000000004,-0.1069555999999992,0.0164497999999999,0,sub_11
-0.0173764000000002,-0.0039891999999987,0.0341226,0.1295908000000004,-0.0992719999999992,0.0162011999999999,0,sub_11
-0.0194476000000002,-0.0025569999999987,0.0331168,0.1247016000000004,-0.0947823999999992,0.0165885999999999,0,sub_11
-0.0214148000000002,0.0010264000000012,0.031728,0.1217508000000004,-0.0873125999999992,0.0159173999999998,0,sub_11
-0.0230154000000002,0.0006386000000012,0.0342004,0.1240864000000004,-0.0862699999999993,0.0195641999999999,0,sub_11
-0.0289826000000002,0.0027646000000012,0.0332898,0.1264238000000004,-0.0839525999999993,0.0240641999999998,0,sub_11
-0.0340782000000002,0.0087010000000012,0.0294582,0.1241160000000004,-0.0796655999999993,0.0195559999999999,0,sub_11
-0.0346380000000002,0.0140362000000012,0.0273206,0.1222032000000004,-0.0864423999999993,0.0110055999999999,0,sub_11
-0.0299734000000002,0.0120002000000012,0.0278846,0.1192160000000004,-0.0925857999999993,0.0047969999999999,0,sub_11
-0.0255606000000002,0.0098382000000012,0.0243282,0.1130618000000004,-0.0910489999999993,-0.00123,0,sub_11
-0.0191910000000002,0.0048414000000012,0.0231906,0.1092336000000004,-0.0897511999999993,-0.002754,0,sub_11
-0.0155420000000002,0.0034922000000012,0.024723,0.1074700000000004,-0.0940393999999993,0.0055713999999999,0,sub_11
-0.0142598000000002,0.0054362000000012,0.0231828,0.1037966000000004,-0.0968261999999993,0.0130267999999999,0,sub_11
-0.0172096000000002,0.0077882000000012,0.0241762,0.1050682000000003,-0.0962017999999993,0.0155985999999999,0,sub_11
-0.0203066000000002,0.0076686000000012,0.0235932,0.1059034000000004,-0.1008893999999993,0.0149695999999999,0,sub_11
-0.0218928000000002,0.0101544000000012,0.0207476,0.1048528000000004,-0.0998101999999993,0.0123971999999999,0,sub_11
-0.0197950000000002,0.0131696000000012,0.0201794,0.1021068000000004,-0.0980781999999993,0.0078891999999998,0,sub_11
-0.0155608000000002,0.0117932000000012,0.0198804,0.0990166000000003,-0.0805685999999992,0.0007949999999999,0,sub_11
-0.0096832000000002,0.0108690000000012,0.0129804,0.0876162000000004,-0.0653537999999992,-0.0112682,0,sub_11
-0.0009500000000002,0.0124274000000012,0.0077872,0.0790338000000004,-0.0433189999999992,-0.0263116,0,sub_11
0.0068565999999997,0.0087524000000012,0.011007,0.0723134000000004,-0.0257991999999992,-0.0327904,0,sub_11
0.0141293999999997,0.0035852000000012,0.0172326,0.0715692000000004,-0.0029935999999992,-0.0343203999999999,0,sub_11
0.0191471999999997,0.0008802000000012,0.025677,0.0686760000000004,0.0170472000000006,-0.0352208,0,sub_11
0.0174847999999997,0.0096892000000012,0.0351358,0.0696398000000004,0.0428186000000006,-0.0339654,0,sub_11
0.0146227999999997,0.0125366000000012,0.0352816,0.0697566000000004,0.0636764000000006,-0.031399,0,sub_11
0.0151199999999997,0.0098118000000012,0.025581,0.0762784000000004,0.0817566000000006,-0.0324164,0,sub_11
0.0174767999999997,0.0058986000000012,0.0188182,0.0808146000000004,0.0862048000000006,-0.0325756,0,sub_11
0.0214469999999997,0.0035916000000012,0.0201202,0.0921538000000004,0.0937900000000006,-0.023932,0,sub_11
0.0224821999999997,-0.0053285999999987,0.0249196,0.1081652000000004,0.1057954000000007,-0.0058608,0,sub_11
0.0108547999999997,-0.0067899999999987,0.0384016,0.1296756000000004,0.1199016000000006,0.0175585999999999,0,sub_11
-0.0107504000000002,0.0021288000000012,0.0532712,0.1407594000000004,0.1285528000000007,0.0289481999999999,0,sub_11
-0.0312472000000002,0.0105400000000012,0.0578276,0.1501698000000004,0.1268420000000007,0.0223931999999999,0,sub_11
-0.0478440000000002,0.0157286000000012,0.056449,0.1570024000000004,0.1104828000000006,0.0049429999999999,0,sub_11
-0.0509106000000002,0.0138636000000012,0.0463764,0.1542056000000004,0.0856444000000006,-0.0149136,0,sub_11
-0.0392980000000002,0.0102786000000012,0.0334688,0.1413840000000004,0.0602082000000006,-0.036335,0,sub_11
-0.0165028000000002,0.0065208000000012,0.0247908,0.1305144000000004,0.0490108000000006,-0.0504972,0,sub_11
