userAcceleration.x,userAcceleration.y,userAcceleration.z,rotationRate.x,rotationRate.y,rotationRate.z,label,subject
0.0126077999999996,0.0056320000000012,-0.0036386,-0.0087403999999995,0.0876296000000009,-0.0180534,0,sub_24
0.0091707999999996,0.0057698000000012,-0.0018712,-0.0074323999999995,0.0969870000000009,-0.01485,0,sub_24
0.0067695999999996,0.0048400000000012,-0.0009658,-0.0040031999999995,0.1031428000000009,-0.0120554,0,sub_24
0.0051433999999996,0.0041442000000012,0.0004511999999999,-0.0005567999999995,0.1105872000000009,-0.0118264,0,sub_24
0.0043525999999996,0.0056212000000012,0.0037325999999999,0.0022240000000004,0.1105846000000009,-0.0135154,0,sub_24
0.0021803999999997,0.0093182000000012,0.0054059999999999,0.0039260000000004,0.1073926000000009,-0.015849,0,sub_24
0.0005001999999997,0.0107084000000012,0.0053363999999999,0.0041558000000004,0.1071954000000009,-0.0199062,0,sub_24
0.0004421999999997,0.0131476000000012,0.0047391999999999,0.0033186000000004,0.1046676000000009,-0.0263182,0,sub_24
0.0003329999999997,0.0156410000000012,0.0023039999999999,-0.0002969999999995,0.1019328000000009,-0.0318946,0,sub_24
6.199999999973067e-05,0.0152684000000012,0.0004279999999999,-0.0066553999999995,0.1068744000000009,-0.0366456,0,sub_24
0.0017539999999997,0.0128108000000012,0.0010823999999999,-0.0102199999999995,0.1143704000000009,-0.0433028,0,sub_24
0.0043381999999996,0.0123610000000012,0.0015309999999999,-0.0125071999999995,0.1214350000000009,-0.0497368,0,sub_24
0.0060865999999996,0.0095002000000012,0.0014671999999999,-0.0149979999999995,0.1325408000000009,-0.0542541999999999,0,sub_24
0.0088511999999996,0.0050926000000012,0.0017843999999999,-0.0142871999999995,0.1440608000000009,-0.0585356,0,sub_24
0.0118061999999996,0.0029712000000012,0.0011081999999999,-0.0102065999999995,0.1459806000000009,-0.0625672,0,sub_24
0.0122537999999996,0.0023806000000012,0.0011853999999999,-0.0102391999999995,0.1370396000000009,-0.0642636,0,sub_24
0.0088795999999996,0.0034816000000012,-0.0035826,-0.0109039999999994,0.1319272000000009,-0.0638332,0,sub_24
0.0052031999999996,0.0053760000000012,-0.0085246,-0.0113387999999995,0.1297992000000009,-0.0640462,0,sub_24
-0.0009304000000002,0.0085586000000012,-0.0095428,-0.0150231999999994,0.1146936000000009,-0.0661892,0,sub_24
-0.0076852000000002,0.0109260000000012,-0.0093798,-0.0208135999999994,0.1040764000000009,-0.0700624,0,sub_24
-0.0126694000000002,0.0106902000000012,-0.0107872,-0.0231333999999994,0.1083514000000009,-0.0715808,0,sub_24
-0.0139638000000002,0.0073036000000012,-0.008372,-0.0212097999999995,0.1098316000000009,-0.0705026,0,sub_24
-0.0154992000000002,0.0045592000000012,-0.0040168,-0.0165787999999995,0.1010578000000009,-0.064906,0,sub_24
-0.0159486000000002,0.0020950000000012,-0.0013176,-0.0089501999999995,0.0990742000000009,-0.0550244,0,sub_24
-0.0151742000000002,0.0025988000000012,0.0016623999999999,0.0001670000000004,0.0985664000000009,-0.0425706,0,sub_24
-0.0141990000000002,0.0045548000000012,0.0041817999999999,0.0096762000000004,0.0922972000000009,-0.028184,0,sub_24
-0.0150280000000002,0.0069392000000012,0.0069723999999999,0.0130144000000004,0.0894600000000009,-0.014272,0,sub_24
-0.0154324000000002,0.0092208000000012,0.0094071999999999,0.0134166000000004,0.0951674000000009,-0.0033828,0,sub_24
-0.0164632000000002,0.0116394000000011,0.0101661999999999,0.0127808000000004,0.1038750000000009,0.0040771999999999,0,sub_24
-0.0194876000000002,0.0114946000000011,0.0088269999999999,0.0125448000000004,0.1034326000000009,0.0083465999999999,0,sub_24
-0.0228100000000002,0.0109790000000011,0.0065545999999999,0.0104040000000004,0.1006760000000009,0.0068365999999999,0,sub_24
-0.0233246000000002,0.0103922000000012,0.0049495999999999,0.0093390000000004,0.0960138000000009,0.0014909999999999,0,sub_24
-0.0225880000000002,0.0099158000000012,0.0021363999999999,0.0078132000000004,0.0834708000000009,-0.0040614,0,sub_24
-0.0209798000000002,0.0078594000000012,-0.0012888,0.0071056000000004,0.0649516000000009,-0.0076775999999999,0,sub_24
-0.0181756000000002,0.0054054000000011,-0.00551,0.0074676000000004,0.0479160000000009,-0.0102193999999999,0,sub_24
-0.0143212000000002,0.0040084000000011,-0.0085768,0.0074062000000004,0.0308846000000009,-0.0134045999999999,0,sub_24
-0.0091644000000002,0.0028876000000011,-0.010474,0.0064868000000004,0.0119422000000009,-0.0174473999999999,0,sub_24
-0.0041804000000002,0.0023244000000011,-0.0120626,0.0066326000000004,-0.007005599999999,-0.0210547999999999,0,sub_24
-0.0008464000000002,0.0030000000000011,-0.0133288,0.0055158000000004,-0.021264999999999,-0.0238219999999999,0,sub_24
0.0018875999999997,0.0044508000000012,-0.0133524,0.0022702000000004,-0.031905399999999,-0.0240447999999999,0,sub_24
0.0032687999999997,0.0054162000000012,-0.0142244,0.0007114000000004,-0.043206199999999,-0.020409,0,sub_24
0.0014707999999997,0.0064938000000012,-0.015332,0.0002088000000004,-0.053883599999999,-0.0137758,0,sub_24
-0.0017412000000002,0.0061176000000012,-0.014543,-0.0002665999999995,-0.062897799999999,-0.0071596,0,sub_24
-0.0035764000000002,0.0061834000000012,-0.0123648,0.0018144000000004,-0.074470799999999,-0.0022318,0,sub_24
-0.0047192000000002,0.0064498000000012,-0.0088832,0.0049702000000004,-0.085827599999999,0.0009939999999999,0,sub_24
-0.0054318000000002,0.0073324000000012,-0.0042838,0.0070778000000004,-0.092707399999999,0.0044203999999999,0,sub_24
-0.0050702000000002,0.0088502000000012,0.0011905999999999,0.0083562000000004,-0.093408399999999,0.0084739999999999,0,sub_24
-0.0046702000000002,0.0109422000000012,0.0050285999999999,0.0083410000000004,-0.091086999999999,0.0140249999999999,0,sub_24
-0.0052820000000002,0.0110248000000012,0.0072579999999999,0.0072690000000004,-0.085569399999999,0.0204191999999999,0,sub_24
-0.0067870000000002,0.0094016000000012,0.0085467999999999,0.0066324000000004,-0.078560399999999,0.0263869999999999,0,sub_24
-0.0084318000000002,0.0071064000000012,0.0096599999999999,0.0079198000000004,-0.072827999999999,0.0302329999999999,0,sub_24
-0.0096186000000002,0.0064226000000012,0.0102975999999999,0.0094138000000004,-0.071770799999999,0.0308815999999999,0,sub_24
-0.0102816000000002,0.0075860000000012,0.0115523999999999,0.0096464000000004,-0.070691999999999,0.0272483999999999,0,sub_24
-0.0092356000000002,0.0086672000000011,0.0123327999999999,0.0082054000000004,-0.065333599999999,0.0203933999999999,0,sub_24
-0.0066164000000002,0.0098848000000011,0.0122355999999999,0.0042278000000004,-0.056125199999999,0.0120205999999999,0,sub_24
-0.0031636000000002,0.0102108000000011,0.0108933999999999,-0.0012413999999995,-0.047121999999999,0.0029971999999999,0,sub_24
-0.0017658000000002,0.0094334000000012,0.0063743999999999,-0.0060755999999995,-0.037913799999999,-0.0045262,0,sub_24
-0.0012884000000002,0.0068894000000012,0.0018225999999999,-0.0096439999999994,-0.030633399999999,-0.0105428,0,sub_24
-5.780000000025019e-05,0.0047772000000012,-0.0025832,-0.0100531999999994,-0.030616399999999,-0.0143914,0,sub_24
0.0012143999999997,0.0041146000000012,-0.0055778,-0.0077351999999994,-0.039138799999999,-0.0162872,0,sub_24
0.0016425999999997,0.0046874000000012,-0.0077016,-0.0050263999999995,-0.051726799999999,-0.0141156,0,sub_24
0.0024933999999997,0.0029312000000012,-0.005484,-0.0031835999999995,-0.063473999999999,-0.008319,0,sub_24
0.0050289999999997,0.0022644000000012,-0.0036562,0.0003810000000004,-0.072242799999999,-0.0029412,0,sub_24
0.0059195999999996,0.0051864000000012,-0.0012346,0.0011646000000004,-0.082068999999999,0.0028459999999999,0,sub_24
0.0055371999999996,0.0028486000000012,0.0011803999999999,0.0006938000000004,-0.085077199999999,0.0096841999999999,0,sub_24
0.0049125999999996,0.0013426000000012,0.0044359999999999,0.0022206000000004,-0.080867399999999,0.0105325999999999,0,sub_24
0.0033685999999996,0.0022522000000012,0.0065563999999999,0.0076068000000004,-0.075805199999999,0.0079883999999999,0,sub_24
0.0010327999999996,0.0024046000000012,0.0091349999999999,0.0112946000000004,-0.065848799999999,0.0084169999999999,0,sub_24
1.4599999999709724e-05,0.0015668000000012,0.0110999999999999,0.0130820000000004,-0.050350399999999,0.0098931999999999,0,sub_24
-0.0001922000000003,0.0057474000000012,0.0110819999999999,0.0148498000000004,-0.039113399999999,0.0113745999999999,0,sub_24
-0.0011912000000003,0.0081510000000012,0.0093565999999999,0.0148716000000004,-0.030180399999999,0.0152091999999999,0,sub_24
-0.0011592000000003,0.0098638000000012,0.0069605999999999,0.0110596000000004,-0.021864799999999,0.0168811999999999,0,sub_24
-0.0016988000000003,0.0117286000000012,0.0027043999999999,0.0074392000000004,-0.020571999999999,0.0164267999999999,0,sub_24
-0.0026810000000003,0.0111902000000012,0.0012829999999999,0.0053294000000004,-0.021013399999999,0.0129947999999999,0,sub_24
-0.0022798000000002,0.0099046000000012,0.0031527999999999,0.0034590000000004,-0.018673799999999,0.0065697999999999,0,sub_24
-0.0015844000000002,0.0105108000000012,0.0039227999999999,0.0005118000000004,-0.018036799999999,0.0005665999999999,0,sub_24
-0.0008366000000002,0.0097138000000012,0.0031433999999999,-0.0017969999999995,-0.015918199999999,-0.0035112,0,sub_24
0.0006777999999997,0.0073972000000012,0.0034183999999999,-0.0038663999999995,-0.007835799999999,-0.007381,0,sub_24
0.0025331999999997,0.0053990000000012,0.0021145999999999,-0.0046837999999995,-0.001222199999999,-0.0088904,0,sub_24
0.0039035999999996,0.0051652000000012,-0.0009072,-0.0040427999999995,-0.000162399999999,-0.0080324,0,sub_24
0.0051417999999996,0.0035124000000012,-0.002096,-0.0016943999999995,0.0021648000000009,-0.0058818,0,sub_24
0.0068163999999996,0.0039604000000012,-0.0025758,0.0002522000000004,0.0076518000000009,-0.0037324,0,sub_24
0.0073643999999996,0.0050758000000012,-0.0028226,0.0015470000000004,0.0118576000000009,-0.000304,0,sub_24
0.0066201999999996,0.0061358000000011,-0.0016128,0.0030474000000004,0.0139338000000009,0.0027011999999999,0,sub_24
0.0028535999999997,0.0053036000000011,-0.0007148,0.0032762000000004,0.0164464000000009,0.0042011999999999,0,sub_24
-0.0013318000000002,0.0060794000000011,0.0004829999999999,0.0018168000000004,0.0198308000000009,0.0022693999999999,0,sub_24
-0.0050968000000002,0.0066286000000012,0.0018209999999999,0.0005418000000004,0.0177184000000009,-0.0011556,0,sub_24
-0.0070536000000002,0.0072220000000012,0.0032383999999999,-0.0005331999999995,0.0105006000000009,-0.0067094,0,sub_24
-0.0084196000000002,0.0069056000000012,0.0032903999999999,-0.0013573999999995,0.0111666000000009,-0.0126992,0,sub_24
-0.0074646000000002,0.0083372000000012,0.0033989999999999,-0.0023865999999995,0.0145996000000009,-0.0178394,0,sub_24
-0.0055840000000002,0.0085876000000012,0.0029751999999999,-0.0032189999999995,0.0154238000000009,-0.0193338,0,sub_24
-0.0032372000000002,0.0084410000000012,0.0016813999999999,-0.0053361999999995,0.0177338000000009,-0.0182748,0,sub_24
-0.0017536000000002,0.0086812000000012,0.0003339999999999,-0.0059615999999995,0.0221588000000009,-0.014644,0,sub_24
-0.0002420000000002,0.0081036000000012,-0.0009314,-0.0066185999999995,0.0208264000000009,-0.009724,0,sub_24
1.539999999972991e-05,0.0071336000000012,-0.0018102,-0.0055711999999995,0.0186368000000009,-0.0050044,0,sub_24
-0.0004110000000002,0.0080168000000012,-0.0033228,-0.0047433999999995,0.0169134000000009,-0.000937,0,sub_24
-0.0027026000000002,0.0083814000000012,-0.0029348,-0.0036945999999995,0.0168936000000009,0.0031293999999999,0,sub_24
-0.0031932000000002,0.0079230000000012,0.0003825999999999,-0.0043163999999995,0.0205002000000009,0.0044101999999999,0,sub_24
-0.0041210000000002,0.0089324000000012,0.0036895999999999,-0.0051431999999995,0.0239030000000009,0.0035533999999999,0,sub_24
-0.0051504000000002,0.0085554000000012,0.0059063999999999,-0.0068315999999995,0.0245432000000009,0.0016255999999999,0,sub_24
-0.0068166000000002,0.0078478000000012,0.0078815999999999,-0.0078743999999995,0.0249742000000009,-0.0017932,0,sub_24
-0.0070478000000002,0.0073804000000012,0.0094417999999999,-0.0084847999999995,0.0243478000000009,-0.0075575999999999,0,sub_24
-0.0087240000000002,0.0077210000000012,0.0086455999999999,-0.0084793999999995,0.0203218000000009,-0.0131081999999999,0,sub_24
-0.0102034000000002,0.0076362000000012,0.0065989999999999,-0.0076213999999995,0.0171408000000009,-0.0175861999999999,0,sub_24
-0.0107886000000002,0.0094730000000012,0.0040591999999999,-0.0078451999999995,0.0137378000000009,-0.0188667999999999,0,sub_24
-0.0104550000000002,0.0082340000000012,0.0024809999999999,-0.0080829999999995,0.0088190000000009,-0.016932,0,sub_24
-0.0098368000000002,0.0065570000000012,0.0008211999999999,-0.0066193999999995,0.0038892000000009,-0.0137034,0,sub_24
-0.0070146000000002,0.0055652000000012,-0.000265,-0.0023931999999995,-0.003182399999999,-0.0100252,0,sub_24
-0.0045690000000002,0.0058586000000012,-0.001593,-0.0001005999999995,-0.012593399999999,-0.0057158,0,sub_24
-0.0027360000000002,0.0053810000000012,-0.0010816,0.0005100000000004,-0.018793399999999,-0.0037722,0,sub_24
0.0006759999999997,0.0059084000000012,-0.0011168,0.0013742000000004,-0.016664799999999,-0.0039824,0,sub_24
0.0050367999999997,0.0061184000000012,-0.0022898,0.0007640000000004,-0.011330999999999,-0.0052748,0,sub_24
0.0053981999999996,0.0065488000000012,-0.002754,-0.0024073999999995,-0.007686599999999,-0.008078,0,sub_24
0.0048033999999996,0.0068296000000012,-0.0017236,-0.0061865999999995,-0.000626999999999,-0.0132308,0,sub_24
0.0043257999999996,0.0080058000000012,-0.0013116,-0.0095189999999995,0.0098444000000009,-0.019453,0,sub_24
0.0029045999999997,0.0087394000000012,-0.0005402,-0.0139511999999995,0.0132878000000009,-0.0254602,0,sub_24
-0.0003522000000002,0.0104784000000012,0.0017551999999999,-0.0184141999999995,0.0113988000000009,-0.0299658,0,sub_24
-0.0028884000000002,0.0103752000000012,0.0033231999999998,-0.0228669999999995,0.0131266000000009,-0.0331946,0,sub_24
-0.0040162000000002,0.0095002000000012,0.0045215999999998,-0.0262625999999995,0.0167630000000009,-0.0338644,0,sub_24
-0.0042796000000002,0.0070714000000012,0.0051989999999998,-0.0269159999999995,0.0171786000000009,-0.0306654,0,sub_24
-0.0047964000000002,0.0042440000000012,0.0031159999999999,-0.0233369999999995,0.0124548000000009,-0.024653,0,sub_24
-0.0054246000000002,0.0017418000000012,4.519999999990955e-05,-0.0152753999999995,0.0089842000000009,-0.0164652,0,sub_24
-0.0046502000000002,0.0003860000000012,-0.0032376,-0.0046559999999995,0.0082606000000009,-0.0048448,0,sub_24
-0.0014096000000002,0.0001858000000012,-0.0043012,0.0069952000000004,0.0017726000000009,0.0089271999999999,0,sub_24
0.0008901999999997,0.0014012000000012,-0.0052058,0.0186176000000004,-0.009621599999999,0.0242009999999999,0,sub_24
0.0030381999999997,0.0041886000000012,-0.0031868,0.0285674000000004,-0.014612999999999,0.0381733999999999,0,sub_24
0.0052531999999997,0.0062744000000012,0.0001867999999999,0.0332030000000004,-0.015742199999999,0.0501719999999999,0,sub_24
0.0081523999999997,0.0087072000000012,0.0043065999999999,0.0337890000000004,-0.018550399999999,0.0593673999999999,0,sub_24
0.0086711999999997,0.0095408000000012,0.0058431999999999,0.0324878000000004,-0.017290399999999,0.0651263999999999,0,sub_24
0.0084617999999997,0.0090266000000012,0.0064205999999999,0.0299584000000004,-0.010042599999999,0.0663923999999999,0,sub_24
0.0070095999999997,0.0079046000000012,0.0062589999999999,0.0266032000000004,0.0002036000000009,0.0644437999999999,0,sub_24
0.0055315999999997,0.0072262000000012,0.0054165999999999,0.0247554000000004,0.0089712000000009,0.0580209999999999,0,sub_24
0.0036947999999997,0.0056638000000012,0.0070293999999999,0.0231456000000004,0.0181846000000009,0.0464715999999999,0,sub_24
0.0023121999999997,0.0047078000000012,0.0073541999999999,0.0221774000000004,0.0256998000000009,0.0327921999999999,0,sub_24
0.0007653999999997,0.0044046000000012,0.0080249999999998,0.0218270000000004,0.0300144000000009,0.0197521999999999,0,sub_24
0.0003125999999997,0.0055458000000012,0.0074973999999999,0.0208174000000004,0.0324044000000009,0.0090601999999999,0,sub_24
-0.0001966000000002,0.0054368000000012,0.0059929999999999,0.0191446000000004,0.0335030000000009,0.0022105999999999,0,sub_24
-0.0013686000000002,0.0066602000000012,0.0008793999999999,0.0195668000000004,0.0307336000000009,0.0015873999999999,0,sub_24
-0.0020816000000002,0.0086504000000012,-0.003214,0.0233696000000004,0.0255876000000009,0.0063315999999999,0,sub_24
0.0004743999999997,0.0093434000000012,-0.0065008,0.0269708000000004,0.0251210000000009,0.0132051999999999,0,sub_24
0.0054649999999997,0.0081290000000012,-0.0072424,0.0295312000000004,0.0306228000000009,0.0202779999999999,0,sub_24
0.0123625999999997,0.0087942000000012,-0.0064002,0.0335776000000004,0.0348394000000009,0.0277911999999999,0,sub_24
0.0184429999999997,0.0100140000000012,-0.0066666,0.0372202000000004,0.0456622000000009,0.0354969999999999,0,sub_24
0.0232663999999997,0.0109826000000012,-0.006596,0.0353984000000004,0.0729180000000009,0.0410075999999999,0,sub_24
0.0265985999999997,0.0087800000000012,-0.0053386,0.0319212000000004,0.1106236000000009,0.0454253999999999,0,sub_24
0.0238157999999997,0.0051740000000012,-0.0056788,0.0314388000000004,0.1495934000000009,0.0507275999999999,0,sub_24
0.0176607999999997,0.0007182000000012,-0.0067986,0.0345886000000004,0.1921622000000009,0.0586133999999999,0,sub_24
0.0090625999999997,-0.0048355999999987,-0.0065108,0.0422100000000004,0.2327968000000009,0.0667449999999999,0,sub_24
-0.0016732000000002,-0.0051585999999987,-0.0040418,0.0553106000000004,0.2578606000000009,0.0745059999999999,0,sub_24
-0.0122302000000002,-0.0007897999999987,-0.0012522,0.0706680000000004,0.2620402000000009,0.0814537999999999,0,sub_24
-0.0166596000000002,0.0046552000000012,0.0032233999999999,0.0825476000000004,0.2492048000000009,0.0841147999999999,0,sub_24
-0.0143712000000002,0.0112904000000012,0.0084809999999999,0.0889026000000004,0.2319540000000009,0.0769153999999999,0,sub_24
-0.0081640000000002,0.0173390000000012,0.0139737999999999,0.0863546000000004,0.2196680000000009,0.0613157999999999,0,sub_24
-0.0003420000000002,0.0193654000000012,0.0182509999999999,0.0755716000000004,0.2195768000000009,0.0398889999999999,0,sub_24
0.0066403999999997,0.0205908000000012,0.0206757999999999,0.0589370000000004,0.2397748000000009,0.0113455999999999,0,sub_24
0.0115501999999997,0.0222812000000012,0.0192923999999999,0.0387856000000004,0.2779084000000009,-0.0238678,0,sub_24
0.0064973999999997,0.0241854000000012,0.0154547999999999,0.0141510000000004,0.3171160000000009,-0.057405,0,sub_24
-0.0051858000000002,0.0258736000000012,0.0086739999999999,-0.0099463999999995,0.3396776000000009,-0.084509,0,sub_24
-0.0182900000000002,0.0225314000000012,0.0006009999999999,-0.0311995999999995,0.3383418000000009,-0.1049528,0,sub_24
-0.0269980000000002,0.0154866000000012,-0.0066792,-0.0440423999999995,0.3156454000000009,-0.1189014,0,sub_24
-0.0334010000000002,0.0092284000000012,-0.0099434,-0.0466099999999995,0.2651660000000009,-0.1203516,0,sub_24
-0.0335242000000002,0.0035858000000012,-0.0102286,-0.0397299999999995,0.1909552000000009,-0.1097304,0,sub_24
-0.0253202000000002,-0.0024835999999987,-0.0066416,-0.0277657999999994,0.1145722000000009,-0.0930878,0,sub_24
-0.0137462000000002,-0.0069459999999987,-0.0027518,-0.0114697999999995,0.0547830000000009,-0.0740862,0,sub_24
-0.0064804000000002,-0.0047913999999987,0.0010203999999999,0.0033930000000004,0.0135140000000009,-0.0499908,0,sub_24
-0.0028216000000002,-0.0018925999999987,0.0052521999999999,0.0140878000000004,-0.005157999999999,-0.0255257999999999,0,sub_24
-0.0046024000000002,0.0002802000000012,0.0082473999999999,0.0199862000000004,-0.003760799999999,-0.007113,0,sub_24
-0.0107546000000002,-0.0002411999999987,0.0076301999999999,0.0231834000000004,0.0074720000000009,0.0048577999999999,0,sub_24
-0.0181350000000002,0.0020244000000012,0.0060099999999999,0.0274446000000004,0.0112714000000009,0.0100075999999999,0,sub_24
-0.0238808000000002,0.0033142000000012,0.0045567999999999,0.0331122000000004,-0.010900399999999,0.0085771999999999,0,sub_24
-0.0290004000000002,0.0038786000000012,0.0014735999999999,0.0391184000000004,-0.056069799999999,0.0037591999999999,0,sub_24
-0.0289110000000002,0.0039494000000012,-0.0020446,0.0457686000000004,-0.098903999999999,0.0004373999999999,0,sub_24
-0.0245836000000002,0.0069766000000012,-0.0041734,0.0526116000000004,-0.140908799999999,0.0026715999999999,0,sub_24
-0.0184340000000002,0.0067534000000012,-0.0047018,0.0583630000000004,-0.182082999999999,0.0113075999999999,0,sub_24
-0.0151784000000002,0.0045710000000012,-0.004987,0.0620228000000004,-0.211116799999999,0.0226909999999999,0,sub_24
-0.0117452000000002,0.0023298000000012,-0.0045944,0.0659614000000004,-0.225239399999999,0.0344851999999999,0,sub_24
-0.0080138000000002,0.0011958000000012,-0.0033634,0.0718378000000004,-0.237231199999999,0.0445817999999999,0,sub_24
-0.0037796000000002,0.0022740000000012,1.8799999999909865e-05,0.0785950000000004,-0.248352399999999,0.0493425999999999,0,sub_24
-0.0023090000000002,0.0037098000000012,0.0034113999999998,0.0808938000000004,-0.256678999999999,0.0517191999999999,0,sub_24
-0.0003326000000002,0.0061976000000012,0.0050263999999998,0.0806502000000004,-0.262433999999999,0.0525793999999999,0,sub_24
0.0025065999999997,0.0089236000000012,0.0047595999999998,0.0778920000000004,-0.260075399999999,0.0512755999999999,0,sub_24
0.0047743999999996,0.0087656000000012,0.0046901999999998,0.0736620000000004,-0.255782199999999,0.0469683999999999,0,sub_24
0.0042241999999996,0.0070746000000012,0.0030715999999999,0.0685654000000004,-0.254468799999999,0.0426589999999999,0,sub_24
0.0030933999999996,0.0075314000000012,0.0006129999999999,0.0638776000000004,-0.255082799999999,0.0404909999999999,0,sub_24
0.0022607999999996,0.0062706000000012,-0.0013036,0.0600464000000004,-0.252726399999999,0.0406751999999999,0,sub_24
-1.2000000000310026e-05,0.0042036000000012,-0.0028312,0.0587414000000004,-0.2582611999999991,0.0406733999999999,0,sub_24
-0.0030058000000002,0.0029250000000012,-0.0052898,0.0584720000000004,-0.270405999999999,0.0411139999999999,0,sub_24
-0.0050846000000002,0.0028008000000012,-0.0081086,0.0592728000000004,-0.282127599999999,0.0413475999999999,0,sub_24
-0.0042812000000003,0.0041580000000012,-0.009482,0.0605380000000004,-0.288300199999999,0.0388001999999999,0,sub_24
-0.0024314000000003,0.0068228000000011,-0.0099416,0.0600952000000004,-0.294255599999999,0.0366679999999999,0,sub_24
-0.0001486000000003,0.0096394000000011,-0.0103274,0.0577438000000004,-0.2942521999999991,0.0379333999999999,0,sub_24
0.0023623999999996,0.0118050000000011,-0.009584,0.0522146000000004,-0.286365799999999,0.0419443999999999,0,sub_24
0.0012819999999996,0.0123590000000011,-0.0076662,0.0437102000000004,-0.2754871999999991,0.0461443999999999,0,sub_24
-0.0049818000000002,0.0123198000000012,-0.006775,0.0345666000000004,-0.2663031999999991,0.0484179999999999,0,sub_24
-0.0123124000000002,0.0132942000000012,-0.0071196,0.0256306000000004,-0.2639155999999991,0.0451465999999999,0,sub_24
-0.0192012000000002,0.0158216000000012,-0.0067548,0.0152286000000004,-0.2619329999999991,0.0369653999999999,0,sub_24
-0.0226688000000002,0.0151788000000012,-0.0067372,0.0061146000000004,-0.2578259999999991,0.0292167999999999,0,sub_24
-0.0237300000000002,0.0140052000000012,-0.0064132,-0.0017325999999995,-0.255220799999999,0.0229743999999999,0,sub_24
-0.0246710000000002,0.0140372000000012,-0.0061396,-0.0083369999999995,-0.259868199999999,0.0178185999999999,0,sub_24
-0.0242444000000002,0.0121720000000012,-0.004581,-0.0132151999999995,-0.259411599999999,0.0135227999999999,0,sub_24
