userAcceleration.x,userAcceleration.y,userAcceleration.z,rotationRate.x,rotationRate.y,rotationRate.z,label,subject
0.0138565999999996,0.0090844000000012,0.0370086,0.0002400000000005,0.0466444000000008,-0.0261888,0,sub_16
0.0146563999999996,0.0124582000000012,0.0356244,0.0019632000000005,0.0557776000000008,-0.0206338,0,sub_16
0.0150767999999996,0.0131874000000012,0.0358526,0.0034664000000005,0.0621470000000008,-0.0163586,0,sub_16
0.0152373999999996,0.0138934000000012,0.0370706,0.0041114000000005,0.0651198000000008,-0.014435,0,sub_16
0.0147053999999996,0.0129776000000012,0.038752,0.0030560000000005,0.0670436000000008,-0.0150858,0,sub_16
0.0148579999999996,0.0100552000000012,0.0381844,0.0015826000000005,0.0702496000000008,-0.0163822,0,sub_16
0.0154269999999996,0.0083362000000012,0.0375392,0.0009608000000005,0.0757852000000008,-0.014898,0,sub_16
0.0172663999999996,0.0075402000000012,0.0358486,0.0037462000000005,0.0825762000000008,-0.0106144,0,sub_16
0.0185167999999996,0.0062972000000012,0.0346514,0.0082318000000005,0.0893552000000008,-0.0048234,0,sub_16
0.0201709999999996,0.0048712000000012,0.0333005999999999,0.0133412000000005,0.0931466000000008,0.0016167999999999,0,sub_16
0.0210709999999996,0.0049024000000012,0.0335463999999999,0.0163072000000005,0.0935418000000008,0.0067645999999999,0,sub_16
0.0224001999999996,0.0063664000000012,0.0328611999999999,0.0177740000000005,0.0918150000000008,0.0110499999999999,0,sub_16
0.0224653999999996,0.0077420000000012,0.0329135999999999,0.0179614000000005,0.0896692000000008,0.0146859999999999,0,sub_16
0.0236047999999996,0.0077932000000012,0.0327041999999999,0.0183642000000005,0.0883732000000008,0.0187497999999999,0,sub_16
0.0246827999999996,0.0077622000000012,0.0329458,0.0183460000000005,0.0877204000000008,0.0221687999999999,0,sub_16
0.0256841999999996,0.0073428000000012,0.0323254,0.0183164000000005,0.0845110000000008,0.0255909999999999,0,sub_16
0.0254653999999996,0.0048722000000012,0.0330482,0.0178532000000005,0.0779020000000008,0.0270915999999999,0,sub_16
0.0255937999999996,0.0022288000000012,0.0330406,0.0165270000000005,0.0683166000000008,0.0277355999999999,0,sub_16
0.0254947999999996,0.0015616000000012,0.0332424,0.0134928000000005,0.0583118000000008,0.0281543999999999,0,sub_16
0.0252433999999996,0.0023112000000012,0.0325984,0.0106720000000005,0.0493674000000008,0.0296415999999999,0,sub_16
0.0253545999999996,0.0043356000000012,0.032926,0.0087104000000005,0.0421226000000008,0.0315599999999999,0,sub_16
0.0246209999999996,0.0055642000000012,0.0340506,0.0076060000000005,0.0348782000000008,0.0326297999999999,0,sub_16
0.0228011999999996,0.0061996000000012,0.035476,0.0065122000000005,0.0276432000000008,0.0313495999999999,0,sub_16
0.0207351999999996,0.0060434000000012,0.0352298,0.0049974000000005,0.0199904000000008,0.0283577999999999,0,sub_16
0.0186987999999996,0.0053812000000012,0.035757,0.0030606000000005,0.0127678000000008,0.0247215999999999,0,sub_16
0.0166877999999996,0.0039544000000012,0.0360552,0.0019850000000005,0.0076712000000008,0.0215157999999999,0,sub_16
0.0162599999999996,0.0028556000000012,0.0360244,0.0006990000000005,0.0059730000000008,0.0210817999999999,0,sub_16
0.0168217999999996,0.0024652000000012,0.035373,-0.0014337999999994,0.0072544000000008,0.0221333999999999,0,sub_16
0.0167571999999996,0.0028210000000012,0.0359662,-0.0044237999999994,0.0078990000000008,0.0233935999999999,0,sub_16
0.0170347999999996,0.0038150000000012,0.035989,-0.0080567999999994,0.0053602000000008,0.0220895999999999,0,sub_16
0.0168439999999996,0.0051520000000012,0.0360386,-0.0138215999999994,-0.0001403999999991,0.0173561999999999,0,sub_16
0.0164707999999996,0.0066356000000012,0.0345572,-0.0193701999999994,-0.0083977999999991,0.0092093999999999,0,sub_16
0.0159039999999996,0.0070408000000012,0.0342617999999999,-0.0234357999999994,-0.0196403999999991,0.0004359999999999,0,sub_16
0.0163555999999996,0.0063726000000012,0.0337355999999999,-0.0264355999999994,-0.0296143999999991,-0.006836,0,sub_16
0.0160425999999996,0.0063082000000012,0.0340391999999999,-0.0290103999999994,-0.0364087999999991,-0.0104772,0,sub_16
0.0159663999999995,0.0057962000000012,0.0340775999999999,-0.0300963999999994,-0.0396051999999991,-0.0094124,0,sub_16
0.0155945999999995,0.0058496000000012,0.0351649999999999,-0.0315955999999994,-0.0389135999999991,-0.0049696,0,sub_16
0.0151805999999995,0.0074448000000012,0.0357753999999999,-0.0326573999999994,-0.0343945999999991,0.0009667999999999,0,sub_16
0.0142893999999995,0.0094414000000012,0.0362633999999999,-0.0337067999999994,-0.0283791999999991,0.0056193999999999,0,sub_16
0.0136439999999995,0.0087230000000012,0.0361376,-0.0349581999999994,-0.0223527999999991,0.0077069999999999,0,sub_16
0.0134131999999996,0.0081516000000012,0.0354196,-0.0368429999999994,-0.0180157999999991,0.0065875999999999,0,sub_16
0.0133913999999996,0.0073468000000012,0.0343712,-0.0389421999999993,-0.0139457999999991,0.0029357999999999,0,sub_16
0.0138453999999996,0.0057054000000012,0.0331604,-0.0418871999999993,-0.0092295999999991,-0.001791,0,sub_16
0.0150847999999996,0.0045212000000012,0.0325402,-0.0448311999999994,-0.0047245999999991,-0.0069448,0,sub_16
0.0167083999999996,0.0049642000000012,0.0319116,-0.0482751999999994,-0.0001301999999991,-0.0124402,0,sub_16
0.0179609999999996,0.0042436000000012,0.0315347999999999,-0.0523583999999994,0.0044674000000008,-0.0181536,0,sub_16
0.0195971999999996,0.0052478000000012,0.0308565999999999,-0.0568751999999994,0.0073626000000008,-0.0240814,0,sub_16
0.0207995999999996,0.0068704000000012,0.0300981999999999,-0.0616215999999994,0.0068492000000008,-0.0297928,0,sub_16
0.0211775999999996,0.0079642000000012,0.0289491999999999,-0.0657345999999994,0.0056908000000008,-0.0346444,0,sub_16
0.0212481999999996,0.0087348000000012,0.0285763999999999,-0.0682913999999994,0.0052788000000008,-0.0359434,0,sub_16
0.0212853999999996,0.0097042000000012,0.028157,-0.0683047999999994,0.0052668000000008,-0.0329524,0,sub_16
0.0213171999999996,0.0087104000000012,0.0282206,-0.0672713999999994,0.0048090000000008,-0.0258944,0,sub_16
0.0244123999999996,0.0080244000000012,0.0289878,-0.0662891999999994,0.0092584000000008,-0.0203358,0,sub_16
0.0239553999999996,0.0063528000000012,0.0288904,-0.0632259999999994,0.0066510000000008,-0.0100534,0,sub_16
0.0247197999999996,0.0047630000000012,0.0284228,-0.0610133999999994,0.0034126000000008,-0.0010582,0,sub_16
0.0253187999999996,0.0045848000000012,0.0286459999999999,-0.0604771999999994,0.0014806000000008,0.0023689999999999,0,sub_16
0.0257653999999996,0.0044878000000012,0.0278045999999999,-0.0591123999999994,-0.0049327999999991,0.0068759999999999,0,sub_16
0.0233377999999996,0.0032978000000012,0.0279179999999999,-0.0570573999999994,-0.0168933999999991,0.0124603999999999,0,sub_16
0.0236637999999996,0.0024868000000012,0.0282349999999999,-0.0583797999999994,-0.0254143999999991,0.0133165999999999,0,sub_16
0.0230523999999996,0.0022186000000012,0.0291437999999999,-0.0609699999999994,-0.0343443999999991,0.0109597999999999,0,sub_16
0.0218763999999996,0.0007430000000012,0.0299418,-0.0628117999999994,-0.0492225999999991,0.0149785999999999,0,sub_16
0.0209153999999996,4.5400000001265954e-05,0.0318518,-0.0650573999999994,-0.0621689999999991,0.0157873999999999,0,sub_16
0.0195253999999996,0.0008050000000012,0.0313028,-0.0679419999999994,-0.0740511999999991,0.0174449999999999,0,sub_16
0.0182371999999996,0.0026170000000012,0.031914,-0.0703569999999994,-0.0797429999999991,0.0156795999999999,0,sub_16
0.0172731999999996,0.0045188000000012,0.0316656,-0.0694037999999994,-0.0890947999999991,0.0205653999999999,0,sub_16
0.0163421999999996,0.0067442000000012,0.033332,-0.0685877999999994,-0.0952847999999991,0.0227153999999999,0,sub_16
0.0154441999999996,0.0068590000000012,0.0350264,-0.0692449999999994,-0.0978443999999991,0.0239959999999999,0,sub_16
0.0139097999999996,0.0066144000000012,0.0365919999999999,-0.0711595999999994,-0.0961349999999991,0.0244075999999999,0,sub_16
0.0139993999999996,0.0056962000000012,0.0372671999999999,-0.0716341999999994,-0.1008443999999991,0.0303923999999999,0,sub_16
0.0138601999999996,0.0049836000000012,0.0373893999999999,-0.0729335999999994,-0.1027667999999991,0.0327359999999999,0,sub_16
0.0136619999999996,0.0037292000000012,0.0370469999999999,-0.0731593999999994,-0.1032015999999991,0.0350851999999999,0,sub_16
0.0128559999999996,0.0027400000000012,0.0363933999999999,-0.0727231999999994,-0.1006481999999991,0.0355121999999999,0,sub_16
0.0130233999999996,0.0008912000000012,0.0367742,-0.0695543999999994,-0.1051437999999991,0.0381039999999999,0,sub_16
0.0126259999999996,0.0006150000000012,0.0371411999999999,-0.0680693999999994,-0.1068543999999991,0.0383301999999999,0,sub_16
0.0121187999999996,0.0005586000000012,0.0377231999999999,-0.0676465999999994,-0.1074959999999991,0.0385475999999999,0,sub_16
0.0120037999999996,0.0011974000000012,0.0372219999999999,-0.0682913999999994,-0.1077101999999991,0.0393977999999999,0,sub_16
0.0111117999999996,0.0017896000000012,0.0377487999999999,-0.0676789999999994,-0.1102835999999991,0.0430373999999999,0,sub_16
0.0115457999999996,0.0024388000000012,0.0384053999999999,-0.0693667999999994,-0.1060165999999991,0.0430199999999999,0,sub_16
0.0105727999999996,0.0022174000000012,0.0376725999999999,-0.0704279999999994,-0.103036999999999,0.0447177999999999,0,sub_16
0.0097457999999996,0.0030878000000012,0.0381136,-0.0706335999999994,-0.1006951999999991,0.0453541999999999,0,sub_16
0.0088535999999996,0.0031466000000012,0.0381588,-0.0701963999999994,-0.0987773999999991,0.0449275999999999,0,sub_16
0.0094731999999996,0.0046666000000012,0.0384456,-0.0706125999999994,-0.0977053999999991,0.0436413999999999,0,sub_16
0.0079645999999996,0.0060764000000012,0.0387002,-0.0695503999999994,-0.0989865999999991,0.0434367999999999,0,sub_16
0.0073805999999996,0.0072848000000012,0.0398531999999999,-0.0673993999999994,-0.0977053999999991,0.0408865999999999,0,sub_16
0.0079283999999996,0.0077700000000012,0.0402451999999999,-0.0665277999999994,-0.0953579999999991,0.0391805999999999,0,sub_16
0.0083667999999996,0.0078274000000012,0.0415379999999999,-0.0654455999999994,-0.0938627999999991,0.0372633999999999,0,sub_16
0.0083089999999996,0.0080890000000012,0.0424139999999999,-0.0641451999999994,-0.0906663999999991,0.0359863999999999,0,sub_16
0.0095081999999996,0.0084544000000012,0.0430027999999999,-0.0615635999999994,-0.0862001999999991,0.0357851999999999,0,sub_16
0.0117485999999996,0.0087860000000012,0.0451293999999999,-0.0594173999999994,-0.0821647999999991,0.0370767999999999,0,sub_16
0.0125025999999996,0.0075250000000012,0.0470611999999999,-0.0545067999999994,-0.0794207999999991,0.0392439999999999,0,sub_16
0.0143175999999996,0.0070498000000012,0.048712,-0.0476749999999994,-0.0747727999999991,0.0431313999999999,0,sub_16
0.0166767999999996,0.0056548000000012,0.0501981999999999,-0.0404175999999994,-0.0697027999999991,0.0476621999999999,0,sub_16
0.0182059999999996,0.0043500000000012,0.0514019999999999,-0.0344517999999994,-0.0669727999999991,0.0524003999999998,0,sub_16
0.0186963999999996,0.0024026000000012,0.0527604,-0.0295527999999994,-0.0650877999999991,0.0562777999999999,0,sub_16
0.0185191999999996,0.0008212000000012,0.0555767999999999,-0.0282525999999994,-0.0610423999999991,0.0558543999999999,0,sub_16
0.0187021999999996,-0.0001481999999987,0.0572049999999999,-0.0273799999999994,-0.0589063999999991,0.0537211999999999,0,sub_16
0.0185197999999996,-0.0007843999999987,0.0593174,-0.0260661999999994,-0.0561223999999991,0.0490265999999999,0,sub_16
0.0196487999999996,0.0012892000000012,0.0596709999999999,-0.0238551999999994,-0.0503483999999991,0.0440607999999999,0,sub_16
0.0206213999999996,0.0046908000000012,0.0593528,-0.0205781999999994,-0.0435177999999991,0.0403829999999999,0,sub_16
0.0193829999999996,0.0052862000000012,0.0593797999999999,-0.0147627999999994,-0.0373523999999991,0.0409965999999999,0,sub_16
0.0157445999999996,0.0054688000000012,0.0604897999999999,-0.0108619999999994,-0.0286287999999991,0.0428755999999999,0,sub_16
0.0113287999999996,0.0056972000000012,0.0604117999999999,-0.0082413999999994,-0.0171421999999991,0.0475193999999999,0,sub_16
0.0072251999999996,0.0043178000000012,0.0606993999999999,-0.0058425999999994,-0.0011891999999991,0.0520023999999999,0,sub_16
0.0038695999999996,0.0037348000000012,0.0600533999999999,-0.0029835999999994,0.0207336000000008,0.0549851999999999,0,sub_16
0.0041531999999996,0.0055874000000012,0.0580089999999999,0.0011914000000005,0.0479884000000008,0.0554067999999999,0,sub_16
0.0067587999999996,0.0084800000000012,0.0561029999999999,0.0081430000000005,0.0752362000000008,0.0552067999999999,0,sub_16
0.0109723999999996,0.0124916000000012,0.0549097999999999,0.0161662000000005,0.1009992000000008,0.0524523999999999,0,sub_16
0.0140117999999996,0.0131380000000012,0.0540573999999999,0.0258840000000005,0.1263206000000008,0.0520603999999999,0,sub_16
0.0190063999999995,0.0137316000000012,0.0540905999999999,0.0342996000000005,0.1448364000000007,0.0497453999999999,0,sub_16
0.0223579999999995,0.0110434000000012,0.0549871999999999,0.0403458000000005,0.1601578000000008,0.0491269999999999,0,sub_16
0.0257349999999996,0.0065412000000012,0.0547231999999999,0.0436202000000005,0.1742176000000008,0.0467815999999999,0,sub_16
0.0290301999999995,0.0049480000000013,0.0531921999999999,0.0438844000000005,0.1846598000000008,0.0459155999999999,0,sub_16
0.0302749999999995,0.0063472000000012,0.0531327999999999,0.0426368000000005,0.1880884000000008,0.0420569999999999,0,sub_16
0.0281505999999996,0.0060318000000012,0.0531081999999999,0.0435142000000005,0.1910776000000008,0.0397091999999999,0,sub_16
0.0271641999999996,0.0087344000000012,0.0519305999999999,0.0465206000000005,0.1919330000000008,0.0363107999999999,0,sub_16
0.0250975999999996,0.0116822000000012,0.0499029999999999,0.0516540000000005,0.1919260000000008,0.0335693999999999,0,sub_16
0.0218893999999996,0.0092368000000012,0.0486307999999999,0.0599908000000005,0.1908496000000008,0.0291423999999999,0,sub_16
0.0199865999999996,0.0066668000000012,0.0469879999999999,0.0666178000000005,0.1885034000000008,0.0240641999999999,0,sub_16
0.0194659999999996,0.0042280000000012,0.0453517999999999,0.0713284000000005,0.1863794000000008,0.0183313999999999,0,sub_16
0.0180621999999996,0.0026412000000012,0.0442611999999999,0.0745262000000005,0.1823340000000008,0.0149405999999999,0,sub_16
0.0148789999999996,5.30000000012857e-05,0.0440733999999999,0.0764350000000005,0.1799830000000008,0.0151705999999999,0,sub_16
0.0126209999999996,0.0021072000000012,0.0447041999999999,0.0749214000000005,0.1742408000000008,0.0138855999999999,0,sub_16
0.0045755999999996,-0.0289581999999987,0.0421933999999999,0.0803654000000005,0.1556680000000008,0.0184339999999999,0,sub_16
0.0013347999999996,-0.0181737999999987,0.0506509999999999,0.0784286000000005,0.1478088000000008,0.0141577999999999,0,sub_16
-0.0042854000000003,-0.0167291999999987,0.0508389999999999,0.0739784000000005,0.1476394000000008,0.0070767999999999,0,sub_16
-0.0082590000000003,-0.0149355999999987,0.0513099999999999,0.0689140000000005,0.1508906000000008,-0.0023632,0,sub_16
-0.0111220000000003,-0.0177987999999987,0.0495399999999999,0.0681486000000005,0.1630676000000008,-0.0098618,0,sub_16
-0.0045066000000003,0.0114628000000012,0.0514801999999999,0.0608600000000005,0.1912634000000008,-0.0216994,0,sub_16
-0.0009126000000003,-1.139999999871426e-05,0.0415903999999999,0.0594614000000005,0.2108756000000008,-0.0232298,0,sub_16
0.0062147999999996,-0.0025555999999987,0.0391799999999999,0.0590788000000005,0.2219508000000008,-0.0219648,0,sub_16
0.0141181999999996,-0.0031277999999987,0.0367936,0.0565376000000005,0.2270696000000008,-0.0211344,0,sub_16
0.0203163999999996,-0.0013961999999987,0.0360698,0.0509640000000005,0.2232462000000008,-0.0192455999999999,0,sub_16
0.0229929999999996,8.90000000012857e-05,0.0340004,0.0449234000000005,0.2102642000000008,-0.0175619999999999,0,sub_16
0.0229765999999996,0.0002866000000012,0.0338682,0.0386358000000005,0.1891892000000008,-0.0165107999999999,0,sub_16
0.0223945999999996,0.0003400000000012,0.034172,0.0323444000000005,0.1653524000000008,-0.0173787999999999,0,sub_16
0.0184879999999996,-0.0017483999999987,0.0347156,0.0260386000000005,0.1398050000000008,-0.0167492,0,sub_16
0.0145725999999996,-0.0009047999999987,0.0355382,0.0171552000000005,0.1083098000000008,-0.0182664,0,sub_16
0.0107733999999996,0.0012864000000012,0.0377809999999999,0.0070000000000005,0.0802218000000008,-0.0183012,0,sub_16
0.0055715999999996,0.0038618000000012,0.0405779999999999,-0.0014317999999994,0.0580840000000008,-0.0159816,0,sub_16
0.0017189999999996,0.0051726000000012,0.0415741999999999,-0.0072695999999994,0.0438184000000008,-0.0132268,0,sub_16
0.0018971999999996,0.0079760000000012,0.0411443999999999,-0.0092377999999993,0.0342336000000008,-0.01216,0,sub_16
0.0027531999999996,0.0078594000000012,0.0403553999999999,-0.0058409999999993,0.0350552000000008,-0.0074372,0,sub_16
0.0048655999999996,0.0075776000000012,0.0384704,0.0035474000000005,0.0407518000000008,-0.0016106,0,sub_16
0.0091727999999996,0.0053896000000012,0.0348694,0.0169938000000005,0.0470742000000008,0.0040299999999999,0,sub_16
0.0129245999999996,0.0048644000000012,0.0327702,0.0287150000000005,0.0499912000000008,0.0103037999999999,0,sub_16
0.0140481999999996,0.0035970000000012,0.0313536,0.0359438000000005,0.0501550000000008,0.0163359999999999,0,sub_16
0.0140773999999996,0.0021446000000012,0.029504,0.0384764000000005,0.0479992000000008,0.0204157999999999,0,sub_16
0.0126803999999996,-0.0003833999999987,0.0285036,0.0361026000000005,0.0424664000000008,0.0208335999999999,0,sub_16
0.0101853999999996,0.0004590000000012,0.0281542,0.0290616000000005,0.0332280000000008,0.0183891999999999,0,sub_16
0.0060585999999996,0.0006738000000012,0.0280152,0.0213796000000005,0.0222934000000008,0.0144471999999999,0,sub_16
0.0041563999999996,0.0019730000000012,0.0277942,0.0160532000000005,0.0128436000000008,0.0100923999999999,0,sub_16
0.0038705999999996,0.0026356000000012,0.027541,0.0147828000000005,0.0050790000000008,0.0070455999999999,0,sub_16
0.0045271999999996,0.0045506000000012,0.0273314,0.0141430000000005,-0.0020599999999991,0.0067797999999999,0,sub_16
0.0062779999999996,0.0041342000000012,0.0273514,0.0130350000000005,-0.0093077999999991,0.0087041999999999,0,sub_16
0.0095827999999996,0.0035962000000012,0.0271172,0.0112800000000005,-0.0171959999999991,0.0114793999999999,0,sub_16
0.0119603999999996,0.0025816000000012,0.0281388,0.0073750000000005,-0.0284863999999991,0.0144575999999999,0,sub_16
0.0128559999999996,0.0021356000000012,0.02967,0.0017554000000005,-0.0416873999999991,0.0172125999999999,0,sub_16
0.0131813999999996,0.0018392000000012,0.030629,-0.0038641999999994,-0.0553127999999991,0.0195407999999999,0,sub_16
0.0124735999999996,0.0020926000000012,0.031185,-0.0079797999999994,-0.0674485999999991,0.0210231999999999,0,sub_16
0.0110951999999996,0.0025272000000012,0.0315435999999999,-0.0101623999999994,-0.0774579999999991,0.0218753999999999,0,sub_16
0.0105259999999996,0.0037278000000012,0.0308779999999999,-0.0101939999999994,-0.0834275999999991,0.0229509999999999,0,sub_16
0.0105379999999996,0.0057268000000012,0.0304293999999999,-0.0091529999999994,-0.0885471999999991,0.0236057999999999,0,sub_16
0.0101847999999996,0.0060766000000012,0.0312539999999999,-0.0070355999999994,-0.0928129999999991,0.0229851999999999,0,sub_16
0.0099811999999996,0.0056340000000012,0.0314997999999999,-0.0053361999999994,-0.0962209999999991,0.0212921999999999,0,sub_16
0.0099683999999996,0.0049652000000012,0.0321152,-0.0047103999999994,-0.1017531999999991,0.0189533999999999,0,sub_16
0.0089351999999996,0.0035318000000012,0.0327924,-0.0057993999999994,-0.1087717999999991,0.0168183999999999,0,sub_16
0.0080945999999996,0.0014148000000012,0.0339904,-0.0077427999999994,-0.1149393999999991,0.0157443999999999,0,sub_16
0.0070321999999996,0.0012580000000012,0.03411,-0.0103243999999994,-0.1196175999999991,0.0157323999999999,0,sub_16
0.0067943999999996,0.0024856000000012,0.0340692,-0.0122695999999994,-0.1236647999999991,0.0172195999999999,0,sub_16
0.0063947999999996,0.0035120000000012,0.0349396,-0.0133537999999994,-0.1260105999999991,0.0187105999999999,0,sub_16
0.0057179999999996,0.0048862000000012,0.0363434,-0.0140033999999994,-0.1279265999999991,0.0189221999999999,0,sub_16
0.0044003999999996,0.0049012000000012,0.0367265999999999,-0.0150643999999994,-0.1289785999999991,0.0165659999999999,0,sub_16
0.0041355999999996,0.0042256000000012,0.0371497999999999,-0.0169789999999994,-0.1304521999999991,0.0137769999999999,0,sub_16
0.0035919999999996,0.0037042000000012,0.0377639999999999,-0.0195347999999994,-0.1317121999999991,0.0114105999999999,0,sub_16
0.0034625999999996,0.0037504000000012,0.0382995999999999,-0.0220991999999994,-0.1327675999999991,0.0111803999999999,0,sub_16
0.0040113999999996,0.0038070000000012,0.0387897999999999,-0.0246683999999994,-0.1338273999999991,0.0120183999999999,0,sub_16
0.0043379999999996,0.0044890000000012,0.0395043999999999,-0.0261753999999994,-0.1348951999999991,0.0139321999999999,0,sub_16
0.0049951999999996,0.0052150000000012,0.0406893999999999,-0.0266117999999994,-0.1357509999999991,0.0152121999999999,0,sub_16
0.0049049999999996,0.0046508000000012,0.0415871999999999,-0.0266183999999994,-0.1366057999999991,0.0158541999999999,0,sub_16
0.0050895999999996,0.0051612000000012,0.0419421999999999,-0.0264049999999994,-0.1372431999999991,0.0152155999999999,0,sub_16
0.0046119999999996,0.0049854000000012,0.0420707999999999,-0.0246911999999994,-0.1366065999999991,0.0143721999999999,0,sub_16
0.0035479999999996,0.0050176000000012,0.0420881999999999,-0.0229727999999994,-0.1346925999999991,0.0137407999999999,0,sub_16
0.0022403999999996,0.0048070000000012,0.0409672,-0.0210359999999994,-0.1315019999999991,0.0133229999999999,0,sub_16
0.0014317999999996,0.0056632000000012,0.04088,-0.0190927999999994,-0.1270319999999991,0.0126899999999999,0,sub_16
-0.0001022000000003,0.0046894000000012,0.0406916,-0.0171425999999994,-0.1208585999999991,0.0122683999999999,0,sub_16
-0.0010456000000003,0.0040952000000012,0.040378,-0.0156173999999994,-0.1142573999999991,0.0118431999999999,0,sub_16
-0.0013022000000003,0.0034746000000012,0.0403692,-0.0147293999999994,-0.1061659999999991,0.0122661999999999,0,sub_16
-0.0013068000000003,0.0040202000000012,0.0408546,-0.0144815999999994,-0.0974357999999991,0.0133249999999999,0,sub_16
-0.0014976000000003,0.0041822000000012,0.0408329999999999,-0.0140221999999994,-0.0895567999999991,0.0139589999999999,0,sub_16
-0.0020260000000003,0.0050436000000012,0.0409499999999999,-0.0135589999999994,-0.0816743999999991,0.0137385999999999,0,sub_16
-0.0019286000000003,0.0056416000000012,0.0420145999999999,-0.0139549999999993,-0.0750675999999991,0.0135137999999999,0,sub_16
-0.0021216000000003,0.0056442000000012,0.0426024,-0.0141453999999993,-0.0701657999999991,0.0132925999999999,0,sub_16
-0.0024204000000003,0.0044570000000012,0.0433811999999999,-0.0141195999999993,-0.0648377999999991,0.0128585999999999,0,sub_16
-0.0021388000000003,0.0035230000000012,0.0439812,-0.0149303999999993,-0.0577391999999991,0.0136369999999999,0,sub_16
-0.0013050000000003,0.0031280000000012,0.0439338,-0.0153289999999993,-0.0517157999999991,0.0165561999999999,0,sub_16
-0.0007934000000003,0.0040892000000012,0.0428632,-0.0146595999999994,-0.0450585999999991,0.0199093999999999,0,sub_16
-0.0002604000000003,0.0059848000000012,0.0425612,-0.0131327999999994,-0.0381889999999991,0.0226273999999999,0,sub_16
-0.0007804000000003,0.0072648000000012,0.0423462,-0.0105381999999994,-0.0315343999999991,0.0249257999999999,0,sub_16
-0.0017940000000003,0.0078560000000012,0.0420646,-0.0071001999999994,-0.0251589999999991,0.0260099999999999,0,sub_16
-0.0028818000000003,0.0076962000000012,0.0420259999999999,-0.0040793999999994,-0.0175003999999991,0.0262347999999999,0,sub_16
