userAcceleration.x,userAcceleration.y,userAcceleration.z,rotationRate.x,rotationRate.y,rotationRate.z,label,subject
0.0083629999999996,0.0083084000000012,-0.0150577999999999,0.0189532000000005,-0.0337783999999991,-0.0031624,0,sub_19
0.0104317999999996,0.0107684000000012,-0.0141841999999999,0.0202936000000005,-0.0278997999999991,0.0018157999999999,0,sub_19
0.0122559999999996,0.0134806000000012,-0.0140403999999999,0.0195140000000005,-0.0198797999999991,0.0059217999999998,0,sub_19
0.0125451999999996,0.0151896000000012,-0.0130001999999999,0.0152800000000005,-0.0098617999999991,0.0084429999999998,0,sub_19
0.0128301999999996,0.0163772000000012,-0.0128605999999999,0.0099820000000005,-0.0013227999999991,0.0088223999999998,0,sub_19
0.0115481999999996,0.0169958000000012,-0.0130227999999999,0.0048918000000005,0.0038152000000008,0.0070709999999998,0,sub_19
0.0097527999999996,0.0155528000000012,-0.0128779999999999,0.0009184000000005,0.0058524000000008,0.0043063999999999,0,sub_19
0.0079447999999996,0.0137780000000012,-0.0128125999999999,-0.0032751999999994,0.0057624000000008,0.0009019999999999,0,sub_19
0.0060205999999996,0.0125534000000012,-0.0130671999999999,-0.0068361999999994,0.0035414000000008,-0.0029224,0,sub_19
0.0046333999999996,0.0117792000000012,-0.0126465999999999,-0.0104009999999994,0.0008926000000008,-0.0063192,0,sub_19
0.0038473999999996,0.0109240000000012,-0.0120577999999999,-0.0135439999999994,-0.0015499999999991,-0.0084314,0,sub_19
0.0035211999999996,0.0105610000000012,-0.0115769999999999,-0.0158947999999994,-0.0032427999999991,-0.0093004,0,sub_19
0.0034739999999996,0.0109228000000012,-0.0107687999999999,-0.0169645999999994,-0.0036659999999991,-0.0090936,0,sub_19
0.0035109999999996,0.0115648000000012,-0.0097515999999999,-0.0173695999999994,-0.0026567999999991,-0.0077352,0,sub_19
0.0032629999999996,0.0120152000000012,-0.0095155999999999,-0.0181975999999994,0.0002672000000008,-0.0053138,0,sub_19
0.0030681999999996,0.0121672000000012,-0.0094209999999999,-0.0190159999999994,0.0053218000000008,-0.0028952,0,sub_19
0.0023669999999996,0.0129900000000012,-0.0100367999999999,-0.0204735999999994,0.0101672000000008,-0.000908,0,sub_19
0.0011717999999996,0.0127304000000012,-0.0096489999999999,-0.0217195999999994,0.0133126000000008,-0.0001992,0,sub_19
9.379999999965075e-05,0.0115538000000012,-0.0096711999999999,-0.0223615999999994,0.0131010000000008,1.0199999999933397e-05,0,sub_19
-0.0010166000000003,0.0098822000000012,-0.0089009999999999,-0.0219463999999994,0.0094818000000008,-0.0010506,0,sub_19
-0.0021902000000003,0.0082396000000012,-0.0079491999999999,-0.0206853999999994,0.0041552000000008,-0.0021032,0,sub_19
-0.0027736000000003,0.0061694000000012,-0.0065883999999999,-0.0181459999999994,-0.0016019999999991,-0.0031462,0,sub_19
-0.0034564000000003,0.0049912000000012,-0.0060211999999999,-0.0150151999999994,-0.0094181999999991,-0.0036266,0,sub_19
-0.0039872000000003,0.0044978000000012,-0.0056581999999999,-0.0116815999999994,-0.0187297999999991,-0.0032492,0,sub_19
-0.0044572000000003,0.0058486000000012,-0.0066843999999999,-0.0083593999999994,-0.0297491999999991,-0.002015,0,sub_19
-0.0041702000000003,0.0082862000000012,-0.0069137999999999,-0.0058963999999994,-0.0420439999999991,-0.0007852,0,sub_19
-0.0029532000000003,0.0099014000000012,-0.0066975999999999,-0.0051433999999994,-0.0553963999999991,6.599999999913419e-06,0,sub_19
-0.0020902000000003,0.0111594000000012,-0.0061683999999999,-0.0075535999999994,-0.0679641999999991,0.0015011999999999,0,sub_19
-0.0011948000000003,0.0122956000000012,-0.0058013999999999,-0.0129347999999994,-0.0779607999999991,0.0019037999999999,0,sub_19
0.0001739999999996,0.0125358000000012,-0.0044169999999999,-0.0201185999999994,-0.0858075999999991,0.0020667999999999,0,sub_19
0.0012329999999996,0.0117422000000012,-0.0037795999999999,-0.0249465999999994,-0.0925939999999992,0.0013903999999999,0,sub_19
0.0008827999999996,0.0105006000000012,-0.0035343999999999,-0.0289143999999994,-0.0985285999999991,7.799999999993351e-05,0,sub_19
0.0007193999999996,0.0090644000000012,-0.0041003999999999,-0.0294491999999994,-0.1006383999999991,-0.0016426,0,sub_19
0.0007307999999996,0.0077938000000012,-0.0041369999999999,-0.0265623999999994,-0.1006313999999991,-0.0029148,0,sub_19
0.0006219999999996,0.0064772000000012,-0.0047147999999999,-0.0207887999999994,-0.0993673999999991,-0.0043716,0,sub_19
0.0009435999999996,0.0060254000000012,-0.0056039999999999,-0.0152305999999994,-0.0981041999999991,-0.0054026,0,sub_19
0.0016481999999996,0.0072180000000012,-0.0066819999999999,-0.0075337999999994,-0.0942977999999992,-0.0049264,0,sub_19
0.0036499999999996,0.0090242000000012,-0.0071829999999999,-0.0002187999999994,-0.0904481999999992,-0.00446,0,sub_19
0.0052287999999996,0.0105224000000012,-0.0075417999999999,0.0053932000000005,-0.0861647999999992,-0.0044336,0,sub_19
0.0064949999999996,0.0112352000000012,-0.0073809999999999,0.0099460000000005,-0.0805975999999991,-0.0048434,0,sub_19
0.0068367999999996,0.0116504000000012,-0.0074143999999999,0.0121604000000005,-0.0731047999999992,-0.005272,0,sub_19
0.0073527999999995,0.0115516000000012,-0.0076631999999999,0.0126648000000005,-0.0675181999999992,-0.0069922,0,sub_19
0.0077307999999995,0.0112610000000012,-0.0080883999999999,0.0124794000000005,-0.0638853999999992,-0.009562,0,sub_19
0.0074663999999995,0.0108632000000012,-0.0084889999999999,0.0142122000000005,-0.0608975999999992,-0.012331,0,sub_19
0.0072847999999996,0.0108046000000012,-0.0083663999999999,0.0161546000000005,-0.0581259999999992,-0.0144574,0,sub_19
0.0074499999999995,0.0107776000000012,-0.0083379999999999,0.0185256000000005,-0.0549297999999991,-0.0165814,0,sub_19
0.0076721999999995,0.0107894000000012,-0.0082945999999999,0.0207422000000005,-0.0502139999999992,-0.0180588,0,sub_19
0.0067029999999995,0.0106548000000012,-0.0079385999999999,0.0233826000000005,-0.0446533999999992,-0.018039,0,sub_19
0.0072935999999995,0.0110100000000012,-0.0079493999999999,0.0236694000000005,-0.0395147999999992,-0.0169668,0,sub_19
0.0076057999999995,0.0118560000000012,-0.0085983999999999,0.0211812000000005,-0.0341553999999992,-0.015487,0,sub_19
0.0082067999999996,0.0125604000000012,-0.0088389999999999,0.0182606000000005,-0.0294361999999991,-0.0133686,0,sub_19
0.0084903999999996,0.0133898000000012,-0.0085833999999999,0.0150696000000005,-0.0245359999999991,-0.0106198,0,sub_19
0.0096177999999996,0.0133146000000012,-0.0087869999999999,0.0118892000000005,-0.0185651999999991,-0.009154,0,sub_19
0.0093165999999996,0.0126640000000012,-0.0086489999999999,0.0117744000000005,-0.0123675999999991,-0.0085108,0,sub_19
0.0090625999999996,0.0111202000000012,-0.0081423999999999,0.0150746000000005,-0.0068175999999991,-0.0086974,0,sub_19
0.0087205999999996,0.0098156000000012,-0.0079539999999999,0.0190188000000005,-0.0012663999999991,-0.009734,0,sub_19
0.0089707999999996,0.0081664000000012,-0.0080401999999999,0.0225314000000005,0.0036454000000008,-0.0103456,0,sub_19
0.0085269999999996,0.0086166000000012,-0.0079111999999999,0.0251818000000005,0.0077036000000008,-0.009894,0,sub_19
0.0090345999999996,0.0085666000000012,-0.0077005999999999,0.0254076000000005,0.0115334000000007,-0.008829,0,sub_19
0.0095153999999996,0.0099750000000012,-0.0075839999999999,0.0241370000000005,0.0157904000000007,-0.006707,0,sub_19
0.0099215999999996,0.0109384000000012,-0.0071545999999999,0.0213708000000005,0.0204752000000007,-0.0037414,0,sub_19
0.0100565999999996,0.0122998000000012,-0.0067397999999999,0.0184778000000005,0.0259566000000008,-0.0016244,0,sub_19
0.0101747999999996,0.0122806000000012,-0.0063533999999999,0.0155848000000005,0.0310134000000008,6.599999999993348e-05,0,sub_19
0.0098347999999996,0.0121404000000012,-0.0059181999999999,0.0126898000000005,0.0354320000000007,0.0015433999999999,0,sub_19
0.0091971999999996,0.0110666000000012,-0.0055059999999999,0.0108568000000005,0.0379328000000008,0.0021761999999999,0,sub_19
0.0085559999999996,0.0102972000000012,-0.0053953999999999,0.0107260000000005,0.0389380000000008,0.0023955999999999,0,sub_19
0.0076883999999996,0.0092234000000012,-0.0050359999999999,0.0113632000000005,0.0385088000000008,0.0026143999999999,0,sub_19
0.0071387999999996,0.0090662000000012,-0.0044671999999999,0.0126406000000005,0.0382896000000008,0.0030507999999999,0,sub_19
0.0071959999999996,0.0092294000000012,-0.0042289999999999,0.0147734000000005,0.0384936000000008,0.0034927999999999,0,sub_19
0.0077593999999996,0.0095870000000012,-0.0040075999999999,0.0156318000000005,0.0404046000000008,0.0043509999999998,0,sub_19
0.0078799999999996,0.0102070000000012,-0.0039535999999999,0.0159246000000005,0.0428310000000007,0.0058587999999998,0,sub_19
0.0077765999999996,0.0109648000000012,-0.0039257999999999,0.0160012000000005,0.0448310000000007,0.0075791999999999,0,sub_19
0.0079159999999996,0.0110896000000012,-0.0034299999999999,0.0154346000000005,0.0455576000000007,0.0086559999999998,0,sub_19
0.0076363999999996,0.0108506000000012,-0.0029665999999999,0.0135822000000005,0.0445860000000007,0.0092985999999998,0,sub_19
0.0075069999999996,0.0104688000000012,-0.0026909999999999,0.0119334000000005,0.0412708000000007,0.0097319999999999,0,sub_19
0.0068655999999996,0.0098880000000012,-0.0021333999999999,0.0095720000000005,0.0376588000000008,0.0092927999999999,0,sub_19
0.0067601999999996,0.0098524000000012,-0.0017975999999999,0.0072086000000005,0.0338330000000007,0.0090675999999998,0,sub_19
0.0062311999999996,0.0099230000000012,-0.0018803999999999,0.0057148000000005,0.0303378000000007,0.0090975999999999,0,sub_19
0.0056543999999996,0.0104606000000012,-0.0017611999999999,0.0046524000000005,0.0279064000000007,0.0091291999999999,0,sub_19
0.0047739999999996,0.0103924000000012,-0.0017895999999999,0.0038112000000005,0.0265422000000008,0.0085199999999999,0,sub_19
0.0048029999999995,0.0107672000000012,-0.0016505999999999,0.0040328000000005,0.0245342000000008,0.0081327999999999,0,sub_19
0.0045341999999995,0.0108782000000012,-0.0015035999999999,0.0048984000000005,0.0229516000000008,0.0073221999999999,0,sub_19
0.0049455999999995,0.0106316000000012,-0.0012661999999999,0.0055394000000005,0.0218892000000008,0.0060461999999999,0,sub_19
0.0048873999999996,0.0109972000000012,-0.0011069999999999,0.0061796000000005,0.0208260000000008,0.0049837999999999,0,sub_19
0.0047783999999996,0.0118172000000012,-0.0007315999999999,0.0063910000000005,0.0193382000000007,0.0039189999999999,0,sub_19
0.0045379999999996,0.0116696000000012,-0.0007569999999999,0.0055108000000005,0.0183432000000007,0.0022551999999999,0,sub_19
0.0047409999999996,0.0117718000000012,-0.0003287999999999,0.0037732000000005,0.0162870000000007,0.0003729999999999,0,sub_19
0.0046651999999996,0.0122608000000012,-0.0004099999999999,0.0016042000000005,0.0131670000000007,-0.0015108,0,sub_19
0.0057523999999996,0.0120116000000012,-0.0003067999999999,0.0002886000000005,0.0094072000000007,-0.0040288,0,sub_19
0.0060315999999996,0.0111944000000012,-0.0003667999999999,-0.0010307999999994,0.0052196000000007,-0.006119,0,sub_19
0.0064873999999996,0.0110138000000012,-0.0002059999999999,-0.0025329999999994,0.0016098000000007,-0.007834,0,sub_19
0.0064603999999996,0.0107256000000012,-0.0008753999999999,-0.0048771999999994,0.0005594000000007,-0.0095582,0,sub_19
0.0065347999999996,0.0106464000000012,-0.0010515999999999,-0.0074309999999994,0.0007864000000007,-0.0108582,0,sub_19
0.0059729999999996,0.0110116000000012,-0.0013435999999999,-0.0089199999999994,0.0016446000000007,-0.0110832,0,sub_19
0.0067747999999996,0.0114244000000012,-0.0015197999999999,-0.0085483999999994,0.0047640000000008,-0.0099716,0,sub_19
0.0070665999999995,0.0119768000000012,-0.0015097999999999,-0.0066859999999994,0.0080876000000008,-0.0079954,0,sub_19
0.0075171999999995,0.0121546000000012,-0.0010849999999999,-0.0037625999999994,0.0101294000000008,-0.00601,0,sub_19
0.0083467999999996,0.0124624000000012,-0.0007657999999999,0.0008698000000005,0.0132278000000007,-0.0033732,0,sub_19
0.0094029999999996,0.0120416000000012,-0.0004365999999999,0.0046498000000005,0.0171790000000007,-0.0001026,0,sub_19
0.0101619999999996,0.0122648000000012,-0.0003051999999999,0.0061414000000005,0.0197184000000007,0.0028955999999999,0,sub_19
0.0111519999999996,0.0115736000000012,-0.0002575999999999,0.0054944000000005,0.0209880000000007,0.0056667999999999,0,sub_19
0.0131193999999996,0.0110944000000012,-9.47999999999757e-05,0.0043412000000005,0.0209842000000007,0.0084575999999999,0,sub_19
0.0142839999999996,0.0102886000000012,0.0004028,0.0023296000000005,0.0197062000000007,0.0110303999999999,0,sub_19
0.0152441999999996,0.0100188000000012,0.0013622,0.0007466000000005,0.0177916000000007,0.0125389999999998,0,sub_19
0.0157041999999996,0.0099196000000012,0.0025262,-0.0006103999999994,0.0177972000000007,0.0131919999999998,0,sub_19
0.0152087999999996,0.0101574000000012,0.0037608,-0.0034437999999994,0.0205820000000007,0.0127629999999998,0,sub_19
0.0135053999999996,0.0104566000000012,0.0046508,-0.0072567999999994,0.0257130000000007,0.0116615999999998,0,sub_19
0.0110951999999996,0.0102806000000012,0.0048278,-0.0121317999999994,0.0304274000000007,0.0090577999999999,0,sub_19
0.0084727999999996,0.0101226000000012,0.0046122,-0.0167961999999994,0.0336532000000008,0.0056025999999999,0,sub_19
0.0056181999999996,0.0096082000000012,0.0045124,-0.0189077999999994,0.0345290000000007,0.0015275999999999,0,sub_19
0.0044739999999996,0.0091666000000012,0.004254,-0.0159811999999994,0.0335956000000007,-0.001447,0,sub_19
0.0035743999999996,0.0084018000000012,0.0043408,-0.0111389999999994,0.0326514000000007,-0.00334,0,sub_19
0.0040925999999996,0.0080636000000012,0.0044214,-0.0054453999999994,0.0329756000000008,-0.0035194,0,sub_19
0.0049691999999996,0.0080266000000012,0.0044914,-0.0010291999999994,0.0360654000000008,-0.0015748,0,sub_19
0.0060261999999996,0.0081392000000012,0.0042776,0.0018952000000005,0.0406476000000007,0.0014253999999999,0,sub_19
0.0070065999999996,0.0092268000000012,0.003548,0.0038250000000005,0.0461666000000007,0.0048499999999999,0,sub_19
0.0078637999999996,0.0109160000000012,0.0028656,0.0059710000000005,0.0523240000000007,0.0082753999999999,0,sub_19
0.0081459999999996,0.0126012000000012,0.0024604,0.0079076000000005,0.0586978000000007,0.0110579999999999,0,sub_19
0.0076055999999996,0.0135670000000012,0.0022163999999999,0.0091498000000005,0.0639112000000007,0.0123285999999999,0,sub_19
0.0070573999999996,0.0140194000000012,0.0017275999999999,0.0101710000000005,0.0659354000000008,0.0121063999999999,0,sub_19
0.0060825999999996,0.0130672000000012,0.0016759999999999,0.0101186000000005,0.0645622000000008,0.0099581999999999,0,sub_19
0.0053963999999996,0.0114356000000012,0.0013041999999999,0.0098462000000005,0.0604250000000008,0.0065301999999999,0,sub_19
0.0048905999999996,0.0104082000000012,0.000933,0.0106290000000005,0.0535154000000008,0.0028993999999999,0,sub_19
0.0049629999999996,0.0098890000000012,0.000524,0.0121034000000005,0.0452172000000008,-0.001139,0,sub_19
0.0051375999999996,0.0100476000000012,0.000971,0.0129444000000005,0.0384128000000007,-0.0051838,0,sub_19
0.0049727999999996,0.0106644000000012,0.0006972,0.0129368000000005,0.0333132000000007,-0.0085956,0,sub_19
0.0046133999999996,0.0114596000000012,0.0005152,0.0118328000000005,0.0285588000000007,-0.0113694,0,sub_19
0.0043465999999996,0.0117626000000012,0.0007222,0.0090258000000005,0.0246626000000007,-0.014156,0,sub_19
0.0044859999999996,0.0123184000000012,0.0007908,0.0055748000000005,0.0209774000000007,-0.0158792,0,sub_19
0.0045463999999996,0.0124860000000012,0.0001842,0.0021218000000005,0.0177148000000007,-0.0167484,0,sub_19
0.0045427999999996,0.0119090000000012,0.0006028,-0.0011187999999994,0.0146628000000007,-0.0171892,0,sub_19
0.0044539999999996,0.0114710000000012,0.001565,-0.0041193999999994,0.0114784000000007,-0.0174196,0,sub_19
0.0046133999999996,0.0108270000000012,0.001282,-0.0062655999999994,0.0089284000000007,-0.0172178,0,sub_19
0.0042537999999996,0.0099796000000012,0.0017682,-0.0071531999999994,0.0064944000000008,-0.0165822,0,sub_19
0.0041649999999996,0.0090428000000012,0.0020439999999999,-0.0065537999999994,0.0038370000000007,-0.014654,0,sub_19
0.0047567999999996,0.0096894000000012,0.0023841999999999,-0.0055287999999994,0.0016016000000007,-0.0120824,0,sub_19
0.0057685999999996,0.0096448000000012,0.002268,-0.0047179999999994,-0.0002093999999991,-0.0088722,0,sub_19
0.0060917999999996,0.0102570000000012,0.0030368,-0.0043369999999994,-0.0024459999999991,-0.0054506,0,sub_19
0.0069795999999996,0.0105744000000012,0.003136,-0.0043599999999994,-0.0043761999999991,-0.0022436,0,sub_19
0.0079023999999996,0.0109236000000012,0.0037466,-0.0045905999999994,-0.0063005999999991,-0.00032,0,sub_19
0.0081911999999996,0.0101400000000012,0.004282,-0.0046087999999994,-0.0099241999999991,0.0001117999999999,0,sub_19
0.0084867999999996,0.0100814000000012,0.0047386,-0.0039821999999994,-0.0133335999999991,-0.0003066,0,sub_19
0.0088179999999996,0.0096726000000012,0.004913,-0.0027073999999994,-0.0172889999999992,-0.001376,0,sub_19
0.0091657999999995,0.0098134000000012,0.0051136,-0.0005745999999994,-0.0212431999999992,-0.0035076,0,sub_19
0.0093003999999995,0.0104952000000012,0.0048352,0.0013440000000005,-0.0247729999999992,-0.0050004,0,sub_19
0.0101423999999995,0.0112798000000012,0.0045848,0.0028378000000005,-0.0266019999999992,-0.0052166,0,sub_19
0.0106519999999995,0.0116558000000012,0.0044484,0.0039038000000005,-0.0277939999999991,-0.004582,0,sub_19
0.0110625999999996,0.0115440000000012,0.0049046,0.0041094000000005,-0.0286503999999991,-0.003725,0,sub_19
0.0109963999999996,0.0110680000000012,0.0052584,0.0030358000000005,-0.0286525999999991,-0.002237,0,sub_19
0.0117533999999996,0.0104928000000012,0.0062472,0.0009002000000005,-0.0284073999999991,-0.0012052,0,sub_19
0.0116789999999996,0.0101720000000012,0.0067634,-0.0012323999999994,-0.0285839999999991,-0.001241,0,sub_19
0.0118719999999996,0.0101506000000012,0.0072968,-0.0031525999999994,-0.0291865999999991,-0.0014884,0,sub_19
0.0124137999999996,0.0104882000000012,0.0072398,-0.0048603999999994,-0.0295785999999992,-0.0013074,0,sub_19
0.0130127999999996,0.0107068000000012,0.0071478,-0.0057117999999994,-0.0295467999999991,-0.0013348,0,sub_19
0.0130077999999996,0.0107404000000012,0.006716,-0.0052821999999994,-0.0291213999999991,-0.001546,0,sub_19
0.0134935999999996,0.0116008000000012,0.0066314,-0.0046353999999994,-0.0272079999999991,-0.0011166,0,sub_19
0.0140087999999996,0.0118090000000012,0.0063418,-0.0039809999999994,-0.0238021999999991,-0.0009028,0,sub_19
0.0142907999999996,0.0122664000000012,0.0060662,-0.0033373999999994,-0.0189075999999991,-0.001342,0,sub_19
0.0145181999999996,0.0125460000000012,0.0058616,-0.0029063999999994,-0.0140113999999991,-0.0019964,0,sub_19
0.0145965999999996,0.0126078000000012,0.0059875999999999,-0.0026857999999994,-0.0088997999999992,-0.0030798,0,sub_19
0.0143965999999996,0.0116354000000012,0.0056541999999999,-0.0024681999999994,-0.0050637999999992,-0.0048026,0,sub_19
0.0140553999999996,0.0108104000000012,0.0056209999999999,-0.0020427999999994,-0.0027191999999992,-0.0067358,0,sub_19
0.0138763999999996,0.0098848000000012,0.0057849999999999,-0.0007511999999994,-0.0016525999999991,-0.0082238,0,sub_19
0.0129395999999996,0.0094908000000012,0.0057839999999999,-0.0003137999999994,-0.0010079999999991,-0.0099306,0,sub_19
0.0120809999999996,0.0094662000000012,0.0057394,-0.0009491999999994,-0.0003647999999991,-0.0103632,0,sub_19
0.0114061999999996,0.0094604000000012,0.0055732,-0.0007327999999994,0.0009102000000008,-0.0097224,0,sub_19
0.0107289999999996,0.0104864000000012,0.005447,-0.0007391999999994,0.0030778000000008,-0.0084176,0,sub_19
0.0101975999999996,0.0110808000000012,0.0053724,-0.0020201999999994,0.0061038000000007,-0.0075502,0,sub_19
0.0105583999999996,0.0115918000000012,0.0053425999999999,-0.0030887999999994,0.0093402000000008,-0.0062544,0,sub_19
0.0110763999999996,0.0117526000000012,0.0052217999999999,-0.0037305999999994,0.0117264000000008,-0.005809,0,sub_19
0.0112319999999996,0.0117746000000012,0.0056797999999999,-0.0048001999999994,0.0134766000000007,-0.0057932,0,sub_19
0.0111343999999996,0.0113990000000012,0.005829,-0.0054335999999994,0.0147580000000007,-0.006013,0,sub_19
0.0107809999999996,0.0112024000000012,0.0058794,-0.0050019999999994,0.0153974000000007,-0.0064382,0,sub_19
0.0103299999999996,0.0109226000000012,0.0055382,-0.0045723999999994,0.0156108000000007,-0.0068628,0,sub_19
0.0097227999999996,0.0106396000000012,0.00546,-0.0041393999999994,0.0165828000000007,-0.0070482,0,sub_19
0.0090575999999995,0.0109770000000012,0.0049472,-0.0037091999999994,0.0171278000000008,-0.0070194,0,sub_19
0.0090217999999995,0.0108802000000012,0.0045974,-0.0032839999999994,0.0163954000000008,-0.0072026,0,sub_19
0.0090863999999995,0.0109144000000012,0.0044846,-0.0032883999999994,0.0156618000000007,-0.0067478,0,sub_19
0.0090295999999996,0.0109258000000012,0.0047562,-0.0026515999999994,0.0155634000000008,-0.005862,0,sub_19
0.0088165999999996,0.0108978000000012,0.004897,-0.0013789999999994,0.0147032000000008,-0.0049974,0,sub_19
0.0092351999999996,0.0105138000000012,0.004982,0.0003212000000005,0.0140548000000008,-0.00413,0,sub_19
0.0086695999999996,0.0100826000000012,0.0050466,0.0030930000000005,0.0148944000000007,-0.0030196,0,sub_19
0.0081651999999996,0.0099952000000012,0.0048618,0.0067144000000004,0.0150912000000007,-0.0016888,0,sub_19
0.0081679999999996,0.0102684000000012,0.005092,0.0096928000000004,0.0146510000000007,-0.0003618,0,sub_19
0.0082673999999996,0.0102052000000012,0.0048972,0.0116032000000005,0.0142138000000007,0.0011713999999999,0,sub_19
0.0080055999999996,0.0104910000000012,0.0050956,0.0130850000000005,0.0129274000000008,0.0022753999999999,0,sub_19
0.0080577999999996,0.0111880000000012,0.005538,0.0124276000000005,0.0101556000000007,0.0033423999999999,0,sub_19
0.0079173999999996,0.0116334000000012,0.0058528,0.0098576000000005,0.0080340000000008,0.0033271999999999,0,sub_19
0.0080953999999996,0.0115122000000012,0.0064172,0.0083582000000005,0.0067608000000008,0.0033181999999999,0,sub_19
0.0083791999999996,0.0114532000000012,0.0071626,0.0083554000000005,0.0059094000000007,0.0031055999999998,0,sub_19
0.0086123999999995,0.0108736000000012,0.0079582,0.0096462000000005,0.0065972000000007,0.0031337999999998,0,sub_19
0.0087041999999996,0.0106704000000012,0.0080946,0.0128612000000005,0.0081306000000007,0.0031745999999998,0,sub_19
0.0094465999999996,0.0103420000000012,0.0080789999999999,0.0167152000000005,0.0094486000000007,0.0032199999999998,0,sub_19
0.0095261999999996,0.0107196000000012,0.0073911999999999,0.0197158000000005,0.0097086000000007,0.0021925999999998,0,sub_19
0.0093343999999996,0.0114370000000012,0.0060955999999999,0.0212066000000005,0.0065640000000007,0.0013725999999999,0,sub_19
0.0096859999999996,0.0128458000000012,0.0051803999999999,0.0179792000000005,-0.0006635999999992,7.759999999995357e-05,0,sub_19
0.0101293999999996,0.0141588000000012,0.0044877999999999,0.0104756000000005,-0.0114911999999992,-0.002952,0,sub_19
0.0113651999999996,0.0156710000000012,0.0046415999999999,0.0016910000000005,-0.0263137999999992,-0.007879,0,sub_19
0.0123423999999996,0.0165172000000012,0.0049827999999999,-0.0043207999999994,-0.0428443999999992,-0.0142798,0,sub_19
0.0129799999999996,0.0165080000000012,0.0064611999999999,-0.0053925999999994,-0.0538459999999991,-0.0223624,0,sub_19
