userAcceleration.x,userAcceleration.y,userAcceleration.z,rotationRate.x,rotationRate.y,rotationRate.z,label,subject
-0.0056826000000003,0.0051072000000013,0.0087558,0.0010434000000005,-0.0416431999999992,-0.0064506,0,sub_7
-0.0072818000000003,0.0056054000000013,0.0109926,0.0059394000000005,-0.0336069999999992,0.0042555999999998,0,sub_7
-0.0075066000000003,0.0069320000000013,0.0116194,0.0134142000000005,-0.0225925999999992,0.0139077999999998,0,sub_7
-0.0068044000000003,0.0076810000000012,0.0111186,0.0226046000000005,-0.0122131999999992,0.0210089999999998,0,sub_7
-0.0068724000000003,0.0055302000000012,0.0099448,0.0275284000000005,-0.0054253999999992,0.0242393999999998,0,sub_7
-0.0071096000000003,0.0036218000000013,0.0095914,0.0262730000000005,-0.0015789999999992,0.0225165999999998,0,sub_7
-0.0080854000000003,0.0030854000000013,0.0076598,0.0239654000000005,0.0001440000000007,0.0184377999999998,0,sub_7
-0.0101646000000003,0.0012268000000013,0.0070436,0.0186678000000005,0.0010260000000007,0.0141253999999998,0,sub_7
-0.0117284000000003,-0.0005201999999986,0.0069166,0.0114488000000005,0.0019138000000007,0.0100131999999998,0,sub_7
-0.0120636000000003,0.0005348000000013,0.0073682,0.0048614000000005,0.0034284000000007,0.0084683999999998,0,sub_7
-0.0119006000000003,0.0021848000000013,0.007463,0.0010468000000005,0.0066300000000007,0.0088637999999998,0,sub_7
-0.0103542000000003,0.0020896000000013,0.0079654,-7.599999999422652e-06,0.0106766000000007,0.0101329999999998,0,sub_7
-0.0076994000000003,0.0020436000000013,0.0080196,0.0006420000000005,0.0147146000000007,0.0120551999999999,0,sub_7
-0.0059488000000003,0.0014362000000013,0.0072976,0.0030006000000005,0.0193850000000007,0.0142021999999999,0,sub_7
-0.0025978000000003,0.0016024000000013,0.0080026,0.0068594000000005,0.0244806000000007,0.0152907999999999,0,sub_7
0.0003749999999996,0.0016872000000013,0.0078412,0.0117728000000005,0.0278638000000007,0.0174571999999999,0,sub_7
0.0034513999999996,0.0020680000000013,0.0073148,0.0145476000000005,0.0289160000000007,0.0183297999999999,0,sub_7
0.0054299999999996,0.0020468000000013,0.0066992,0.0168928000000005,0.0272086000000007,0.0170665999999999,0,sub_7
0.0081761999999996,0.0037818000000013,0.0068338,0.0158106000000005,0.0216816000000006,0.0149295999999999,0,sub_7
0.0073965999999996,0.0040298000000013,0.0069058,0.0136520000000005,0.0131788000000007,0.0119343999999999,0,sub_7
0.0059501999999996,0.0035684000000013,0.0070074,0.0104350000000005,0.0042630000000007,0.0065821999999999,0,sub_7
0.0037323999999996,0.0029626000000013,0.0068284,0.0080802000000005,-0.0008283999999992,0.0031539999999999,0,sub_7
0.0006845999999996,0.0031160000000013,0.006063,0.0055168000000005,-0.0029439999999992,0.0016431999999999,0,sub_7
-0.0029590000000003,0.0033030000000013,0.0052382,0.0038154000000005,-0.0016597999999992,0.0016297999999999,0,sub_7
-0.0043692000000003,0.0035260000000013,0.0037195999999999,0.0042652000000005,0.0038764000000007,0.0020531999999999,0,sub_7
-0.0038074000000003,0.0036818000000013,0.0022151999999999,0.0053570000000005,0.0108974000000007,0.0035473999999998,0,sub_7
-0.0039960000000003,0.0037716000000013,0.0006154,0.0058050000000005,0.0160074000000007,0.0039711999999998,0,sub_7
-0.0029852000000003,0.0033700000000013,-0.0004017999999999,0.0073178000000005,0.0211120000000007,0.0048297999999998,0,sub_7
-0.0002786000000003,0.0033592000000013,-0.0013153999999999,0.0092546000000005,0.0240906000000007,0.0041985999999998,0,sub_7
0.0020741999999996,0.0032258000000013,-0.0032301999999999,0.0101042000000005,0.0234476000000007,0.0044189999999998,0,sub_7
0.0030155999999996,0.0027578000000013,-0.0047909999999999,0.0081666000000005,0.0191950000000007,0.0039835999999998,0,sub_7
0.0036187999999996,0.0030036000000012,-0.0043783999999999,0.0064346000000005,0.0142982000000007,0.0046187999999998,0,sub_7
0.0031587999999996,0.0027814000000012,-0.0038625999999999,0.0051266000000005,0.0081242000000007,0.0046175999999998,0,sub_7
0.0011609999999996,0.0022542000000013,-0.0029707999999999,0.0031756000000005,0.0023742000000007,0.0056793999999999,0,sub_7
-0.0010226000000003,0.0026956000000013,-0.0007287999999999,0.0023048000000005,-0.0016699999999992,0.0054647999999999,0,sub_7
-0.0033222000000003,0.0017970000000013,0.0011798,0.0025202000000005,-0.0012445999999992,0.0054657999999999,0,sub_7
-0.0042088000000003,0.0022156000000013,0.002269,0.0025346000000005,-0.0001707999999992,0.0033279999999999,0,sub_7
-0.0042006000000003,0.0024242000000013,0.003083,0.0006344000000005,0.0017636000000007,0.0007485999999999,0,sub_7
-0.0045946000000003,0.0026652000000013,0.0043784,-0.0010515999999994,0.0030616000000007,-0.002683,0,sub_7
-0.0039290000000003,0.0037822000000013,0.0048612,-0.0038081999999994,0.0032988000000007,-0.0063344,0,sub_7
-0.0043238000000003,0.0059044000000012,0.0054762,-0.0039975999999994,0.0026842000000007,-0.012317,0,sub_7
-0.0052638000000003,0.0054374000000013,0.0054104,-0.0050413999999994,0.0035572000000007,-0.0165982,0,sub_7
-0.0058778000000003,0.0057098000000013,0.0048488,-0.0060881999999994,0.0059130000000007,-0.018745,0,sub_7
-0.0056802000000003,0.0052058000000013,0.0040956,-0.0088427999999994,0.0101838000000007,-0.0187698,0,sub_7
-0.0056284000000003,0.0033656000000013,0.0032282,-0.0131033999999994,0.0136000000000007,-0.0168812,0,sub_7
-0.0054256000000003,0.0010962000000013,0.0027838,-0.0201561999999994,0.0167974000000007,-0.0111662,0,sub_7
-0.0040250000000003,0.0023868000000013,0.0028234,-0.0252915999999993,0.0187124000000007,-0.006077,0,sub_7
-0.0020264000000003,0.0020776000000013,0.0033486,-0.0285025999999994,0.0197752000000007,-0.0026826,0,sub_7
-0.0001256000000003,0.0023076000000013,0.0034868,-0.0285103999999994,0.0201926000000007,-0.0005468,0,sub_7
0.0011497999999996,0.0028026000000013,0.0041782,-0.0272167999999994,0.0214534000000007,0.0011601999999998,0,sub_7
0.0028457999999996,0.0045656000000013,0.0040484,-0.0244323999999994,0.0207966000000007,0.0015979999999999,0,sub_7
0.0035935999999996,0.0040292000000013,0.0071188,-0.0227321999999994,0.0177938000000007,0.0035267999999999,0,sub_7
0.0036731999999996,0.0041992000000013,0.0108224,-0.0184887999999994,0.0117960000000007,0.0063319999999999,0,sub_7
0.0046177999999996,0.0041168000000013,0.0131826,-0.0125487999999994,0.0038732000000007,0.0095787999999999,0,sub_7
0.0058141999999996,0.0038594000000013,0.0150636,-0.0055641999999994,-0.0070239999999992,0.0113505999999998,0,sub_7
0.0065863999999996,0.0039320000000013,0.0176606,0.0003402000000005,-0.0223855999999992,0.0116251999999998,0,sub_7
0.0068041999999996,0.0031058000000013,0.0172836,0.0068820000000005,-0.0396615999999992,0.0106247999999998,0,sub_7
0.0038431999999996,0.0023962000000013,0.016067,0.0095156000000005,-0.0564685999999992,0.0093255999999998,0,sub_7
-0.0007132000000003,0.0023932000000013,0.0163496,0.0091754000000005,-0.0696459999999992,0.0086417999999998,0,sub_7
-0.0054128000000003,0.0022656000000013,0.0162198,0.0086534000000005,-0.0768527999999992,0.0068809999999999,0,sub_7
-0.0082972000000003,0.0017444000000013,0.0157516,0.0077354000000005,-0.0774525999999992,0.0048953999999999,0,sub_7
-0.0119108000000003,0.0020828000000013,0.015337,0.0070508000000005,-0.0740035999999992,0.0024787999999999,0,sub_7
-0.0130550000000003,0.0023476000000013,0.0143684,0.0075148000000005,-0.0676059999999992,0.0005509999999999,0,sub_7
-0.0142274000000003,0.0028718000000012,0.0139261999999999,0.0081942000000005,-0.0612071999999992,-0.0018024,0,sub_7
-0.0160432000000003,0.0028466000000012,0.0138841999999999,0.0081612000000005,-0.0554611999999992,-0.0024994,0,sub_7
-0.0174464000000003,0.0023134000000013,0.0132995999999999,0.0081348000000005,-0.0471627999999992,-0.0021314,0,sub_7
-0.0167976000000003,0.0019460000000013,0.0122685999999999,0.0059892000000005,-0.0352365999999992,-0.0013556,0,sub_7
-0.0141272000000003,0.0030094000000013,0.011224,0.0038542000000005,-0.0230887999999992,-0.0027164,0,sub_7
-0.0109456000000003,0.0023826000000013,0.0095842,0.0030002000000005,-0.0120057999999992,-0.005349,0,sub_7
-0.0070556000000003,0.0023260000000013,0.0074182,0.0022034000000005,-0.0017667999999992,-0.0077178,0,sub_7
-0.0037694000000003,0.0031308000000013,0.0064272,0.0013892000000005,0.0054860000000007,-0.0092284,0,sub_7
-0.0014966000000003,0.0037518000000013,0.0051616,0.0014054000000005,0.0082590000000007,-0.0100864,0,sub_7
-0.0008232000000003,0.0037616000000013,0.0052572,0.0005510000000005,0.0093222000000007,-0.008812,0,sub_7
0.0002891999999996,0.0032112000000013,0.0050216,-0.0011997999999994,0.0099466000000007,-0.0069234,0,sub_7
0.0011845999999996,0.0035306000000013,0.0055372,-0.0033803999999994,0.0103576000000007,-0.0046104,0,sub_7
0.0015805999999996,0.0033080000000013,0.0046322,-0.0038529999999994,0.0099148000000006,-0.0033524,0,sub_7
0.0030869999999996,0.0027736000000013,0.0035418,-0.0045341999999994,0.0094770000000006,-0.0031642,0,sub_7
0.0045557999999996,0.0028600000000013,0.0014526,-0.0056363999999994,0.0086212000000007,-0.0046876,0,sub_7
0.0047475999999996,0.0041464000000013,-0.0005943999999999,-0.0064909999999994,0.0073502000000006,-0.0057602,0,sub_7
0.0053317999999996,0.0048294000000013,-0.0018339999999999,-0.0058547999999994,0.0052226000000007,-0.0070348,0,sub_7
0.0044743999999996,0.0053388000000013,-0.0013599999999999,-0.0054217999999994,0.0021946000000007,-0.007027,0,sub_7
0.0025933999999996,0.0062512000000012,-0.0003057999999999,-0.0037171999999994,-0.0008453999999992,-0.0050874,0,sub_7
0.0001131999999996,0.0060580000000012,0.001474,0.0001124000000005,-0.0036883999999992,-0.0009966,0,sub_7
-0.0012308000000003,0.0056848000000012,0.0038682,0.0039478000000005,-0.0054653999999992,0.0028789999999999,0,sub_7
-0.0030324000000003,0.0050960000000012,0.0060054,0.0069366000000005,-0.0057479999999992,0.0067467999999999,0,sub_7
-0.0044892000000003,0.0040196000000012,0.0083578,0.0088330000000005,-0.0066247999999992,0.0112477999999999,0,sub_7
-0.0053970000000003,0.0023276000000013,0.0119018,0.0100894000000005,-0.0089847999999992,0.0142505999999999,0,sub_7
-0.0065714000000003,0.0014214000000013,0.0159138,0.0117926000000005,-0.0098427999999992,0.0142635999999999,0,sub_7
-0.0072608000000003,0.0005140000000013,0.0178722,0.0135102000000005,-0.0085661999999992,0.0132057999999999,0,sub_7
-0.0070720000000003,0.0012438000000013,0.019206,0.0120662000000005,-0.0064089999999992,0.0103997999999999,0,sub_7
-0.0077328000000003,0.0014536000000013,0.0188208,0.0097916000000005,-0.0025307999999992,0.0041673999999999,0,sub_7
-0.0093182000000003,0.0033924000000012,0.0180686,0.0066798000000005,0.0045478000000007,-0.002502,0,sub_7
-0.0103444000000003,0.0030572000000012,0.016569,0.0014286000000005,0.0131140000000007,-0.006411,0,sub_7
-0.0117186000000003,0.0024484000000012,0.0165224,-0.0046865999999994,0.0218862000000007,-0.0077624,0,sub_7
-0.0118662000000003,0.0010442000000013,0.0141865999999999,-0.0059227999999993,0.0299934000000007,-0.0094904,0,sub_7
-0.0092462000000003,0.0010784000000013,0.0115015999999999,-0.0060995999999994,0.0374534000000007,-0.010142,0,sub_7
-0.0059414000000003,0.0003996000000013,0.0080539999999999,-0.0067175999999994,0.0432046000000007,-0.0092992,0,sub_7
-0.0017260000000003,0.0012098000000013,0.0051019999999999,-0.0069165999999994,0.0452586000000007,-0.009743,0,sub_7
0.0022159999999996,0.0024548000000013,0.0017424,-0.0049895999999994,0.0443274000000007,-0.0114502,0,sub_7
0.0045879999999996,0.0029322000000013,0.0001602,-0.0052087999999994,0.0421194000000007,-0.0116752,0,sub_7
0.0045671999999996,0.0033058000000013,-0.0011891999999999,-0.0047887999999994,0.0405450000000007,-0.0110418,0,sub_7
0.0052913999999996,0.0034598000000012,-0.0017685999999999,-0.0035133999999994,0.0383326000000007,-0.0114698,0,sub_7
0.0057775999999996,0.0033412000000012,-0.0027793999999999,-0.0024551999999994,0.0370480000000007,-0.0108198,0,sub_7
0.0052703999999996,0.0039158000000013,-0.0032027999999999,-0.0031095999999994,0.0342788000000007,-0.0103934,0,sub_7
0.0038453999999996,0.0053396000000013,-0.0022199999999999,-0.0035657999999993,0.0301096000000007,-0.0082492,0,sub_7
0.0042085999999996,0.0065514000000013,-0.0002369999999999,-0.0025311999999994,0.0261448000000007,-0.0052404,0,sub_7
0.0039113999999996,0.0067354000000013,0.000601,0.0014982000000005,0.0238742000000007,-0.0022128,0,sub_7
0.0029165999999996,0.0067446000000013,0.0016508,0.0057400000000005,0.0211774000000007,0.0006031999999999,0,sub_7
0.0027581999999996,0.0063498000000013,0.002136,0.0091236000000005,0.0176306000000007,0.0036279999999999,0,sub_7
0.0026617999999996,0.0046740000000013,0.0029158,0.0103722000000005,0.0129296000000007,0.0059927999999999,0,sub_7
0.0012819999999996,0.0033594000000013,0.004368,0.0088468000000005,0.0071774000000007,0.0072713999999999,0,sub_7
-0.0004990000000003,0.0026344000000013,0.0064372,0.0051946000000005,0.0020750000000007,0.0076797999999999,0,sub_7
-0.0012110000000003,0.0025784000000013,0.0079199999999999,0.0013456000000005,-0.0014765999999992,0.0074573999999999,0,sub_7
-0.0022482000000003,0.0030236000000013,0.0098173999999999,-0.0024921999999994,-0.0035325999999992,0.0061649999999999,0,sub_7
-0.0033384000000003,0.0034846000000013,0.0109931999999999,-0.0052513999999994,-0.0043087999999992,0.0035967999999999,0,sub_7
-0.0029620000000003,0.0031062000000013,0.0111799999999999,-0.0058787999999994,-0.0053065999999992,0.0012573999999999,0,sub_7
-0.0025166000000003,0.0024376000000013,0.0095308,-0.0067283999999994,-0.0075843999999992,-0.0004412,0,sub_7
-0.0025128000000003,0.0020074000000013,0.0082496,-0.0071589999999994,-0.0107693999999992,-0.0027902,0,sub_7
-0.0024742000000003,0.0021770000000013,0.0077349999999999,-0.0056729999999994,-0.0146009999999992,-0.0049114,0,sub_7
-0.0018746000000003,0.0018944000000013,0.0060367999999999,-0.0024829999999994,-0.0178045999999992,-0.0057396,0,sub_7
-0.0022730000000003,0.0024348000000013,0.0045143999999999,-0.0007837999999994,-0.0197271999999992,-0.005939,0,sub_7
-0.0035232000000003,0.0038482000000013,0.0057055999999999,0.0009048000000005,-0.0203275999999992,-0.005292,0,sub_7
-0.0047476000000003,0.0042036000000013,0.0064385999999999,0.0019542000000005,-0.0196515999999992,-0.0035828,0,sub_7
-0.0057320000000003,0.0035380000000013,0.006751,0.0015158000000005,-0.0162067999999992,-0.000392,0,sub_7
-0.0059088000000003,0.0037874000000013,0.0076656,0.0013032000000005,-0.0116905999999992,0.0010895999999999,0,sub_7
-0.0062982000000003,0.0011352000000013,0.0088874,0.0013088000000005,-0.0073829999999992,0.0012911999999999,0,sub_7
-0.0058104000000003,6.020000000130175e-05,0.0091347999999999,-0.0005933999999994,-0.0033281999999992,0.0012727999999999,0,sub_7
-0.0038034000000003,0.0009984000000012,0.0100594,0.0002830000000005,0.0002966000000007,-0.0002212,0,sub_7
-0.0020194000000003,0.0012646000000012,0.0093102,0.0009420000000005,0.0028332000000007,-0.002774,0,sub_7
-0.0012014000000003,0.0010084000000012,0.0081856,0.0007418000000005,0.0040944000000007,-0.005331,0,sub_7
0.0004541999999996,0.0033396000000012,0.0070022,-0.0007425999999994,0.0047200000000007,-0.0076824,0,sub_7
0.0020067999999996,0.0039190000000012,0.00639,-0.0005283999999994,0.0040588000000007,-0.0093794,0,sub_7
0.0019819999999996,0.0041178000000012,0.0057676,-0.0026787999999994,0.0014808000000007,-0.0091678,0,sub_7
0.0011067999999996,0.0044116000000013,0.0068183999999999,-0.0024827999999994,-0.0023547999999992,-0.0091614,0,sub_7
0.0001155999999996,0.0039010000000013,0.0076221999999999,-0.0007893999999994,-0.0042823999999992,-0.0080788,0,sub_7
-0.0015712000000003,0.0030716000000013,0.0081795999999999,0.0013378000000005,-0.0040835999999992,-0.0063552,0,sub_7
-0.0037440000000003,0.0022918000000013,0.0075089999999999,0.0026280000000005,-0.0022671999999992,-0.0061102,0,sub_7
-0.0050966000000003,0.0010708000000013,0.0068075999999999,0.0022344000000005,0.0025462000000007,-0.0080172,0,sub_7
-0.0055414000000003,0.0010214000000013,0.006835,0.0007806000000005,0.0097036000000007,-0.00908,0,sub_7
-0.0074024000000003,0.0022118000000013,0.007936,-0.0023839999999994,0.0168634000000007,-0.0093002,0,sub_7
-0.0078590000000003,0.0036266000000013,0.008739,-0.0044903999999994,0.0229510000000007,-0.008657,0,sub_7
-0.0091508000000003,0.0047926000000013,0.0126546,-0.0053341999999994,0.0286918000000007,-0.0050384,0,sub_7
-0.0130832000000003,0.0045046000000013,0.0168784,-0.0019459999999994,0.0303546000000007,0.0024605999999999,0,sub_7
-0.0155528000000003,0.0008324000000013,0.0187014,0.0022842000000005,0.0283966000000007,0.0089019999999998,0,sub_7
-0.0133858000000003,-0.0039861999999986,0.0177544,0.0035348000000005,0.0213632000000007,0.0084923999999998,0,sub_7
-0.0089752000000003,-0.0086255999999986,0.0127896,-0.0009491999999994,0.0070800000000007,-0.0062540000000001,0,sub_7
-0.0009168000000003,-0.0115487999999986,0.002745,-0.0124169999999994,-0.0122203999999992,-0.0389888000000001,0,sub_7
0.0065695999999996,-0.0090273999999986,-0.0077277999999999,-0.0301813999999994,-0.0231297999999992,-0.0867334000000001,0,sub_7
0.0100477999999996,0.0006620000000013,-0.0160205999999999,-0.0478969999999994,-0.0212635999999992,-0.1325714,0,sub_7
0.0099457999999996,0.0084582000000013,-0.0230339999999999,-0.0587989999999994,-0.0060653999999992,-0.1617146,0,sub_7
0.0071007999999996,0.0129288000000013,-0.0250999999999999,-0.0641999999999994,0.0223070000000007,-0.1660616,0,sub_7
0.0037341999999996,0.0167400000000013,-0.0236945999999999,-0.0575143999999994,0.0599066000000007,-0.1440578,0,sub_7
0.0052007999999996,0.0177714000000013,-0.0238793999999999,-0.0454101999999994,0.0920364000000007,-0.0978572,0,sub_7
0.0093483999999996,0.0139264000000013,-0.0250537999999999,-0.0363881999999994,0.1117846000000007,-0.0429028,0,sub_7
0.0164887999999996,0.0124554000000013,-0.0226741999999999,-0.0278407999999993,0.1172742000000007,0.0084345999999999,0,sub_7
0.0249819999999996,0.0119608000000013,-0.0199619999999999,-0.0131189999999993,0.1110594000000007,0.0510707999999998,0,sub_7
0.0281731999999996,0.0126636000000013,-0.0157693999999999,-0.0045677999999993,0.0970300000000007,0.0819233999999998,0,sub_7
0.0278079999999996,0.0106504000000013,-0.0068785999999999,0.0050708000000005,0.0781654000000007,0.1025247999999998,0,sub_7
0.0285073999999996,0.0082736000000012,0.009531,0.0130390000000005,0.0538218000000007,0.1094481999999998,0,sub_7
0.0235697999999996,0.0081226000000013,0.0314142,0.0233802000000005,0.0207928000000007,0.1018715999999998,0,sub_7
0.0139849999999996,0.0034342000000013,0.048537,0.0367364000000005,-0.0128585999999992,0.0874801999999998,0,sub_7
0.0075181999999996,-0.0057949999999986,0.0556656,0.0383814000000005,-0.0487901999999992,0.0655443999999998,0,sub_7
-8.30000000003564e-05,-0.0064305999999986,0.0603814,0.0251510000000005,-0.0801597999999992,0.0345257999999999,0,sub_7
-0.0103266000000003,-0.0043093999999986,0.055557,0.0202842000000005,-0.1034573999999992,0.0022733999999999,0,sub_7
-0.0154022000000003,-0.0058269999999986,0.0406322,0.0135516000000005,-0.1095113999999992,-0.0248866,0,sub_7
-0.0153868000000003,0.0004538000000013,0.0263452,-0.0038399999999994,-0.1070315999999992,-0.0457228,0,sub_7
-0.0133908000000003,0.0082826000000013,0.0193142,-0.0087013999999994,-0.1061247999999992,-0.0551582,0,sub_7
-0.0124948000000003,0.0104874000000013,0.0100796,0.0010600000000005,-0.1134217999999992,-0.0503806,0,sub_7
-0.0126434000000003,0.0114410000000013,0.0043956,0.0075184000000005,-0.1282255999999992,-0.030234,0,sub_7
-0.0193792000000003,0.0087100000000013,0.0036998,0.0147610000000005,-0.1458607999999992,0.0029785999999999,0,sub_7
-0.0381780000000003,0.0108958000000013,0.0213646,0.0251772000000005,-0.1597113999999992,0.0460361999999999,0,sub_7
-0.0566900000000003,0.0098858000000013,0.038573,0.0536030000000005,-0.1557231999999992,0.0879147999999999,0,sub_7
-0.0641284000000003,-0.0004575999999986,0.0487482,0.0762126000000005,-0.1320507999999992,0.1141315999999999,0,sub_7
-0.0604804000000003,-0.0076471999999986,0.0525354,0.0842596000000005,-0.0950281999999992,0.1177969999999999,0,sub_7
-0.0517834000000003,-0.0090603999999986,0.0516796,0.0759922000000005,-0.0599595999999992,0.0931251999999999,0,sub_7
-0.0286468000000003,-0.0137207999999986,0.0315666,0.0597298000000005,-0.0245499999999992,0.0434005999999999,0,sub_7
-0.0098698000000003,-0.0153667999999986,0.013888,0.0123236000000005,0.0065200000000007,-0.0129452,0,sub_7
0.0006027999999996,-0.0122707999999986,0.0034306,-0.0315529999999994,0.0247582000000007,-0.0602768,0,sub_7
0.0010733999999996,-0.0070751999999986,-0.0002887999999999,-0.0584499999999994,0.0356418000000007,-0.0946618,0,sub_7
-0.0015924000000003,0.0013922000000013,-0.0020211999999999,-0.0664469999999994,0.0495620000000007,-0.1056314,0,sub_7
-0.0089060000000003,0.0077938000000013,0.0003098,-0.0626005999999994,0.0608002000000007,-0.0955776,0,sub_7
-0.0103830000000003,0.0119076000000013,-0.0008527999999999,-0.0404731999999994,0.0723374000000007,-0.0695868,0,sub_7
-0.0086838000000003,0.0157512000000013,-0.0020735999999999,-0.0170799999999994,0.0878892000000007,-0.0363286,0,sub_7
0.0026381999999996,0.0134356000000013,-0.0073885999999999,0.0005302000000005,0.0987732000000007,-0.002891,0,sub_7
0.0177667999999996,0.0094526000000013,-0.0112223999999999,0.0119152000000005,0.0954280000000007,0.0245391999999999,0,sub_7
0.0296793999999996,0.0055790000000013,-0.0141333999999999,0.0211484000000005,0.0757348000000007,0.0395839999999999,0,sub_7
0.0350951999999996,0.0025526000000013,-0.0153571999999999,0.0286832000000005,0.0431110000000007,0.0396783999999999,0,sub_7
0.0350269999999996,0.0014906000000013,-0.0167423999999999,0.0332586000000005,0.0045806000000007,0.0275819999999999,0,sub_7
0.0245155999999996,0.0031176000000013,-0.0125057999999999,0.0327570000000005,-0.0296487999999992,0.0098897999999999,0,sub_7
0.0096951999999996,0.0048202000000013,-0.0073023999999999,0.0297448000000005,-0.0517293999999992,-0.0067672,0,sub_7
-0.0028138000000003,0.0054084000000013,4.160000000003744e-05,0.0256992000000005,-0.0595589999999992,-0.016613,0,sub_7
-0.0118880000000003,0.0068780000000013,0.005784,0.0233838000000005,-0.0569763999999992,-0.021119,0,sub_7
-0.0193668000000003,0.0084680000000013,0.0118356,0.0219112000000005,-0.0507985999999992,-0.0196416,0,sub_7
-0.0226678000000003,0.0056556000000012,0.0143228,0.0234000000000005,-0.0418955999999992,-0.0096012,0,sub_7
-0.0193514000000003,0.0011922000000013,0.012646,0.0234136000000005,-0.0266051999999992,0.0027707999999999,0,sub_7
-0.0136390000000003,-0.0007107999999986,0.008468,0.0191884000000005,-0.0091523999999992,0.0108373999999999,0,sub_7
-0.0067866000000003,-0.0019009999999986,0.0047546,0.0060216000000005,0.0055912000000007,0.0115809999999999,0,sub_7
0.0023853999999995,-0.0033413999999986,0.0022224,-0.0079879999999994,0.0197104000000007,0.0093285999999999,0,sub_7
0.0097759999999995,-0.0011101999999986,0.0006928,-0.0209163999999994,0.0334142000000007,0.0034521999999999,0,sub_7
0.0122015999999995,0.0026428000000013,0.0023218,-0.0280991999999994,0.0407184000000007,-0.0053668,0,sub_7
