userAcceleration.x,userAcceleration.y,userAcceleration.z,rotationRate.x,rotationRate.y,rotationRate.z,label,subject
0.0751683999999996,-0.0088949999999987,0.0246579999999999,0.0474984000000005,-0.0545049999999992,0.0092471999999999,0,sub_13
0.0368839999999996,-0.0066655999999987,0.0355469999999999,0.0590464000000005,-0.0127185999999992,0.0455937999999999,0,sub_13
-0.0101290000000003,-0.0052181999999987,0.0426819999999999,0.0703662000000005,-0.0188803999999992,0.0847777999999999,0,sub_13
-0.0598158000000003,-0.0010761999999986,0.0484449999999999,0.0767866000000005,-0.0767727999999992,0.1177981999999999,0,sub_13
-0.0964092000000003,0.0060214000000013,0.0511149999999999,0.0722156000000005,-0.1786497999999992,0.1309291999999999,0,sub_13
-0.1007242000000003,0.0082332000000013,0.0487293999999999,0.0565944000000005,-0.2938165999999992,0.1204991999999999,0,sub_13
-0.0715060000000003,0.0052630000000013,0.0408951999999999,0.0355732000000005,-0.3918569999999992,0.0941997999999999,0,sub_13
-0.0193988000000003,0.0054604000000013,0.0329307999999999,0.0143880000000005,-0.4387339999999992,0.0605695999999999,0,sub_13
0.0344045999999996,0.0102148000000013,0.0222941999999999,-0.0058483999999994,-0.4151003999999992,0.0287785999999999,0,sub_13
0.0799249999999996,0.0089806000000013,0.0127193999999999,-0.0185797999999994,-0.3280339999999992,0.0048635999999999,0,sub_13
0.1087345999999996,0.0046226000000013,0.0055691999999999,-0.0228669999999994,-0.2014183999999992,-0.0066518,0,sub_13
0.1123583999999996,-0.0013621999999986,0.0028117999999999,-0.0141585999999994,-0.0655291999999992,-0.0042014,0,sub_13
0.0934003999999996,-0.0083855999999986,0.0020221999999999,-0.0004087999999994,0.0577514000000007,0.0034279999999999,0,sub_13
0.0759039999999996,-0.0105683999999987,0.0074017999999999,0.0161584000000005,0.1418258000000007,0.0096315999999999,0,sub_13
0.0590027999999996,-0.0094641999999986,0.0141615999999999,0.0210654000000005,0.1978074000000007,0.0183535999999999,0,sub_13
0.0424539999999995,-0.0068647999999986,0.0171727999999999,0.0252374000000005,0.2329112000000007,0.0273107999999999,0,sub_13
0.0343029999999995,0.0007046000000013,0.0227533999999999,0.0319248000000005,0.2533242000000008,0.0316041999999999,0,sub_13
0.0332659999999995,0.0081398000000013,0.0297355999999999,0.0296390000000005,0.2686654000000007,0.0332775999999999,0,sub_13
0.0262797999999995,0.0084080000000013,0.0343099999999999,0.0171746000000005,0.2959818000000007,0.0327281999999999,0,sub_13
0.0219091999999995,0.0052726000000013,0.0351627999999999,0.0158526000000005,0.3260598000000007,0.0245617999999999,0,sub_13
0.0189207999999995,0.0048418000000013,0.0392249999999999,0.0189826000000004,0.3524892000000007,0.0192087999999999,0,sub_13
0.0081043999999995,0.0023612000000013,0.0399549999999999,0.0158750000000004,0.3725300000000007,0.0185205999999999,0,sub_13
-0.0047392000000003,-0.0006207999999986,0.0396621999999999,0.0127232000000004,0.3834070000000007,0.0184845999999999,0,sub_13
-0.0146474000000003,-0.0008795999999986,0.0373789999999999,0.0180270000000004,0.3789050000000007,0.0208775999999999,0,sub_13
-0.0293798000000003,0.0033104000000013,0.0388697999999999,0.0232568000000004,0.3635150000000007,0.0288387999999999,0,sub_13
-0.0450032000000003,0.0037588000000013,0.0386403999999999,0.0231350000000004,0.3398526000000007,0.0322863999999999,0,sub_13
-0.0526166000000003,0.0011880000000013,0.0389803999999999,0.0240656000000004,0.3108684000000007,0.0336117999999999,0,sub_13
-0.0580338000000003,-0.0002019999999986,0.0422817999999999,0.0277156000000004,0.2712160000000007,0.0364655999999999,0,sub_13
-0.0637766000000003,0.0002002000000013,0.0468455999999999,0.0283418000000004,0.2260244000000007,0.0418689999999999,0,sub_13
-0.0661412000000003,0.0004952000000012,0.0473275999999999,0.0264038000000005,0.1780798000000007,0.0453351999999999,0,sub_13
-0.0675836000000003,-0.0001345999999987,0.0493789999999999,0.0259566000000005,0.1284298000000007,0.0477457999999999,0,sub_13
-0.0673040000000003,0.0016754000000012,0.0518657999999999,0.0249354000000005,0.0852070000000007,0.0418119999999999,0,sub_13
-0.0656070000000003,0.0045956000000012,0.0527189999999999,0.0270040000000005,0.0504284000000007,0.0279867999999999,0,sub_13
-0.0614510000000003,0.0082512000000012,0.0536791999999999,0.0201406000000005,0.0182538000000007,0.0100365999999999,0,sub_13
-0.0505320000000003,0.0072508000000012,0.0450145999999999,0.0047184000000005,-0.0160341999999992,-0.004766,0,sub_13
-0.0399760000000003,0.0103064000000012,0.0369837999999999,-0.0039075999999994,-0.0503741999999992,-0.0124708,0,sub_13
-0.0253180000000003,0.0131696000000012,0.0305731999999999,-0.0036341999999994,-0.0867107999999992,-0.0081468,0,sub_13
-0.0119856000000003,0.0079382000000013,0.0278711999999999,-0.0127839999999994,-0.1146653999999992,0.0005547999999999,0,sub_13
0.0001603999999996,-0.0004153999999986,0.0231887999999999,-0.0145755999999994,-0.1243037999999991,0.0045841999999999,0,sub_13
0.0066457999999996,-0.0040657999999986,0.0269487999999999,-0.0036755999999994,-0.1188289999999992,0.0009917999999999,0,sub_13
0.0172577999999996,-0.0046899999999987,0.0302265999999999,-0.0018829999999994,-0.1036451999999992,-0.0084516,0,sub_13
0.0223857999999996,-0.0050881999999987,0.0319059999999999,-0.0115721999999994,-0.0792605999999992,-0.0177734,0,sub_13
0.0231933999999996,-0.0011501999999987,0.0261935999999999,-0.0101629999999994,-0.0538307999999992,-0.0214346,0,sub_13
0.0216497999999996,0.0006434000000012,0.0235827999999999,-0.0030961999999994,-0.0418817999999992,-0.0154252,0,sub_13
0.0164495999999996,0.0043584000000012,0.0257923999999999,-0.0029377999999994,-0.0410149999999992,-0.0026132,0,sub_13
0.0075339999999996,0.0041758000000013,0.0274901999999999,-0.0008893999999994,-0.0481009999999992,0.0093741999999999,0,sub_13
-0.0012600000000003,0.0007760000000013,0.0282595999999999,0.0011388000000005,-0.0658149999999992,0.0151793999999999,0,sub_13
-0.0061044000000003,-9.719999999871827e-05,0.0319433999999999,-0.0015241999999994,-0.0900881999999992,0.0136963999999999,0,sub_13
-0.0058628000000003,0.0042518000000012,0.0362369999999999,-0.0093083999999994,-0.1097487999999992,0.0058955999999999,0,sub_13
-0.0012044000000003,0.0041548000000012,0.0391879999999999,-0.0181287999999994,-0.1232245999999992,-0.0025614,0,sub_13
0.0013201999999996,0.0011048000000012,0.0367441999999999,-0.0237311999999994,-0.1294813999999992,-0.0075868,0,sub_13
0.0028839999999996,0.0003184000000012,0.0349433999999999,-0.0216453999999994,-0.1319393999999992,-0.0102132,0,sub_13
0.0057459999999996,0.0005612000000012,0.0362785999999999,-0.0214829999999994,-0.1318467999999992,-0.0096518,0,sub_13
0.0056001999999996,-0.0014739999999987,0.0354939999999999,-0.0227679999999994,-0.1303611999999992,-0.007099,0,sub_13
0.0040503999999996,-0.0039541999999986,0.0314425999999999,-0.0180795999999995,-0.1280483999999992,-0.0034374,0,sub_13
0.0044107999999996,-0.0021765999999986,0.0324259999999999,-0.0150981999999995,-0.1274273999999992,-0.0014946,0,sub_13
0.0045313999999996,0.0017550000000013,0.0342531999999999,-0.0174395999999994,-0.1242309999999992,0.0004075999999999,0,sub_13
0.0059641999999996,0.0017710000000013,0.0347937999999999,-0.0171925999999994,-0.1161383999999992,0.0010397999999999,0,sub_13
0.0082407999999996,0.0013120000000012,0.0353655999999999,-0.0124551999999994,-0.1044453999999992,0.0031943999999999,0,sub_13
0.0094343999999996,0.0014770000000012,0.0368039999999999,-0.0102505999999994,-0.0891113999999992,0.0027629999999999,0,sub_13
0.0099587999999996,-0.0003629999999987,0.0390493999999999,-0.0065445999999994,-0.0716535999999992,0.0027665999999999,0,sub_13
0.0096595999999996,-0.0033759999999987,0.0415003999999999,-0.0019735999999995,-0.0507935999999992,0.0036263999999999,0,sub_13
0.0075203999999996,-0.0059195999999987,0.0412033999999999,0.0010700000000004,-0.0361117999999992,0.0057653999999999,0,sub_13
0.0040741999999996,-0.0039911999999986,0.0422315999999999,0.0017332000000004,-0.0297275999999992,0.0070435999999999,0,sub_13
-0.0026190000000003,-0.0013837999999986,0.0435039999999999,-0.0005763999999995,-0.0211979999999992,0.0072301999999999,0,sub_13
-0.0091164000000003,0.0013126000000013,0.0431987999999999,-0.0022259999999995,-0.0115919999999992,0.0040015999999999,0,sub_13
-0.0117642000000003,0.0049056000000013,0.0430709999999999,-0.0041099999999995,-0.0096429999999992,-0.0022098,0,sub_13
-0.0130404000000003,0.0083550000000013,0.0430101999999999,-0.0064415999999995,-0.0119553999999992,-0.0079916,0,sub_13
-0.0119142000000003,0.0069440000000013,0.0404617999999999,-0.0094279999999994,-0.0149149999999992,-0.0112132,0,sub_13
-0.0054198000000003,0.0028528000000013,0.0365717999999999,-0.0064909999999994,-0.0241785999999992,-0.0126998,0,sub_13
0.0014283999999996,0.0007178000000013,0.0367127999999999,-0.0029365999999994,-0.0345257999999992,-0.0101214,0,sub_13
0.0049615999999996,-0.0001901999999986,0.0380615999999999,-0.0061747999999994,-0.0367541999999992,-0.0073872,0,sub_13
0.0076935999999996,0.0008488000000012,0.0383077999999999,-0.0104299999999994,-0.0289609999999992,-0.0057412,0,sub_13
0.0062923999999996,-0.0006327999999987,0.0359451999999999,-0.0120833999999994,-0.0135007999999992,-0.0055824,0,sub_13
0.0018695999999996,0.0020798000000012,0.0351785999999999,-0.0079591999999994,0.0030988000000007,-0.0045067999999999,0,sub_13
-0.0035646000000003,0.0040000000000012,0.0354309999999999,-0.0064051999999994,0.0150306000000007,-0.0060067999999999,0,sub_13
-0.0073694000000003,0.0030264000000012,0.0336741999999999,-0.0050895999999994,0.0207872000000007,-0.0081413999999999,0,sub_13
-0.0106408000000003,-0.0006049999999987,0.0312963999999999,-0.0061997999999994,0.0205404000000007,-0.0090778,0,sub_13
-0.0096906000000003,-0.0015557999999987,0.0302875999999999,-0.0048031999999994,0.0100512000000007,-0.0082746,0,sub_13
-0.0089168000000003,-0.0009693999999987,0.0334259999999999,-0.0074873999999994,-0.0029939999999992,-0.0040782,0,sub_13
-0.0094366000000003,-3.139999999869792e-05,0.0336887999999999,-0.0099323999999995,-0.0098631999999992,0.0005391999999999,0,sub_13
-0.0095004000000003,0.0002606000000013,0.0342559999999999,-0.0063653999999995,-0.0105661999999992,0.0030541999999999,0,sub_13
-0.0093698000000003,0.0002752000000013,0.0369593999999999,-0.0016653999999995,-0.0093041999999992,0.0030853999999999,0,sub_13
-0.0100466000000003,0.0009320000000013,0.0399157999999999,-0.0001553999999995,-0.0073849999999992,0.0013843999999999,0,sub_13
-0.0101858000000003,0.0017544000000013,0.0415537999999999,-0.0011983999999995,-0.0055903999999992,-0.0018762,0,sub_13
-0.0085444000000003,8.180000000130184e-05,0.0409857999999999,-0.0033255999999994,-0.0069903999999992,-0.0044992,0,sub_13
-0.0109664000000003,5.500000000130184e-05,0.0397617999999999,-0.0048615999999994,-0.0150143999999992,-0.0028368,0,sub_13
-0.0172008000000003,0.0022340000000013,0.0381707999999999,-0.0042885999999995,-0.0277363999999992,-0.0002992,0,sub_13
-0.0239000000000003,0.0030694000000013,0.0362921999999999,-0.0067489999999995,-0.0504623999999992,0.0024437999999999,0,sub_13
-0.0296976000000003,0.0016854000000013,0.0325811999999999,-0.0135255999999995,-0.0841109999999992,0.0047897999999999,0,sub_13
-0.0327836000000003,0.0020678000000013,0.0289757999999999,-0.0158059999999995,-0.1160639999999992,0.0054555999999999,0,sub_13
-0.0275022000000003,0.0026728000000013,0.0275393999999999,-0.0152673999999995,-0.1401351999999992,0.0039947999999999,0,sub_13
-0.0140784000000003,0.0029308000000013,0.0305943999999999,-0.0168117999999994,-0.1522705999999992,0.0031449999999999,0,sub_13
-0.0023886000000003,0.0013384000000013,0.0329909999999999,-0.0161093999999994,-0.1439239999999992,0.0026763999999999,0,sub_13
0.0068895999999996,-0.0004317999999986,0.0355557999999999,-0.0076459999999994,-0.1196183999999992,0.0005323999999999,0,sub_13
0.0108441999999996,-0.0024285999999986,0.0424795999999999,-0.0055903999999994,-0.0963575999999992,-0.0012276,0,sub_13
0.0069457999999996,-0.0015569999999986,0.0483481999999999,-0.0122869999999994,-0.0766769999999992,-0.0058216,0,sub_13
0.0005409999999996,-0.0011405999999986,0.0478043999999999,-0.0177465999999994,-0.0684979999999992,-0.012315,0,sub_13
-0.0024964000000003,0.0026572000000013,0.0476387999999999,-0.0239123999999994,-0.0682445999999992,-0.0170584,0,sub_13
-0.0026566000000003,0.0017240000000013,0.0463411999999999,-0.0301079999999994,-0.0720493999999992,-0.0192332,0,sub_13
-0.0011256000000003,0.0019756000000013,0.0456567999999999,-0.0299233999999994,-0.0788659999999992,-0.0196504,0,sub_13
0.0036195999999996,0.0015790000000013,0.0462349999999999,-0.0252589999999994,-0.0905919999999992,-0.0189788,0,sub_13
0.0055275999999996,0.0012530000000013,0.0448863999999999,-0.0246217999999994,-0.0925189999999992,-0.0145022,0,sub_13
0.0083529999999996,-0.0022051999999986,0.0412251999999999,-0.0188165999999994,-0.0863583999999992,-0.01235,0,sub_13
0.0118799999999996,-0.0006609999999986,0.0428869999999999,-0.0117061999999994,-0.0761483999999992,-0.0116894,0,sub_13
0.0159351999999996,-9.579999999869866e-05,0.0426999999999999,-0.0103261999999994,-0.0601615999999992,-0.0121444,0,sub_13
0.0168467999999996,-0.0003445999999986,0.0404585999999999,-0.0085491999999994,-0.0414317999999992,-0.0089512,0,sub_13
0.0145259999999996,-0.0012011999999987,0.0408875999999999,-0.0048393999999994,-0.0214241999999992,-0.0072418,0,sub_13
0.0111333999999996,-0.0010353999999987,0.0430711999999999,-0.0009411999999994,-0.0078055999999992,-0.0063774,0,sub_13
0.0058147999999995,-0.0014299999999987,0.0445335999999999,-3.339999999951628e-05,-0.0033859999999992,-0.0063718,0,sub_13
0.0011625999999996,1.2000000001281624e-05,0.0448903999999999,-0.0008537999999995,-0.0038597999999992,-0.0065856,0,sub_13
0.0001347999999996,5.580000000126161e-05,0.0415839999999999,-0.0042249999999995,-0.0030427999999991,-0.0076736,0,sub_13
0.0036353999999996,-0.0004373999999987,0.0402845999999999,-0.0033707999999995,-0.0086443999999991,-0.0057326,0,sub_13
0.0041781999999995,-0.0004509999999987,0.0410991999999999,-0.0035719999999995,-0.0099879999999991,-0.0020956,0,sub_13
0.0030837999999996,-0.0002929999999987,0.0394501999999999,-0.0022831999999994,-0.0051041999999991,0.0008981999999999,0,sub_13
0.0029955999999996,-0.0011305999999987,0.0385167999999999,0.0024226000000005,-0.0008663999999992,0.0026347999999999,0,sub_13
0.0024349999999996,-0.0027199999999986,0.0394983999999999,0.0034800000000005,-0.0010909999999992,0.0045653999999999,0,sub_13
0.0010293999999996,-0.0040901999999986,0.0365463999999999,0.0033108000000005,-0.0001095999999992,0.0026461999999999,0,sub_13
0.0022081999999996,-0.0022765999999986,0.0356147999999999,0.0061232000000005,-0.0006289999999992,0.0005361999999999,0,sub_13
0.0047697999999996,0.0025704000000013,0.0361371999999999,0.0027306000000005,-0.0015665999999992,0.0018015999999999,0,sub_13
0.0040261999999996,0.0045254000000013,0.0305461999999999,-0.0061933999999994,0.0013494000000007,0.0032369999999999,0,sub_13
0.0067843999999996,0.0040666000000013,0.0239347999999999,-0.0103877999999994,0.0083122000000007,0.0008545999999999,0,sub_13
0.0121691999999995,0.0040576000000013,0.0195085999999999,-0.0169533999999994,0.0155936000000007,-0.0028326,0,sub_13
0.0251581999999995,0.0044770000000013,0.0137975999999999,-0.0273347999999994,0.0282156000000007,-0.0067668,0,sub_13
0.0418007999999995,0.0007956000000012,0.0079127999999999,-0.0335517999999995,0.0634146000000007,-0.0126236,0,sub_13
0.0607131999999995,-0.0013853999999987,0.0079593999999999,-0.0351221999999995,0.1331220000000007,-0.0208424,0,sub_13
0.0831867999999995,0.0016948000000012,0.0134017999999999,-0.0350481999999994,0.2286610000000007,-0.0269456,0,sub_13
0.0947209999999996,0.0013636000000012,0.0211735999999999,-0.0346417999999994,0.3599546000000007,-0.023692,0,sub_13
0.0893855999999996,-0.0051779999999987,0.0253807999999999,-0.0219715999999995,0.5156990000000008,-0.0184614,0,sub_13
0.0598223999999996,-0.0087253999999986,0.0288205999999999,0.0124164000000004,0.6585946000000007,-0.0156264,0,sub_13
0.0140143999999996,-0.0102129999999986,0.0386429999999999,0.0564840000000004,0.7306940000000007,-0.0057962,0,sub_13
-0.0468216000000003,-0.0112285999999986,0.0494863999999999,0.0917744000000004,0.7141156000000007,0.0068629999999999,0,sub_13
-0.1148964000000003,-0.0016031999999986,0.0636609999999999,0.1175930000000004,0.5808292000000008,0.0161871999999999,0,sub_13
-0.1859242000000003,0.0083598000000013,0.0791025999999999,0.1081802000000005,0.3336162000000007,0.0277883999999999,0,sub_13
-0.2388142000000003,0.0167202000000013,0.0857367999999999,0.0546638000000005,-0.0007683999999992,0.0323565999999999,0,sub_13
-0.2578354000000004,0.0214792000000013,0.0774531999999999,-0.0221457999999994,-0.3637501999999992,0.0158615999999999,0,sub_13
-0.2255988000000003,0.0179696000000013,0.0623907999999999,-0.0878863999999994,-0.6939249999999992,-0.0093576,0,sub_13
-0.1634090000000004,0.0094656000000013,0.0420911999999999,-0.1306057999999995,-0.9406373999999992,-0.0407186,0,sub_13
-0.0763984000000004,0.0055120000000013,0.0232641999999999,-0.1467623999999994,-1.0610141999999994,-0.0797742,0,sub_13
0.0577349999999996,0.0012218000000013,0.0109961999999999,-0.1296461999999995,-1.0260411999999992,-0.1025594,0,sub_13
0.1760727999999995,-0.0033783999999986,0.0059857999999999,-0.0848869999999994,-0.8370455999999992,-0.0920204,0,sub_13
0.2479799999999996,-0.0073139999999986,0.0052281999999999,-0.0338725999999994,-0.5344647999999992,-0.062743,0,sub_13
0.2677445999999996,-0.0073971999999986,0.0045983999999999,-0.0028955999999994,-0.1791925999999992,-0.0328184,0,sub_13
0.2679089999999996,-0.0082909999999986,0.0051047999999999,0.0100938000000005,0.1565626000000007,-0.0083354,0,sub_13
0.2153299999999996,-0.0121151999999986,0.0042619999999999,0.0190500000000005,0.4422928000000007,0.0089193999999999,0,sub_13
0.1457543999999996,-0.0153637999999986,0.0030103999999999,0.0325848000000005,0.6489872000000008,0.0203253999999999,0,sub_13
0.0638145999999996,-0.0084205999999986,0.0044179999999999,0.0426632000000005,0.7607826000000008,0.0262345999999999,0,sub_13
0.0093961999999996,-0.0011789999999986,0.0078637999999999,0.0499888000000005,0.7881942000000007,0.0380009999999999,0,sub_13
-0.0462606000000003,0.0044978000000013,0.0061451999999999,0.0598262000000005,0.7631400000000007,0.0656899999999999,0,sub_13
-0.0935676000000003,0.0111562000000012,0.0056473999999999,0.0753638000000005,0.6801024000000007,0.0964843999999999,0,sub_13
-0.1214994000000003,0.0162114000000012,0.0181455999999999,0.0847984000000005,0.5532582000000008,0.1119097999999999,0,sub_13
-0.1320720000000003,0.0134754000000012,0.0346719999999999,0.0814432000000005,0.4082206000000007,0.1061183999999999,0,sub_13
-0.1318050000000003,0.0035824000000012,0.0502489999999999,0.0777676000000005,0.2639158000000007,0.0772501999999999,0,sub_13
-0.1188630000000003,0.0009506000000013,0.0708971999999999,0.0743682000000005,0.1247804000000007,0.0295483999999999,0,sub_13
-0.1021522000000003,0.0018520000000012,0.0927977999999999,0.0386146000000005,-0.0016515999999992,-0.0233096,0,sub_13
-0.0862828000000003,0.0049716000000012,0.0989371999999999,-0.0222429999999994,-0.1005563999999992,-0.0652686,0,sub_13
-0.0604232000000003,0.0067528000000012,0.0834621999999999,-0.0606601999999994,-0.1674647999999992,-0.08297,0,sub_13
-0.0283126000000003,0.0066640000000012,0.0695849999999999,-0.0682345999999994,-0.1996503999999992,-0.076111,0,sub_13
0.0007061999999996,-0.0007209999999987,0.0574499999999999,-0.0612097999999994,-0.1984907999999992,-0.0557332,0,sub_13
0.0269851999999996,-0.0059841999999987,0.0443139999999999,-0.0352853999999995,-0.1716117999999992,-0.0367518,0,sub_13
0.0506539999999996,-0.0048443999999986,0.0363631999999999,0.0016054000000004,-0.1272949999999992,-0.018998,0,sub_13
0.0539367999999996,-0.0004395999999987,0.0394661999999999,0.0127778000000004,-0.0700673999999992,-0.0108408,0,sub_13
0.0457283999999996,0.0033404000000013,0.0332073999999999,0.0032004000000004,-0.0169835999999992,-0.010762,0,sub_13
0.0340041999999996,0.0051878000000013,0.0224149999999999,-0.0077569999999995,0.0128860000000007,-0.0117314,0,sub_13
0.0215611999999996,0.0051224000000013,0.0137491999999999,-0.0068967999999995,0.0196794000000007,-0.006393,0,sub_13
0.0053785999999996,0.0007544000000013,0.0140129999999999,-0.0001485999999995,0.0068052000000007,-0.0007732,0,sub_13
-0.0052772000000003,-0.0033083999999986,0.0197097999999999,0.0105558000000004,-0.0263291999999992,0.0063955999999999,0,sub_13
-0.0143006000000003,-0.0058475999999986,0.0309967999999999,0.0180384000000004,-0.0645639999999992,0.0131211999999999,0,sub_13
-0.0211840000000003,-0.0061081999999986,0.0426039999999999,0.0259682000000004,-0.0985381999999992,0.0196309999999999,0,sub_13
-0.0293774000000003,-0.0041007999999987,0.0563731999999999,0.0247564000000005,-0.1256599999999992,0.0254271999999999,0,sub_13
-0.0358736000000003,-0.0030679999999987,0.0618081999999999,0.0186506000000005,-0.1510077999999992,0.0292625999999999,0,sub_13
-0.0403294000000003,-0.0005533999999986,0.0643541999999999,0.0159502000000005,-0.1795579999999992,0.0318441999999999,0,sub_13
-0.0492864000000003,0.0041622000000013,0.0638219999999999,0.0128048000000005,-0.2087595999999992,0.0378417999999999,0,sub_13
-0.0610860000000003,0.0057436000000013,0.0586281999999999,0.0066798000000005,-0.2394293999999992,0.0406155999999999,0,sub_13
-0.0658408000000003,0.0020304000000013,0.0489199999999999,0.0026798000000004,-0.2810825999999992,0.0421645999999999,0,sub_13
-0.0601198000000003,0.0023904000000013,0.0370457999999999,0.0026572000000004,-0.3393697999999993,0.0441899999999999,0,sub_13
-0.0509732000000003,0.0020588000000013,0.0255107999999999,0.0049664000000004,-0.4000131999999993,0.0473029999999999,0,sub_13
-0.0325836000000003,0.0020666000000013,0.0183543999999999,0.0085914000000004,-0.4553243999999992,0.0478543999999999,0,sub_13
-0.0019684000000003,0.0050892000000013,0.0168465999999999,0.0071950000000004,-0.4890967999999992,0.0477023999999999,0,sub_13
0.0249783999999996,0.0082598000000013,0.0174683999999999,0.0014598000000005,-0.4869315999999992,0.0440275999999999,0,sub_13
0.0450211999999996,0.0077380000000013,0.0179727999999999,-0.0051303999999994,-0.4393755999999992,0.0385795999999999,0,sub_13
0.0665119999999996,0.0056644000000013,0.0213349999999999,-0.0062519999999994,-0.3605253999999992,0.0346249999999999,0,sub_13
0.0848985999999996,0.0024390000000013,0.0257437999999999,-0.0060531999999994,-0.2695483999999992,0.0338689999999999,0,sub_13
0.0896013999999996,-0.0004871999999986,0.0310465999999999,-0.0056333999999994,-0.1766557999999992,0.0333255999999999,0,sub_13
0.0853311999999995,0.0020038000000013,0.0347137999999999,-0.0082437999999994,-0.0929155999999992,0.0332001999999999,0,sub_13
0.0764283999999996,0.0013496000000013,0.0366175999999999,-0.0200895999999994,-0.0210801999999992,0.0345207999999999,0,sub_13
0.0609825999999996,-0.0020865999999986,0.0320147999999999,-0.0272959999999994,0.0351996000000007,0.0324755999999999,0,sub_13
0.0464027999999996,-0.0024317999999986,0.0308681999999999,-0.0274871999999994,0.0794478000000007,0.0285991999999999,0,sub_13
0.0343493999999995,0.0007216000000013,0.0312009999999999,-0.0285759999999994,0.1166574000000007,0.0275029999999999,0,sub_13
0.0264581999999995,-7.879999999869935e-05,0.0307703999999999,-0.0276173999999994,0.1391408000000007,0.0309263999999999,0,sub_13
0.0119967999999995,0.0014494000000013,0.0293333999999999,-0.0203247999999994,0.1477492000000007,0.0354801999999999,0,sub_13
-0.0036212000000004,0.0030722000000013,0.0289567999999999,-0.0126063999999994,0.1538088000000007,0.0376901999999999,0,sub_13
-0.0175336000000004,0.0047030000000013,0.0282273999999999,-0.0102497999999994,0.1525360000000007,0.0342899999999999,0,sub_13
-0.0287640000000003,0.0037790000000013,0.0261673999999999,-0.0093961999999994,0.1419230000000007,0.0236273999999999,0,sub_13
-0.0349302000000003,0.0039826000000013,0.0251247999999999,-0.0138059999999994,0.1409408000000008,0.0067199999999999,0,sub_13
-0.0254976000000003,0.0033856000000013,0.0275927999999999,-0.0192579999999994,0.1438922000000007,-0.0140052,0,sub_13
-0.0115376000000003,0.0045058000000012,0.0363881999999999,-0.0291887999999994,0.1519538000000007,-0.0300682,0,sub_13
-0.0011244000000003,0.0038420000000012,0.0416681999999999,-0.0341515999999994,0.1783012000000007,-0.041206,0,sub_13
0.0037567999999996,0.0043470000000012,0.0449617999999999,-0.0311535999999994,0.2208070000000007,-0.0508134,0,sub_13
0.0100781999999996,0.0017698000000012,0.0496787999999999,-0.0209363999999994,0.2585874000000007,-0.0571596,0,sub_13
