userAcceleration.x,userAcceleration.y,userAcceleration.z,rotationRate.x,rotationRate.y,rotationRate.z,label,subject
-0.0091624000000002,-0.0008819999999987,0.036102,0.0546638000000004,-0.0438215999999992,0.0974929999999999,0,sub_11
-0.0163440000000002,0.0048828000000012,0.0395706,0.0562412000000004,-0.0672845999999992,0.1028751999999999,0,sub_11
-0.0207050000000002,0.0134992000000012,0.0441966,0.0530196000000004,-0.0791753999999992,0.0956041999999999,0,sub_11
-0.0229740000000002,0.0198238000000012,0.04827,0.0415664000000004,-0.0803469999999992,0.0788613999999999,0,sub_11
-0.0243872000000002,0.0233184000000012,0.0484878,0.0259148000000004,-0.0701331999999992,0.0561063999999999,0,sub_11
-0.0243022000000002,0.0211252000000012,0.0462018,0.0101074000000004,-0.0479843999999992,0.0324803999999999,0,sub_11
-0.0215120000000002,0.0179982000000012,0.0387728,-0.0018601999999995,-0.0220301999999992,0.0129355999999999,0,sub_11
-0.0201080000000002,0.0104798000000012,0.0308724,-0.0072805999999995,-0.0023125999999992,0.0022037999999999,0,sub_11
-0.0194308000000002,0.0051232000000012,0.0228794,-0.0050863999999995,0.0098916000000007,-0.0009876,0,sub_11
-0.0150872000000002,0.0011314000000012,0.0205558,0.0013398000000004,0.0196526000000007,0.0033175999999999,0,sub_11
-0.0123588000000002,-0.0006681999999987,0.019734,0.0112010000000004,0.0381208000000007,0.0116949999999999,0,sub_11
-0.0127188000000002,0.0012244000000012,0.0246964,0.0297360000000004,0.0936056000000006,0.0262811999999999,0,sub_11
-0.0171064000000002,0.0114382000000012,-0.0136557999999999,0.0001064000000004,-0.0670773999999993,0.0414571999999999,0,sub_11
-0.0368538000000002,0.0204598000000012,-0.0166337999999999,-0.0014925999999995,-0.0765541999999993,0.0480893999999999,0,sub_11
-0.0349570000000002,0.0187184000000012,-0.0240049999999999,-0.0097999999999995,-0.1149505999999993,0.0465933999999999,0,sub_11
-0.0328510000000002,0.0215884000000012,-0.0197085999999999,-0.0255653999999995,-0.1982765999999993,0.0453163999999999,0,sub_11
-0.0352420000000002,0.0219444000000012,-0.0220515999999999,-0.0483077999999995,-0.2747305999999992,0.0365041999999999,0,sub_11
-0.0283666000000002,0.0123488000000012,0.0178544,-0.0292875999999995,-0.1360563999999993,0.0262043999999999,0,sub_11
-0.0108448000000002,0.0062434000000012,0.0203836,-0.0343969999999995,-0.1419697999999993,0.0176305999999999,0,sub_11
-0.0135148000000002,0.0119206000000011,0.0238192,-0.0317089999999995,-0.1193719999999993,0.0118519999999999,0,sub_11
-0.0140742000000002,0.0098972000000011,0.017039,-0.0224827999999995,-0.0663301999999993,0.0060799999999999,0,sub_11
-0.0086360000000002,0.0082380000000011,0.0151958,-0.0202761999999995,-0.0524797999999993,0.0037275999999999,0,sub_11
-0.0092728000000002,0.0105724000000011,0.014225,-0.0167825999999995,-0.0377789999999993,0.0007419999999999,0,sub_11
-0.0062606000000002,0.0106078000000011,0.0159552,-0.0175833999999995,-0.0262789999999993,0.0004895999999999,0,sub_11
-0.0059838000000002,0.0079262000000012,0.0177496,-0.0188177999999995,-0.0147835999999993,0.0017297999999999,0,sub_11
-0.0079806000000002,0.0088282000000012,0.01917,-0.0217465999999995,-0.0024221999999993,0.0010341999999999,0,sub_11
-0.0102680000000002,0.0096754000000012,0.0211839999999999,-0.0223693999999995,-0.0017765999999993,-0.002194,0,sub_11
-0.0126388000000002,0.0090490000000012,0.0235046,-0.0213103999999995,-0.0062521999999992,-0.0049766,0,sub_11
-0.0137598000000002,0.0078688000000011,0.0269922,-0.0217351999999995,-0.0073099999999992,-0.0064738,0,sub_11
-0.0162002000000002,0.0080696000000011,0.029974,-0.0234775999999995,-0.0141259999999992,-0.005409,0,sub_11
-0.0189532000000002,0.0075776000000011,0.0320902,-0.0252333999999995,-0.0220149999999992,-0.0024202,0,sub_11
-0.0222400000000002,0.0062234000000011,0.0328394,-0.0276303999999995,-0.0279927999999992,0.0026981999999999,0,sub_11
-0.0247736000000002,0.0069506000000012,0.0334502,-0.0317237999999995,-0.0333185999999993,0.0060947999999999,0,sub_11
-0.0286228000000002,0.0086370000000012,0.0322364,-0.0354211999999995,-0.0475855999999993,0.0073691999999999,0,sub_11
-0.0321930000000002,0.0095356000000012,0.0296484,-0.0373865999999995,-0.0614119999999993,0.0035273999999999,0,sub_11
-0.0340258000000002,0.0118554000000012,0.0282274,-0.0412655999999995,-0.0779841999999993,-0.0045968,0,sub_11
-0.0367370000000002,0.0147700000000012,0.0258736,-0.0445217999999995,-0.1005157999999993,-0.0148456,0,sub_11
-0.0341154000000002,0.0122492000000012,0.0248429999999999,-0.0443179999999995,-0.1098617999999993,-0.022096,0,sub_11
-0.0314526000000002,0.0095526000000012,0.0235044,-0.0447543999999995,-0.1160227999999992,-0.0261504,0,sub_11
-0.0272240000000002,0.0083154000000012,0.0239942,-0.0460509999999995,-0.1192157999999992,-0.025728,0,sub_11
-0.0226026000000002,0.0056014000000012,0.0228486,-0.0437145999999995,-0.1177479999999993,-0.021868,0,sub_11
-0.0158558000000002,0.0027058000000012,0.0235666,-0.0394193999999995,-0.1062793999999992,-0.0165116,0,sub_11
-0.0142840000000002,0.0034082000000012,0.0225918,-0.0355891999999995,-0.1037557999999992,-0.0115744,0,sub_11
-0.0117556000000002,0.0043858000000012,0.0217356,-0.0311225999999995,-0.1014499999999993,-0.0059914,0,sub_11
-0.0099794000000002,0.0043862000000012,0.0212662,-0.0266561999999995,-0.0976587999999993,0.0010851999999999,0,sub_11
-0.0081084000000002,0.0038980000000012,0.0213566,-0.0253797999999994,-0.0898153999999993,0.0098433999999999,0,sub_11
-0.0073012000000002,0.0051580000000012,0.0213886,-0.0277315999999995,-0.0819599999999992,0.0187899999999999,0,sub_11
-0.0085732000000002,0.0072530000000012,0.0205992,-0.0311377999999995,-0.0732409999999992,0.0258053999999999,0,sub_11
-0.0104202000000002,0.0075240000000012,0.0215164,-0.0341019999999995,-0.0640853999999992,0.0298321999999999,0,sub_11
-0.0111178000000002,0.0075180000000012,0.022132,-0.0364115999999995,-0.0544947999999992,0.0310855999999999,0,sub_11
-0.0135900000000002,0.0084780000000012,0.0229396,-0.0391555999999995,-0.0480925999999992,0.0308445999999999,0,sub_11
-0.0146828000000002,0.0082502000000012,0.0235784,-0.0406157999999995,-0.0404181999999993,0.0310381999999999,0,sub_11
-0.0139710000000002,0.0077632000000012,0.023706,-0.0416491999999995,-0.0323209999999993,0.0316613999999999,0,sub_11
-0.0128874000000002,0.0077428000000012,0.023381,-0.0422605999999995,-0.0238051999999993,0.0337825999999999,0,sub_11
-0.0130642000000002,0.0077820000000012,0.023554,-0.0435263999999995,-0.0174219999999993,0.0369703999999999,0,sub_11
-0.0133832000000002,0.0087818000000012,0.0230906,-0.0432833999999994,-0.0080593999999993,0.0397375999999999,0,sub_11
-0.0133748000000002,0.0083230000000012,0.0223044,-0.0428315999999995,0.0010858000000006,0.0433609999999999,0,sub_11
-0.0139980000000002,0.0069016000000012,0.0229698,-0.0438897999999995,0.0074632000000006,0.0478319999999999,0,sub_11
-0.0167082000000002,0.0079566000000012,0.0225656,-0.0457937999999995,0.0138504000000006,0.0505879999999999,0,sub_11
-0.0201344000000001,0.0088652000000012,0.021539,-0.0466223999999995,0.0200294000000006,0.0512151999999999,0,sub_11
-0.0223572000000001,0.0087376000000012,0.0203294,-0.0464203999999995,0.0185330000000006,0.0522865999999999,0,sub_11
-0.0253482000000001,0.0080896000000012,0.0216016,-0.0472911999999995,0.0151254000000006,0.0527121999999999,0,sub_11
-0.0283842000000001,0.0076660000000012,0.0223998,-0.0487847999999995,0.0138574000000006,0.0514215999999999,0,sub_11
-0.0278404000000001,0.0076140000000012,0.0217508,-0.0492153999999995,0.0127944000000006,0.0512061999999999,0,sub_11
-0.0258968000000002,0.0076610000000012,0.0207038,-0.0505139999999995,0.0104484000000006,0.0529091999999999,0,sub_11
-0.0243446000000002,0.0072172000000012,0.0197122,-0.0536897999999995,0.0153622000000006,0.0522397999999999,0,sub_11
-0.0208664000000002,0.0097200000000012,0.0173092,-0.0547393999999995,0.0192010000000006,0.0522275999999999,0,sub_11
-0.0155264000000002,0.0116444000000012,0.0159966,-0.0553843999999995,0.0232308000000006,0.0573453999999999,0,sub_11
-0.0138378000000002,0.0114778000000012,0.0144703999999999,-0.0611397999999995,0.0291978000000006,0.0619977999999999,0,sub_11
-0.0115458000000002,0.0139390000000012,0.0117222,-0.0666441999999995,0.0394412000000006,0.0625871999999999,0,sub_11
-0.0083110000000002,0.0154038000000012,0.0101364,-0.0706789999999995,0.0466874000000006,0.0655407999999999,0,sub_11
-0.0116866000000002,0.0125666000000012,0.0115274,-0.0783393999999995,0.0526746000000006,0.0667613999999999,0,sub_11
-0.0193844000000002,0.0138028000000012,0.0122904,-0.0853699999999995,0.0537696000000006,0.0654289999999999,0,sub_11
-0.0253428000000002,0.0132304000000012,0.0163928,-0.0856091999999995,0.0475934000000006,0.0650079999999999,0,sub_11
-0.0326164000000002,0.0105566000000012,0.022731,-0.0858639999999995,0.0352704000000006,0.0658591999999999,0,sub_11
-0.0385028000000002,0.0101238000000012,0.0298298,-0.0852527999999995,0.0229554000000006,0.0639389999999999,0,sub_11
-0.0392028000000002,0.0087712000000012,0.0337098,-0.0827029999999995,0.0146818000000006,0.0620271999999999,0,sub_11
-0.0381216000000002,0.0053484000000012,0.0380706,-0.0837479999999995,0.0111182000000006,0.0575205999999999,0,sub_11
-0.0369190000000002,0.0050648000000012,0.0391704,-0.0890153999999995,0.0160978000000006,0.0514779999999999,0,sub_11
-0.0343912000000002,0.0037086000000012,0.0373274,-0.0928033999999995,0.0242218000000006,0.0478091999999999,0,sub_11
-0.0326042000000002,-0.0001945999999987,0.0348632,-0.0953437999999995,0.0297660000000006,0.0488525999999999,0,sub_11
-0.0304420000000001,-0.0008555999999987,0.0331565999999999,-0.0964115999999995,0.0340128000000006,0.0533261999999999,0,sub_11
-0.0259062000000001,0.0006702000000012,0.0358397999999999,-0.0936685999999995,0.0371590000000006,0.0633825999999999,0,sub_11
-0.0245520000000001,0.0028086000000012,0.0388781999999999,-0.0913683999999995,0.0398676000000006,0.0766409999999999,0,sub_11
-0.0257700000000001,0.0049324000000012,0.0428108,-0.0962443999999995,0.0532814000000006,0.0829989999999999,0,sub_11
-0.0252284000000002,0.0096884000000012,0.039296,-0.1065547999999995,0.0799716000000006,0.0773379999999999,0,sub_11
-0.0230524000000002,0.0130644000000012,0.0339486,-0.1179139999999995,0.1092282000000006,0.0701709999999999,0,sub_11
-0.0232624000000001,0.0092640000000012,0.0242326,-0.1303715999999995,0.1333676000000006,0.0649255999999999,0,sub_11
-0.0282232000000001,0.0063806000000012,0.016926,-0.1435643999999995,0.1423586000000006,0.0656765999999999,0,sub_11
-0.0317248000000001,0.0071110000000012,0.0085082,-0.1506727999999995,0.1385040000000006,0.0767413999999999,0,sub_11
-0.0389966000000001,0.0068080000000012,0.0063916,-0.1513019999999995,0.1137104000000006,0.0970649999999999,0,sub_11
-0.0496342000000001,0.0089756000000012,0.0090092,-0.1470357999999995,0.0808250000000006,0.1120919999999999,0,sub_11
-0.0604390000000001,0.0118348000000012,0.0108228,-0.1350181999999995,0.0537042000000006,0.1173379999999999,0,sub_11
-0.0634988000000001,0.0109886000000012,0.0110791999999999,-0.1179905999999995,0.0353578000000006,0.1085073999999999,0,sub_11
-0.0638854000000001,0.0089568000000012,0.0163991999999999,-0.1049363999999995,0.0213412000000006,0.0859701999999999,0,sub_11
-0.0595908000000002,0.0086498000000012,0.0264143999999999,-0.1011967999999995,0.0150622000000006,0.0545985999999999,0,sub_11
-0.0535602000000002,0.0069838000000012,0.033208,-0.1093889999999995,0.0084160000000006,0.0188711999999999,0,sub_11
-0.0454236000000002,0.0088398000000011,0.0395499999999999,-0.1331429999999995,0.0037468000000006,-0.0182492,0,sub_11
-0.0356272000000002,0.0155144000000011,0.0423287999999999,-0.1712195999999995,-0.0006841999999993,-0.0492744,0,sub_11
-0.0278310000000002,0.0210662000000012,0.0413193999999999,-0.2155129999999995,-0.0015117999999992,-0.0703062,0,sub_11
-0.0271956000000002,0.0185632000000012,0.033184,-0.2574227999999995,0.0106292000000007,-0.0864241999999999,0,sub_11
-0.0213184000000002,0.0177804000000012,0.0257703999999999,-0.2890733999999996,0.0269936000000007,-0.1020486,0,sub_11
-0.0121590000000002,0.0174986000000012,0.0238214,-0.3120303999999995,0.0277882000000006,-0.1210106,0,sub_11
-0.0100494000000002,0.0117280000000012,0.0294932,-0.3272379999999996,0.0320118000000006,-0.1516734,0,sub_11
-0.0154480000000002,0.0017594000000012,0.0344464,-0.3393681999999995,0.0390636000000006,-0.1996236,0,sub_11
-0.0268674000000001,-0.0045849999999987,0.0425944,-0.3643683999999995,0.0649640000000006,-0.261361,0,sub_11
-0.0415828000000001,-0.0133515999999987,0.036866,-0.4011667999999995,0.1167164000000006,-0.3309052,0,sub_11
-0.0413786000000001,-0.0225221999999987,0.0241978,-0.4391595999999995,0.1585980000000006,-0.381858,0,sub_11
-0.0369904000000001,-0.0377533999999987,0.0165656,-0.4746575999999995,0.1783652000000007,-0.3925998,0,sub_11
-0.0302902000000001,-0.0440073999999987,0.0110022,-0.5240643999999995,0.1850110000000007,-0.360052,0,sub_11
-0.0091868000000002,-0.0357549999999987,0.0105484,-0.5702585999999995,0.1810680000000007,-0.2930716,0,sub_11
0.0147315999999997,-0.0130731999999987,0.0240946,-0.5846053999999996,0.1571378000000006,-0.2104606,0,sub_11
0.0243633999999997,0.0075216000000012,0.0389554,-0.5614527999999995,0.1518922000000006,-0.144276,0,sub_11
0.0359607999999997,0.0267652000000012,0.0401647999999999,-0.5211007999999996,0.1549778000000006,-0.0984918,0,sub_11
0.0433069999999997,0.0359778000000012,0.0311817999999999,-0.4438785999999995,0.1339174000000006,-0.066947,0,sub_11
0.0348101999999997,0.0315616000000012,0.0220885999999999,-0.3250051999999995,0.0679978000000006,-0.042104,0,sub_11
0.0181637999999997,0.0155930000000012,0.0130514,-0.2149823999999995,-0.0166559999999992,-0.0132396,0,sub_11
0.0055067999999997,0.0030286000000012,0.0096432,-0.1389281999999995,-0.1075947999999992,0.0183865999999999,0,sub_11
-0.0040074000000002,-0.0002433999999987,0.0134602,-0.0749489999999995,-0.1901375999999992,0.0388081999999999,0,sub_11
-0.0030068000000002,0.0036268000000012,0.0285516,-0.0256929999999995,-0.2370015999999993,0.0473307999999999,0,sub_11
0.0085915999999998,0.0056218000000012,0.0364964,-0.0142081999999995,-0.2451385999999992,0.0476351999999999,0,sub_11
0.0217317999999997,0.0040656000000012,0.0418302,-0.0222071999999995,-0.2242173999999993,0.0441341999999999,0,sub_11
0.0232125999999997,0.0048950000000012,0.0454177999999999,-0.0320755999999995,-0.1888145999999992,0.0438061999999999,0,sub_11
0.0189467999999997,0.0080104000000012,0.046895,-0.0510681999999995,-0.1393293999999993,0.0461737999999999,0,sub_11
0.0122883999999997,0.0037100000000012,0.0432565999999999,-0.0772789999999995,-0.0842691999999993,0.0459199999999999,0,sub_11
0.0051011999999997,-0.0012233999999987,0.0385681999999999,-0.0968963999999995,-0.0389935999999992,0.0444269999999999,0,sub_11
-0.0008432000000002,-0.0036465999999987,0.034512,-0.1103621999999995,-0.0020477999999992,0.0427741999999999,0,sub_11
-0.0020164000000002,-0.0017611999999987,0.0286232,-0.1187847999999995,0.0186838000000006,0.0422455999999999,0,sub_11
-0.0076924000000002,-0.0012045999999987,0.0307492,-0.1053623999999995,0.0135446000000006,0.0455347999999999,0,sub_11
-0.0156648000000002,0.0005526000000012,0.0377084,-0.0867989999999995,0.0149836000000006,0.0509879999999999,0,sub_11
-0.0205588000000002,-0.0053755999999987,0.0402916,-0.0660903999999995,0.0166192000000006,0.0502759999999999,0,sub_11
-0.0265844000000002,-0.0107465999999987,0.0457806,-0.0419097999999995,-0.0209409999999993,0.0449381999999999,0,sub_11
-0.0398722000000002,-0.0230297999999987,0.0512424,-0.0152041999999995,-0.0655441999999993,0.0404817999999999,0,sub_11
-0.0433300000000002,-0.0336567999999987,0.0435174,-0.0083335999999995,-0.1079483999999993,0.0360975999999999,0,sub_11
-0.0389076000000002,-0.0414897999999987,0.0383242,0.0024118000000004,-0.1853269999999993,0.0366989999999999,0,sub_11
-0.0396296000000002,-0.0200735999999987,0.0476282,0.0191374000000004,-0.2614483999999993,0.0373407999999999,0,sub_11
-0.0360742000000002,-0.0019885999999987,0.0541114,0.0309712000000004,-0.2862075999999993,0.0383097999999999,0,sub_11
-0.0261584000000002,0.0087486000000012,0.0551286,0.0312058000000004,-0.2840675999999993,0.0357449999999999,0,sub_11
-0.0193986000000002,0.0154874000000012,0.059954,0.0349970000000004,-0.2544385999999992,0.0288967999999999,0,sub_11
-0.0161064000000002,0.0203892000000012,0.0588048,0.0320966000000004,-0.1979273999999992,0.0185491999999999,0,sub_11
-0.0070674000000002,0.0024688000000012,0.04625,0.0216908000000004,-0.1420599999999992,0.0158411999999999,0,sub_11
-0.0016348000000002,-0.0128245999999987,0.0340092,0.0156506000000004,-0.1066819999999992,0.0183173999999999,0,sub_11
0.0013413999999997,-0.0170561999999987,0.027897,0.0163894000000004,-0.0796469999999993,0.0234153999999999,0,sub_11
0.0020837999999997,-0.0225555999999987,0.022066,0.0177186000000004,-0.0622075999999993,0.0300253999999999,0,sub_11
0.0014847999999997,-0.0247789999999987,0.018855,0.0222032000000004,-0.0550051999999993,0.0364567999999999,0,sub_11
-0.0062234000000002,-0.0192547999999987,0.0187514,0.0290580000000004,-0.0469415999999993,0.0386307999999999,0,sub_11
-0.0139544000000002,-0.0124837999999987,0.0193202,0.0325324000000004,-0.0337433999999993,0.0384243999999999,0,sub_11
-0.0199966000000002,-0.0106785999999987,0.0180167999999999,0.0334300000000004,-0.0243703999999993,0.0379911999999999,0,sub_11
-0.0244428000000002,-0.0050697999999987,0.0184197999999999,0.0342892000000004,-0.0230949999999993,0.0379955999999999,0,sub_11
-0.0276322000000002,-0.0007317999999987,0.0212758,0.0372946000000004,-0.0192695999999993,0.0377979999999999,0,sub_11
-0.0256428000000002,0.0007552000000012,0.0269995999999999,0.0407458000000004,-0.0092747999999993,0.0395183999999999,0,sub_11
-0.0231642000000002,0.0008234000000012,0.0324212,0.0446632000000004,0.0071194000000006,0.0388837999999999,0,sub_11
-0.0241250000000002,0.0009530000000012,0.0356362,0.0450194000000004,0.0322854000000006,0.0322311999999999,0,sub_11
-0.0256824000000002,0.0010250000000012,0.0367264,0.0400558000000004,0.0572706000000006,0.0221231999999999,0,sub_11
-0.0303154000000002,0.0042302000000012,0.0340585999999999,0.0310112000000004,0.0750312000000006,0.0107141999999999,0,sub_11
-0.0383762000000002,0.0065892000000012,0.029539,0.0268512000000004,0.0853272000000006,-0.0030014,0,sub_11
-0.0475576000000002,0.0065214000000012,0.0224558,0.0243780000000004,0.0866870000000007,-0.0211802,0,sub_11
-0.0478736000000002,0.0030000000000012,0.0185184,0.0278582000000004,0.0829142000000006,-0.0397382,0,sub_11
-0.0379290000000002,-0.0022099999999987,0.01713,0.0394532000000004,0.0786946000000007,-0.0601618,0,sub_11
-0.0241380000000002,-0.0068895999999987,0.0184256,0.0520690000000004,0.0631838000000006,-0.0816318,0,sub_11
-0.0140296000000002,-0.0048011999999987,0.0247386,0.0601408000000004,0.0376590000000006,-0.0990614,0,sub_11
-0.0052530000000002,0.0031098000000012,0.0365692,0.0793040000000004,0.0286436000000006,-0.0989157999999999,0,sub_11
-0.0007956000000002,0.0099256000000012,0.0442486,0.0908400000000004,0.0078418000000006,-0.075094,0,sub_11
-0.0066102000000002,0.0158052000000012,0.0533674,0.0951814000000004,-0.0279257999999993,-0.0320752,0,sub_11
-0.0160482000000002,0.0147386000000012,0.0514824,0.1065488000000004,-0.0563043999999993,0.0218787999999999,0,sub_11
-0.0198928000000002,0.0074794000000012,0.0416276,0.1161660000000004,-0.0915059999999993,0.0786067999999999,0,sub_11
-0.0183416000000002,-0.0004209999999987,0.0327796,0.1060754000000004,-0.1540817999999993,0.1249771999999999,0,sub_11
-0.0183500000000002,-0.0020857999999987,0.0322606,0.0957410000000004,-0.1978195999999993,0.1493165999999999,0,sub_11
-0.0190552000000001,-0.0026509999999987,0.0289194,0.0786318000000004,-0.2043729999999993,0.1513417999999999,0,sub_11
-0.0145992000000001,-0.0004589999999987,0.0322058,0.0450704000000004,-0.1845981999999993,0.1369815999999999,0,sub_11
-0.0117278000000002,0.0015422000000012,0.0373452,0.0010608000000004,-0.1325475999999993,0.1056289999999999,0,sub_11
-0.0153630000000002,0.0008410000000012,0.0351468,-0.0419475999999995,-0.0608463999999993,0.0610123999999999,0,sub_11
-0.0204956000000002,-0.0008267999999987,0.0240886,-0.0770303999999995,0.0080958000000006,0.0068405999999999,0,sub_11
-0.0231644000000002,-0.0025013999999987,0.0121958,-0.0930103999999995,0.0518418000000006,-0.0499428,0,sub_11
-0.0293450000000001,-0.0021281999999987,0.0048482,-0.0880151999999995,0.0639764000000006,-0.1050438,0,sub_11
-0.0356748000000002,-7.799999999879622e-05,0.000559,-0.0567333999999995,0.0463698000000006,-0.1513772,0,sub_11
-0.0362012000000002,0.0001974000000012,0.0004836,-0.0112915999999995,0.0073902000000006,-0.1849944,0,sub_11
-0.0311890000000002,-0.0026291999999987,0.0062472,0.0344292000000004,-0.0457273999999992,-0.199791,0,sub_11
-0.0241824000000002,-0.0054791999999987,0.0146992,0.0740578000000004,-0.1023241999999992,-0.1917656,0,sub_11
-0.0182074000000002,-0.0010739999999987,0.0251488,0.1059216000000004,-0.1576951999999992,-0.163927,0,sub_11
-0.0093278000000002,0.0089870000000012,0.03705,0.1211098000000004,-0.2053975999999993,-0.1212596,0,sub_11
-0.0014094000000002,0.0190398000000012,0.046112,0.1181764000000004,-0.2369137999999992,-0.0695378,0,sub_11
0.0031419999999997,0.0239256000000012,0.0504406,0.1010324000000004,-0.2509035999999993,-0.019433,0,sub_11
0.0067793999999997,0.0245982000000012,0.0514622,0.0744486000000004,-0.2401005999999993,0.0192507999999999,0,sub_11
0.0148525999999997,0.0168632000000012,0.0466846,0.0369564000000004,-0.2032041999999993,0.0422287999999999,0,sub_11
0.0220555999999997,0.0030064000000012,0.0363154,-0.0065827999999995,-0.1489725999999993,0.0510417999999999,0,sub_11
0.0238749999999997,-0.0067825999999987,0.0255454,-0.0438315999999995,-0.0846977999999993,0.0470671999999999,0,sub_11
0.0231707999999997,-0.0074487999999987,0.0161142,-0.0740091999999995,-0.0210579999999992,0.0358787999999999,0,sub_11
0.0210643999999997,-0.0041989999999987,0.0089046,-0.0950243999999995,0.0361728000000006,0.0211307999999999,0,sub_11
0.0142121999999997,-0.0015423999999987,0.0046346,-0.0970705999999995,0.0890744000000006,0.0069481999999999,0,sub_11
0.0059373999999997,0.0001804000000012,0.0032206,-0.0798051999999995,0.1237774000000006,-0.001735,0,sub_11
-0.0029880000000002,0.0035786000000012,0.0098672,-0.0546069999999995,0.1288000000000007,-0.0009244,0,sub_11
-0.0099734000000002,0.0061116000000012,0.0181034,-0.0256641999999995,0.1199310000000006,0.0074077999999999,0,sub_11
-0.0163934000000002,0.0094276000000012,0.025413,-0.0029665999999995,0.1031810000000006,0.0206201999999999,0,sub_11
-0.0150674000000001,0.0116734000000012,0.0290842,0.0045346000000004,0.0796518000000006,0.0373669999999999,0,sub_11
-0.0091480000000002,0.0132274000000012,0.032884,-0.0034971999999995,0.0664010000000006,0.0546329999999999,0,sub_11
0.0007065999999997,0.0107794000000012,0.030757,-0.0218375999999995,0.0813278000000006,0.0673043999999999,0,sub_11
0.0077063999999997,0.0043010000000012,0.0267963999999999,-0.0481231999999995,0.1254992000000006,0.0728325999999999,0,sub_11
0.0137757999999997,-0.0025769999999987,0.0225672,-0.0774847999999995,0.1891028000000006,0.0699821999999999,0,sub_11
0.0125807999999997,-0.0056625999999987,0.0191263999999999,-0.1044195999999995,0.2612570000000006,0.0579511999999999,0,sub_11
