userAcceleration.x,userAcceleration.y,userAcceleration.z,rotationRate.x,rotationRate.y,rotationRate.z,label,subject
-0.0582858000000002,-4.199999998725536e-06,-0.008021,-0.0095917999999993,0.1699778000000007,0.0198943999999999,0,sub_21
-0.0601610000000002,-0.0015789999999987,-0.006089,-0.0126763999999993,0.1827768000000007,0.0245406,0,sub_21
-0.0587854000000002,-0.0033117999999987,-0.0033112,-0.0157223999999993,0.2051590000000007,0.030243,0,sub_21
-0.0601430000000002,-0.0049855999999987,-0.0013054,-0.0193931999999993,0.2301036000000006,0.0350834,0,sub_21
-0.0614050000000002,-0.0073815999999987,-0.0004396,-0.0211831999999993,0.2426988000000007,0.0363206,0,sub_21
-0.0584864000000002,-0.0078743999999986,-0.0004608,-0.0168677999999993,0.2537610000000007,0.036764,0,sub_21
-0.0523618000000002,-0.0096799999999986,0.0005429999999999,-0.0127273999999993,0.2754680000000007,0.0393288,0,sub_21
-0.0479112000000002,-0.0096509999999986,0.0027559999999999,-0.0113503999999993,0.2978308000000007,0.0401644,0,sub_21
-0.0436528000000002,-0.0079729999999986,0.0047071999999999,-0.0095839999999993,0.3084876000000007,0.0375991999999999,0,sub_21
-0.0409370000000002,-0.0079487999999986,0.0034073999999999,-0.0065455999999993,0.3113098000000007,0.0361099999999999,0,sub_21
-0.0385524000000002,-0.0069493999999987,-0.0022642,-0.0037147999999993,0.3166842000000007,0.0358977999999999,0,sub_21
-0.0365832000000002,-0.0047983999999987,-0.0097894,-0.0038701999999993,0.3231310000000007,0.0365179999999999,0,sub_21
-0.0345692000000002,-0.0043489999999987,-0.017049,-0.0030441999999993,0.3104000000000007,0.0369559999999999,0,sub_21
-0.0309602000000002,-0.0035373999999987,-0.0195596,0.0001098000000006,0.2972194000000007,0.0412565999999999,0,sub_21
-0.0237598000000002,0.0004146000000012,-0.0197246,0.0068458000000006,0.2799256000000007,0.0445304,0,sub_21
-0.0187104000000002,-0.0007851999999987,-0.017176,0.0135538000000006,0.2528458000000008,0.0441848,0,sub_21
-0.0231938000000002,0.0005498000000012,-0.0148844,0.0225332000000006,0.2142316000000007,0.0492108,0,sub_21
-0.0246412000000002,-0.0008865999999987,-0.0144246,0.0324084000000006,0.1835014000000007,0.0527307999999999,0,sub_21
-0.0248220000000002,-0.0031793999999987,-0.0179396,0.0324934000000006,0.1515546000000007,0.0493471999999999,0,sub_21
-0.0280746000000002,-0.0063059999999987,-0.0217388,0.0268422000000006,0.1270770000000007,0.0478367999999999,0,sub_21
-0.0303510000000002,0.0013686000000012,-0.029977,0.0267062000000006,0.1036120000000007,0.0546957999999999,0,sub_21
-0.0261766000000002,0.0019418000000012,-0.0400128,0.0289192000000006,0.0701670000000007,0.0511155999999999,0,sub_21
-0.0301824000000002,0.0035296000000012,-0.0474766,0.0330506000000006,0.0369276000000007,0.0479822,0,sub_21
-0.0304490000000002,-0.0009563999999987,-0.0499992,0.0435764000000006,0.0157552000000007,0.0585514,0,sub_21
-0.0282868000000002,-0.0015609999999987,-0.050337,0.0526020000000006,-0.0109351999999992,0.065058,0,sub_21
-0.0277670000000002,-0.0088947999999987,-0.0473584,0.0514452000000006,-0.0313829999999992,0.064435,0,sub_21
-0.0278160000000002,-0.0092981999999987,-0.0409878,0.0513312000000006,-0.0520679999999992,0.0689469999999999,0,sub_21
-0.0229876000000002,-0.0011615999999987,-0.0360666,0.0573646000000006,-0.0732345999999992,0.0822623999999999,0,sub_21
-0.0222802000000002,0.0067550000000012,-0.0323418,0.0557100000000006,-0.1083855999999992,0.0829367999999999,0,sub_21
-0.0284560000000002,0.0075976000000012,-0.0281792,0.0566196000000006,-0.1395103999999992,0.0868285999999999,0,sub_21
-0.0300818000000002,0.0111646000000012,-0.0281722,0.0596254000000006,-0.1759809999999992,0.0937329999999999,0,sub_21
-0.0305334000000002,0.0117814000000012,-0.0307594,0.0629214000000006,-0.1981665999999992,0.0978438,0,sub_21
-0.0183146000000002,0.0057676000000012,-0.0312256,0.0562034000000006,-0.2253973999999992,0.0935587999999999,0,sub_21
-0.0077918000000002,0.0104484000000012,-0.0278922,0.0517834000000006,-0.2571359999999992,0.0957049999999999,0,sub_21
-0.0019682000000002,0.0151600000000012,-0.0220466,0.0499240000000006,-0.2901565999999992,0.0965887999999999,0,sub_21
-0.0083952000000002,0.0110556000000012,-0.0127122,0.0590252000000006,-0.3123231999999992,0.0909123999999999,0,sub_21
-0.0148990000000002,0.0067730000000012,-0.0101368,0.0707588000000005,-0.3197929999999993,0.0839535999999999,0,sub_21
-0.0317230000000002,0.0051388000000012,-0.0110942,0.0779170000000005,-0.2987055999999992,0.0790627999999999,0,sub_21
-0.0442952000000002,0.0068186000000012,-0.0118776,0.0818138000000006,-0.2462773999999992,0.0715454,0,sub_21
-0.0469968000000002,0.0031960000000012,-0.0114834,0.0750582000000005,-0.1840361999999992,0.0701366,0,sub_21
-0.0436384000000002,0.0049986000000012,-0.0133434,0.0557128000000006,-0.1166589999999992,0.0739744,0,sub_21
-0.0388962000000002,0.0086060000000012,-0.0075342,0.0311898000000006,-0.0573779999999992,0.082273,0,sub_21
-0.0350854000000002,0.0101224000000012,-0.0013996,0.0121704000000006,-0.0087655999999992,0.089769,0,sub_21
-0.0353708000000002,0.0007138000000012,-0.0023096,-0.0034647999999993,0.0302596000000007,0.0943098,0,sub_21
-0.0350456000000002,-0.0034449999999987,-0.0052512,-0.0158725999999993,0.0695096000000007,0.0931046,0,sub_21
-0.0319048000000002,-0.0039999999999987,-0.0014648,-0.0291435999999993,0.1057832000000007,0.0910426,0,sub_21
-0.0315846000000002,-0.0050651999999987,-0.0007562,-0.0375691999999993,0.1254328000000007,0.0862584,0,sub_21
-0.0323826000000002,-0.0016349999999987,-0.006165,-0.0381401999999993,0.1333478000000007,0.0787668,0,sub_21
-0.0310050000000002,-0.0003401999999987,-0.0102956,-0.0312547999999993,0.1416508000000007,0.0743178,0,sub_21
-0.0247698000000002,0.0009694000000012,-0.013729,-0.0252535999999993,0.1433514000000007,0.0700847999999999,0,sub_21
-0.0174304000000002,0.0020132000000012,-0.0183672,-0.0225169999999993,0.1312130000000007,0.0662738,0,sub_21
-0.0128522000000002,0.0079812000000012,-0.0211338,-0.0195709999999993,0.1169484000000007,0.0611852,0,sub_21
-0.0120710000000002,0.0060670000000012,-0.020257,-0.0155975999999993,0.0954304000000007,0.0576084,0,sub_21
-0.0108336000000002,0.0070324000000012,-0.0214556,-0.0090893999999993,0.0681510000000007,0.0540568,0,sub_21
-0.0112402000000002,0.0081768000000012,-0.0219438,-0.0006541999999993,0.0455392000000007,0.0537174,0,sub_21
-0.0125524000000002,0.0051556000000012,-0.0210508,0.0091062000000006,0.0312390000000007,0.0516673999999999,0,sub_21
-0.0155858000000002,0.0012062000000012,-0.0189354,0.0152488000000006,0.0207794000000007,0.0512963999999999,0,sub_21
-0.0140314000000002,0.0004958000000012,-0.0184364,0.0180150000000006,0.0184286000000007,0.0506777999999999,0,sub_21
-0.0125322000000002,0.0005372000000012,-0.0158226,0.0150334000000006,0.0197174000000007,0.0506553999999999,0,sub_21
-0.0129516000000002,0.0018348000000012,-0.0170634,0.0092676000000006,0.0159136000000007,0.0478425999999999,0,sub_21
-0.0162480000000002,0.0055464000000012,-0.0163618,0.0047570000000006,0.0089002000000007,0.0473927999999999,0,sub_21
-0.0168190000000002,0.0053520000000012,-0.0186152,0.0011268000000006,0.0063640000000007,0.0454477999999999,0,sub_21
-0.0194774000000002,0.0050028000000012,-0.0166716,-0.0041977999999993,0.0074522000000007,0.0443409999999999,0,sub_21
-0.0200708000000002,0.0050988000000012,-0.0149596,-0.0050627999999993,0.0025644000000007,0.0419911999999999,0,sub_21
-0.0227400000000002,0.0043280000000012,-0.0117702,-0.0008001999999993,-0.0002133999999992,0.0403153999999999,0,sub_21
-0.0235782000000002,0.0027758000000012,-0.0129104,0.0047504000000006,-0.0019277999999992,0.0380063999999999,0,sub_21
-0.0217398000000002,0.0028142000000012,-0.012324,0.0103078000000006,-0.0019385999999992,0.0359087999999999,0,sub_21
-0.0203696000000002,0.0026440000000012,-0.0109734,0.0141456000000006,-0.0040765999999992,0.0344429999999999,0,sub_21
-0.0222244000000002,0.0012960000000012,-0.0090984,0.0115660000000006,-0.0098141999999992,0.0329367999999999,0,sub_21
-0.0228116000000002,0.0025026000000012,-0.010354,0.0096390000000006,-0.0146939999999992,0.0295111999999999,0,sub_21
-0.0239544000000002,0.0048320000000012,-0.012534,0.0115758000000006,-0.0138373999999992,0.0267461999999999,0,sub_21
-0.0253464000000002,0.0044802000000012,-0.0140336,0.0124628000000006,-0.0072323999999992,0.0258893999999999,0,sub_21
-0.0231084000000002,0.0053578000000012,-0.015845,0.0101434000000006,-0.0014699999999992,0.0254383999999999,0,sub_21
-0.0212758000000002,0.0066948000000012,-0.0190786,0.0093146000000006,0.0061926000000007,0.0256345999999999,0,sub_21
-0.0204056000000002,0.0064324000000012,-0.0206858,0.0057140000000006,0.0149276000000007,0.026451,0,sub_21
-0.0196566000000002,0.0053528000000012,-0.0213332,0.0006062000000006,0.0189874000000007,0.0255536,0,sub_21
-0.0172358000000002,0.0055282000000012,-0.0227344,-0.0047551999999993,0.0136754000000007,0.0242392,0,sub_21
-0.0159712000000002,0.0053914000000012,-0.0239146,-0.0079999999999993,0.0051576000000007,0.0235848,0,sub_21
-0.0166914000000002,0.0056974000000012,-0.022926,-0.0105919999999993,-0.0022885999999992,0.0231488,0,sub_21
-0.0180618000000002,0.0048124000000012,-0.020826,-0.0095557999999993,-0.0099587999999992,0.0223114,0,sub_21
-0.0190950000000002,0.0037952000000012,-0.0169648,-0.0100111999999993,-0.0165609999999992,0.0221032,0,sub_21
-0.0220672000000002,0.0024952000000012,-0.0114344,-0.0121755999999993,-0.0242199999999992,0.0212434,0,sub_21
-0.0246478000000002,0.0030696000000012,-0.0089956,-0.0141189999999993,-0.0331459999999992,0.0173955999999999,0,sub_21
-0.0259670000000002,0.0035364000000012,-0.0098054,-0.0113509999999993,-0.0384657999999992,0.0133625999999999,0,sub_21
-0.0250226000000002,0.0034694000000012,-0.0106094,-0.0070873999999993,-0.0423037999999992,0.0104061999999999,0,sub_21
-0.0232644000000002,0.0036846000000012,-0.0117928,-0.0036975999999993,-0.0487029999999992,0.0093697999999999,0,sub_21
-0.0225440000000002,0.0042480000000012,-0.0150722,-0.0039309999999993,-0.0542373999999992,0.0083069999999999,0,sub_21
-0.0234978000000002,0.0042590000000012,-0.0177018,-0.0022393999999993,-0.0563791999999992,0.0096033999999999,0,sub_21
-0.0240972000000002,0.0039040000000012,-0.0182418,-0.0024651999999993,-0.0578747999999992,0.0108855999999999,0,sub_21
-0.0236674000000002,0.0048554000000012,-0.020903,-0.0037723999999993,-0.0642601999999992,0.0104573999999999,0,sub_21
-0.0238464000000002,0.0055916000000012,-0.019857,-0.0055079999999993,-0.0710703999999992,0.0100267999999999,0,sub_21
-0.0256972000000002,0.0059952000000012,-0.0173562,-0.0050899999999993,-0.0712917999999992,0.0117392,0,sub_21
-0.0319224000000002,0.0044840000000012,-0.0137144,-0.0042249999999993,-0.0672525999999992,0.0132355999999999,0,sub_21
-0.0355266000000002,0.0030884000000012,-0.0112804,-0.0033407999999993,-0.0595891999999992,0.0140865999999999,0,sub_21
-0.0409102000000002,0.0020836000000012,-0.007635,-0.0049901999999993,-0.0459511999999992,0.0149121999999999,0,sub_21
-0.0422838000000002,0.0035924000000012,-0.0025464,-0.0100343999999993,-0.0284645999999992,0.0152817999999999,0,sub_21
-0.0450146000000002,0.0039208000000012,1.559999999993303e-05,-0.0152871999999993,-0.0096997999999992,0.0158619999999999,0,sub_21
-0.0446918000000002,0.0035834000000012,0.0015093999999999,-0.0201247999999993,0.0058702000000007,0.0158082,0,sub_21
-0.0440820000000002,0.0026282000000012,0.0039231999999999,-0.0230409999999993,0.0214344000000007,0.0155542,0,sub_21
-0.0404006000000002,0.0024060000000012,0.0058105999999999,-0.0272231999999993,0.0389256000000007,0.014007,0,sub_21
-0.0395398000000002,0.0002892000000012,0.0009977999999999,-0.0271455999999993,0.0549096000000007,0.0127052,0,sub_21
-0.0372882000000002,-0.0010933999999987,-0.0035114,-0.0242987999999993,0.0706676000000007,0.0122776,0,sub_21
-0.0336156000000002,-0.0010979999999987,-0.0090436,-0.0210185999999993,0.0877032000000007,0.0116378,0,sub_21
-0.0312694000000002,0.0012754000000012,-0.013969,-0.0226699999999993,0.0979442000000006,0.0094766,0,sub_21
-0.0299858000000002,0.0038366000000012,-0.0191298,-0.0218143999999993,0.0992162000000006,0.0103356,0,sub_21
-0.0337738000000002,0.0041942000000012,-0.0227624,-0.0222593999999993,0.0985650000000006,0.0137515999999999,0,sub_21
-0.0349180000000002,0.0049900000000012,-0.0246598,-0.0246257999999993,0.0960098000000007,0.0154473999999999,0,sub_21
-0.0324018000000002,0.0061698000000012,-0.021315,-0.0263489999999993,0.0923938000000007,0.0154399999999999,0,sub_21
-0.0306234000000002,0.0059806000000012,-0.019343,-0.0234097999999993,0.0830040000000007,0.0167543999999999,0,sub_21
-0.0308126000000002,0.0052880000000012,-0.018901,-0.0209261999999993,0.0680728000000007,0.0189271999999999,0,sub_21
-0.0251454000000002,0.0061076000000012,-0.0140548,-0.0192881999999993,0.0544246000000007,0.0206652,0,sub_21
-0.0225624000000002,0.0077664000000012,-0.0101436,-0.0208565999999993,0.0375994000000007,0.0204622,0,sub_21
-0.0238118000000002,0.0084724000000012,-0.008196,-0.0211629999999993,0.0196926000000007,0.0232603999999999,0,sub_21
-0.0279730000000002,0.0073892000000012,-0.0058288,-0.0237761999999993,0.0107422000000007,0.0260309999999999,0,sub_21
-0.0280518000000002,0.0049686000000012,0.0011673999999999,-0.0263385999999993,0.0101128000000007,0.0258003999999999,0,sub_21
-0.0301482000000002,0.0032746000000012,0.0039137999999999,-0.0282043999999993,0.0186562000000007,0.0221445999999999,0,sub_21
-0.0304148000000002,0.0016158000000012,0.0060783999999999,-0.0229913999999993,0.0365450000000007,0.0195943999999999,0,sub_21
-0.0300532000000002,0.0026936000000012,0.0038335999999999,-0.0186453999999993,0.0499686000000007,0.0155482,0,sub_21
-0.0242280000000002,0.0045572000000012,0.0007103999999999,-0.0166875999999993,0.0557246000000007,0.0129908,0,sub_21
-0.0216042000000002,0.0071242000000012,-0.0040878,-0.0098259999999993,0.0627332000000007,0.0126024,0,sub_21
-0.0217444000000002,0.0075880000000012,-0.0080276,0.0027660000000006,0.0641772000000007,0.013543,0,sub_21
-0.0222110000000002,0.0076140000000012,-0.0111088,0.0106282000000006,0.0560570000000007,0.0127535999999999,0,sub_21
-0.0163242000000002,0.0084112000000012,-0.0098782,0.0154926000000006,0.0447550000000007,0.0110929999999999,0,sub_21
-0.0135220000000002,0.0093702000000012,-0.0054258,0.0246330000000006,0.0353554000000007,0.0094597999999999,0,sub_21
-0.0157454000000002,0.0083506000000012,-0.0017752,0.0333380000000006,0.0242520000000007,0.0080393999999999,0,sub_21
-0.0172288000000002,0.0080770000000012,-0.0021598,0.0390294000000006,0.0065532000000007,0.0040421999999999,0,sub_21
-0.0162128000000002,0.0076412000000012,-0.0048196,0.0464250000000006,-0.0107295999999992,0.0011247999999999,0,sub_21
-0.0222924000000002,0.0038572000000012,-0.0032918,0.0457730000000006,-0.0120153999999992,0.0006941999999999,0,sub_21
-0.0305252000000002,0.0015578000000012,-0.005462,0.0374740000000006,-0.0070897999999992,-0.0012931999999999,0,sub_21
-0.0327424000000002,0.0020136000000012,-0.0103564,0.0251324000000006,-0.0008663999999992,-0.0045923999999999,0,sub_21
-0.0319984000000002,0.0033262000000012,-0.015358,0.0147308000000006,0.0123744000000007,-0.0033999999999999,0,sub_21
-0.0307838000000002,0.0030822000000012,-0.0184224,0.0053990000000006,0.0281604000000007,-0.0002807999999999,0,sub_21
-0.0293832000000002,0.0025710000000012,-0.0249154,0.0030700000000006,0.0339142000000007,0.0014048,0,sub_21
-0.0264764000000002,0.0012186000000012,-0.0266926,0.0015592000000006,0.0322064000000007,0.0035328,0,sub_21
-0.0277486000000002,0.0009908000000012,-0.026706,-0.0023081999999993,0.0281640000000007,0.0054336,0,sub_21
-0.0303506000000002,0.0005188000000012,-0.0273526,-0.0064043999999993,0.0183794000000007,0.0049901999999999,0,sub_21
-0.0339476000000002,0.0016866000000012,-0.027488,-0.0081477999999993,0.0102892000000007,0.0049883999999999,0,sub_21
-0.0375204000000002,0.0022856000000012,-0.0254754,-0.0083751999999993,0.0083382000000007,0.0079569999999999,0,sub_21
-0.0397340000000002,0.0022682000000012,-0.0257046,-0.0090023999999993,0.0134152000000007,0.0119821999999999,0,sub_21
-0.0391316000000002,0.0014806000000012,-0.0252254,-0.0113289999999993,0.0189294000000007,0.0147129999999999,0,sub_21
-0.0309050000000002,0.0034568000000012,-0.0241234,-0.0158151999999993,0.0176376000000007,0.0163692,0,sub_21
-0.0237070000000002,0.0056786000000012,-0.020614,-0.0152215999999993,0.0058936000000007,0.0167924,0,sub_21
-0.0197892000000002,0.0068142000000012,-0.0174758,-0.0110269999999993,-0.0111619999999992,0.0159889999999999,0,sub_21
-0.0176320000000002,0.0069372000000012,-0.0134608,-0.0061981999999993,-0.0309835999999992,0.0136979999999999,0,sub_21
-0.0138084000000002,0.0065456000000012,-0.0071716,-0.0027533999999993,-0.0483969999999992,0.0092929999999999,0,sub_21
-0.0159602000000002,0.0038050000000012,-0.0002054,-0.0029013999999993,-0.0583399999999992,0.0046393999999999,0,sub_21
-0.0165814000000002,0.0030122000000012,-0.0008918,-0.0079377999999993,-0.0631559999999992,0.0007997999999999,0,sub_21
-0.0144144000000002,0.0035900000000012,-0.0027196,-0.0127367999999993,-0.0624341999999992,-0.0028315999999999,0,sub_21
-0.0111200000000002,0.0045296000000012,-0.0047968,-0.0153971999999993,-0.0598057999999992,-0.0055959999999999,0,sub_21
-0.0108706000000002,0.0043884000000012,-0.010269,-0.0164505999999993,-0.0583045999999992,-0.0071007999999999,0,sub_21
-0.0128792000000002,0.0066052000000012,-0.016111,-0.0138889999999993,-0.0581003999999992,-0.0070829999999999,0,sub_21
-0.0177476000000002,0.0067690000000012,-0.0168576,-0.0119705999999993,-0.0570477999999992,-0.0055753999999999,0,sub_21
-0.0251988000000002,0.0051114000000012,-0.0196442,-0.0138123999999993,-0.0581003999999992,-0.0053155999999999,0,sub_21
-0.0306460000000002,0.0036812000000012,-0.0202606,-0.0167019999999993,-0.0561613999999992,-0.0063487999999999,0,sub_21
-0.0357462000000002,0.0027050000000012,-0.0166308,-0.0180739999999993,-0.0465671999999992,-0.0050311999999999,0,sub_21
-0.0432910000000002,0.0013234000000012,-0.0109748,-0.0181503999999993,-0.0329319999999992,-0.0030687999999999,0,sub_21
-0.0477648000000002,-0.0005377999999987,-0.0049658,-0.0160631999999993,-0.0158825999999992,-0.0043003999999999,0,sub_21
-0.0458946000000002,-0.0004467999999987,0.0015431999999999,-0.0144611999999993,0.0060652000000007,-0.0064537999999999,0,sub_21
-0.0428412000000002,7.820000000129413e-05,0.0069977999999999,-0.0143575999999993,0.0288628000000007,-0.0066959999999999,0,sub_21
-0.0419608000000002,0.0019372000000012,0.0107485999999999,-0.0151265999999993,0.0484634000000007,-0.0058719999999999,0,sub_21
-0.0379878000000002,0.0031090000000012,0.0092311999999999,-0.0167713999999993,0.0635910000000007,-0.0046209999999999,0,sub_21
-0.0335688000000002,0.0036818000000012,0.0066171999999999,-0.0203487999999993,0.0791928000000007,-0.0020001999999999,0,sub_21
-0.0302022000000002,0.0030970000000012,0.0053983999999999,-0.0243641999999993,0.0930880000000007,0.0014742,0,sub_21
-0.0290018000000002,0.0032800000000012,0.0024269999999999,-0.0286063999999993,0.1016670000000007,0.0026038,0,sub_21
-0.0254534000000002,0.0049220000000012,-0.0037066,-0.0307447999999993,0.1021486000000007,0.002263,0,sub_21
-0.0208338000000002,0.0061512000000012,-0.0069768,-0.0296889999999993,0.1004912000000007,0.0013062,0,sub_21
-0.0173684000000002,0.0065708000000012,-0.0097438,-0.0260873999999993,0.0934528000000007,5.8600000000005456e-05,0,sub_21
-0.0166740000000002,0.0066530000000012,-0.0104384,-0.0237987999999993,0.0795996000000007,-0.0007621999999999,0,sub_21
-0.0178982000000002,0.0061090000000012,-0.0101306,-0.0266571999999993,0.0634758000000007,1.0200000000005605e-05,0,sub_21
-0.0205612000000002,0.0049882000000012,-0.0076256,-0.0329169999999993,0.0497092000000007,0.0003284,0,sub_21
-0.0238018000000002,0.0043720000000012,-0.007368,-0.0374413999999993,0.0421160000000007,0.0004372,0,sub_21
-0.0261356000000002,0.0050750000000012,-0.0078858,-0.0387555999999993,0.0364300000000007,0.0003524,0,sub_21
-0.0238932000000002,0.0047572000000012,-0.0082958,-0.0368547999999993,0.0332920000000007,-0.0003541999999999,0,sub_21
-0.0226232000000002,0.0058932000000012,-0.0085218,-0.0321549999999993,0.0337052000000007,-0.0011763999999999,0,sub_21
-0.0212006000000002,0.0074642000000012,-0.011828,-0.0242611999999993,0.0324036000000007,-0.0021877999999999,0,sub_21
-0.0193170000000002,0.0086274000000012,-0.0144188,-0.0159693999999993,0.0240722000000007,-0.0038281999999999,0,sub_21
-0.0161348000000002,0.0077378000000012,-0.0137212,-0.0100341999999993,0.0140430000000007,-0.0050557999999999,0,sub_21
-0.0167898000000002,0.0071568000000012,-0.0121838,-0.0068583999999993,0.0043898000000007,-0.0057385999999999,0,sub_21
-0.0168112000000002,0.0059024000000012,-0.0103228,-0.0053875999999993,-0.0054679999999992,-0.0070741999999999,0,sub_21
-0.0179576000000002,0.0047642000000012,-0.0074656,-0.0068877999999993,-0.0121179999999992,-0.0088617999999999,0,sub_21
-0.0191432000000002,0.0034292000000012,-0.0032494,-0.0073143999999993,-0.0170679999999992,-0.0104305999999999,0,sub_21
-0.0237208000000002,0.0027862000000012,-0.0023642,-0.0081599999999993,-0.0194633999999992,-0.0111509999999999,0,sub_21
-0.0242138000000002,0.0042124000000012,-0.0033344,-0.0088211999999993,-0.0252093999999992,-0.0122163999999999,0,sub_21
-0.0262520000000002,0.0043632000000012,-0.003021,-0.0071237999999993,-0.0281947999999992,-0.0130551999999999,0,sub_21
-0.0271232000000002,0.0032808000000012,-0.001697,-0.0022325999999993,-0.0318337999999992,-0.0130163999999999,0,sub_21
-0.0282584000000002,0.0030400000000012,-0.0009492,0.0033418000000006,-0.0347505999999992,-0.0134419999999999,0,sub_21
-0.0290598000000002,0.0027332000000012,0.0007153999999999,0.0074434000000006,-0.0323383999999992,-0.0132435999999999,0,sub_21
-0.0332830000000002,0.0024424000000012,-0.0005396,0.0085676000000006,-0.0273607999999992,-0.0126421999999999,0,sub_21
-0.0330920000000002,0.0036788000000012,-0.000797,0.0096868000000006,-0.0234483999999992,-0.0120393999999999,0,sub_21
-0.0334798000000002,0.0053064000000012,-0.0014122,0.0108158000000006,-0.0167689999999992,-0.0107991999999999,0,sub_21
-0.0332282000000002,0.0038112000000012,-0.0012284,0.0087078000000006,-0.0095235999999992,-0.0093275999999999,0,sub_21
-0.0312286000000002,0.0026212000000012,-0.0016668,0.0050872000000006,-0.0092927999999992,-0.0106351999999999,0,sub_21
-0.0283308000000002,0.0035154000000012,-0.0008156,0.0060164000000006,-0.0090649999999992,-0.0129973999999999,0,sub_21
-0.0283718000000002,0.0036366000000012,-0.0013876,0.0088642000000006,-0.0075723999999992,-0.0136385999999999,0,sub_21
-0.0271176000000002,0.0027852000000012,-0.0005826,0.0099990000000006,-0.0075641999999992,-0.0145033999999999,0,sub_21
-0.0251536000000002,0.0035634000000012,-0.0036368,0.0081402000000006,-0.0094615999999992,-0.0158139999999999,0,sub_21
-0.0243244000000002,0.0055536000000012,-0.0051804,0.0056402000000006,-0.0096597999999992,-0.0152083999999999,0,sub_21
-0.0257996000000002,0.0063538000000012,-0.0064776,0.0026424000000006,-0.0100829999999992,-0.0133059999999999,0,sub_21
-0.0257862000000002,0.0056316000000012,-0.0081462,0.0019840000000006,-0.0130677999999992,-0.0122385999999999,0,sub_21
-0.0256308000000002,0.0036344000000012,-0.009475,0.0026060000000006,-0.0162691999999992,-0.0113755999999999,0,sub_21
