userAcceleration.x,userAcceleration.y,userAcceleration.z,rotationRate.x,rotationRate.y,rotationRate.z,label,subject
0.0419475999999997,-2.7999999987156044e-06,0.0353609999999999,0.0465658000000005,0.1418014000000007,0.0048612,0,sub_16
0.0425005999999997,0.0001604000000012,0.0344685999999999,0.0452634000000004,0.1377544000000007,0.0057118,0,sub_16
0.0435243999999997,6.940000000128434e-05,0.0342301999999999,0.0441678000000004,0.1324276000000007,0.0067792,0,sub_16
0.0446323999999997,0.0003524000000012,0.0348559999999999,0.0428568000000004,0.1262510000000007,0.0074188,0,sub_16
0.0452447999999997,0.0001410000000012,0.0348737999999999,0.0413344000000004,0.1194402000000007,0.0069896,0,sub_16
0.0466809999999997,0.0004804000000012,0.0352461999999999,0.0391710000000004,0.1115698000000007,0.0057028,0,sub_16
0.0480727999999997,0.0008680000000012,0.0344611999999999,0.0365790000000004,0.1028504000000007,0.0039868,0,sub_16
0.0489679999999997,0.0008962000000012,0.0340581999999999,0.0335582000000004,0.0928576000000007,0.0014148,0,sub_16
0.0495529999999997,-0.0003933999999986,0.0335791999999999,0.0303192000000004,0.0815880000000007,-0.0013707999999999,0,sub_16
0.0505313999999997,-0.0005905999999986,0.0333553999999999,0.0255752000000004,0.0679792000000007,-0.0039501999999999,0,sub_16
0.0507831999999997,-0.0011839999999986,0.0329795999999999,0.0208224000000004,0.0535140000000007,-0.0054603999999999,0,sub_16
0.0505213999999997,-0.0013993999999987,0.0337591999999999,0.0171414000000004,0.0411714000000007,-0.0058975999999999,0,sub_16
0.0504827999999997,-0.0015109999999986,0.0343747999999999,0.0147426000000005,0.0305236000000007,-0.0050461999999999,0,sub_16
0.0501357999999997,-0.0011139999999986,0.0346101999999999,0.0125590000000005,0.0215744000000007,-0.0029135999999999,0,sub_16
0.0498711999999997,-0.0008625999999986,0.0353357999999999,0.0114452000000004,0.0134728000000007,-0.0005609999999999,0,sub_16
0.0493689999999997,-0.0006047999999986,0.0350523999999999,0.0109744000000004,0.0051592000000007,0.0009418,0,sub_16
0.0481741999999997,-0.0004767999999986,0.0345385999999999,0.0100758000000004,-0.0044267999999992,0.001375,0,sub_16
0.0471239999999997,-0.0006187999999987,0.0347285999999999,0.0081170000000005,-0.0133665999999992,0.0009454,0,sub_16
0.0460915999999997,-0.0006611999999987,0.0345111999999999,0.0068032000000005,-0.0208189999999992,0.0009458,0,sub_16
0.0454157999999997,-0.0010539999999987,0.0335005999999999,0.0052702000000004,-0.0284879999999992,0.0020132,0,sub_16
0.0438253999999997,-0.0007595999999987,0.0341335999999999,0.0033038000000004,-0.0357369999999992,0.0049998,0,sub_16
0.0421581999999997,-0.0001677999999987,0.0361999999999999,0.0015528000000004,-0.0427729999999992,0.007774,0,sub_16
0.0398765999999997,-0.0002399999999987,0.0372243999999999,-0.0001895999999995,-0.0485279999999992,0.0099058,0,sub_16
0.0385473999999997,0.0002462000000012,0.0383109999999999,-0.0029739999999995,-0.0534575999999992,0.0096906,0,sub_16
0.0378205999999997,0.0005404000000012,0.0386461999999999,-0.0059449999999995,-0.0556039999999992,0.0062656,0,sub_16
0.0384363999999997,-0.0003425999999987,0.0373821999999999,-0.0086881999999995,-0.0568895999999992,0.0004912,0,sub_16
0.0394401999999997,-0.0012847999999987,0.0349553999999999,-0.0122773999999995,-0.0571041999999992,-0.0059313999999999,0,sub_16
0.0413267999999997,-0.0015685999999986,0.0333793999999999,-0.0152321999999995,-0.0577507999999992,-0.0114945999999999,0,sub_16
0.0431389999999997,-0.0012359999999986,0.0323249999999999,-0.0175659999999995,-0.0581549999999992,-0.0149287999999999,0,sub_16
0.0443077999999997,-0.0002901999999986,0.0318663999999999,-0.0184291999999995,-0.0602825999999992,-0.0149319999999999,0,sub_16
0.0450355999999997,0.0006424000000013,0.0323273999999999,-0.0187623999999994,-0.0631439999999992,-0.0134441999999999,0,sub_16
0.0458249999999997,0.0017092000000013,0.0325339999999999,-0.0174039999999994,-0.0675105999999992,-0.0100199999999999,0,sub_16
0.0463103999999997,0.0022138000000012,0.0321315999999999,-0.0158445999999994,-0.0735863999999992,-0.0055237999999999,0,sub_16
0.0459557999999997,0.0018280000000012,0.0323115999999999,-0.0142965999999994,-0.0817945999999992,-0.0005975999999999,0,sub_16
0.0451749999999997,0.0008360000000012,0.0323943999999999,-0.0136011999999994,-0.0897865999999992,0.0043222,0,sub_16
0.0436125999999997,0.0006174000000012,0.0331915999999999,-0.0138701999999994,-0.0970499999999992,0.009457,0,sub_16
0.0414071999999997,-0.0003939999999987,0.0341243999999999,-0.0151895999999994,-0.1028097999999992,0.0124461999999999,0,sub_16
0.0386687999999997,-0.0004241999999987,0.0352393999999999,-0.0179797999999994,-0.1064219999999992,0.0124311999999999,0,sub_16
0.0358789999999997,-0.0004597999999987,0.0356065999999999,-0.0211115999999994,-0.1083399999999992,0.0085501999999999,0,sub_16
0.0333955999999997,0.0006032000000012,0.0359989999999999,-0.0244327999999994,-0.1079017999999992,0.0016737999999999,0,sub_16
0.0314187999999997,0.0013194000000012,0.0355563999999999,-0.0273119999999995,-0.1059661999999992,-0.0071239999999999,0,sub_16
0.0305101999999997,0.0023256000000012,0.0357109999999999,-0.0303949999999995,-0.1018991999999992,-0.0159259999999999,0,sub_16
0.0294323999999997,0.0023730000000013,0.0353251999999999,-0.0321899999999995,-0.0946467999999992,-0.0232275999999999,0,sub_16
0.0293005999999997,0.0032430000000013,0.0348867999999999,-0.0329859999999995,-0.0861047999999992,-0.0275169999999999,0,sub_16
0.0295885999999997,0.0035754000000013,0.0345709999999999,-0.0325131999999995,-0.0767285999999992,-0.0283801999999999,0,sub_16
0.0311285999999997,0.0041064000000013,0.0343397999999999,-0.0299181999999994,-0.0667333999999992,-0.0260247999999999,0,sub_16
0.0314971999999997,0.0051112000000012,0.0344809999999999,-0.0253487999999994,-0.0577781999999991,-0.0208831999999999,0,sub_16
0.0319553999999997,0.0067742000000012,0.0354297999999999,-0.0197287999999995,-0.0505389999999991,-0.0138091999999999,0,sub_16
0.0311631999999997,0.0073756000000012,0.0359259999999999,-0.0136867999999995,-0.0439419999999992,-0.006304,0,sub_16
0.0295207999999997,0.0075552000000012,0.0364567999999999,-0.0082839999999995,-0.0384029999999991,-8.38000000000158e-05,0,sub_16
0.0267541999999997,0.0075532000000012,0.0379195999999999,-0.0041507999999995,-0.0330621999999991,0.0035639999999999,0,sub_16
0.0245109999999997,0.0063042000000012,0.0380791999999999,-0.0015615999999995,-0.0260429999999992,0.0042139999999999,0,sub_16
0.0226185999999997,0.0045740000000012,0.0382861999999999,-2.379999999952043e-05,-0.0183697999999992,0.0020785999999999,0,sub_16
0.0221077999999997,0.0036740000000012,0.0386495999999999,0.0004614000000004,-0.0094067999999992,-0.0019887999999999,0,sub_16
0.0214751999999997,0.0014900000000012,0.0389069999999999,0.0008544000000004,0.0010774000000007,-0.0064989999999999,0,sub_16
0.0218237999999997,-0.0001243999999987,0.0382515999999999,-3.379999999950046e-05,0.0126260000000007,-0.0097377999999999,0,sub_16
0.0227415999999997,0.0006274000000012,0.0378379999999999,-0.0007161999999995,0.0237428000000007,-0.0116925999999999,0,sub_16
0.0246777999999997,0.0027656000000012,0.0372979999999999,-0.0007681999999995,0.0335756000000007,-0.0127869999999999,0,sub_16
0.0261015999999997,0.0042752000000012,0.0371459999999999,0.0008724000000004,0.0414798000000007,-0.0125851999999999,0,sub_16
0.0276495999999997,0.0067950000000012,0.0381073999999999,0.0038902000000005,0.0497724000000007,-0.0110793999999999,0,sub_16
0.0287597999999997,0.0081112000000012,0.0376061999999999,0.0088284000000005,0.0586950000000007,-0.0089197999999999,0,sub_16
0.0302833999999997,0.0074114000000012,0.0371601999999999,0.0141838000000005,0.0667586000000007,-0.0054743999999999,0,sub_16
0.0310947999999997,0.0055030000000012,0.0363869999999999,0.0192822000000004,0.0739846000000007,-0.0011679999999999,0,sub_16
0.0311629999999997,0.0038876000000012,0.0356147999999999,0.0228870000000004,0.0807914000000007,0.0027012,0,sub_16
0.0321503999999997,0.0020676000000012,0.0341243999999999,0.0241410000000004,0.0850566000000007,0.0048482,0,sub_16
0.0326531999999997,0.0011972000000012,0.0341299999999999,0.0236888000000004,0.0867822000000007,0.004209,0,sub_16
0.0330925999999997,0.0007076000000012,0.0342151999999999,0.0221774000000004,0.0880940000000007,0.0014266,0,sub_16
0.0338287999999997,0.0007664000000012,0.0345589999999999,0.0204954000000004,0.0898198000000007,-0.0024329999999999,0,sub_16
0.0350161999999997,0.0005924000000012,0.0350729999999999,0.0188134000000004,0.0923944000000007,-0.0054389999999999,0,sub_16
0.0361431999999997,0.0011774000000012,0.0353819999999999,0.0184048000000005,0.0951708000000007,-0.0067273999999999,0,sub_16
0.0377607999999997,0.0016534000000012,0.0356041999999999,0.0190710000000004,0.0977354000000007,-0.0054445999999999,0,sub_16
0.0391975999999997,0.0025710000000012,0.0362237999999999,0.0203638000000004,0.0992248000000007,-0.0022331999999999,0,sub_16
0.0402607999999997,0.0021528000000012,0.0360603999999999,0.0207964000000004,0.0998624000000007,0.0016144,0,sub_16
0.0413551999999997,0.0015240000000012,0.0356691999999999,0.0210146000000004,0.0990144000000007,0.0041803999999999,0,sub_16
0.0420723999999997,0.0008278000000012,0.0353027999999999,0.0203794000000004,0.0968962000000007,0.0054603999999999,0,sub_16
0.0424067999999997,-0.0004789999999986,0.0344421999999999,0.0186542000000004,0.0924296000000007,0.0050267999999999,0,sub_16
0.0432655999999997,-0.0017093999999986,0.0334301999999999,0.0162850000000005,0.0864766000000007,0.0039495999999999,0,sub_16
0.0442165999999997,-0.0017337999999986,0.0333803999999999,0.0147674000000005,0.0800944000000007,0.0028789999999999,0,sub_16
0.0451731999999997,-0.0014245999999987,0.0334587999999999,0.0131054000000005,0.0738206000000007,0.0029124,0,sub_16
0.0459395999999997,-0.0004343999999987,0.0328565999999999,0.0114376000000005,0.0666928000000007,0.003374,0,sub_16
0.0467349999999997,0.0005574000000012,0.0338477999999999,0.0101956000000004,0.0599872000000007,0.004479,0,sub_16
0.0469093999999997,0.0011112000000012,0.0342165999999999,0.0091700000000004,0.0534954000000007,0.005158,0,sub_16
0.0462833999999997,0.0012898000000012,0.0344345999999999,0.0074994000000004,0.0450918000000007,0.0049802,0,sub_16
0.0461607999999997,0.0006640000000012,0.0348067999999999,0.0057540000000004,0.0353024000000007,0.0036986,0,sub_16
0.0456745999999997,-0.0005753999999987,0.0354077999999999,0.0035790000000004,0.0250876000000007,0.0026282,0,sub_16
0.0456343999999997,-0.0013993999999986,0.0348251999999999,0.0009772000000004,0.0150864000000007,0.0017684,0,sub_16
0.0454625999999997,-0.0014285999999986,0.0348377999999999,-0.0011337999999995,0.0068276000000007,0.0015832,0,sub_16
0.0453279999999997,-0.0010579999999986,0.0342449999999999,-0.0028169999999995,5.360000000076623e-05,0.002681,0,sub_16
0.0446755999999997,1.080000000130421e-05,0.0338613999999999,-0.0045001999999995,-0.0062961999999992,0.0042056,0,sub_16
0.0441709999999997,0.0006844000000013,0.0336845999999999,-0.0055363999999995,-0.0120055999999992,0.0048792,0,sub_16
0.0433313999999997,0.0016324000000012,0.0344713999999999,-0.0063545999999995,-0.0170747999999992,0.0051262,0,sub_16
0.0429049999999997,0.0020666000000012,0.0343491999999999,-0.0074471999999995,-0.0234601999999992,0.0044858,0,sub_16
0.0426103999999997,0.0027216000000012,0.0348805999999999,-0.0081093999999995,-0.0289947999999992,0.0038474,0,sub_16
0.0425237999999997,0.0029270000000012,0.0347203999999999,-0.0081303999999995,-0.0334697999999992,0.0040666,0,sub_16
0.0425859999999997,0.0028226000000012,0.0344877999999999,-0.0079205999999995,-0.0372607999999992,0.0049626,0,sub_16
0.0423359999999997,0.0022690000000012,0.0341025999999999,-0.0079269999999995,-0.0412657999999992,0.0062846,0,sub_16
0.0416971999999997,0.0018580000000012,0.0341287999999999,-0.0079277999999995,-0.0446289999999992,0.0069647999999999,0,sub_16
0.0413731999999997,0.0009634000000012,0.0341071999999999,-0.0087819999999995,-0.0482013999999992,0.0074255999999999,0,sub_16
0.0406967999999997,0.0005636000000012,0.0349845999999999,-0.0096313999999995,-0.0511327999999992,0.0074583999999999,0,sub_16
0.0404157999999997,0.0006306000000012,0.0352325999999999,-0.0102821999999995,-0.0532617999999992,0.0076701999999999,0,sub_16
0.0402891999999997,0.0012526000000012,0.0349011999999999,-0.0107127999999995,-0.0543247999999992,0.0074547999999999,0,sub_16
0.0397799999999997,0.0016240000000012,0.0351045999999999,-0.0109319999999995,-0.0553901999999992,0.0076684,0,sub_16
0.0388711999999997,0.0019432000000012,0.0351357999999999,-0.0109683999999995,-0.0562023999999991,0.007481,0,sub_16
0.0383023999999997,0.0020756000000012,0.0348839999999999,-0.0112181999999995,-0.0570139999999991,0.0072921999999999,0,sub_16
0.0374211999999997,0.0020094000000012,0.0355059999999999,-0.0108239999999995,-0.0567633999999992,0.0073199999999999,0,sub_16
0.0366005999999997,0.0020298000000012,0.0359739999999999,-0.0102135999999995,-0.0552375999999992,0.0079887999999999,0,sub_16
0.0359333999999997,0.0019640000000012,0.0364523999999999,-0.0089553999999995,-0.0515851999999992,0.0090865999999999,0,sub_16
0.0358039999999997,0.0021540000000012,0.0361815999999999,-0.0072341999999994,-0.0473343999999992,0.0101613999999999,0,sub_16
0.0358049999999997,0.0031190000000012,0.0355485999999999,-0.0061529999999994,-0.0430811999999992,0.0112316,0,sub_16
0.0351901999999997,0.0038958000000012,0.0356763999999999,-0.0057089999999994,-0.0394599999999992,0.0110166,0,sub_16
0.0350573999999997,0.0039172000000012,0.0357201999999999,-0.0050487999999994,-0.0364733999999992,0.0095218,0,sub_16
0.0353257999999997,0.0037220000000012,0.0351937999999999,-0.0053015999999994,-0.0337877999999992,0.0078178,0,sub_16
0.0359539999999997,0.0040310000000012,0.0347721999999999,-0.0051293999999994,-0.0308931999999992,0.0067576,0,sub_16
0.0361189999999997,0.0030018000000012,0.0355577999999999,-0.0040989999999994,-0.0269361999999992,0.0057019999999999,0,sub_16
0.0363317999999997,0.0025750000000012,0.0355821999999999,-0.0030647999999995,-0.0221269999999991,0.0046451999999999,0,sub_16
0.0361397999999997,0.0022352000000012,0.0355339999999999,-0.0026745999999995,-0.0179557999999991,0.0037985999999999,0,sub_16
0.0360045999999997,0.0026116000000012,0.0353419999999999,-0.0020133999999995,-0.0136951999999992,0.0033705999999999,0,sub_16
0.0356849999999997,0.0025332000000012,0.0359673999999999,-0.0017769999999995,-0.0085825999999992,0.0033657999999999,0,sub_16
0.0355533999999997,0.0029250000000012,0.0356075999999999,-0.0004709999999995,-0.0026225999999992,0.003581,0,sub_16
0.0356227999999997,0.0031448000000012,0.0354313999999999,0.0012082000000004,0.0026422000000007,0.0042264,0,sub_16
0.0357953999999997,0.0036258000000012,0.0351261999999999,0.0028886000000004,0.0083324000000007,0.0050848,0,sub_16
0.0360403999999997,0.0034820000000012,0.0354641999999999,0.0043536000000004,0.0127484000000007,0.0050888,0,sub_16
0.0359361999999997,0.0036064000000012,0.0351617999999999,0.0062462000000004,0.0165270000000007,0.004242,0,sub_16
0.0358927999999997,0.0024812000000012,0.0347465999999999,0.0072826000000004,0.0194574000000007,0.0031766,0,sub_16
0.0363589999999997,0.0017872000000012,0.0344259999999999,0.0068732000000004,0.0224452000000007,0.0023154,0,sub_16
0.0373841999999997,0.0009696000000012,0.0339349999999999,0.0062464000000004,0.0247936000000007,0.001667,0,sub_16
0.0384353999999997,0.0006948000000012,0.0332567999999999,0.0053828000000004,0.0263818000000007,0.0014344,0,sub_16
0.0391373999999997,0.0005832000000012,0.0332421999999999,0.0038752000000004,0.0269080000000007,0.000985,0,sub_16
0.0397861999999997,0.0014394000000012,0.0335299999999999,0.0019428000000004,0.0270128000000007,-0.0003213999999999,0,sub_16
0.0399281999999997,0.0020616000000012,0.0331189999999999,0.0017126000000004,0.0264708000000007,-0.0011879999999999,0,sub_16
0.0403509999999997,0.0028266000000012,0.0335297999999999,0.0023350000000004,0.0261372000000007,-0.0016213999999999,0,sub_16
0.0408693999999997,0.0029782000000012,0.0333169999999999,0.0031886000000004,0.0261342000000007,-0.0016155999999999,0,sub_16
0.0412433999999997,0.0027850000000012,0.0329295999999999,0.0036154000000004,0.0259204000000007,-0.0018259999999999,0,sub_16
0.0409757999999997,0.0020966000000012,0.0325929999999999,0.0040422000000004,0.0254946000000007,-0.0022497999999999,0,sub_16
0.0415201999999997,0.0010550000000012,0.0327543999999999,0.0027766000000004,0.0251150000000007,-0.0035631999999999,0,sub_16
0.0419759999999997,0.0001110000000012,0.0325173999999999,0.0017262000000004,0.0251608000000007,-0.0048755999999999,0,sub_16
0.0419987999999997,0.0003206000000012,0.0325173999999999,0.0008872000000004,0.0247798000000007,-0.0061859999999999,0,sub_16
0.0424329999999997,5.180000000128441e-05,0.0328719999999999,4.6400000000498905e-05,0.0241850000000007,-0.0072825999999999,0,sub_16
0.0433299999999997,0.0005970000000012,0.0332841999999999,-0.0007991999999995,0.0231614000000007,-0.0077375999999999,0,sub_16
0.0434081999999997,0.0012724000000012,0.0334189999999999,-0.0008059999999995,0.0212456000000007,-0.0081623999999999,0,sub_16
0.0432777999999997,0.0020630000000012,0.0333205999999999,-0.0014565999999995,0.0184798000000007,-0.0085907999999999,0,sub_16
0.0431397999999997,0.0018486000000012,0.0338549999999999,-0.0021091999999995,0.0155002000000007,-0.0088051999999999,0,sub_16
0.0432313999999997,0.0014672000000012,0.0338497999999999,-0.0025351999999994,0.0115768000000007,-0.0079833999999999,0,sub_16
0.0433165999999997,0.0008492000000012,0.0333653999999999,-0.0031801999999994,0.0065882000000007,-0.0069481999999999,0,sub_16
0.0434437999999997,0.0001814000000013,0.0333713999999999,-0.0038279999999994,0.0011726000000007,-0.0056987999999999,0,sub_16
0.0425171999999997,-0.0009893999999986,0.0335385999999999,-0.0044729999999994,-0.0046647999999992,-0.0055169999999999,0,sub_16
0.0418755999999997,-0.0013309999999986,0.0335215999999999,-0.0057523999999994,-0.0098583999999992,-0.0059813999999999,0,sub_16
0.0411659999999997,-0.0012315999999986,0.0340917999999999,-0.0066163999999994,-0.0130477999999992,-0.0068377999999999,0,sub_16
0.0407567999999997,-0.0005317999999986,0.0343875999999999,-0.0070499999999994,-0.0145377999999992,-0.0068387999999999,0,sub_16
0.0405377999999997,0.0008370000000012,0.0344051999999999,-0.0072681999999994,-0.0149655999999992,-0.0061987999999999,0,sub_16
0.0405819999999997,0.0025624000000012,0.0336363999999999,-0.0074729999999994,-0.0157055999999992,-0.0047367999999999,0,sub_16
0.0400233999999997,0.0032046000000012,0.0334025999999999,-0.0066165999999995,-0.0177277999999992,-0.0032655999999999,0,sub_16
0.0394821999999997,0.0035492000000012,0.0335709999999999,-0.0061849999999995,-0.0201711999999992,-0.0026515999999999,0,sub_16
0.0387801999999997,0.0033784000000012,0.0338455999999999,-0.0059647999999994,-0.0230363999999992,-0.0028929999999999,0,sub_16
0.0382501999999997,0.0026088000000012,0.0334573999999999,-0.0057399999999994,-0.0250485999999992,-0.0033491999999999,0,sub_16
0.0383551999999997,0.0017746000000012,0.0333645999999999,-0.0055303999999994,-0.0256893999999992,-0.0031331999999999,0,sub_16
0.0388277999999997,0.0016652000000012,0.0332405999999999,-0.0059627999999994,-0.0254807999999992,-0.001641,0,sub_16
0.0394123999999997,0.0015950000000012,0.0321491999999999,-0.0063981999999994,-0.0259111999999992,-0.000148,0,sub_16
0.0392225999999997,0.0018990000000012,0.0315383999999999,-0.0070421999999994,-0.0263015999999992,0.0008893999999999,0,sub_16
0.0396973999999997,0.0021880000000012,0.0315193999999999,-0.0081147999999994,-0.0279655999999992,0.0010709999999999,0,sub_16
0.0395571999999997,0.0024730000000012,0.0320453999999999,-0.0087567999999995,-0.0300519999999992,-2.5800000000015914e-05,0,sub_16
0.0384781999999997,0.0021262000000012,0.0322365999999999,-0.0089605999999995,-0.0308563999999992,-0.0024029999999999,0,sub_16
0.0370639999999997,0.0019994000000012,0.0321697999999999,-0.0091633999999995,-0.0303867999999992,-0.0037135999999999,0,sub_16
0.0375429999999997,0.0021372000000012,0.0318193999999999,-0.0091605999999995,-0.0297477999999992,-0.0037143999999999,0,sub_16
0.0372039999999997,0.0024758000000012,0.0318251999999999,-0.0087289999999995,-0.0274107999999992,-0.0024323999999999,0,sub_16
0.0368487999999997,0.0026652000000012,0.0320605999999999,-0.0076555999999994,-0.0244377999999992,-0.0009331999999999,0,sub_16
0.0367293999999997,0.0028014000000012,0.0324555999999999,-0.0072257999999994,-0.0221307999999992,-0.0003038,0,sub_16
0.0372229999999997,0.0027412000000012,0.0324777999999999,-0.0074351999999994,-0.0213059999999992,-0.001386,0,sub_16
0.0367365999999997,0.0027630000000012,0.0329621999999999,-0.0076397999999994,-0.0202647999999992,-0.003323,0,sub_16
0.0362469999999997,0.0022126000000012,0.0328819999999999,-0.0076291999999994,-0.0190103999999992,-0.0054726,0,sub_16
0.0361921999999997,0.0014688000000012,0.0322375999999999,-0.0084717999999995,-0.0171163999999992,-0.0069877999999999,0,sub_16
0.0369491999999997,0.0011176000000012,0.0308531999999999,-0.0084603999999995,-0.0145595999999992,-0.0069909999999999,0,sub_16
0.0374631999999997,0.0011438000000012,0.0316773999999999,-0.0073847999999995,-0.0113727999999992,-0.0057057999999999,0,sub_16
0.0377627999999997,0.0008460000000012,0.0319931999999999,-0.0065205999999995,-0.0081833999999992,-0.0048491999999999,0,sub_16
0.0376663999999997,0.0013424000000012,0.0321467999999999,-0.0062937999999994,-0.0049891999999992,-0.0046379999999999,0,sub_16
0.0374495999999997,0.0019404000000012,0.0324045999999999,-0.0054279999999994,-0.0020687999999992,-0.0044141999999999,0,sub_16
0.0375141999999997,0.0027800000000012,0.0333625999999999,-0.0047763999999994,0.0006392000000007,-0.0041913999999999,0,sub_16
0.0376925999999997,0.0028814000000012,0.0323635999999999,-0.0043363999999994,0.0037742000000007,-0.0039705999999999,0,sub_16
0.0371009999999997,0.0030018000000012,0.0314139999999999,-0.0041145999999994,0.0060568000000007,-0.0035367999999999,0,sub_16
0.0372851999999997,0.0024612000000012,0.0310365999999999,-0.0038963999999994,0.0072750000000007,-0.0033151999999999,0,sub_16
0.0375477999999997,0.0020518000000012,0.0309917999999999,-0.0043221999999994,0.0074894000000007,-0.0033183999999999,0,sub_16
0.0376987999999997,0.0025020000000012,0.0307969999999999,-0.0045279999999994,0.0083458000000007,-0.0041755999999999,0,sub_16
0.0372587999999997,0.0024444000000012,0.0311097999999999,-0.0045061999999994,0.0093986000000007,-0.0050141999999999,0,sub_16
0.0376241999999997,0.0018696000000012,0.0313297999999999,-0.0042679999999994,0.0110900000000007,-0.0058519999999999,0,sub_16
0.0379791999999997,0.0019198000000012,0.0315903999999999,-0.0038193999999994,0.0127780000000007,-0.0060473999999999,0,sub_16
0.0384265999999997,0.0024064000000012,0.0315419999999999,-0.0031555999999994,0.0151036000000007,-0.0060283999999999,0,sub_16
0.0385445999999997,0.0015658000000012,0.0316679999999999,-0.0033489999999994,0.0170042000000007,-0.0055875999999999,0,sub_16
0.0387767999999997,0.0012870000000012,0.0312191999999999,-0.0033431999999994,0.0184948000000007,-0.0053757999999999,0,sub_16
0.0394635999999997,0.0013384000000012,0.0311839999999999,-0.0031279999999994,0.0191322000000007,-0.0051615999999999,0,sub_16
0.0403583999999997,0.0011642000000012,0.0309597999999999,-0.0027031999999994,0.0187046000000007,-0.0051581999999999,0,sub_16
0.0405925999999997,0.0007150000000012,0.0311813999999999,-0.0027069999999994,0.0174280000000007,-0.0055839999999999,0,sub_16
0.0402163999999997,0.0001340000000012,0.0316173999999999,-0.0024699999999994,0.0170452000000007,-0.0059915999999999,0,sub_16
0.0406305999999997,0.0001086000000012,0.0319213999999999,-0.0030921999999994,0.0162358000000007,-0.0055501999999999,0,sub_16
0.0407147999999997,0.0005852000000012,0.0318085999999999,-0.0032913999999994,0.0152094000000007,-0.0044643999999999,0,sub_16
0.0400043999999997,0.0010798000000012,0.0315435999999999,-0.0037069999999994,0.0139690000000007,-0.0029525999999999,0,sub_16
0.0391193999999997,0.0016746000000012,0.0325561999999999,-0.0041215999999995,0.0127294000000007,-0.0016545999999999,0,sub_16
0.0386555999999997,0.0021418000000012,0.0326457999999999,-0.0043415999999995,0.0110266000000007,-0.0018675999999999,0,sub_16
0.0380191999999997,0.0023566000000012,0.0329157999999999,-0.0043357999999995,0.0106074000000007,-0.0035761999999999,0,sub_16
0.0377159999999997,0.0021316000000012,0.0324629999999999,-0.0049307999999995,0.0115560000000007,-0.0054892,0,sub_16
0.0377167999999997,0.0012916000000012,0.0323575999999999,-0.0053055999999995,0.0133584000000007,-0.0080427999999999,0,sub_16
