userAcceleration.x,userAcceleration.y,userAcceleration.z,rotationRate.x,rotationRate.y,rotationRate.z,label,subject
0.0856813999999997,-0.0017251999999987,-0.0214561999999999,0.0048222000000005,0.1116820000000008,0.0028014,0,sub_1
0.0702945999999997,-0.0006673999999987,-0.0250883999999999,0.0166604000000005,0.0651124000000008,0.028151,0,sub_1
0.0510825999999997,0.0009490000000012,-0.0241219999999998,0.0350074000000004,0.0376934000000008,0.0492516,0,sub_1
0.0352349999999997,0.0040720000000012,-0.0211445999999998,0.0494164000000004,0.0277922000000008,0.0619702,0,sub_1
0.0244673999999997,0.0063410000000012,-0.0156519999999998,0.0594356000000005,0.0298708000000008,0.0663112,0,sub_1
0.0210109999999997,0.0102896000000012,-0.0078763999999999,0.0609638000000004,0.0386174000000008,0.0671594,0,sub_1
0.0178555999999997,0.0101494000000012,0.0025494,0.0571598000000004,0.0467476000000008,0.066903,0,sub_1
0.0138327999999997,0.0108392000000012,0.00846,0.0465166000000005,0.0523460000000008,0.0663882,0,sub_1
0.0068179999999997,0.0119662000000012,0.0094166,0.0352158000000005,0.0541116000000008,0.0658736,0,sub_1
0.0005855999999997,0.0113620000000012,0.0051868,0.0232618000000005,0.0522602000000008,0.064717,0,sub_1
-0.0023032000000002,0.0079090000000012,0.0029682,0.0140968000000005,0.0503910000000008,0.0605956,0,sub_1
-0.0002762000000002,0.0050038000000012,-0.0025807999999999,0.0068628000000005,0.0476758000000008,0.0532844,0,sub_1
0.0069071999999997,0.0011246000000012,-0.0079915999999999,-0.0029125999999994,0.0432880000000008,0.04019,0,sub_1
0.0183363999999997,-0.0035447999999987,-0.0102249999999999,-0.0191383999999994,0.0234092000000008,0.0217206,0,sub_1
0.0324569999999997,-0.0050683999999987,-0.0088981999999999,-0.0411639999999994,-0.0070937999999991,0.0010884,0,sub_1
0.0426607999999997,-0.0006057999999987,-0.0090679999999999,-0.0643173999999994,-0.0495297999999991,-0.0180409999999999,0,sub_1
0.0428737999999997,0.0059358000000012,-0.0058641999999999,-0.0900695999999994,-0.0958107999999991,-0.0324829999999999,0,sub_1
0.0365721999999997,0.0116424000000012,-0.0028715999999999,-0.1107089999999994,-0.1365991999999991,-0.0396331999999998,0,sub_1
0.0226049999999997,0.0167070000000012,-0.0017241999999999,-0.1210293999999994,-0.1559435999999991,-0.0416027999999999,0,sub_1
0.0032221999999997,0.0182722000000012,5.780000000009833e-05,-0.1203669999999994,-0.1512575999999991,-0.0418173999999999,0,sub_1
-0.0142064000000002,0.0160776000000012,0.0017398,-0.1149153999999994,-0.1246471999999991,-0.0411725999999999,0,sub_1
-0.0194886000000002,0.0126370000000012,-0.0001977999999999,-0.1058029999999994,-0.0905767999999991,-0.0422341999999998,0,sub_1
-0.0142000000000002,0.0112902000000012,-0.0007623999999999,-0.0962609999999994,-0.0560809999999991,-0.0435067999999998,0,sub_1
-0.0014336000000002,0.0103916000000012,4.200000000007852e-05,-0.0914591999999994,-0.0292487999999991,-0.0422385999999998,0,sub_1
0.0162859999999997,0.0113100000000012,0.0010934,-0.0893013999999994,-0.0143653999999991,-0.0343493999999998,0,sub_1
0.0303763999999997,0.0119612000000012,0.0028668,-0.0874241999999994,-0.0112117999999991,-0.0232419999999998,0,sub_1
0.0392777999999997,0.0125062000000011,0.0040588,-0.0866523999999994,-0.0178653999999991,-0.0116891999999998,0,sub_1
0.0392847999999997,0.0100314000000012,0.0032224,-0.0871991999999994,-0.0351585999999991,-0.0022687999999999,0,sub_1
0.0345693999999997,0.0062036000000012,0.0034936,-0.0820223999999995,-0.060781199999999,0.0072026,0,sub_1
0.0278239999999997,0.0049780000000012,0.0038934,-0.0761995999999994,-0.089371399999999,0.0124084,0,sub_1
0.0206201999999997,0.0084080000000012,0.0050716,-0.0711999999999995,-0.113050799999999,0.0156796,0,sub_1
0.0129951999999997,0.0134134000000012,0.0072714,-0.0659523999999995,-0.129060999999999,0.018942,0,sub_1
0.0043985999999997,0.0150854000000012,0.0086046,-0.0572277999999994,-0.130809399999999,0.0224236,0,sub_1
-0.0018520000000002,0.0173056000000012,0.0093938,-0.0447887999999994,-0.1146677999999991,0.0244118,0,sub_1
-0.0066078000000002,0.0193342000000012,0.009773,-0.0346759999999994,-0.096801799999999,0.0233902,0,sub_1
-0.0073664000000002,0.0176086000000012,0.0126164,-0.0293175999999994,-0.088734199999999,0.0259794,0,sub_1
-0.0012502000000002,0.0131280000000012,0.0146762,-0.0250059999999994,-0.084039399999999,0.020448,0,sub_1
0.0073573999999997,0.0136456000000012,0.0163708,-0.0273491999999994,-0.085511199999999,0.0176564,0,sub_1
0.0125043999999997,0.0156976000000012,0.0175394,-0.0359677999999994,-0.103802799999999,0.0174074,0,sub_1
0.0171993999999997,0.0135644000000012,0.0163974,-0.0457183999999994,-0.1316977999999991,0.0220774,0,sub_1
0.0189801999999997,0.0112510000000012,0.0113816000000001,-0.0453367999999994,-0.1434085999999991,0.0199612,0,sub_1
0.0124399999999997,0.0096742000000012,0.0074898,-0.0411019999999994,-0.1453611999999991,0.0251224,0,sub_1
-0.0024462000000002,0.0090958000000012,0.004557,-0.0338615999999994,-0.146671199999999,0.0268836,0,sub_1
-0.0149152000000002,0.0074088000000012,-0.0007457999999999,-0.0235537999999994,-0.1356135999999991,0.0233086,0,sub_1
-0.0273554000000002,0.0081642000000012,-0.0035505999999999,-0.0067211999999994,-0.1007017999999991,0.0161162,0,sub_1
-0.0309340000000002,0.0116450000000012,-0.0042827999999999,0.0092342000000005,-0.0692033999999991,0.0108444,0,sub_1
-0.0295446000000002,0.0161484000000012,-0.0048949999999999,0.0238740000000005,-0.0447347999999991,0.006427,0,sub_1
-0.0192222000000002,0.0185238000000012,-0.0053707999999998,0.0370116000000005,-0.0215421999999991,0.002643,0,sub_1
-0.0071174000000002,0.0195108000000012,-0.0031115999999998,0.0466968000000005,-0.0023839999999991,0.0005286,0,sub_1
0.0023713999999997,0.0195808000000012,-0.0012857999999998,0.0503522000000005,0.0052868000000008,-0.0007585999999999,0,sub_1
0.0049079999999997,0.0166064000000012,-0.0010017999999998,0.0494990000000005,0.0076434000000008,-0.0012153999999999,0,sub_1
0.0055037999999997,0.0132562000000012,-0.0008915999999998,0.0445830000000005,0.0087332000000008,-0.0010579999999999,0,sub_1
0.0061319999999997,0.0084758000000012,-0.0021819999999998,0.0411494000000005,0.0083222000000008,0.0001804,0,sub_1
0.0057261999999997,0.0055344000000012,-0.0033415999999998,0.0377282000000005,0.0096004000000008,0.0031464,0,sub_1
0.0081217999999997,0.0061884000000012,-0.0017453999999999,0.0355932000000005,0.0115160000000008,0.00548,0,sub_1
0.0107091999999997,0.0064078000000012,-0.0021797999999999,0.0268292000000005,0.0100466000000008,0.0075584,0,sub_1
0.0131267999999997,0.0058314000000012,-0.0065703999999999,0.0161288000000005,0.0036888000000009,0.008348,0,sub_1
0.0135025999999996,0.0077744000000012,-0.0117005999999999,0.0071608000000005,0.0018044000000009,0.0076352,0,sub_1
0.0132409999999997,0.0104998000000012,-0.0139539999999999,-0.0026425999999994,0.0016360000000009,0.004778,0,sub_1
0.0097047999999997,0.0105452000000012,-0.0165991999999999,-0.0092645999999994,-0.001319399999999,0.0034418,0,sub_1
0.0042095999999997,0.0127386000000012,-0.0183091999999999,-0.0092677999999995,-0.001323799999999,0.0042836,0,sub_1
-0.0070154000000002,0.0146786000000012,-0.0166071999999999,-0.0026245999999995,0.0075894000000008,0.0070814,0,sub_1
-0.0176750000000002,0.0156492000000012,-0.0132513999999998,0.0068082000000004,0.0203262000000008,0.010547,0,sub_1
-0.0256276000000002,0.0176058000000012,-0.0113699999999998,0.0211672000000004,0.0381556000000008,0.0148944,0,sub_1
-0.0288036000000002,0.0203776000000012,-0.0090655999999999,0.0317262000000004,0.0645182000000009,0.0200468,0,sub_1
-0.0301474000000002,0.0227556000000012,-0.0057465999999999,0.0429306000000004,0.0919448000000009,0.0249888,0,sub_1
-0.0266888000000002,0.0254512000000012,-0.0017255999999999,0.0511548000000004,0.1212984000000008,0.0301218,0,sub_1
-0.0257910000000002,0.0254336000000012,0.0051734,0.0595888000000004,0.1508610000000008,0.0361094,0,sub_1
-0.0266702000000002,0.0243736000000012,0.0103178,0.0626756000000005,0.1768238000000008,0.0412098,0,sub_1
-0.0300096000000002,0.0203716000000012,0.011845,0.0650648000000005,0.1914962000000008,0.0463308,0,sub_1
-0.0300662000000002,0.0162586000000012,0.0105982000000001,0.0677180000000005,0.2125792000000008,0.0465312,0,sub_1
-0.0285900000000002,0.0113482000000012,0.0123506,0.0725346000000005,0.2328324000000008,0.0392708,0,sub_1
-0.0216618000000002,0.0102174000000012,0.0151652,0.0754136000000005,0.2426770000000008,0.0283674,0,sub_1
-0.0135352000000002,0.0083212000000012,0.0178266000000001,0.0808232000000005,0.2450594000000008,0.0166372,0,sub_1
-0.0025108000000002,0.0085812000000012,0.0206294,0.0875394000000005,0.2497952000000008,0.0012824000000001,0,sub_1
0.0076631999999997,0.0075632000000012,0.0264606000000001,0.0940002000000005,0.2430352000000009,-0.0161951999999998,0,sub_1
0.0182201999999997,0.0069564000000012,0.0315362000000001,0.0914728000000005,0.2301288000000008,-0.0339409999999998,0,sub_1
0.0268299999999997,0.0037848000000012,0.0338302000000001,0.0788966000000005,0.2149072000000009,-0.0525955999999998,0,sub_1
0.0328485999999997,0.0019392000000012,0.0308304000000001,0.0588452000000005,0.1943982000000009,-0.0721607999999999,0,sub_1
0.0340691999999997,0.0014328000000012,0.0238354000000001,0.0321676000000005,0.1702938000000008,-0.0926215999999999,0,sub_1
0.0328051999999997,0.0007230000000012,0.0157736000000001,-0.0053409999999994,0.1587924000000009,-0.1118919999999999,0,sub_1
0.0286073999999997,0.0008128000000012,0.0052314,-0.0405493999999994,0.1425726000000008,-0.1253715999999999,0,sub_1
0.0240829999999997,0.0022542000000012,-0.0045133999999999,-0.0712943999999994,0.1305650000000008,-0.1304933999999999,0,sub_1
0.0241313999999997,0.0050708000000012,-0.0089401999999998,-0.0964983999999994,0.1219286000000008,-0.1334333999999999,0,sub_1
0.0284655999999997,0.0081440000000012,-0.0079985999999998,-0.1117015999999994,0.1153544000000008,-0.1279735999999999,0,sub_1
0.0312301999999997,0.0093324000000012,-0.0081517999999998,-0.1120451999999994,0.1031426000000008,-0.1108651999999999,0,sub_1
0.0368787999999997,0.0123196000000012,-0.0084417999999998,-0.0998127999999994,0.0908794000000008,-0.0874855999999999,0,sub_1
0.0370095999999997,0.0144498000000012,-0.0182567999999998,-0.0825889999999994,0.0969214000000008,-0.0640943999999999,0,sub_1
0.0381653999999997,0.0140104000000012,-0.0240215999999998,-0.0591745999999994,0.1016702000000008,-0.0423671999999999,0,sub_1
0.0379009999999997,0.0108582000000012,-0.0298999999999998,-0.0344411999999994,0.1109046000000008,-0.0246963999999999,0,sub_1
0.0414769999999997,0.0087770000000012,-0.0310625999999998,-0.0122853999999995,0.1099470000000008,-0.0134393999999999,0,sub_1
0.0450981999999997,0.0057164000000012,-0.0324893999999998,-0.0004101999999995,0.1000742000000008,-0.0058619999999999,0,sub_1
0.0546919999999997,0.0037722000000012,-0.0261533999999998,0.0083584000000004,0.0614600000000008,-0.0008335999999999,0,sub_1
0.0575869999999997,-8.639999999877877e-05,-0.0226415999999998,0.0087964000000004,0.0235040000000008,0.0067004,0,sub_1
0.0506625999999997,-0.0014369999999987,-0.0167017999999998,0.0054248000000005,-0.0118553999999991,0.013335,0,sub_1
0.0385579999999997,0.0011652000000012,-0.0131613999999998,-0.0034537999999994,-0.0414291999999991,0.0165038,0,sub_1
0.0207361999999997,0.0032794000000012,-0.0066611999999998,-0.0135235999999994,-0.0533065999999991,0.0175044,0,sub_1
0.0020885999999998,0.0036096000000012,0.0007714000000001,-0.0237265999999994,-0.0477109999999991,0.018054,0,sub_1
-0.0120426000000001,0.0097186000000012,0.0048278000000001,-0.0322173999999994,-0.0414795999999991,0.0179722,0,sub_1
-0.0144662000000001,0.0154144000000012,0.0041142,-0.0409561999999994,-0.0388937999999991,0.0183348,0,sub_1
-0.0105060000000001,0.0170256000000012,0.0065856,-0.0420153999999994,-0.030607199999999,0.0249394,0,sub_1
-0.0019812000000002,0.0157864000000012,0.0074898,-0.0364859999999994,-0.025337599999999,0.0343712,0,sub_1
0.0030923999999997,0.0161660000000012,0.0069928,-0.0305621999999994,-0.033035199999999,0.0410316,0,sub_1
0.0042749999999997,0.0141586000000012,0.0066956,-0.0244153999999994,-0.041573799999999,0.0447034,0,sub_1
0.0011129999999997,0.0129832000000012,0.0108474,-0.0167541999999994,-0.045642799999999,0.048166,0,sub_1
-0.0077662000000002,0.0129690000000012,0.0128184,-0.0159321999999994,-0.0552141999999991,0.0483824,0,sub_1
-0.0170644000000002,0.0138130000000012,0.013414,-0.0185227999999994,-0.0683791999999991,0.0445196,0,sub_1
-0.0235974000000002,0.0168834000000011,0.012988,-0.0198123999999994,-0.0741103999999991,0.0404558,0,sub_1
-0.0259316000000002,0.0195620000000011,0.0144774,-0.0178613999999994,-0.0687823999999991,0.0385362,0,sub_1
-0.0276716000000002,0.0182014000000011,0.0165002,-0.0116123999999994,-0.056014799999999,0.0372776,0,sub_1
-0.0278504000000002,0.0167274000000011,0.0191706,-0.0023691999999994,-0.041342199999999,0.0364654,0,sub_1
-0.0271922000000002,0.0174288000000011,0.0207418,0.0077156000000005,-0.030077799999999,0.0348088,0,sub_1
-0.0217630000000002,0.0173442000000012,0.0218516,0.0190950000000005,-0.014985599999999,0.0337974,0,sub_1
-0.0178448000000002,0.0148162000000012,0.024306,0.0268344000000005,-0.001377199999999,0.0340452,0,sub_1
-0.0122874000000002,0.0135952000000012,0.0240154,0.0266156000000005,-0.0030759999999991,0.032976,0,sub_1
-0.0064102000000002,0.0133192000000012,0.0213082,0.0233938000000005,-0.0105073999999991,0.0295436,0,sub_1
-0.0005762000000002,0.0124430000000012,0.0198284,0.0180478000000005,-0.0164385999999991,0.025668,0,sub_1
-0.0019150000000002,0.0100948000000012,0.017057,0.0101404000000005,-0.0255445999999991,0.0187878,0,sub_1
-0.0031154000000002,0.0098718000000011,0.0139406,0.0026688000000005,-0.0359175999999991,0.0087074000000001,0,sub_1
-0.0061254000000002,0.0107254000000011,0.010608,-0.0020025999999994,-0.0413967999999991,-0.0022143999999998,0,sub_1
-0.0067186000000002,0.0123420000000011,0.0076768,-0.0026019999999994,-0.0419941999999991,-0.0120461999999998,0,sub_1
-0.0083492000000002,0.0141968000000012,0.005107,0.0046992000000005,-0.0351869999999991,-0.0156367999999998,0,sub_1
-0.0111102000000002,0.0166150000000012,0.0070356,0.0192426000000005,-0.0222623999999991,-0.0102117999999998,0,sub_1
-0.0190344000000002,0.0191088000000012,0.0082242,0.0390990000000005,-0.0091629999999991,0.0001628,0,sub_1
-0.0232452000000002,0.0215738000000012,0.0031536,0.0572710000000005,0.0056600000000008,0.007317,0,sub_1
-0.0256572000000002,0.0209536000000012,-0.0022991999999999,0.0693190000000005,0.0271392000000008,0.0069424,0,sub_1
-0.0191444000000002,0.0146494000000012,-0.0045029999999999,0.0709570000000005,0.0482704000000008,-0.0039727999999999,0,sub_1
0.0020981999999997,0.0081600000000012,-0.0036857999999999,0.0548448000000005,0.0522392000000008,-0.0233205999999999,0,sub_1
0.0294995999999997,0.0008210000000012,-0.0031287999999999,0.0219948000000005,0.0319908000000008,-0.0459573999999999,0,sub_1
0.0545975999999997,-0.0054341999999987,0.0024946,-0.0173861999999994,-0.010419599999999,-0.0619865999999999,0,sub_1
0.0720421999999997,-0.0078173999999987,0.0069154,-0.0545519999999994,-0.070992199999999,-0.0668663999999999,0,sub_1
0.0754711999999997,-0.0026929999999987,0.0068592,-0.0854001999999995,-0.140149199999999,-0.0616497999999999,0,sub_1
0.0634467999999997,0.0036298000000012,0.0013776,-0.1025623999999994,-0.1976563999999991,-0.0512257999999999,0,sub_1
0.0442957999999997,0.0084796000000012,-0.0034043999999999,-0.1019033999999994,-0.226691799999999,-0.0368683999999999,0,sub_1
0.0226593999999997,0.0133796000000012,-0.0064719999999999,-0.0870437999999994,-0.2302073999999991,-0.0230855999999999,0,sub_1
0.0041675999999997,0.0180970000000012,-0.0050181999999999,-0.0646199999999994,-0.214777799999999,-0.0116255999999999,0,sub_1
-0.0073120000000002,0.0213466000000012,-0.0023151999999999,-0.0389181999999994,-0.1821021999999991,-0.0001651999999999,0,sub_1
-0.0127262000000002,0.0226120000000011,0.0024628,-0.0106177999999995,-0.1396399999999991,0.0125824,0,sub_1
-0.0147716000000002,0.0234036000000011,0.0061524,0.0155622000000004,-0.0960973999999991,0.0233912,0,sub_1
-0.0165972000000002,0.0225762000000011,0.0093406,0.0355840000000004,-0.0512335999999991,0.0288142,0,sub_1
-0.0161138000000002,0.0189446000000011,0.0100602,0.0502970000000004,-0.0061159999999991,0.0286446,0,sub_1
-0.0122982000000002,0.0144808000000011,0.0105136,0.0564798000000004,0.0273732000000008,0.0207166,0,sub_1
-0.0065900000000002,0.0104818000000012,0.0103766,0.0534406000000004,0.0457862000000008,0.0080434,0,sub_1
0.0011637999999997,0.0086210000000012,0.0104436,0.0445912000000004,0.0527170000000008,-0.0052959999999999,0,sub_1
0.0092389999999997,0.0069990000000012,0.0097638,0.0350612000000004,0.0540970000000008,-0.0152139999999999,0,sub_1
0.0157663999999997,0.0067870000000012,0.0085262,0.0246300000000004,0.0475858000000008,-0.0223499999999999,0,sub_1
0.0177545999999997,0.0067662000000012,0.0060872,0.0169268000000004,0.0395300000000008,-0.0258095999999999,0,sub_1
0.0168633999999997,0.0080650000000012,0.0045108,0.0117822000000004,0.0318882000000008,-0.0283969999999999,0,sub_1
0.0155323999999997,0.0094318000000012,0.0044688,0.0111186000000004,0.0231696000000008,-0.0320203999999999,0,sub_1
0.0155869999999997,0.0100204000000012,0.0047886,0.0130158000000004,0.0123210000000008,-0.0345709999999999,0,sub_1
0.0169767999999997,0.0101996000000012,0.0048884,0.0170254000000005,-0.0011001999999991,-0.0349667999999998,0,sub_1
0.0172075999999997,0.0121770000000012,0.0050808,0.0227478000000005,-0.0119757999999991,-0.0340723999999998,0,sub_1
0.0145733999999997,0.0136386000000012,0.005153,0.0314882000000005,-0.0160441999999991,-0.0331657999999998,0,sub_1
0.0079901999999997,0.0135722000000012,0.0039208,0.0370674000000005,-0.0147611999999991,-0.0357071999999999,0,sub_1
-0.0007652000000002,0.0126324000000012,0.0015804,0.0390404000000005,-0.0094159999999991,-0.0421095999999999,0,sub_1
-0.0093062000000002,0.0113774000000012,0.0007252,0.0385404000000005,0.0104456000000008,-0.0534627999999999,0,sub_1
-0.0144430000000002,0.0090424000000012,0.002548,0.0389818000000005,0.0448124000000008,-0.0699557999999998,0,sub_1
-0.0183212000000002,0.0090858000000011,0.0085694,0.0415620000000005,0.0804502000000008,-0.0836757999999998,0,sub_1
-0.0183750000000002,0.0096292000000011,0.0159312,0.0490066000000005,0.1132738000000008,-0.0905209999999998,0,sub_1
-0.0136242000000002,0.0073016000000012,0.019626,0.0525578000000005,0.1348174000000008,-0.0969511999999998,0,sub_1
0.0009497999999997,0.0011844000000012,0.0061774,0.0453916000000005,0.1465934000000008,-0.1023747999999999,0,sub_1
0.0191027999999997,-0.0052043999999987,-0.0118039999999999,0.0185082000000005,0.1409600000000008,-0.1059907999999999,0,sub_1
0.0537485999999997,-0.0043725999999987,-0.0346979999999999,-0.0242855999999994,0.1042908000000008,-0.1162821999999999,0,sub_1
0.0907421999999997,0.0002106000000012,-0.0545531999999999,-0.0787433999999994,0.0342202000000008,-0.1285351999999999,0,sub_1
0.1201187999999997,0.0068024000000012,-0.0662495999999999,-0.1279925999999994,-0.051471399999999,-0.1283403999999999,0,sub_1
0.1209545999999997,0.0132698000000012,-0.0573257999999999,-0.1630241999999994,-0.1466159999999991,-0.1173639999999998,0,sub_1
0.0906297999999997,0.0236334000000012,-0.0483905999999999,-0.1736861999999994,-0.2303465999999991,-0.1047365999999998,0,sub_1
0.0382513999999997,0.0247674000000012,-0.0414671999999998,-0.1643725999999994,-0.2792267999999991,-0.0866745999999998,0,sub_1
-0.0241916000000002,0.0251318000000012,-0.0381481999999998,-0.1352339999999994,-0.2821673999999991,-0.0657555999999999,0,sub_1
-0.0783214000000002,0.0294698000000012,-0.0333181999999998,-0.0966875999999995,-0.2429169999999991,-0.0544389999999998,0,sub_1
-0.1114536000000002,0.0377134000000012,-0.0312643999999998,-0.0543299999999994,-0.1636255999999991,-0.0465535999999998,0,sub_1
-0.1092562000000002,0.0403418000000012,-0.0243129999999998,-0.0142679999999994,-0.0660309999999991,-0.0318709999999998,0,sub_1
-0.0876830000000002,0.0379578000000012,-0.0100815999999999,0.0196112000000005,0.0366824000000008,-0.0131789999999998,0,sub_1
-0.0540898000000002,0.0323028000000012,0.0044126,0.0402114000000005,0.1285756000000008,0.0056478000000001,0,sub_1
-0.0193136000000002,0.0237836000000012,0.0118414,0.0525900000000005,0.1940966000000008,0.0263616,0,sub_1
0.0149647999999997,0.0129766000000011,0.0146892,0.0579708000000005,0.2181114000000009,0.0432342,0,sub_1
0.0401191999999997,0.0032320000000011,0.0159896,0.0574478000000004,0.2017014000000009,0.0513578,0,sub_1
0.0506375999999997,0.0005624000000011,0.0126588,0.0564424000000004,0.1652964000000009,0.0518126,0,sub_1
0.0513341999999997,-0.0001803999999987,0.0096196,0.0524698000000004,0.1287076000000008,0.0475466,0,sub_1
0.0424859999999997,0.0010184000000012,0.0109994,0.0453326000000004,0.0997878000000008,0.0398426,0,sub_1
0.0257655999999997,0.0056840000000012,0.0132704,0.0397522000000004,0.0825902000000008,0.0297844,0,sub_1
0.0065199999999997,0.0122920000000012,0.0140034000000001,0.0383008000000005,0.0839062000000008,0.0216542,0,sub_1
-0.0130762000000002,0.0144306000000012,0.0090062,0.0403376000000005,0.1016324000000008,0.015868,0,sub_1
-0.0263338000000002,0.0149146000000011,0.0047426000000001,0.0511726000000005,0.1316800000000008,0.0114094,0,sub_1
-0.0332700000000002,0.0162084000000011,0.0009364000000001,0.0663220000000005,0.1738498000000008,0.0086746,0,sub_1
-0.0309658000000002,0.0161124000000012,-0.0011235999999998,0.0780776000000005,0.2217788000000008,0.00719,0,sub_1
-0.0200658000000002,0.0135204000000012,-0.0048155999999998,0.0825400000000005,0.2603624000000009,0.004812,0,sub_1
-0.0018252000000002,0.0085014000000012,-0.0072861999999998,0.0757934000000005,0.2797692000000008,0.0060214,0,sub_1
0.0202951999999997,0.0017274000000012,-0.0111025999999999,0.0573692000000005,0.2708544000000009,0.0135962,0,sub_1
0.0390129999999997,-0.0024809999999987,-0.0171711999999999,0.0354118000000005,0.2363982000000009,0.0233134,0,sub_1
0.0449895999999997,-0.0006273999999987,-0.0243507999999999,0.0146502000000005,0.1840366000000008,0.0341312,0,sub_1
0.0374111999999997,0.0034510000000012,-0.0287777999999999,0.0011662000000005,0.1340042000000008,0.0422192,0,sub_1
0.0232159999999997,0.0089904000000012,-0.0249083999999999,-0.0017739999999994,0.0963214000000008,0.0431006,0,sub_1
0.0071289999999997,0.0165902000000012,-0.0194459999999999,0.0030900000000005,0.0767590000000008,0.0346116,0,sub_1
-0.0040190000000002,0.0212314000000011,-0.0122437999999999,0.0093152000000004,0.0725256000000008,0.022269,0,sub_1
-0.0063032000000002,0.0189444000000012,-0.0032771999999999,0.0145224000000004,0.0785262000000008,0.0090512,0,sub_1
-0.0024954000000002,0.0141314000000012,0.0059972,0.0126730000000004,0.0870842000000008,0.001763,0,sub_1
0.0036095999999997,0.0102414000000012,0.011353,0.0052450000000004,0.0926806000000008,-0.0002101999999999,0,sub_1
0.0061913999999997,0.0074368000000012,0.0136168,-0.0043543999999995,0.0925218000000008,0.0003726,0,sub_1
0.0069927999999997,0.0065542000000012,0.0100460000000001,-0.0154725999999994,0.0881022000000008,0.0022318,0,sub_1
