userAcceleration.x,userAcceleration.y,userAcceleration.z,rotationRate.x,rotationRate.y,rotationRate.z,label,subject
-0.0136146000000001,0.0093760000000012,0.0174043999999999,-0.0022001999999995,-0.0198107999999993,0.0120079999999999,0,sub_13
-0.0162052000000001,0.0096434000000012,0.0178913999999999,-0.0016563999999995,-0.0240179999999993,0.0085245999999999,0,sub_13
-0.0161320000000001,0.0099572000000012,0.0192953999999999,-0.0038941999999995,-0.0288589999999993,0.0060907999999999,0,sub_13
-0.0155822000000001,0.0102284000000012,0.0190947999999999,-0.0068919999999995,-0.0324653999999993,0.0047925999999999,0,sub_13
-0.0151742000000001,0.0103286000000012,0.01731,-0.0083921999999995,-0.0339513999999993,0.0047839999999999,0,sub_13
-0.0137192000000001,0.0094340000000012,0.0158014,-0.0073319999999994,-0.0339611999999993,0.0062869999999999,0,sub_13
-0.0118898000000001,0.0083222000000012,0.0148576,-0.0057663999999994,-0.0350561999999993,0.0102931999999999,0,sub_13
-0.0124228000000001,0.0090716000000012,0.0144064,-0.0046187999999994,-0.0348687999999993,0.0136541999999998,0,sub_13
-0.0148084000000001,0.0103670000000012,0.013493,-0.0034537999999994,-0.0325439999999993,0.0153031999999998,0,sub_13
-0.0162166000000001,0.0106566000000012,0.012338,-0.0007905999999994,-0.0312811999999993,0.0148275999999998,0,sub_13
-0.0177732000000001,0.0105772000000012,0.01483,0.0012440000000005,-0.0287325999999993,0.0130639999999999,0,sub_13
-0.0197742000000002,0.0110256000000012,0.0172448,0.0019226000000004,-0.0231835999999993,0.0100705999999999,0,sub_13
-0.0210240000000002,0.0111274000000012,0.017786,0.0021848000000004,-0.0157137999999993,0.0066443999999999,0,sub_13
-0.0206044000000002,0.0104938000000012,0.017772,0.0028604000000004,-0.0110159999999993,0.0034383999999999,0,sub_13
-0.0204518000000002,0.0104164000000012,0.0178109999999999,0.0020184000000005,-0.0101539999999993,0.0017223999999999,0,sub_13
-0.0201474000000002,0.0118612000000012,0.0152875999999999,0.0008292000000005,-0.0128759999999993,0.0016521999999999,0,sub_13
-0.0172680000000001,0.0111882000000012,0.0126097999999999,-0.0018603999999994,-0.0164473999999993,0.0022135999999999,0,sub_13
-0.0141396000000001,0.0093868000000012,0.0121389999999999,-0.0019873999999995,-0.0187529999999993,0.0036457999999999,0,sub_13
-0.0117740000000001,0.0083562000000012,0.0128143999999999,0.0002432000000004,-0.0176621999999993,0.0061583999999999,0,sub_13
-0.0103008000000001,0.0061638000000012,0.0127643999999999,0.0039732000000004,-0.0140249999999993,0.0099597999999999,0,sub_13
-0.0093008000000001,0.0034372000000012,0.0126629999999999,0.0065394000000004,-0.0095725999999993,0.0131765999999999,0,sub_13
-0.0109890000000001,0.0032802000000012,0.0141865999999999,0.0101716000000004,-0.0066101999999993,0.0151209999999999,0,sub_13
-0.0134752000000001,0.0055048000000012,0.0154603999999999,0.0105228000000004,-0.0049911999999993,0.0154753999999999,0,sub_13
-0.0171632000000001,0.0079958000000012,0.0159225999999999,0.0068286000000004,-0.0035627999999993,0.0136651999999999,0,sub_13
-0.0185400000000001,0.0107234000000012,0.0150268,0.0033602000000004,-0.0014873999999993,0.0097193999999999,0,sub_13
-0.0171300000000001,0.0114510000000012,0.0153614,0.0015884000000004,-0.0017615999999993,0.0057885999999999,0,sub_13
-0.0146180000000001,0.0107984000000012,0.0148998,0.0010814000000004,-0.0037513999999993,0.0035777999999999,0,sub_13
-0.0140536000000001,0.0093780000000011,0.0148976,0.0004480000000004,-0.0050163999999993,0.0007975999999999,0,sub_13
-0.0138636000000001,0.0085208000000011,0.0147356,0.0006794000000004,-0.0039397999999993,-0.0021932,0,sub_13
-0.0147570000000001,0.0081582000000011,0.0158131999999999,0.0002680000000004,-0.0024391999999993,-0.0041208,0,sub_13
-0.0172736000000001,0.0090584000000011,0.0155397999999999,-0.0008367999999995,-0.0013771999999993,-0.0044146,0,sub_13
-0.0194760000000001,0.0092540000000011,0.0159925999999999,-0.0017377999999995,-0.0024465999999993,-0.0047042,0,sub_13
-0.0195148000000001,0.0086618000000011,0.0160753999999999,-0.0017985999999994,-0.0050163999999993,-0.0034906,0,sub_13
-0.0184162000000002,0.0090870000000011,0.0169169999999999,-0.0012211999999994,-0.0078021999999993,-0.0020584,0,sub_13
-0.0178084000000002,0.0102326000000011,0.0168406,-0.0012753999999994,-0.0093049999999993,-0.0012732,0,sub_13
-0.0179604000000002,0.0098830000000011,0.016344,-0.0006437999999994,-0.0108003999999993,-0.0008396,0,sub_13
-0.0179606000000002,0.0097358000000011,0.0165121999999999,-0.0008647999999994,-0.0122917999999993,-0.0006256,0,sub_13
-0.0186102000000002,0.0111066000000011,0.0174435999999999,-0.0023573999999995,-0.0129221999999993,-0.0014898,0,sub_13
-0.0180854000000002,0.0111830000000011,0.0165719999999999,-0.0038479999999995,-0.0131265999999993,-0.0023546,0,sub_13
-0.0177990000000002,0.0102152000000012,0.0156069999999999,-0.0032391999999995,-0.0154135999999993,-0.001344,0,sub_13
-0.0177764000000002,0.0107440000000012,0.0155829999999999,-0.0019847999999995,-0.0170609999999993,-0.0009706,0,sub_13
-0.0175044000000002,0.0107618000000012,0.015119,-0.0015837999999995,-0.0176445999999993,0.0004635999999999,0,sub_13
-0.0168192000000002,0.0095116000000012,0.0141416,-0.0003341999999995,-0.0182353999999993,0.0029719999999999,0,sub_13
-0.0174428000000002,0.0088728000000012,0.0143481999999999,0.0021976000000004,-0.0188289999999993,0.0050619999999999,0,sub_13
-0.0181408000000002,0.0096938000000012,0.0157421999999999,0.0032712000000004,-0.0175535999999993,0.0048541999999999,0,sub_13
-0.0195632000000002,0.0105432000000012,0.0162991999999999,0.0022206000000004,-0.0141401999999993,0.0046287999999999,0,sub_13
-0.0209178000000002,0.0101264000000012,0.0152567999999999,0.0024334000000004,-0.0127673999999993,0.0039267999999999,0,sub_13
-0.0210524000000002,0.0100586000000012,0.0151729999999999,0.0022098000000005,-0.0137357999999993,0.0030111999999999,0,sub_13
-0.0202146000000002,0.0106042000000012,0.0160169999999999,0.0007012000000005,-0.0159771999999993,0.0018745999999999,0,sub_13
-0.0196884000000002,0.0115588000000012,0.0160793999999999,-0.0018685999999994,-0.0171485999999993,0.0005153999999999,0,sub_13
-0.0182818000000002,0.0112316000000012,0.0145645999999999,-0.0025255999999994,-0.0200311999999993,-0.0008282,0,sub_13
-0.0171368000000002,0.0111304000000012,0.0151591999999999,-0.0035915999999994,-0.0204509999999993,-0.001476,0,sub_13
-0.0158748000000002,0.0113380000000012,0.0145489999999999,-0.0033753999999994,-0.0204491999999993,-0.0021156,0,sub_13
-0.0149656000000002,0.0102422000000012,0.0137101999999999,-0.0031629999999995,-0.0206629999999993,-0.002114,0,sub_13
-0.0143356000000001,0.0088114000000012,0.0135813999999999,-0.0027515999999994,-0.0199441999999993,-0.0011028,0,sub_13
-0.0147672000000001,0.0083438000000012,0.0142185999999999,-0.0016741999999994,-0.0138995999999993,-0.000521,0,sub_13
-0.0148720000000001,0.0079620000000012,0.0138273999999999,0.0008960000000005,-0.0091341999999993,-0.0009954,0,sub_13
-0.0160260000000001,0.0083492000000012,0.0143773999999999,0.0021716000000005,-0.0069235999999993,-0.0008346,0,sub_13
-0.0172378000000001,0.0093194000000012,0.0148491999999999,0.0021534000000005,-0.0068423999999993,0.0001745999999999,0,sub_13
-0.0180318000000001,0.0097760000000012,0.0150711999999999,0.0008674000000004,-0.0085405999999993,-0.0002594,0,sub_13
-0.0168986000000001,0.0104002000000012,0.0154902,-0.0010595999999995,-0.0112983999999993,-0.0015512,0,sub_13
-0.0154708000000001,0.0111258000000011,0.0155326,-0.0027599999999995,-0.0106497999999993,-0.0024186,0,sub_13
-0.0142696000000001,0.0097738000000011,0.0143796,-0.0021111999999995,-0.0085223999999993,-0.002203,0,sub_13
-0.0137060000000001,0.0074448000000011,0.0134724,-0.0004137999999995,-0.0067627999999993,-0.0009526,0,sub_13
-0.0126092000000001,0.0071722000000011,0.0130459999999999,0.0021304000000004,-0.0058609999999993,0.0009455999999999,0,sub_13
-0.0119662000000001,0.0076644000000011,0.0133909999999999,0.0027572000000004,-0.0051621999999993,0.0019761999999999,0,sub_13
-0.0132946000000001,0.0096168000000012,0.0141109999999999,0.0019058000000004,-0.0025345999999993,0.0014985999999999,0,sub_13
-0.0150388000000001,0.0104566000000012,0.0144837999999999,0.0004304000000004,0.0022318000000006,-0.0004818,0,sub_13
-0.0167348000000002,0.0112592000000012,0.0139377999999999,-0.0008181999999995,0.0062962000000006,-0.0034868,0,sub_13
-0.0175554000000002,0.0097314000000012,0.0134967999999999,-0.0010229999999995,0.0067290000000006,-0.0049842,0,sub_13
-0.0178156000000002,0.0079922000000012,0.0140313999999999,-0.0001791999999995,0.0053008000000006,-0.005212,0,sub_13
-0.0179228000000002,0.0074864000000012,0.0147701999999999,1.880000000048054e-05,0.0025966000000006,-0.0054426,0,sub_13
-0.0181182000000002,0.0093004000000012,0.0159304,-0.0021187999999995,0.0016084000000006,-0.0065462,0,sub_13
-0.0179884000000002,0.0102150000000012,0.0167424,-0.0034105999999995,-0.0008749999999993,-0.0074284,0,sub_13
-0.0186298000000002,0.0111958000000012,0.017192,-0.0064091999999995,-0.0039889999999993,-0.0089628,0,sub_13
-0.0189998000000002,0.0115776000000012,0.0169506,-0.0100479999999995,-0.0080181999999993,-0.0104786,0,sub_13
-0.0181154000000002,0.0107782000000012,0.0156938,-0.0126151999999995,-0.0118349999999993,-0.0128418,0,sub_13
-0.0164654000000001,0.0091416000000012,0.0145664,-0.0124161999999995,-0.0171535999999993,-0.0149702,0,sub_13
-0.0178800000000001,0.0100648000000012,0.0150494,-0.0132743999999995,-0.0185605999999993,-0.0160614,0,sub_13
-0.0178926000000001,0.0088178000000012,0.0136748,-0.0120075999999995,-0.0206193999999993,-0.015855,0,sub_13
-0.0187466000000001,0.0076544000000012,0.0122063999999999,-0.0101255999999995,-0.0263099999999993,-0.0137168,0,sub_13
-0.0178342000000001,0.0073382000000012,0.0125511999999999,-0.0097477999999994,-0.0326411999999993,-0.0098792,0,sub_13
-0.0182904000000001,0.0077000000000012,0.0122973999999999,-0.0114911999999994,-0.0357707999999993,-0.0056332,0,sub_13
-0.0163576000000001,0.0076230000000012,0.0109363999999999,-0.0112807999999994,-0.0349251999999993,-0.0041374,0,sub_13
-0.0166122000000001,0.0095430000000012,0.0113663999999999,-0.0095499999999994,-0.0300291999999993,-0.0045588,0,sub_13
-0.0154638000000001,0.0095226000000012,0.0127637999999999,-0.0090869999999994,-0.0229955999999993,-0.0056328,0,sub_13
-0.0161028000000001,0.0089610000000012,0.013389,-0.0099101999999995,-0.0173647999999993,-0.0062972,0,sub_13
-0.0155078000000001,0.0084892000000012,0.0145132,-0.0092531999999995,-0.0151465999999993,-0.0073742,0,sub_13
-0.0162184000000001,0.0070040000000012,0.0152394,-0.0088229999999995,-0.0154859999999993,-0.0080222,0,sub_13
-0.0168376000000001,0.0086870000000012,0.0155314,-0.0103091999999995,-0.0149661999999993,-0.0086848,0,sub_13
-0.0181568000000001,0.0107450000000012,0.014967,-0.0132851999999995,-0.0138013999999993,-0.0095722,0,sub_13
-0.0194108000000001,0.0106406000000012,0.014238,-0.0126555999999995,-0.0163593999999993,-0.0097782,0,sub_13
-0.0211712000000001,0.0103406000000011,0.014183,-0.0107457999999994,-0.0189217999999993,-0.0099752,0,sub_13
-0.0205878000000002,0.0114186000000012,0.0151764,-0.0098961999999995,-0.0195645999999993,-0.0097548,0,sub_13
-0.0202030000000002,0.0093494000000012,0.0160108,-0.0101035999999995,-0.0177859999999993,-0.0089094,0,sub_13
-0.0204310000000002,0.0087010000000012,0.0162855999999999,-0.0064799999999995,-0.0177267999999993,-0.0076078,0,sub_13
-0.0212266000000002,0.0093930000000012,0.0171115999999999,-0.0056243999999995,-0.0168041999999993,-0.0067538,0,sub_13
-0.0213264000000001,0.0109466000000012,0.0177737999999999,-0.0067045999999995,-0.0188591999999993,-0.0054822,0,sub_13
-0.0227044000000001,0.0118722000000012,0.0186779999999999,-0.0086371999999995,-0.0211227999999993,-0.0046436,0,sub_13
-0.0218062000000001,0.0123818000000012,0.0186057999999999,-0.0099165999999995,-0.0215419999999993,-0.0052928,0,sub_13
-0.0198220000000001,0.0120180000000012,0.0177344,-0.0107469999999995,-0.0183355999999993,-0.0072254,0,sub_13
-0.0179538000000001,0.0109994000000012,0.0166852,-0.0077435999999995,-0.0155729999999993,-0.0080626,0,sub_13
-0.0164308000000002,0.0097814000000012,0.0155708,-0.0066501999999995,-0.0102013999999993,-0.0082732,0,sub_13
-0.0145732000000002,0.0093980000000012,0.0139218,-0.0053549999999995,-0.0059015999999993,-0.0069854,0,sub_13
-0.0149396000000002,0.0089000000000012,0.0132284,-0.0028005999999994,-0.0052323999999993,-0.004616,0,sub_13
-0.0176044000000002,0.0098690000000012,0.0139832,-0.0013303999999994,-0.0073335999999993,-0.0011824,0,sub_13
-0.0196626000000002,0.0113612000000012,0.0144524,-0.0034721999999994,-0.0077107999999993,0.0005147999999999,0,sub_13
-0.0201134000000002,0.0116800000000012,0.015047,-0.0032683999999994,-0.0089931999999993,0.0013725999999999,0,sub_13
-0.0202510000000002,0.0113666000000012,0.0163176,-0.0028405999999995,-0.0094181999999993,0.0007351999999999,0,sub_13
-0.0196268000000002,0.0109232000000012,0.0166853999999999,-0.0036807999999995,-0.0072813999999993,-0.000128,0,sub_13
-0.0189004000000002,0.0099304000000012,0.0169861999999999,-0.0032099999999995,-0.0031741999999993,-0.001599,0,sub_13
-0.0182686000000002,0.0090374000000012,0.0173611999999999,-0.0008167999999995,0.0009280000000006,-0.0034838,0,sub_13
-0.0188908000000002,0.0091386000000012,0.0170649999999999,-0.0018309999999995,0.0063212000000006,-0.0056078,0,sub_13
-0.0192828000000002,0.0090838000000012,0.0154597999999999,-0.0028615999999995,0.0080926000000006,-0.0077272,0,sub_13
-0.0196366000000002,0.0109374000000012,0.015287,-0.0036957999999995,0.0056040000000006,-0.010267,0,sub_13
-0.0191766000000002,0.0124034000000012,0.014978,-0.0064743999999995,0.0022142000000006,-0.012632,0,sub_13
-0.0184738000000002,0.0132608000000012,0.012935,-0.0079689999999995,0.0011576000000006,-0.0134958,0,sub_13
-0.0161538000000002,0.0114608000000012,0.0111184,-0.0047933999999995,-0.0020587999999993,-0.0111194,0,sub_13
-0.0152728000000002,0.0108216000000012,0.0122338,-0.0018019999999995,-0.0049751999999993,-0.0070006,0,sub_13
-0.0153936000000001,0.0096194000000012,0.0138218,-0.0009463999999995,-0.0074613999999993,-0.0020428,0,sub_13
-0.0159756000000001,0.0094546000000012,0.0135586,0.0001390000000004,-0.0082361999999993,0.0009915999999999,0,sub_13
-0.0157554000000001,0.0095648000000012,0.0148174,-0.0008997999999995,-0.0083583999999993,0.0025149999999999,0,sub_13
-0.0174538000000001,0.0114220000000012,0.0160555999999999,-0.0036359999999995,-0.0080415999999993,0.0023167999999999,0,sub_13
-0.0184864000000001,0.0121654000000012,0.0144273999999999,-0.0057639999999995,-0.0088777999999993,0.0001665999999999,0,sub_13
-0.0180148000000001,0.0120478000000012,0.0138841999999999,-0.0061781999999995,-0.0097139999999993,-0.0034672,0,sub_13
-0.0168288000000001,0.0111034000000012,0.0147887999999999,-0.0078573999999995,-0.0073491999999993,-0.0073276,0,sub_13
-0.0163664000000001,0.0109538000000012,0.0148673999999999,-0.0069123999999995,-0.0012715999999993,-0.0115592,0,sub_13
-0.0146160000000001,0.0099064000000012,0.0141548,-0.0059663999999995,0.0058678000000006,-0.0149376,0,sub_13
-0.0124764000000001,0.0081166000000012,0.0137498,-0.0052693999999995,0.0104300000000005,-0.0129734,0,sub_13
-0.0121146000000001,0.0060206000000012,0.0117856,-0.0028913999999995,0.0132656000000005,-0.0069358,0,sub_13
-0.0115360000000001,0.0055634000000012,0.0117353999999999,0.0007440000000004,0.0135300000000005,0.0016775999999999,0,sub_13
-0.0117184000000002,0.0050046000000012,0.0121135999999999,0.0043224000000004,0.0132616000000005,0.0123851999999999,0,sub_13
-0.0147932000000002,0.0061570000000012,0.0136331999999999,0.0087754000000004,0.0170408000000005,0.0224527999999999,0,sub_13
-0.0169192000000002,0.0055950000000012,0.0155055999999999,0.0138964000000004,0.0240256000000005,0.0295299999999999,0,sub_13
-0.0181854000000002,0.0058176000000012,0.0176843999999999,0.0175880000000004,0.0319798000000005,0.0336473999999999,0,sub_13
-0.0199342000000002,0.0058158000000012,0.0189129999999999,0.0206422000000004,0.0397266000000006,0.0369059999999999,0,sub_13
-0.0234112000000002,0.0063416000000012,0.0203377999999999,0.0215636000000004,0.0438742000000006,0.0363085999999999,0,sub_13
-0.0249842000000002,0.0062646000000012,0.0205454,0.0224860000000004,0.0456884000000006,0.0331503999999999,0,sub_13
-0.0268966000000002,0.0092140000000011,0.0205436,0.0232048000000004,0.0475118000000006,0.0278543999999999,0,sub_13
-0.0261516000000002,0.0111668000000011,0.0192186,0.0223858000000004,0.0496674000000006,0.0222909999999999,0,sub_13
-0.0249428000000002,0.0115996000000012,0.0180012,0.0215668000000004,0.0509742000000006,0.0158741999999999,0,sub_13
-0.0214990000000002,0.0113034000000012,0.0174138,0.0205432000000004,0.0546238000000006,0.0098803999999999,0,sub_13
-0.0189644000000002,0.0120368000000012,0.0170036,0.0195662000000004,0.0602694000000006,0.0037035999999999,0,sub_13
-0.0177750000000002,0.0116116000000012,0.0159604,0.0202990000000004,0.0673970000000006,-0.0016086,0,sub_13
-0.0199768000000002,0.0116778000000012,0.0160486,0.0246382000000004,0.0713100000000006,-0.005396,0,sub_13
-0.0223754000000002,0.0117134000000012,0.017577,0.0261700000000004,0.0705346000000006,-0.0064196,0,sub_13
-0.0251198000000001,0.0130494000000012,0.0185502,0.0238302000000004,0.0648646000000006,-0.0055414,0,sub_13
-0.0262764000000001,0.0122684000000012,0.0183558,0.0207990000000004,0.0557112000000006,-0.00491,0,sub_13
-0.0260456000000001,0.0125186000000012,0.0180542,0.0181876000000004,0.0442162000000006,-0.0051272,0,sub_13
-0.0237772000000001,0.0127488000000012,0.0176836,0.0132234000000004,0.0318756000000006,-0.0049324,0,sub_13
-0.0214292000000001,0.0131364000000012,0.0155442,0.0063986000000004,0.0236490000000006,-0.0068546,0,sub_13
-0.0183202000000001,0.0116426000000012,0.0120096,0.0043124000000004,0.0230846000000006,-0.0108898,0,sub_13
-0.0162128000000001,0.0090166000000012,0.0091046,0.0079938000000004,0.0267500000000006,-0.0121127999999999,0,sub_13
-0.0141290000000001,0.0069386000000012,0.007705,0.0116600000000004,0.0314628000000006,-0.0088508,0,sub_13
-0.0133672000000001,0.0056522000000012,0.0072212,0.0149022000000004,0.0380894000000006,-0.0043124,0,sub_13
-0.0137144000000001,0.0056414000000012,0.0080053999999999,0.0206758000000004,0.0452952000000006,0.0002051999999999,0,sub_13
-0.0155018000000001,0.0068086000000011,0.0094357999999999,0.0234476000000004,0.0493156000000006,0.0047057999999999,0,sub_13
-0.0168596000000002,0.0108198000000011,0.0107825999999999,0.0225874000000004,0.0493126000000006,0.0061951999999999,0,sub_13
-0.0185710000000001,0.0137660000000012,0.0117907999999999,0.0191820000000004,0.0486956000000006,0.0036083999999999,0,sub_13
-0.0187150000000001,0.0136706000000012,0.0122537999999999,0.0143166000000004,0.0483406000000006,0.0004057999999999,0,sub_13
-0.0180090000000001,0.0125290000000012,0.0107074,0.0128440000000004,0.0451964000000006,-0.0008468,0,sub_13
-0.0171496000000001,0.0111642000000012,0.0095524,0.0145500000000004,0.0392628000000006,6.299999999993359e-05,0,sub_13
-0.0174580000000001,0.0099626000000012,0.0101096,0.0132630000000004,0.0335468000000006,0.0024469999999999,0,sub_13
-0.0182880000000001,0.0092482000000012,0.0103678,0.0117808000000004,0.0314550000000006,0.0043977999999999,0,sub_13
-0.0187800000000001,0.0098934000000012,0.0105395999999999,0.0126324000000004,0.0320870000000006,0.0054711999999999,0,sub_13
-0.0196026000000001,0.0092258000000012,0.0105057999999999,0.0128516000000004,0.0342134000000006,0.0063245999999999,0,sub_13
-0.0216742000000001,0.0106884000000012,0.0116703999999999,0.0115764000000004,0.0350516000000006,0.0071619999999999,0,sub_13
-0.0229068000000001,0.0119440000000012,0.0115663999999999,0.0096544000000004,0.0344006000000006,0.0079967999999999,0,sub_13
-0.0221126000000002,0.0104800000000012,0.0098923999999999,0.0089792000000004,0.0294712000000005,0.0120503999999999,0,sub_13
-0.0220358000000002,0.0098638000000012,0.0089191999999999,0.0104298000000004,0.0236788000000006,0.0169745999999999,0,sub_13
-0.0216600000000002,0.0112078000000012,0.0095528,0.0129570000000004,0.0178912000000006,0.0197697999999999,0,sub_13
-0.0193334000000002,0.0113538000000012,0.0099533999999999,0.0114528000000004,0.0159772000000006,0.0201889999999999,0,sub_13
-0.0173748000000001,0.0104658000000012,0.0106407999999999,0.0093104000000004,0.0151282000000006,0.0212433999999999,0,sub_13
-0.0170084000000001,0.0116712000000012,0.0127813999999999,0.0059194000000004,0.0168582000000006,0.0177991999999999,0,sub_13
-0.0196800000000001,0.0124400000000012,0.0121887999999999,0.0020470000000004,0.0154854000000006,0.0136701999999999,0,sub_13
-0.0206730000000001,0.0123000000000012,0.0105775999999999,-0.0029191999999995,0.0100606000000006,0.0114617999999999,0,sub_13
-0.0211174000000001,0.0109192000000012,0.0088633999999999,-0.0042875999999995,0.0003526000000006,0.0116339999999999,0,sub_13
-0.0212886000000001,0.0097038000000012,0.0085639999999999,-0.0051929999999995,-0.0048681999999993,0.0081715999999999,0,sub_13
-0.0193304000000001,0.0103410000000012,0.0080247999999999,-0.0058581999999995,-0.0051851999999993,0.0036363999999999,0,sub_13
-0.0144354000000001,0.0110202000000012,0.0093835999999999,-0.0070981999999995,-0.0011131999999993,-0.0012912,0,sub_13
-0.0117462000000002,0.0096952000000012,0.0104807999999999,-0.0087571999999995,0.0059380000000006,-0.0049438,0,sub_13
-0.0119908000000001,0.0088424000000012,0.0108982,-0.0097981999999994,0.0102088000000006,-0.0064522,0,sub_13
-0.0148918000000001,0.0086566000000012,0.0115462,-0.0089791999999995,0.0046580000000006,-0.0043028,0,sub_13
-0.0216138000000001,0.0089344000000012,0.0128036,-0.0099857999999995,-0.0108827999999993,-0.0002496,0,sub_13
-0.0295752000000001,0.0122094000000012,0.0151268,-0.0146311999999994,-0.0310895999999993,0.0016477999999999,0,sub_13
-0.0389528000000001,0.0172184000000012,0.0172338,-0.0214123999999995,-0.0544735999999993,0.0007567999999999,0,sub_13
-0.0468668000000001,0.0196786000000012,0.0174491999999999,-0.0288605999999995,-0.0846695999999993,-0.0009846,0,sub_13
-0.0519194000000001,0.0210862000000012,0.0182927999999999,-0.0397235999999995,-0.1165523999999993,-0.0042432,0,sub_13
-0.0529288000000002,0.0217662000000012,0.0187863999999999,-0.0519989999999995,-0.1456819999999993,-0.0083508,0,sub_13
-0.0500408000000002,0.0206460000000012,0.0163025999999999,-0.0642493999999995,-0.1684233999999993,-0.011612,0,sub_13
-0.0414052000000001,0.0180728000000012,0.0110861999999999,-0.0705885999999995,-0.1852337999999994,-0.0122872,0,sub_13
-0.0296526000000001,0.0124682000000012,0.0076602,-0.0698375999999995,-0.1897177999999993,-0.0114332,0,sub_13
-0.0149972000000002,0.0073792000000012,0.0068886,-0.0613487999999995,-0.1797485999999993,-0.008621,0,sub_13
-0.0005294000000002,0.0050678000000012,0.0077516,-0.0489577999999995,-0.1553085999999993,-0.0049456,0,sub_13
0.0099887999999997,0.0026830000000012,0.0096574,-0.0361075999999995,-0.1227775999999993,-0.0004226,0,sub_13
0.0151945999999997,0.0010996000000012,0.013176,-0.0244359999999995,-0.0849131999999993,0.0043103999999999,0,sub_13
0.0174261999999997,0.0019320000000012,0.0183542,-0.0125385999999995,-0.0466141999999993,0.0066943999999999,0,sub_13
0.0134319999999997,0.0027300000000012,0.0226008,-0.0045009999999995,-0.0142603999999993,0.0073499999999999,0,sub_13
0.0043201999999997,0.0037212000000012,0.025481,0.0004410000000004,0.0087328000000006,0.0049867999999999,0,sub_13
-0.0031860000000002,0.0054768000000012,0.0263552,0.0034406000000004,0.0225886000000006,-0.0016514,0,sub_13
