userAcceleration.x,userAcceleration.y,userAcceleration.z,rotationRate.x,rotationRate.y,rotationRate.z,label,subject
-0.0032744000000003,0.0070942000000012,-0.0233945999999999,0.0604686000000006,0.0700256000000007,0.0676197999999999,0,sub_3
0.0023107999999996,0.0008892000000012,-0.0197607999999999,0.0615460000000006,0.0725776000000007,0.0678377999999998,0,sub_3
0.0075499999999996,-0.0022265999999987,-0.0224055999999999,0.0635372000000006,0.0821830000000007,0.0616435999999999,0,sub_3
0.0119817999999996,0.0001706000000012,-0.0240495999999999,0.0612430000000006,0.0845724000000008,0.0522241999999999,0,sub_3
0.0169061999999995,0.0022342000000012,-0.0232113999999999,0.0563356000000006,0.0733428000000007,0.0408811999999999,0,sub_3
0.0132855999999995,0.0024576000000012,-0.0210599999999999,0.0485976000000006,0.0523114000000007,0.0323081999999999,0,sub_3
0.0095093999999995,0.0030482000000013,-0.0192389999999999,0.0464506000000006,0.0429702000000007,0.0258957999999999,0,sub_3
0.0063511999999995,0.0087406000000013,-0.0154403999999999,0.0513764000000006,0.0425448000000007,0.0214441999999998,0,sub_3
0.0071221999999995,0.0078276000000013,-0.0075511999999999,0.0588942000000006,0.0504144000000007,0.0182819999999998,0,sub_3
0.0045455999999996,0.0054128000000013,-0.0033251999999999,0.0667716000000006,0.0704736000000007,0.0151205999999998,0,sub_3
0.0067763999999996,0.0030728000000013,-0.0013699999999999,0.0798334000000006,0.1050008000000007,0.0124043999999998,0,sub_3
0.0140713999999996,0.0030196000000013,0.0041448,0.0915640000000006,0.1316358000000007,0.0131071999999998,0,sub_3
0.0153405999999996,0.0042264000000013,0.001603,0.0968494000000006,0.1493416000000008,0.0146311999999999,0,sub_3
0.0119993999999996,0.0063832000000013,-0.0016033999999999,0.0924946000000005,0.1570734000000007,0.0146049999999999,0,sub_3
0.0117977999999996,0.0051516000000013,-0.0078693999999999,0.0876742000000005,0.1728710000000007,0.0109191999999999,0,sub_3
0.0143117999999996,0.0069066000000013,-0.0139493999999999,0.0738510000000005,0.1784776000000007,0.0061151999999999,0,sub_3
0.0124785999999996,0.0047226000000013,-0.0239717999999999,0.0519350000000005,0.1813676000000007,-0.0049374,0,sub_3
0.0171671999999995,-0.0001989999999986,-0.0263683999999999,0.0319394000000005,0.1825532000000007,-0.0176836,0,sub_3
0.0229305999999995,-0.0027015999999986,-0.0332115999999999,0.0187544000000006,0.1822142000000007,-0.0280302,0,sub_3
0.0273763999999995,-0.0021851999999986,-0.0366467999999999,0.0026690000000006,0.1603402000000007,-0.0317466,0,sub_3
0.0310991999999995,-0.0043471999999986,-0.0401833999999999,-0.0059895999999993,0.1333106000000007,-0.0313452,0,sub_3
0.0299045999999995,-0.0037909999999986,-0.0472057999999999,-0.0023099999999993,0.1025970000000007,-0.0261526,0,sub_3
0.0255699999999996,-0.0013589999999986,-0.0475475999999999,-0.0158411999999993,0.0463538000000007,-0.0152792,0,sub_3
0.0182481999999996,-0.0004593999999986,-0.0465775999999999,-0.0197033999999993,0.0028688000000007,-0.006491,0,sub_3
0.0090685999999996,0.0010682000000013,-0.0453129999999999,-0.0181247999999993,-0.0229277999999992,-0.0036694,0,sub_3
-0.0031844000000003,0.0055510000000013,-0.0417209999999999,-0.0184167999999993,-0.0433681999999992,-0.0066362,0,sub_3
-0.0109304000000003,0.0089522000000012,-0.0314611999999999,-0.0261269999999993,-0.0584331999999992,-0.0154302,0,sub_3
-0.0150342000000003,0.0087792000000012,-0.0281109999999999,-0.0137825999999993,-0.0341227999999992,-0.0316122,0,sub_3
-0.0160122000000003,0.0092080000000012,-0.0256525999999999,-0.0075981999999993,-0.0027635999999992,-0.0469916,0,sub_3
-0.0122926000000004,0.0082242000000012,-0.0246151999999999,-0.0042097999999993,0.0266760000000007,-0.059397,0,sub_3
-0.0081036000000003,0.0063544000000012,-0.0263153999999999,-0.0008289999999993,0.0573818000000007,-0.068813,0,sub_3
-0.0038852000000004,0.0048012000000012,-0.0303385999999999,0.0027326000000006,0.0874214000000007,-0.071604,0,sub_3
0.0029469999999995,0.0052864000000012,-0.0381889999999999,0.0028352000000006,0.1065570000000007,-0.0680022000000001,0,sub_3
0.0138591999999995,0.0021058000000012,-0.0479413999999999,-0.0022741999999993,0.1090780000000007,-0.0607836,0,sub_3
0.0222049999999996,-0.0005197999999987,-0.0562097999999999,-0.0134327999999993,0.0983970000000007,-0.0501722,0,sub_3
0.0384721999999995,-0.0077621999999986,-0.0644929999999999,-0.0370859999999993,0.0664336000000007,-0.0344932,0,sub_3
0.0524603999999995,-0.0150171999999986,-0.0724449999999999,-0.0751779999999993,0.0057460000000007,-0.0158872,0,sub_3
0.0606595999999995,-0.0220653999999986,-0.0760067999999999,-0.1225887999999993,-0.0810843999999992,0.0011979999999999,0,sub_3
0.0598347999999995,-0.0215559999999986,-0.0739563999999999,-0.1706961999999993,-0.1819681999999992,0.0168007999999999,0,sub_3
0.0581361999999996,-0.0175643999999986,-0.0677879999999999,-0.2102573999999993,-0.2863699999999992,0.0298099999999999,0,sub_3
0.0484529999999995,-0.0090369999999986,-0.0572671999999999,-0.2331055999999993,-0.3807941999999992,0.0373681999999999,0,sub_3
0.0369349999999996,-0.0006305999999986,-0.0391271999999999,-0.2364207999999993,-0.4552361999999991,0.0392689999999999,0,sub_3
0.0208351999999996,0.0059008000000013,-0.0205271999999999,-0.2242303999999993,-0.4992603999999992,0.0399571999999999,0,sub_3
0.0076813999999996,0.0099566000000013,-0.0064011999999999,-0.1986527999999993,-0.5115721999999991,0.0372799999999999,0,sub_3
-0.0057710000000003,0.0131336000000013,0.005154,-0.1654727999999993,-0.4952527999999992,0.0300131999999999,0,sub_3
-0.0191588000000003,0.0155636000000013,0.0147604,-0.1283205999999994,-0.4518807999999992,0.0206031999999999,0,sub_3
-0.0290472000000003,0.0184384000000013,0.0148007999999999,-0.0897625999999993,-0.3806031999999992,0.0111671999999999,0,sub_3
-0.0377946000000003,0.0237532000000013,0.0090596,-0.0485645999999993,-0.2922877999999992,0.0010869999999999,0,sub_3
-0.0374296000000003,0.0267822000000013,0.0035188,-0.0115607999999993,-0.2007199999999992,-0.0048304,0,sub_3
-0.0352422000000003,0.0262640000000013,-0.0046897999999999,0.0175416000000006,-0.1072205999999992,-0.0073872,0,sub_3
-0.0286080000000003,0.0229314000000013,-0.0163907999999999,0.0389510000000006,-0.0154021999999992,-0.009141,0,sub_3
-0.0206180000000003,0.0186324000000012,-0.0249013999999999,0.0508654000000006,0.0647964000000007,-0.0049694,0,sub_3
-0.0052776000000003,0.0106664000000012,-0.0305001999999999,0.0572006000000006,0.1345886000000007,-0.0042418,0,sub_3
0.0053631999999995,0.0048096000000012,-0.0362159999999999,0.0600122000000006,0.1911494000000007,-0.009641,0,sub_3
0.0163723999999996,0.0002194000000012,-0.0407381999999999,0.0595090000000006,0.2204582000000007,-0.016951,0,sub_3
0.0212653999999995,-0.0008603999999987,-0.0433125999999999,0.0590832000000006,0.2233324000000007,-0.0203812,0,sub_3
0.0230279999999995,-0.0028391999999986,-0.0502411999999999,0.0572986000000006,0.2003516000000008,-0.0261326,0,sub_3
0.0230031999999995,-0.0037861999999986,-0.0553425999999999,0.0547664000000006,0.1566942000000007,-0.028658,0,sub_3
0.0196975999999995,-0.0057605999999986,-0.0595899999999999,0.0572686000000006,0.1081934000000008,-0.0281384,0,sub_3
0.0169783999999996,-0.0076109999999986,-0.0649603999999999,0.0625640000000006,0.0675514000000007,-0.0239776,0,sub_3
0.0169255999999996,-0.0088735999999986,-0.0682523999999999,0.0614840000000006,0.0322598000000007,-0.0202954,0,sub_3
0.0164077999999995,-0.0077263999999986,-0.0661647999999999,0.0606702000000006,0.0099588000000007,-0.0153462,0,sub_3
0.0132811999999996,-0.0023497999999987,-0.0612015999999999,0.0558292000000006,-0.0016941999999992,-0.0057386,0,sub_3
0.0109927999999995,0.0027962000000012,-0.0549193999999999,0.0453040000000006,-0.0040539999999992,0.0074367999999999,0,sub_3
0.0078369999999995,0.0080784000000012,-0.0470313999999999,0.0354486000000006,0.0006130000000007,0.0210351999999999,0,sub_3
0.0075625999999995,0.0091306000000012,-0.0395153999999999,0.0309820000000006,0.0146468000000007,0.0318817999999999,0,sub_3
0.0112389999999996,0.0078676000000012,-0.0338305999999999,0.0276312000000006,0.0331764000000007,0.0363211999999998,0,sub_3
0.0168821999999996,0.0029182000000013,-0.0302729999999999,0.0236628000000006,0.0479880000000007,0.0344695999999998,0,sub_3
0.0220465999999996,-0.0010617999999986,-0.0271385999999999,0.0158462000000006,0.0549550000000007,0.0264053999999998,0,sub_3
0.0257459999999995,-0.0062619999999986,-0.0253463999999999,0.0039706000000006,0.0574756000000007,0.0149001999999998,0,sub_3
0.0279671999999996,-0.0078257999999986,-0.0245285999999999,-0.0083507999999993,0.0565854000000007,0.0042509999999998,0,sub_3
0.0297399999999996,-0.0068913999999986,-0.0245469999999999,-0.0177137999999993,0.0522640000000007,-0.0033822,0,sub_3
0.0325041999999996,-0.0038897999999986,-0.0249591999999999,-0.0232709999999993,0.0448480000000007,-0.0087526,0,sub_3
0.0364305999999996,-0.0017859999999986,-0.0263291999999999,-0.0237437999999993,0.0327130000000007,-0.0106632,0,sub_3
0.0410657999999996,-0.0003649999999986,-0.0266689999999999,-0.0212743999999993,0.0135250000000007,-0.009553,0,sub_3
0.0437573999999996,-0.0001739999999986,-0.0278875999999999,-0.0164741999999993,-0.0084441999999992,-0.0075684,0,sub_3
0.0446009999999996,-0.0022387999999986,-0.0284269999999999,-0.0112481999999993,-0.0302035999999992,-0.005154,0,sub_3
0.0444263999999996,-0.0054501999999986,-0.0274095999999999,0.0004096000000006,-0.0434701999999992,-0.0009964000000001,0,sub_3
0.0385415999999996,-0.0053417999999986,-0.0282685999999999,0.0095166000000006,-0.0537483999999992,0.0039941999999998,0,sub_3
0.0341483999999996,-0.0044015999999986,-0.0269543999999999,0.0098474000000006,-0.0748429999999992,0.0042371999999998,0,sub_3
0.0252235999999996,-0.0017875999999987,-0.0254289999999999,0.0106166000000006,-0.0933823999999992,0.0044797999999998,0,sub_3
0.0137773999999996,0.0021386000000012,-0.0250491999999999,0.0075528000000006,-0.1099917999999992,0.0049069999999998,0,sub_3
0.0032327999999996,0.0098962000000012,-0.0256495999999999,-0.0033857999999993,-0.1271921999999992,0.0001523999999999,0,sub_3
-0.0029738000000003,0.0121300000000012,-0.0236441999999999,-0.0134171999999993,-0.1375573999999992,-0.009732,0,sub_3
-0.0104838000000003,0.0133152000000012,-0.0236825999999999,-0.0161513999999993,-0.1290863999999992,-0.0165626,0,sub_3
-0.0129522000000003,0.0125762000000012,-0.0240395999999999,-0.0190521999999993,-0.1105995999999992,-0.0238344,0,sub_3
-0.0120122000000003,0.0136060000000012,-0.0235813999999999,-0.0172049999999993,-0.0812591999999991,-0.0321552,0,sub_3
-0.0105020000000003,0.0097896000000012,-0.0242797999999999,-0.0117035999999993,-0.0419341999999991,-0.036404,0,sub_3
-0.0097834000000003,0.0076868000000012,-0.0254449999999999,-0.0032283999999993,0.0022490000000007,-0.0327334,0,sub_3
-0.0102318000000003,0.0061860000000012,-0.0312457999999999,0.0076100000000006,0.0509564000000007,-0.0216106,0,sub_3
-0.0120816000000003,0.0082876000000012,-0.0367447999999999,0.0237434000000006,0.0957906000000007,-0.005532,0,sub_3
-0.0141742000000003,0.0087946000000013,-0.0391573999999999,0.0417098000000006,0.1205938000000007,0.0099439999999999,0,sub_3
-0.0155722000000003,0.0064360000000013,-0.0412727999999999,0.0591690000000006,0.1232580000000007,0.0211719999999999,0,sub_3
-0.0062078000000003,0.0045094000000013,-0.0462681999999999,0.0667660000000006,0.1055436000000007,0.0223159999999999,0,sub_3
0.0031387999999996,0.0036428000000013,-0.0463387999999999,0.0619442000000006,0.0702214000000007,0.0152771999999999,0,sub_3
0.0052077999999996,0.0022858000000013,-0.0438069999999999,0.0454102000000006,0.0261014000000007,0.0066927999999999,0,sub_3
0.0064115999999996,0.0002344000000013,-0.0443575999999999,0.0283118000000006,-0.0011851999999992,-0.001917,0,sub_3
0.0046585999999996,0.0021838000000013,-0.0443337999999999,0.0097688000000006,-0.0097495999999992,-0.002656,0,sub_3
-0.0049168000000003,0.0063864000000013,-0.0413149999999999,0.0068326000000006,0.0003324000000007,0.0086541999999999,0,sub_3
-0.0119896000000003,0.0096978000000013,-0.0377191999999999,0.0201684000000006,0.0246248000000007,0.0219825999999999,0,sub_3
-0.0090762000000003,0.0097316000000013,-0.0365211999999999,0.0343278000000006,0.0507444000000007,0.0312347999999999,0,sub_3
-0.0023640000000003,0.0086358000000013,-0.0360733999999999,0.0412018000000006,0.0692228000000007,0.0395913999999999,0,sub_3
0.0051353999999996,0.0053836000000013,-0.0356049999999999,0.0457314000000006,0.0817704000000007,0.0413161999999999,0,sub_3
0.0109059999999996,0.0001298000000013,-0.0351565999999999,0.0377000000000006,0.0884452000000007,0.0307827999999999,0,sub_3
0.0168435999999996,-0.0054463999999986,-0.0353589999999999,0.0198622000000006,0.0909430000000007,0.0159119999999999,0,sub_3
0.0219017999999996,-0.0090053999999986,-0.0353607999999999,0.0043628000000006,0.0908786000000007,0.0004197999999999,0,sub_3
0.0248237999999996,-0.0096121999999986,-0.0350173999999999,-0.0068901999999993,0.0869610000000007,-0.0141834,0,sub_3
0.0264961999999996,-0.0073543999999986,-0.0332645999999999,-0.0147597999999993,0.0770626000000007,-0.0279006,0,sub_3
0.0291921999999996,-0.0043397999999986,-0.0323539999999999,-0.0158399999999993,0.0637110000000007,-0.0364384,0,sub_3
0.0306085999999996,-0.0005655999999986,-0.0328557999999999,-0.0107765999999993,0.0462416000000007,-0.0410808,0,sub_3
0.0345987999999996,-0.0007055999999986,-0.0331379999999999,-0.0029593999999994,0.0255616000000007,-0.044418,0,sub_3
0.0377115999999996,-0.0020387999999986,-0.0328077999999999,0.0044356000000005,0.0018030000000007,-0.0488212,0,sub_3
0.0425327999999996,-0.0046233999999986,-0.0346575999999999,0.0092424000000005,-0.0251545999999992,-0.0502474,0,sub_3
0.0455843999999996,-0.0063229999999986,-0.0369081999999999,0.0088966000000005,-0.0563663999999992,-0.0489268,0,sub_3
0.0465901999999996,-0.0060743999999986,-0.0378159999999999,0.0040604000000006,-0.0892685999999992,-0.0472082,0,sub_3
0.0408407999999996,-0.0032587999999986,-0.0380687999999999,-0.0024569999999993,-0.1145025999999992,-0.0435882,0,sub_3
0.0325613999999996,-1.899999999869298e-05,-0.0387011999999999,-0.0108897999999993,-0.1294265999999992,-0.0338002,0,sub_3
0.0219431999999996,0.0035398000000013,-0.0388561999999999,-0.0203423999999993,-0.1305117999999992,-0.020619,0,sub_3
0.0107179999999996,0.0063798000000013,-0.0382549999999999,-0.0288801999999993,-0.1169035999999991,-0.0063818,0,sub_3
-0.0004580000000003,0.0093782000000013,-0.0369727999999999,-0.0360907999999993,-0.0917993999999992,0.0089181999999999,0,sub_3
-0.0092284000000003,0.0122034000000013,-0.0379073999999999,-0.0445473999999993,-0.0620013999999992,0.0257359999999999,0,sub_3
-0.0186296000000003,0.0113646000000013,-0.0407841999999999,-0.0482847999999993,-0.0296511999999992,0.0395923999999999,0,sub_3
-0.0238790000000003,0.0072088000000013,-0.0407717999999999,-0.0449743999999993,-0.0068687999999992,0.0424007999999999,0,sub_3
-0.0173992000000003,0.0023954000000013,-0.0392085999999999,-0.0421337999999993,-0.0032213999999992,0.0356163999999999,0,sub_3
-0.0081278000000003,-0.0045265999999986,-0.0383823999999999,-0.0444659999999993,-0.0129705999999992,0.0268901999999999,0,sub_3
0.0033123999999996,-0.0082123999999986,-0.0358019999999999,-0.0474905999999993,-0.0318793999999992,0.0162109999999999,0,sub_3
0.0122077999999996,-0.0055593999999987,-0.0311001999999999,-0.0483623999999993,-0.0526881999999992,-0.0006464,0,sub_3
0.0161183999999996,0.0015180000000012,-0.0285061999999999,-0.0464363999999993,-0.0637241999999992,-0.01301,0,sub_3
0.0127227999999996,0.0053912000000012,-0.0287303999999999,-0.0368601999999993,-0.0590327999999992,-0.0174212,0,sub_3
0.0102023999999996,0.0087912000000012,-0.0289487999999999,-0.0157299999999993,-0.0456533999999992,-0.0200538,0,sub_3
0.0086419999999995,0.0094204000000012,-0.0298179999999999,0.0098780000000006,-0.0295333999999992,-0.0192402,0,sub_3
0.0134253999999995,0.0071618000000012,-0.0311453999999999,0.0311736000000006,-0.0164095999999992,-0.0114026000000001,0,sub_3
0.0209469999999995,0.0038600000000013,-0.0339245999999999,0.0426252000000006,-0.0075209999999992,-0.0014920000000001,0,sub_3
0.0244255999999995,0.0023162000000013,-0.0344201999999999,0.0471138000000006,0.0022314000000007,0.0066453999999998,0,sub_3
0.0256117999999996,-0.0004105999999986,-0.0344063999999999,0.0428770000000005,0.0156422000000007,0.0132215999999998,0,sub_3
0.0251713999999996,-0.0009461999999986,-0.0347039999999999,0.0317146000000006,0.0274858000000007,0.0169403999999998,0,sub_3
0.0244215999999996,-0.0005067999999987,-0.0350403999999999,0.0167038000000006,0.0348798000000007,0.0178605999999998,0,sub_3
0.0211033999999996,-0.0006663999999987,-0.0337483999999999,0.0036048000000006,0.0382276000000007,0.0166629999999999,0,sub_3
0.0179917999999996,0.0006986000000012,-0.0325537999999999,-0.0075911999999993,0.0366728000000007,0.0144165999999999,0,sub_3
0.0143775999999996,0.0040778000000012,-0.0316057999999999,-0.0141015999999993,0.0321232000000007,0.0111387999999999,0,sub_3
0.0076207999999996,0.0053196000000012,-0.0305053999999999,-0.0149407999999993,0.0317146000000007,0.0075013999999999,0,sub_3
0.0015583999999996,0.0039926000000013,-0.0304069999999999,-0.0108445999999993,0.0370430000000007,0.0034639999999999,0,sub_3
0.0014679999999996,0.0013802000000013,-0.0308785999999999,-0.0035371999999993,0.0398232000000007,-0.0054616,0,sub_3
0.0061929999999996,0.0005778000000013,-0.0305809999999999,0.0033022000000006,0.0345046000000007,-0.0133118,0,sub_3
0.0104793999999996,0.0008024000000013,-0.0321107999999999,0.0068242000000006,0.0217914000000008,-0.0177118,0,sub_3
0.0145711999999996,0.0014746000000013,-0.0331017999999999,0.0103462000000006,0.0082292000000007,-0.022965,0,sub_3
0.0168397999999996,0.0032270000000012,-0.0314753999999999,0.0147418000000006,0.0006238000000007,-0.0267244,0,sub_3
0.0169359999999996,0.0072268000000012,-0.0299253999999999,0.0178590000000006,0.0025736000000007,-0.0213184,0,sub_3
0.0140943999999996,0.0074452000000012,-0.0298933999999999,0.0218614000000006,0.0143096000000007,-0.0131412,0,sub_3
0.0124789999999995,0.0053462000000012,-0.0295957999999999,0.0261566000000006,0.0291734000000007,-0.0043708,0,sub_3
0.0132481999999996,0.0032540000000012,-0.0301889999999999,0.0272312000000006,0.0397866000000007,0.0045959999999999,0,sub_3
0.0162865999999996,0.0029978000000013,-0.0319109999999999,0.0242228000000006,0.0426196000000007,0.0114681999999999,0,sub_3
0.0169581999999996,0.0006896000000013,-0.0329447999999999,0.0173652000000006,0.0395168000000007,0.0142619999999998,0,sub_3
0.0155973999999996,-0.0003139999999986,-0.0343199999999999,0.0079470000000006,0.0330278000000007,0.0136237999999998,0,sub_3
0.0135827999999996,0.0006690000000013,-0.0337553999999999,-0.0008147999999993,0.0276120000000007,0.0104251999999998,0,sub_3
0.0112453999999996,0.0018568000000013,-0.0322989999999999,-0.0059367999999993,0.0241044000000007,0.0063949999999998,0,sub_3
0.0076247999999996,0.0014412000000013,-0.0308603999999999,-0.0082923999999993,0.0194364000000007,0.0036071999999998,0,sub_3
0.0051723999999996,0.0026518000000013,-0.0302301999999999,-0.0065959999999993,0.0151770000000007,0.0017017999999999,0,sub_3
0.0041781999999996,0.0043294000000013,-0.0294913999999999,-0.0021237999999993,0.0119706000000007,0.0004551999999999,0,sub_3
0.0033807999999996,0.0049110000000013,-0.0290181999999999,0.0035018000000006,0.0097476000000007,-0.0014072,0,sub_3
0.0038855999999996,0.0044758000000013,-0.0284303999999999,0.0072158000000006,0.0086000000000007,-0.004139,0,sub_3
0.0055405999999996,0.0039418000000012,-0.0280469999999999,0.0088008000000006,0.0078886000000007,-0.0075272,0,sub_3
0.0071399999999996,0.0041900000000012,-0.0280663999999999,0.0069632000000006,0.0050594000000007,-0.0111502,0,sub_3
0.0077147999999996,0.0036592000000012,-0.0274843999999999,0.0027670000000006,0.0007428000000007,-0.0137194,0,sub_3
0.0084531999999996,0.0034446000000012,-0.0277265999999999,-0.0017193999999993,-0.0024295999999992,-0.0156696,0,sub_3
0.0089961999999996,0.0038682000000012,-0.0276863999999999,-0.0042761999999993,-0.0034781999999992,-0.0176088,0,sub_3
0.0094375999999996,0.0045448000000013,-0.0278121999999999,-0.0057649999999993,-0.0028319999999992,-0.0180474,0,sub_3
0.0095747999999996,0.0045034000000013,-0.0274065999999999,-0.0053243999999993,-0.0010427999999992,-0.016546,0,sub_3
0.0101439999999996,0.0049616000000013,-0.0274073999999999,-0.0038167999999993,0.0011670000000007,-0.0146104,0,sub_3
0.0110011999999996,0.0052312000000013,-0.0275303999999999,-0.0016779999999993,0.0014570000000007,-0.0126678,0,sub_3
0.0115091999999996,0.0046142000000013,-0.0280293999999999,2.460000000061892e-05,-0.0001697999999992,-0.0105124,0,sub_3
0.0107387999999996,0.0033380000000013,-0.0287657999999999,0.0012928000000006,-0.0039239999999992,-0.0087844,0,sub_3
0.0104547999999996,0.0024232000000013,-0.0295111999999999,0.0008374000000006,-0.0092531999999992,-0.0077126,0,sub_3
0.0105595999999996,0.0013248000000013,-0.0299573999999999,-4.879999999938111e-05,-0.0158573999999992,-0.0070694,0,sub_3
0.0101813999999996,-9.2599999998692e-05,-0.0310283999999999,-0.0013519999999993,-0.0205417999999992,-0.0066452,0,sub_3
0.0100433999999996,-0.0008715999999986,-0.0320629999999999,-0.0043601999999993,-0.0256427999999992,-0.0070868,0,sub_3
0.0111535999999996,-0.0003791999999986,-0.0319909999999999,-0.0075599999999993,-0.0305211999999992,-0.009021,0,sub_3
0.0114881999999996,-9.7199999998692e-05,-0.0329565999999999,-0.0107491999999993,-0.0339047999999992,-0.0118116,0,sub_3
0.0108943999999996,0.0005186000000013,-0.0345493999999999,-0.0147869999999993,-0.0364323999999992,-0.014823,0,sub_3
0.0106645999999996,0.0020632000000013,-0.0349437999999999,-0.0192515999999993,-0.0391707999999992,-0.0180508,0,sub_3
0.0103105999999996,0.0035350000000013,-0.0352593999999999,-0.0230789999999993,-0.0406407999999992,-0.019353,0,sub_3
0.0097715999999996,0.0045060000000013,-0.0363335999999999,-0.0254337999999993,-0.0417003999999992,-0.0187272,0,sub_3
0.0082239999999996,0.0054212000000013,-0.0364893999999999,-0.0254481999999993,-0.0427741999999991,-0.0165894,0,sub_3
0.0080597999999996,0.0058890000000012,-0.0360645999999999,-0.0227105999999993,-0.0419973999999991,-0.013355,0,sub_3
0.0081647999999996,0.0056850000000012,-0.0361725999999999,-0.0184813999999993,-0.0408029999999992,-0.0092562,0,sub_3
0.0088565999999996,0.0054592000000012,-0.0360815999999999,-0.0138243999999993,-0.0387605999999992,-0.0045144,0,sub_3
0.0083183999999996,0.0045314000000012,-0.0367027999999999,-0.0117229999999993,-0.0373415999999992,-0.001499,0,sub_3
0.0099221999999996,0.0040164000000012,-0.0369465999999999,-0.0115381999999993,-0.0365489999999992,8.199999999933868e-06,0,sub_3
0.0102459999999996,0.0033610000000013,-0.0370333999999999,-0.0132461999999993,-0.0363315999999992,0.0004233999999999,0,sub_3
0.0102335999999996,0.0037858000000013,-0.0370717999999999,-0.0158055999999993,-0.0363217999999991,0.0001919999999999,0,sub_3
0.0098131999999996,0.0042106000000013,-0.0373525999999999,-0.0177191999999993,-0.0363089999999992,-0.001317,0,sub_3
0.0098895999999996,0.0050448000000013,-0.0366571999999999,-0.0162179999999993,-0.0337609999999991,-0.0004552000000001,0,sub_3
0.0100285999999996,0.0048436000000013,-0.0358967999999999,-0.0132525999999993,-0.0317273999999992,0.0021293999999998,0,sub_3
0.0103491999999996,0.0052686000000013,-0.0356669999999999,-0.0088059999999993,-0.0305589999999992,0.0066481999999998,0,sub_3
0.0110121999999996,0.0048850000000013,-0.0349775999999999,-0.0045767999999993,-0.0287563999999992,0.0126601999999998,0,sub_3
0.0115371999999996,0.0041666000000013,-0.0338587999999999,-0.0016325999999993,-0.0282269999999992,0.0184511999999998,0,sub_3
0.0128641999999996,0.0035726000000013,-0.0338463999999999,-0.0001665999999993,-0.0261931999999992,0.0223071999999999,0,sub_3
0.0144473999999996,0.0021612000000013,-0.0337803999999999,0.0002630000000006,-0.0225845999999992,0.0252965999999999,0,sub_3
0.0164131999999996,0.0009094000000013,-0.0336365999999999,-0.0012383999999993,-0.0219495999999992,0.0276353999999999,0,sub_3
0.0188625999999996,-0.0005381999999986,-0.0330165999999999,-0.0048981999999993,-0.0270587999999992,0.0297527999999999,0,sub_3
