userAcceleration.x,userAcceleration.y,userAcceleration.z,rotationRate.x,rotationRate.y,rotationRate.z,label,subject
-0.0061460000000001,0.0018646000000012,0.0229503999999999,0.0370808000000004,-0.4175551999999993,-0.0004666,0,sub_12
-0.0127326000000002,0.0002940000000012,0.0233326,0.0322860000000004,-0.4369385999999993,0.0025157999999999,0,sub_12
-0.0168950000000001,-0.0003581999999987,0.021581,0.0290010000000004,-0.4556759999999993,0.0025167999999999,0,sub_12
-0.0196702000000002,-0.0002295999999987,0.0193489999999999,0.0272796000000004,-0.4607755999999993,0.0005883999999999,0,sub_12
-0.0208508000000002,0.0003544000000012,0.0186418,0.0286000000000004,-0.4554391999999992,-0.0030412,0,sub_12
-0.0194150000000002,0.0009742000000012,0.0185162,0.0335690000000004,-0.4458527999999993,-0.007078,0,sub_12
-0.0167868000000002,0.0008056000000012,0.0188605999999999,0.0398036000000004,-0.4388299999999994,-0.0104618,0,sub_12
-0.0177348000000002,0.0005222000000012,0.0190804,0.0432530000000004,-0.4341419999999993,-0.0136484,0,sub_12
-0.0197790000000002,0.0007776000000012,0.0184729999999999,0.0447600000000004,-0.4339229999999993,-0.0164154,0,sub_12
-0.0208146000000002,0.0001068000000012,0.0171273999999999,0.0443572000000005,-0.4330513999999993,-0.0209058,0,sub_12
-0.0210194000000002,-0.0014749999999987,0.0161299999999999,0.0465360000000004,-0.4272893999999994,-0.0251708,0,sub_12
-0.0210562000000002,-0.0017539999999987,0.0168117999999999,0.0463956000000004,-0.4142795999999993,-0.028393,0,sub_12
-0.0202584000000001,-0.0016593999999987,0.0169141999999999,0.0462512000000004,-0.4004243999999993,-0.0299072,0,sub_12
-0.0203990000000002,-0.0022979999999987,0.0166488,0.0467298000000004,-0.3897699999999994,-0.0307722,0,sub_12
-0.0210108000000001,-0.0026611999999987,0.016769,0.0497670000000004,-0.3787017999999993,-0.0307652,0,sub_12
-0.0225930000000002,-0.0025035999999987,0.0161718,0.0500676000000004,-0.3591025999999994,-0.0305746,0,sub_12
-0.0239944000000002,-0.0028431999999987,0.0159349999999999,0.0514552000000004,-0.3356695999999993,-0.0310224,0,sub_12
-0.0228648000000002,-0.0035489999999987,0.0162636,0.0545364000000005,-0.3137397999999993,-0.0299608,0,sub_12
-0.0204704000000002,-0.0049437999999987,0.0178274,0.0552590000000004,-0.2932973999999994,-0.0278454,0,sub_12
-0.0180458000000002,-0.0055867999999987,0.0202766,0.0510654000000004,-0.2745431999999993,-0.0255486,0,sub_12
-0.0157248000000002,-0.0066985999999987,0.0233644,0.0406860000000004,-0.2561899999999993,-0.0241492,0,sub_12
-0.0142376000000002,-0.0083749999999987,0.0252105999999999,0.0321654000000004,-0.2502057999999993,-0.021439,0,sub_12
-0.0120534000000002,-0.0078777999999987,0.0261483999999999,0.0210508000000004,-0.2535793999999994,-0.0206578,0,sub_12
-0.0109586000000001,-0.0069193999999987,0.0256315999999999,0.0088636000000004,-0.2567419999999993,-0.0183888,0,sub_12
-0.0099868000000002,-0.0057847999999987,0.0249657999999999,-0.0009497999999995,-0.2526739999999993,-0.0148306,0,sub_12
-0.0110008000000002,-0.0051085999999987,0.0242901999999999,-0.0024625999999995,-0.2520491999999993,-0.009928,0,sub_12
-0.0117310000000002,-0.0034171999999987,0.0242245999999999,-0.0047999999999995,-0.2463029999999993,-0.0063196,0,sub_12
-0.0142218000000002,-0.0035867999999987,0.0248667999999999,-0.0051691999999995,-0.2301229999999993,-0.0029246,0,sub_12
-0.0173028000000002,-0.0038605999999987,0.0258863999999999,-0.0035959999999995,-0.2105351999999993,-0.001016,0,sub_12
-0.0201930000000002,-0.0043827999999987,0.0267523999999999,-0.0035105999999995,-0.1911491999999993,-0.000613,0,sub_12
-0.0230324000000002,-0.0051581999999987,0.0272051999999999,-0.0057483999999995,-0.1666407999999993,-0.0004464,0,sub_12
-0.0249826000000002,-0.0051529999999987,0.0272741999999999,-0.0069029999999994,-0.1385141999999993,-0.000277,0,sub_12
-0.0266704000000002,-0.0041043999999987,0.0260675999999999,-0.0073963999999995,-0.1050661999999993,0.0005313999999999,0,sub_12
-0.0277782000000002,-0.0029719999999987,0.0245771999999999,-0.0063645999999995,-0.0645923999999993,0.0013413999999999,0,sub_12
-0.0290614000000002,-0.0027119999999987,0.0219263999999999,-0.0021063999999995,-0.0258759999999993,0.0028049999999999,0,sub_12
-0.0282356000000001,-0.0005343999999987,0.0192263999999999,0.0027842000000004,0.0107092000000006,0.0038483999999999,0,sub_12
-0.0266984000000001,-0.0001823999999987,0.0170524,0.0066126000000004,0.0492124000000006,0.0057365999999999,0,sub_12
-0.0252700000000001,-0.0003555999999987,0.0155174,0.0106306000000004,0.0826006000000006,0.0078461999999999,0,sub_12
-0.0237320000000001,-0.0002585999999987,0.014853,0.0146208000000004,0.1098102000000006,0.0099633999999999,0,sub_12
-0.0228150000000001,-7.139999999876763e-05,0.0146144,0.0192206000000004,0.1387594000000006,0.0125221999999999,0,sub_12
-0.0215658000000002,-7.179999999876764e-05,0.0154319999999999,0.0229678000000004,0.1679248000000006,0.0150745999999999,0,sub_12
-0.0211016000000002,9.700000000123234e-05,0.0158734,0.0262788000000004,0.1945366000000006,0.0171999999999999,0,sub_12
-0.0205186000000002,-0.0002915999999987,0.0174339999999999,0.0276818000000004,0.2237128000000006,0.0190951999999999,0,sub_12
-0.0205154000000002,-0.0011667999999987,0.0184364,0.0284522000000004,0.2548078000000006,0.0211971999999999,0,sub_12
-0.0198648000000002,-0.0015585999999987,0.0198455999999999,0.0296264000000004,0.2799392000000006,0.0224549999999999,0,sub_12
-0.0202672000000002,-0.0018615999999987,0.0206575999999999,0.0314282000000004,0.3012376000000006,0.0226539999999999,0,sub_12
-0.0223820000000002,-0.0025953999999987,0.0213633999999999,0.0334702000000004,0.3280764000000006,0.0224201999999998,0,sub_12
-0.0243144000000002,-0.0037963999999987,0.0230265999999999,0.0368174000000004,0.3593890000000006,0.0211215999999999,0,sub_12
-0.0244662000000002,-0.0047971999999987,0.0253491999999999,0.0393046000000004,0.3879402000000006,0.0185387999999999,0,sub_12
-0.0244968000000002,-0.0054073999999987,0.0262891999999999,0.0362266000000004,0.4124636000000006,0.0157083999999999,0,sub_12
-0.0246662000000002,-0.0067081999999987,0.0269594,0.0312074000000004,0.4331554000000006,0.0137239999999999,0,sub_12
-0.0228644000000002,-0.0069087999999987,0.0276768,0.0267678000000004,0.4397860000000005,0.0111207999999999,0,sub_12
-0.0200652000000002,-0.0054067999999987,0.0268802,0.0239738000000004,0.4323508000000006,0.0081197999999999,0,sub_12
-0.0185274000000001,-0.0040281999999987,0.0262418,0.0228724000000004,0.4221382000000006,0.0055613999999999,0,sub_12
-0.0176882000000001,-0.0032331999999987,0.0269074,0.0264922000000004,0.4193602000000005,0.0045221999999999,0,sub_12
-0.0160620000000001,-0.0021251999999987,0.0279551999999999,0.0299166000000004,0.4191454000000006,0.0019827999999999,0,sub_12
-0.0153286000000001,-0.0015319999999987,0.0302752,0.0305818000000004,0.4242580000000006,0.0015535999999999,0,sub_12
-0.0158990000000001,-0.0025433999999987,0.0330968,0.0282712000000004,0.4332110000000005,0.0023805999999999,0,sub_12
-0.0160818000000002,-0.0029809999999987,0.0352385999999999,0.0233894000000004,0.4377072000000006,0.0010587999999999,0,sub_12
-0.0150748000000002,-0.0036019999999987,0.0365708,0.0155022000000004,0.4364684000000006,-0.0019858,0,sub_12
-0.0147798000000002,-0.0048169999999987,0.0380293999999999,0.0046414000000004,0.4418302000000006,-0.0014276,0,sub_12
-0.0130546000000002,-0.0045481999999987,0.0362285999999999,-0.0055583999999995,0.4506038000000006,-0.002151,0,sub_12
-0.0107014000000002,-0.0036081999999987,0.0341543999999999,-0.0151103999999995,0.4587454000000006,-0.0052192,0,sub_12
-0.0093098000000002,-0.0027345999999987,0.0320407999999999,-0.0246611999999995,0.4700708000000007,-0.0053004,0,sub_12
-0.0077634000000002,-0.0028649999999987,0.0298003999999999,-0.0337939999999995,0.4801138000000006,-0.0047362,0,sub_12
-0.0062276000000001,-0.0009335999999987,0.0259039999999999,-0.0378395999999995,0.4799234000000006,-0.0069008,0,sub_12
-0.0042410000000001,0.0004972000000012,0.0220963999999999,-0.0387313999999995,0.4660992000000006,-0.0122304,0,sub_12
-0.0040648000000001,0.0015988000000012,0.0187853999999999,-0.0372951999999995,0.4505522000000006,-0.0149778,0,sub_12
-0.0036636000000001,0.0010618000000012,0.0155585999999999,-0.0317935999999995,0.4375478000000006,-0.0177,0,sub_12
-0.0043776000000002,0.0020236000000012,0.0135902,-0.0228615999999995,0.4266678000000006,-0.0218964,0,sub_12
-0.0040710000000002,0.0018432000000012,0.0122726,-0.0139323999999995,0.4143000000000006,-0.0269456,0,sub_12
-0.0045838000000001,0.0009278000000012,0.0120126,-0.0073513999999995,0.4049102000000006,-0.0288104,0,sub_12
-0.0020766000000001,0.0009148000000012,0.0115751999999999,-0.0050435999999995,0.3951058000000006,-0.02985,0,sub_12
0.0020059999999998,0.0022816000000012,0.0104693999999999,-0.0076405999999995,0.3870186000000006,-0.0298578,0,sub_12
0.0060729999999998,0.0028464000000012,0.0086769999999999,-0.0125989999999995,0.3793512000000006,-0.0262508,0,sub_12
0.0086647999999998,0.0028494000000011,0.0068875999999999,-0.0209877999999995,0.3718936000000006,-0.0188222,0,sub_12
0.0105871999999997,0.0033326000000011,0.0062003999999999,-0.0312929999999994,0.3667804000000006,-0.0099146,0,sub_12
0.0102663999999997,0.0038294000000011,0.0034147999999999,-0.0401151999999994,0.3588940000000006,-0.0014204,0,sub_12
0.0083007999999997,0.0035962000000011,0.0008606,-0.0462007999999994,0.3416278000000006,0.0060367999999999,0,sub_12
0.0068703999999997,0.0040190000000011,-0.0013932,-0.0497297999999994,0.3201052000000006,0.0100989999999998,0,sub_12
0.0064567999999997,0.0052108000000012,-0.0035108,-0.0494045999999994,0.2987932000000006,0.0114103999999998,0,sub_12
0.0065889999999997,0.0059156000000012,-0.0051726,-0.0469447999999994,0.2753526000000006,0.0103893999999999,0,sub_12
0.0081365999999997,0.0058394000000012,-0.0053162,-0.0423233999999994,0.2578708000000006,0.0091621999999999,0,sub_12
0.0082179999999997,0.0059206000000012,-0.005299,-0.0370503999999994,0.2427314000000006,0.0077227999999999,0,sub_12
0.0080895999999997,0.0058106000000012,-0.006254,-0.0328587999999994,0.2254610000000005,0.0073469999999999,0,sub_12
0.0080549999999997,0.0056484000000012,-0.0071988,-0.0301923999999994,0.2007406000000005,0.0065427999999999,0,sub_12
0.0067553999999997,0.0051948000000012,-0.007519,-0.0268281999999994,0.1793742000000006,0.0072309999999999,0,sub_12
0.0049877999999997,0.0043942000000012,-0.0067075999999999,-0.0254169999999994,0.1505586000000006,0.0077015999999999,0,sub_12
0.0046819999999997,0.0039924000000012,-0.0071322,-0.0263509999999995,0.1217528000000006,0.0077283999999999,0,sub_12
0.0042801999999997,0.0036590000000012,-0.0070251999999999,-0.0258065999999995,0.0893208000000006,0.0075563999999999,0,sub_12
0.0020451999999997,0.0025458000000012,-0.0046681999999999,-0.0246019999999995,0.0624216000000006,0.0084501999999999,0,sub_12
0.0017661999999997,0.0016306000000012,-0.0017825999999999,-0.0227737999999994,0.0406888000000006,0.0072089999999999,0,sub_12
-0.0002420000000002,0.0011462000000012,0.0008324,-0.0207139999999994,0.0232152000000006,0.0061775999999999,0,sub_12
-0.0019216000000002,0.0005958000000012,0.004904,-0.0186579999999994,0.0040406000000006,0.0042937999999999,0,sub_12
-0.0034560000000002,0.0002102000000012,0.0094771999999999,-0.0195689999999994,-0.0104371999999993,0.0025969999999999,0,sub_12
-0.0033982000000002,4.360000000121199e-05,0.0114563999999999,-0.0204607999999994,-0.0200173999999993,0.0015347999999999,0,sub_12
-0.0053586000000002,0.0004908000000012,0.0101869999999999,-0.0207411999999995,-0.0334449999999993,0.0030455999999999,0,sub_12
-0.0066270000000002,0.0010396000000012,0.0087615999999999,-0.0195193999999995,-0.0455967999999993,0.0039241999999999,0,sub_12
-0.0075252000000002,0.0013318000000012,0.0075085999999999,-0.0152921999999995,-0.0534987999999993,0.0050319999999999,0,sub_12
-0.0084132000000002,0.0009224000000012,0.0064249999999999,-0.0095619999999995,-0.0601243999999993,0.0052939999999999,0,sub_12
-0.0085626000000002,0.0018852000000012,0.0069861999999999,-0.0042679999999995,-0.0699399999999993,0.0044889999999999,0,sub_12
-0.0072102000000002,0.0019370000000012,0.0085635999999999,0.0001686000000004,-0.0812415999999993,0.0030389999999999,0,sub_12
-0.0058628000000002,0.0017528000000012,0.0095455999999999,0.0033222000000004,-0.0919045999999993,0.0028609999999999,0,sub_12
-0.0066500000000002,0.0006672000000012,0.0109753999999999,0.0047708000000004,-0.1010745999999993,0.0037375999999999,0,sub_12
-0.0079128000000002,0.0004730000000012,0.0118255999999999,0.0051544000000004,-0.1098147999999993,0.0046061999999999,0,sub_12
-0.0096830000000002,-0.0009187999999987,0.0118819999999999,0.0061848000000004,-0.1174901999999993,0.0050505999999999,0,sub_12
-0.0123136000000002,-0.0017265999999987,0.0132322,0.0063714000000004,-0.1240929999999993,0.0044193999999999,0,sub_12
-0.0143346000000002,-0.0027197999999987,0.0158812,0.0065560000000004,-0.1330317999999993,0.0018683999999999,0,sub_12
-0.0142564000000001,-0.0024505999999987,0.0181157999999999,0.0056642000000004,-0.1447339999999993,-0.0013276,0,sub_12
-0.0135004000000001,-0.0026715999999987,0.0208787999999999,0.0041410000000004,-0.1528187999999993,-0.0028234,0,sub_12
-0.0127400000000001,-0.0022213999999987,0.0224905999999999,0.0015566000000004,-0.1574993999999993,-0.0021946,0,sub_12
-0.0116912000000001,-0.0019587999999987,0.0227973999999999,-0.0003857999999995,-0.1602707999999993,-6.820000000007861e-05,0,sub_12
-0.0132242000000002,-0.0008607999999987,0.0220295999999999,-0.0010391999999995,-0.1604925999999993,0.0027049999999999,0,sub_12
-0.0160028000000002,-0.0005711999999987,0.0220496,0.0004476000000004,-0.1585937999999993,0.0061311999999999,0,sub_12
-0.0196814000000002,-0.0003493999999987,0.0220552,0.0047226000000004,-0.1558431999999993,0.0072257999999999,0,sub_12
-0.0227760000000002,-0.0010319999999987,0.0240556,0.0096590000000004,-0.1509541999999993,0.0057583999999999,0,sub_12
-0.0252812000000001,-0.0018859999999987,0.0266032,0.0133256000000004,-0.1447781999999993,0.0032123999999999,0,sub_12
-0.0248736000000002,-0.0032567999999987,0.0284534,0.0155052000000004,-0.1362567999999993,0.0015075999999999,0,sub_12
-0.0239340000000002,-0.0043305999999987,0.030014,0.0157636000000004,-0.1277295999999993,2.999999999920948e-06,0,sub_12
-0.0228806000000002,-0.0049793999999987,0.031283,0.0130244000000004,-0.1200499999999993,-2.6000000000079e-05,0,sub_12
-0.0220866000000002,-0.0051419999999987,0.031355,0.0087780000000004,-0.1147113999999993,0.0005785999999999,0,sub_12
-0.0210926000000002,-0.0052081999999987,0.0309044,0.0051670000000004,-0.1102279999999993,0.0014021999999999,0,sub_12
-0.0212596000000002,-0.0042555999999987,0.03014,0.0032554000000004,-0.1089403999999993,0.0007461999999999,0,sub_12
-0.0217450000000001,-0.0024959999999987,0.0271146,0.0049520000000004,-0.1138363999999993,-0.0017994,0,sub_12
-0.0212658000000002,-0.0031045999999987,0.0290066,0.0060542000000004,-0.1074425999999993,-0.0032954,0,sub_12
-0.0207710000000001,-0.0019971999999987,0.0290336,0.0067250000000004,-0.0999905999999993,-0.0026594,0,sub_12
-0.0210528000000001,-0.0011061999999987,0.0290716,0.0067518000000004,-0.0933885999999993,-0.0020268,0,sub_12
-0.0213006000000001,-0.0019637999999987,0.0301863999999999,0.0055194000000004,-0.0814581999999993,-0.0007688,0,sub_12
-0.0210384000000002,-0.0030147999999987,0.0324537999999999,0.0006856000000004,-0.0620649999999993,0.0021635999999999,0,sub_12
-0.0212682000000002,-0.0020587999999987,0.0296645999999999,-0.0016393999999995,-0.0560955999999993,0.0032077999999998,0,sub_12
-0.0221586000000002,-0.0028015999999987,0.0289181999999999,-0.0024573999999995,-0.0496949999999993,0.0016983999999999,0,sub_12
-0.0229884000000002,-0.0039343999999987,0.0284515999999999,-0.0039087999999994,-0.0422251999999993,-0.000244,0,sub_12
-0.0212288000000002,-0.0039437999999987,0.0272263999999999,-0.0060175999999994,-0.0392247999999993,-0.0028264,0,sub_12
-0.0185500000000002,-0.0034761999999987,0.0257027999999999,-0.0089827999999994,-0.0374971999999993,-0.006054,0,sub_12
-0.0160522000000002,-0.0025893999999987,0.0237872,-0.0145093999999994,-0.0342759999999993,-0.0075922,0,sub_12
-0.0141572000000002,-0.0007601999999987,0.0205368,-0.0206895999999994,-0.0333987999999993,-0.0084912,0,sub_12
-0.0110886000000001,0.0016484000000012,0.0156266,-0.0242727999999995,-0.0344915999999993,-0.0091604,0,sub_12
-0.0104846000000002,0.0034874000000012,0.0099072,-0.0253041999999995,-0.0364497999999993,-0.0087422,0,sub_12
-0.0103786000000001,0.0049076000000012,0.0040634,-0.0216413999999995,-0.0377877999999993,-0.007651,0,sub_12
-0.0110292000000001,0.0056852000000012,0.0002248,-0.0136977999999995,-0.0365823999999993,-0.0069606,0,sub_12
-0.0107164000000001,0.0052178000000012,-0.0012053999999999,-0.0038299999999995,-0.0341069999999993,-0.005831,0,sub_12
-0.0115754000000001,0.0038304000000012,0.0007442,0.0051364000000004,-0.0317997999999993,-0.0044894,0,sub_12
-0.0115888000000001,0.0019686000000012,0.0052454,0.0121900000000004,-0.0277815999999993,-0.0031634,0,sub_12
-0.0116472000000001,-0.0001077999999987,0.0115991999999999,0.0147666000000004,-0.0231077999999993,-0.0020832,0,sub_12
-0.0113432000000001,-0.0019021999999987,0.0162235999999999,0.0132710000000004,-0.0216189999999993,-0.0001728,0,sub_12
-0.0114424000000001,-0.0031043999999987,0.0204433999999999,0.0094322000000004,-0.0199063999999993,0.0010799999999999,0,sub_12
-0.0115826000000001,-0.0034975999999987,0.0228855999999999,0.0051742000000004,-0.0160633999999993,0.0027545999999999,0,sub_12
-0.0127862000000001,-0.0027877999999987,0.0229098,0.0006974000000004,-0.0143467999999993,0.0035755999999999,0,sub_12
-0.0142878000000001,-0.0016013999999987,0.0216431999999999,-0.0018601999999995,-0.0134863999999993,0.0037701999999999,0,sub_12
-0.0150884000000002,-0.0006511999999987,0.0213065999999999,-0.0016313999999995,-0.0109269999999993,0.0029139999999999,0,sub_12
-0.0147546000000002,-0.0005367999999987,0.0212185999999999,0.0013682000000004,-0.0088041999999993,0.0022913999999998,0,sub_12
-0.0149828000000002,-0.0010345999999987,0.0231727999999999,0.0052204000000004,-0.0073219999999993,0.0012479999999999,0,sub_12
-0.0144334000000002,-0.0024111999999987,0.0271537999999999,0.0082248000000004,-0.0041339999999993,0.0006239999999999,0,sub_12
-0.0144232000000002,-0.0045813999999987,0.0311875999999999,0.0090928000000004,-0.0011533999999993,0.0004125999999998,0,sub_12
-0.0144170000000002,-0.0056315999999987,0.0331779999999999,0.0063440000000004,0.0009992000000006,0.0003883999999998,0,sub_12
-0.0153764000000002,-0.0061227999999987,0.0338657999999999,0.0006138000000004,0.0040162000000006,-8.500000000009914e-05,0,sub_12
-0.0155328000000002,-0.0057325999999987,0.031884,-0.0066061999999994,0.0072540000000006,-0.00121,0,sub_12
-0.0147818000000002,-0.0041219999999987,0.0272717999999999,-0.0134109999999994,0.0085702000000006,-0.0016888,0,sub_12
-0.0139084000000001,-0.0022645999999987,0.0217472,-0.0174467999999994,0.0085994000000006,-0.0023602,0,sub_12
-0.0131460000000002,-0.0005021999999987,0.017078,-0.0176543999999994,0.0083930000000006,-0.003857,0,sub_12
-0.0129960000000001,0.0011166000000012,0.013833,-0.0155197999999994,0.0079620000000006,-0.0044826,0,sub_12
-0.0126644000000001,0.0025774000000012,0.01137,-0.0114685999999995,0.0079452000000006,-0.0038134,0,sub_12
-0.0130810000000001,0.0026822000000012,0.0116334,-0.0061161999999995,0.0128234000000006,-0.0029276,0,sub_12
-0.0140132000000001,0.0021298000000012,0.013434,-0.0016057999999995,0.0202612000000006,-0.002051,0,sub_12
-0.0146408000000001,0.0006354000000012,0.0161733999999999,0.0007652000000004,0.0272770000000006,-0.0003342,0,sub_12
-0.0142514000000001,-0.0009127999999987,0.0181401999999999,0.0014216000000004,0.0321698000000006,0.0009459999999998,0,sub_12
-0.0140008000000001,-0.0015375999999987,0.0199475999999999,0.0012216000000004,0.0351534000000006,0.0009407999999999,0,sub_12
-0.0135252000000001,-0.0019559999999987,0.0206165999999999,0.0008016000000004,0.0353730000000005,-0.0003444,0,sub_12
-0.0115716000000001,-0.0015327999999987,0.0216895999999999,-0.0009129999999995,0.0334622000000005,-0.0005676,0,sub_12
-0.0104046000000002,-0.0008973999999987,0.0219298,-0.0026333999999995,0.0304854000000005,-0.0005758,0,sub_12
-0.0109634000000002,-0.0002749999999987,0.0214328,-0.0035001999999994,0.0279300000000005,-0.0001512,0,sub_12
-0.0114610000000001,-0.0004217999999987,0.0204026,-0.0041507999999994,0.0260130000000005,0.0002739999999999,0,sub_12
-0.0120448000000001,-0.0002517999999987,0.0197982,-0.0041613999999994,0.0245184000000006,0.0011303999999999,0,sub_12
-0.0130556000000001,-0.0002907999999987,0.0183444,-0.0024581999999994,0.0234480000000006,0.0009299999999999,0,sub_12
-0.0136974000000001,-9.959999999876764e-05,0.0176856,0.0005290000000005,0.0228010000000006,0.0003107999999999,0,sub_12
-0.0127728000000002,0.0001350000000012,0.0172274,0.0026608000000005,0.0217308000000006,-0.000314,0,sub_12
-0.0125678000000002,0.0002336000000011,0.01689,0.0052146000000004,0.0206550000000006,0.0001325999999999,0,sub_12
-0.0127150000000001,-6.499999999878764e-05,0.0162286,0.0069092000000004,0.0183036000000006,0.0005747999999999,0,sub_12
-0.0132148000000001,-9.359999999878764e-05,0.0172572,0.0079626000000004,0.0159538000000006,0.0012261999999999,0,sub_12
-0.0140440000000002,-6.899999999876764e-05,0.0176474,0.0079530000000004,0.0142476000000006,0.0016555999999999,0,sub_12
-0.0154362000000002,-0.0003755999999987,0.0185679999999999,0.0087968000000004,0.0121142000000006,0.0016641999999999,0,sub_12
-0.0164960000000002,-0.0002891999999987,0.0191821999999999,0.0092196000000004,0.0104116000000006,0.0008147999999999,0,sub_12
-0.0165784000000002,-0.0001707999999987,0.0198851999999999,0.0096444000000004,0.0089230000000006,-0.0002486,0,sub_12
-0.0157796000000002,-0.0004003999999987,0.0193575999999999,0.0102816000000004,0.0074328000000006,-0.001097,0,sub_12
-0.0144870000000002,-0.0007391999999987,0.0193327999999999,0.0113418000000004,0.0055134000000006,-0.0015144,0,sub_12
-0.0120464000000002,-0.0007033999999987,0.0186652,0.0117552000000004,0.0023170000000006,-0.001721,0,sub_12
-0.0100474000000002,-0.0013231999999987,0.0188862,0.0115180000000004,-0.0027963999999993,-0.0015026,0,sub_12
-0.0101564000000002,-0.0013697999999987,0.01895,0.0108842000000004,-0.0077223999999993,-0.0015026,0,sub_12
-0.0109574000000002,-0.0015033999999987,0.0189231999999999,0.0089798000000004,-0.0107255999999993,-0.0017276,0,sub_12
-0.0128572000000001,-0.0017383999999987,0.0187633999999999,0.0049532000000004,-0.0109525999999993,-0.0017574,0,sub_12
-0.0144450000000001,-0.0021505999999987,0.0178575999999999,0.0009380000000004,-0.0086229999999993,-0.0017902,0,sub_12
-0.0161354000000001,-0.0012851999999987,0.0166367999999999,-0.0024273999999995,-0.0037405999999993,-0.0013944,0,sub_12
-0.0165070000000001,-0.0004659999999987,0.0150487999999999,-0.0043285999999995,0.0013760000000006,-0.0005596,0,sub_12
-0.0166132000000001,0.0004360000000012,0.0136548,-0.0045187999999995,0.0060666000000006,0.0005017999999999,0,sub_12
-0.0148610000000001,0.0010286000000012,0.0127549999999999,-0.0019391999999995,0.0094708000000006,0.0011567999999999,0,sub_12
-0.0140556000000002,0.0014942000000012,0.0129362,0.0010712000000004,0.0135136000000005,0.0016001999999999,0,sub_12
-0.0131122000000002,0.0003670000000012,0.014312,0.0030060000000004,0.0150062000000006,0.0013983999999999,0,sub_12
-0.0120700000000001,-0.0010163999999987,0.015894,0.0030090000000004,0.0139488000000006,0.0011865999999999,0,sub_12
-0.0113270000000002,-0.0016407999999987,0.0172891999999999,0.0019306000000004,0.0111838000000006,0.0009689999999999,0,sub_12
-0.0123788000000002,-0.0020713999999987,0.0179227999999999,-0.0002193999999994,0.0073572000000006,0.0007451999999999,0,sub_12
