userAcceleration.x,userAcceleration.y,userAcceleration.z,rotationRate.x,rotationRate.y,rotationRate.z,label,subject
0.0018437999999996,-0.0053599999999987,0.0054471999999999,0.0210724000000004,-0.0147801999999993,0.0334895999999999,0,sub_10
0.0018813999999995,-0.0023315999999987,0.0039657999999999,0.0044880000000004,-0.0158689999999993,0.0134757999999999,0,sub_10
0.0058171999999995,-0.0004733999999986,-0.0027766,-0.0114561999999995,-0.0165355999999993,-0.0061068,0,sub_10
0.0091015999999995,0.0036572000000013,-0.0110616,-0.0191249999999995,-0.0208795999999993,-0.019004,0,sub_10
0.0084087999999995,0.0065490000000013,-0.0171386,-0.0204527999999994,-0.0308169999999993,-0.0239448,0,sub_10
0.0054505999999995,0.0083574000000013,-0.0209212,-0.0160295999999994,-0.0406449999999993,-0.0209102,0,sub_10
0.0008397999999995,0.0075912000000013,-0.0225472,-0.0056145999999994,-0.0413539999999993,-0.0125044,0,sub_10
-0.0032560000000004,0.0064886000000013,-0.0217894,0.0048054000000005,-0.0341401999999993,-0.003693,0,sub_10
-0.0062264000000004,0.0054502000000013,-0.0197796,0.0092886000000005,-0.0215673999999993,0.0020791999999999,0,sub_10
-0.0044556000000004,0.0048618000000013,-0.0162214,0.0112264000000005,-0.0076987999999993,0.0056953999999999,0,sub_10
-0.0008884000000004,0.0042796000000013,-0.0119278,0.0122936000000005,0.0019134000000006,0.0088835999999999,0,sub_10
0.0034399999999995,0.0045048000000012,-0.0082956,0.0094932000000005,0.0051492000000006,0.0116257999999999,0,sub_10
0.0062567999999995,0.0031644000000012,-0.0057026,0.0024444000000005,0.0045304000000006,0.0126455999999999,0,sub_10
0.0080765999999995,0.0021302000000012,-0.0037328,-0.0039673999999994,-0.0001249999999993,0.0102565999999999,0,sub_10
0.0082603999999995,0.0025954000000012,-0.0040142,-0.0042093999999994,-0.0120329999999993,0.0047153999999999,0,sub_10
0.0062599999999995,0.0028270000000012,-0.006038,-0.0040167999999994,-0.0181499999999993,-0.003587,0,sub_10
0.0046349999999995,0.0030484000000012,-0.0072312,-0.0038107999999994,-0.0200111999999993,-0.010613,0,sub_10
0.0035345999999995,0.0042986000000012,-0.0079374,-0.0010559999999994,-0.0204061999999993,-0.0135637999999999,0,sub_10
0.0027503999999995,0.0038450000000013,-0.008682,0.0004100000000005,-0.0184699999999993,-0.0122536,0,sub_10
0.0015203999999995,0.0032826000000013,-0.0097116,-0.0017427999999994,-0.0120571999999993,-0.0084108,0,sub_10
3.619999999959055e-05,0.0032190000000012,-0.0105266,-0.0025973999999994,-0.0084477999999993,-0.0045758,0,sub_10
-0.0005938000000004,0.0034696000000012,-0.012229,-0.0019495999999994,-0.0048357999999993,-0.0026532,0,sub_10
-0.0001944000000004,0.0039038000000012,-0.0133582,-0.0029953999999994,-0.0003569999999993,-0.0028798,0,sub_10
0.0010199999999995,0.0050048000000012,-0.0128214,-0.0036153999999994,0.0022096000000006,-0.0048102,0,sub_10
0.0021995999999995,0.0052862000000012,-0.0109904,-0.0021279999999994,0.0003040000000006,-0.0073224,0,sub_10
0.0042949999999995,0.0050064000000012,-0.0091004,-0.0019333999999994,-0.0024567999999993,-0.0079198,0,sub_10
0.0040523999999995,0.0043816000000012,-0.008115,-0.0011035999999994,-0.0045875999999993,-0.0068044,0,sub_10
0.0029327999999995,0.0039910000000012,-0.0079388,0.0010104000000005,-0.0050219999999993,-0.0048278,0,sub_10
0.0018593999999995,0.0041518000000012,-0.0078686,0.0012194000000004,-0.0026773999999993,-0.0035088,0,sub_10
0.0026207999999995,0.0035402000000012,-0.008379,-0.0017525999999994,0.0018028000000006,-0.002467,0,sub_10
0.0024507999999995,0.0037006000000012,-0.008936,-0.0025983999999994,0.0028736000000006,-0.0031152,0,sub_10
0.0037805999999995,0.0048454000000012,-0.010842,-0.0020131999999995,-0.0015705999999993,-0.0046334,0,sub_10
0.0050577999999995,0.0059208000000012,-0.012466,-0.0007889999999995,-0.0062299999999993,-0.0061468,0,sub_10
0.0059797999999995,0.0062740000000012,-0.0133908,0.0010696000000004,-0.0094113999999993,-0.0048804,0,sub_10
0.0047645999999995,0.0065300000000012,-0.0130072,0.0052688000000004,-0.0132435999999993,-0.0027422,0,sub_10
0.0034739999999995,0.0056050000000012,-0.012219,0.0090420000000004,-0.0158003999999993,0.0004595999999999,0,sub_10
0.0014007999999995,0.0039134000000012,-0.0094978,0.0105318000000004,-0.0141113999999993,0.0030315999999999,0,sub_10
-0.0007678000000004,0.0026400000000012,-0.008231,0.0096870000000004,-0.0109177999999993,0.0043035999999999,0,sub_10
-0.0022406000000004,0.0028356000000013,-0.008856,0.0088538000000004,-0.0075017999999993,0.0032251999999999,0,sub_10
-0.0012198000000004,0.0031110000000013,-0.0093422,0.0067286000000004,-0.0016655999999993,0.0019087999999999,0,sub_10
0.0003901999999995,0.0045094000000013,-0.0097126,0.0035376000000005,0.0045996000000006,0.0007981999999999,0,sub_10
0.0020695999999995,0.0062258000000012,-0.0101436,0.0024554000000005,0.0059544000000006,0.0003495999999999,0,sub_10
0.0031799999999995,0.0073302000000012,-0.0096682,0.0041154000000005,0.0017542000000006,0.0014225999999999,0,sub_10
0.0022513999999995,0.0076102000000012,-0.0094168,0.0070546000000005,-0.0013903999999993,0.0037851999999999,0,sub_10
-0.0001940000000004,0.0078888000000012,-0.0099748,0.0110914000000005,-0.0024809999999994,0.0065921999999999,0,sub_10
-0.0035512000000004,0.0057960000000012,-0.0098736,0.0153656000000005,0.0002686000000006,0.0079003999999999,0,sub_10
-0.0060178000000004,0.0030866000000013,-0.0090254,0.0186006000000005,0.0070786000000006,0.0070595999999999,0,sub_10
-0.0080866000000004,0.0001830000000013,-0.0073668,0.0203632000000005,0.0162466000000006,0.0038555999999999,0,sub_10
-0.0060760000000004,-0.0019585999999986,-0.0060962,0.0197576000000005,0.0240010000000006,-1.800000000007837e-05,0,sub_10
-0.0037118000000004,-0.0024205999999986,-0.0055258,0.0155132000000005,0.0292114000000006,-0.0039138,0,sub_10
-0.0003008000000004,-0.0009363999999986,-0.0056714,0.0093208000000005,0.0286744000000006,-0.0073886,0,sub_10
0.0014205999999995,-0.0003039999999986,-0.0066056,0.0031216000000005,0.0249484000000006,-0.0125684,0,sub_10
0.0038305999999995,0.0013344000000013,-0.00941,-0.0026565999999994,0.0186694000000006,-0.019024,0,sub_10
0.0046217999999995,0.0031054000000013,-0.0112976,-0.0052207999999994,0.0118846000000006,-0.0250154,0,sub_10
0.0070035999999995,0.0053594000000013,-0.0135686,-0.0039413999999994,0.0095450000000006,-0.0271398,0,sub_10
0.0080767999999995,0.0067790000000013,-0.0146728,-0.0028841999999994,0.0125694000000006,-0.0234994,0,sub_10
0.0087179999999995,0.0081228000000012,-0.0141872,-0.0012173999999994,0.0140788000000006,-0.0145118,0,sub_10
0.0060807999999995,0.0073772000000012,-0.0125668,0.0027830000000005,0.0134462000000006,-0.0046506,0,sub_10
0.0027545999999995,0.0056382000000012,-0.0113418,0.0048784000000005,0.0132582000000006,0.0022057999999999,0,sub_10
-0.0008482000000004,0.0027888000000012,-0.0109952,0.0050870000000005,0.0154412000000006,0.0039183999999999,0,sub_10
-0.0021002000000004,0.0007824000000012,-0.009831,0.0061856000000005,0.0207706000000006,0.0022099999999999,0,sub_10
-0.0022240000000004,-0.0001665999999986,-0.0094242,0.0034692000000004,0.0305928000000006,-0.0008126,0,sub_10
0.0004383999999995,0.0001072000000013,-0.0078712,-0.0024667999999994,0.0363772000000006,-0.0036388,0,sub_10
0.0038347999999995,0.0011278000000013,-0.007254,-0.0077947999999994,0.0356012000000005,-0.0066534,0,sub_10
0.0070725999999995,0.0030720000000013,-0.0073304,-0.0125093999999994,0.0292818000000005,-0.0092292,0,sub_10
0.0091211999999995,0.0050320000000013,-0.009996,-0.0153123999999994,0.0210382000000005,-0.0117892,0,sub_10
0.0096489999999995,0.0064304000000013,-0.0117698,-0.0144907999999994,0.0129914000000005,-0.0134696,0,sub_10
0.0089917999999995,0.0067908000000013,-0.0139488,-0.0119421999999994,0.0106862000000005,-0.0138634,0,sub_10
0.0079705999999995,0.0070680000000013,-0.0152773999999999,-0.0085387999999994,0.0098160000000006,-0.012343,0,sub_10
0.0075513999999995,0.0059352000000012,-0.0150505999999999,-0.0040829999999994,0.0076562000000006,-0.0088908,0,sub_10
0.0066225999999995,0.0049804000000012,-0.0135792,-0.0002681999999995,0.0052856000000006,-0.0054428,0,sub_10
0.0067871999999995,0.0045234000000012,-0.0131296,0.0026912000000004,0.0018554000000006,-0.0026404,0,sub_10
0.0066907999999995,0.0049222000000012,-0.0114172,0.0032938000000004,-0.0015171999999993,-0.0011292,0,sub_10
0.0059695999999995,0.0048496000000012,-0.0104408,0.0026288000000004,-0.0031765999999993,-0.0006972,0,sub_10
0.0042767999999995,0.0050856000000013,-0.0100656,0.0017676000000004,-0.0031223999999993,-0.0024054,0,sub_10
0.0042599999999995,0.0052028000000013,-0.0111888,0.0019666000000004,-0.0045633999999993,-0.0041042,0,sub_10
0.0051127999999995,0.0051528000000013,-0.0107524,0.0025914000000005,-0.0055821999999993,-0.0051596,0,sub_10
0.0071813999999995,0.0051304000000012,-0.0116877999999999,0.0032278000000005,-0.0053757999999993,-0.0040872,0,sub_10
0.0074003999999995,0.0054966000000012,-0.0124156,0.0038506000000004,-0.0062421999999993,-0.0010908,0,sub_10
0.0075121999999995,0.0044586000000012,-0.0129678,0.0050678000000004,-0.0094445999999993,0.0014845999999999,0,sub_10
0.0065785999999995,0.0033304000000012,-0.0126314,0.0067204000000004,-0.0122163999999993,0.0025669999999999,0,sub_10
0.0050293999999995,0.0016620000000012,-0.0135326,0.0075270000000004,-0.0139173999999993,0.0030011999999999,0,sub_10
0.0041335999999995,0.0013438000000013,-0.012901,0.0076964000000004,-0.0149769999999993,0.0034299999999999,0,sub_10
0.0051997999999995,0.0008580000000013,-0.011372,0.0067904000000004,-0.0173135999999993,0.0044939999999999,0,sub_10
0.0040201999999995,0.0020992000000013,-0.011272,0.0046384000000004,-0.0194443999999993,0.0064045999999999,0,sub_10
0.0028019999999995,0.0033980000000013,-0.011457,0.0018434000000004,-0.0226363999999993,0.0078845999999999,0,sub_10
0.0021221999999995,0.0055514000000013,-0.0122312,0.0014090000000004,-0.0245515999999993,0.0076703999999999,0,sub_10
0.0014595999999996,0.0056772000000013,-0.0140222,0.0031190000000004,-0.0249793999999993,0.0066147999999999,0,sub_10
0.0012837999999996,0.0050556000000012,-0.0145368,0.0050210000000004,-0.0237349999999993,0.0055881999999999,0,sub_10
0.0022983999999995,0.0042780000000012,-0.0118806,0.0060618000000004,-0.0231309999999993,0.0056245999999999,0,sub_10
0.0025965999999995,0.0039314000000012,-0.0096634,0.0060242000000004,-0.0244433999999993,0.0062969999999999,0,sub_10
0.0022487999999995,0.0028660000000012,-0.0081688,0.0051160000000004,-0.0289509999999993,0.0076081999999999,0,sub_10
0.0017425999999995,0.0028380000000012,-0.0079312,0.0048564000000004,-0.0319677999999993,0.0084945999999999,0,sub_10
0.0008635999999995,0.0034330000000012,-0.0081924,0.0048546000000004,-0.0321817999999993,0.0087085999999999,0,sub_10
0.0009629999999995,0.0032908000000012,-0.0079842,0.0042194000000004,-0.0315385999999993,0.0082759999999999,0,sub_10
0.0009091999999995,0.0028274000000012,-0.0075136,0.0033718000000004,-0.0311059999999993,0.0074149999999999,0,sub_10
0.0016509999999995,0.0028440000000013,-0.008469,0.0016530000000004,-0.0322321999999993,0.0057261999999999,0,sub_10
0.0018233999999995,0.0031830000000013,-0.009884,-6.95999999994936e-05,-0.0342103999999993,0.0040383999999999,0,sub_10
0.0024857999999995,0.0038968000000013,-0.0120749999999999,0.0001416000000005,-0.0330003999999993,0.0025735999999999,0,sub_10
0.0024543999999995,0.0047210000000012,-0.0134065999999999,0.0018512000000005,-0.0288205999999993,0.0030383999999999,0,sub_10
0.0034329999999995,0.0047252000000012,-0.0131853999999999,0.0029150000000005,-0.0233703999999993,0.0060605999999999,0,sub_10
0.0025785999999995,0.0038960000000012,-0.0111227999999999,0.0026988000000005,-0.0193403999999993,0.0107539999999999,0,sub_10
0.0012977999999995,0.0026318000000013,-0.0089868,0.0005556000000005,-0.0174315999999993,0.0147959999999999,0,sub_10
-0.0007788000000004,0.0014252000000013,-0.0078832,-0.0015851999999994,-0.0170735999999993,0.0169535999999999,0,sub_10
-0.0012594000000004,0.0018322000000013,-0.009761,-0.0026339999999994,-0.0139385999999993,0.0163377999999999,0,sub_10
-0.0013004000000004,0.0024640000000013,-0.0113482,-0.0026103999999994,-0.0101655999999993,0.0150877999999999,0,sub_10
0.0008403999999995,0.0032790000000013,-0.011389,-0.0023693999999994,-0.0042677999999993,0.0151185999999999,0,sub_10
0.0015669999999995,0.0042814000000013,-0.0106922,-0.0021477999999994,-0.0015701999999993,0.0162213999999999,0,sub_10
0.0014741999999995,0.0041322000000013,-0.0109492,-0.0017315999999994,-0.0037029999999993,0.0164405999999999,0,sub_10
0.0016909999999995,0.0034444000000013,-0.0121686,-0.0017527999999994,-0.0088145999999993,0.0160197999999999,0,sub_10
0.0023685999999995,0.0036290000000013,-0.0149696,-0.0019661999999994,-0.0092383999999993,0.0155915999999999,0,sub_10
0.0016701999999995,0.0042006000000013,-0.0164058,-0.0015311999999994,-0.0050113999999993,0.0162573999999999,0,sub_10
0.0030489999999995,0.0037978000000013,-0.0154666,-0.0013199999999994,-0.0014295999999993,0.0186315999999999,0,sub_10
0.0049551999999995,0.0040890000000013,-0.0121226,-0.0032607999999994,-0.0006151999999993,0.0222761999999999,0,sub_10
0.0054165999999995,0.0039640000000013,-0.008156,-0.0084175999999994,-0.0029861999999993,0.0261159999999999,0,sub_10
0.0045815999999995,0.0034288000000013,-0.0048946,-0.0142259999999994,-0.0110943999999993,0.0267539999999999,0,sub_10
0.0030453999999995,0.0037398000000013,-0.0059724,-0.0189287999999994,-0.0161783999999994,0.0235229999999999,0,sub_10
0.0014605999999995,0.0038186000000013,-0.0073378,-0.0220881999999994,-0.0135841999999993,0.0168745999999999,0,sub_10
8.099999999959069e-05,0.0040520000000013,-0.0088496,-0.0245699999999994,-0.0028951999999993,0.0100069999999999,0,sub_10
-0.0013994000000004,0.0040730000000013,-0.0098884,-0.0234233999999994,0.0088430000000006,0.0040179999999999,0,sub_10
-0.0017118000000004,0.0042012000000013,-0.0107378,-0.0205931999999994,0.0197450000000006,-0.0008852,0,sub_10
0.0006165999999995,0.0040208000000013,-0.0099942,-0.0190769999999994,0.0261654000000006,-0.002801,0,sub_10
0.0026051999999995,0.0050080000000013,-0.0115896,-0.0190811999999994,0.0306574000000006,-0.0006656,0,sub_10
0.0044893999999995,0.0057170000000012,-0.0122386,-0.0188939999999994,0.0327948000000006,0.0040377999999999,0,sub_10
0.0051569999999995,0.0061268000000012,-0.0120018,-0.0185011999999994,0.0332270000000006,0.0087447999999999,0,sub_10
0.0048917999999995,0.0063744000000012,-0.011101,-0.0178897999999994,0.0306528000000006,0.0125979999999999,0,sub_10
0.0033101999999995,0.0056670000000012,-0.0111398,-0.0162143999999994,0.0240406000000006,0.0130455999999999,0,sub_10
0.0030949999999995,0.0050002000000012,-0.0114278,-0.0134717999999994,0.0181630000000006,0.0100693999999999,0,sub_10
0.0031857999999995,0.0045554000000013,-0.0129388,-0.0111377999999994,0.0144250000000006,0.0051649999999999,0,sub_10
0.0042459999999995,0.0046858000000013,-0.0137096,-0.0092313999999994,0.0109000000000006,0.0006845999999999,0,sub_10
0.0050929999999995,0.0047738000000013,-0.013753,-0.0073269999999994,0.0086464000000006,-0.0020884,0,sub_10
0.0059623999999995,0.0053364000000013,-0.0123784,-0.0069285999999994,0.0055382000000006,-0.0029482,0,sub_10
0.0047465999999995,0.0051858000000013,-0.0117608,-0.0069515999999994,0.0004250000000006,-0.0029418,0,sub_10
0.0037843999999995,0.0049978000000013,-0.0115266,-0.0056953999999994,-0.0046935999999993,-0.0027128,0,sub_10
0.0035963999999995,0.0045274000000013,-0.0124566,-0.0044353999999994,-0.0085355999999993,-0.0020582,0,sub_10
0.0041403999999995,0.0051902000000013,-0.013584,-0.0029693999999994,-0.0097247999999993,-0.000155,0,sub_10
0.0042355999999995,0.0055558000000013,-0.0146074,0.0014808000000005,-0.0107149999999993,0.0026233999999999,0,sub_10
0.0041989999999995,0.0053702000000013,-0.0135014,0.0067644000000004,-0.0157577999999993,0.0058401999999999,0,sub_10
0.0037767999999995,0.0047538000000012,-0.0124856,0.0109784000000004,-0.0220725999999993,0.0084099999999999,0,sub_10
0.0025331999999995,0.0040030000000012,-0.0115146,0.0132930000000004,-0.0256033999999993,0.0090401999999999,0,sub_10
0.0010837999999995,0.0030060000000012,-0.0095412,0.0133044000000004,-0.0238955999999993,0.0081833999999999,0,sub_10
-0.0003382000000004,0.0029102000000012,-0.007296,0.0111976000000004,-0.0200445999999993,0.0060273999999999,0,sub_10
4.819999999959067e-05,0.0022448000000012,-0.0050688,0.0065370000000005,-0.0146933999999993,0.0038513999999999,0,sub_10
0.0003383999999995,0.0016420000000012,-0.0031964,0.0005856000000005,-0.0123177999999993,0.0010293999999999,0,sub_10
0.0019637999999995,0.0020618000000012,-0.0055204,-0.0053691999999994,-0.0119827999999993,-0.003773,0,sub_10
0.0044473999999995,0.0023390000000013,-0.0095838,-0.0117603999999994,-0.0161111999999993,-0.0109228,0,sub_10
0.0078251999999995,0.0031452000000013,-0.0143232,-0.0183591999999994,-0.0176873999999993,-0.0167954,0,sub_10
0.0100601999999995,0.0056398000000013,-0.017064,-0.0219735999999994,-0.0175787999999993,-0.0202992,0,sub_10
0.0102677999999995,0.0085718000000013,-0.0181282,-0.0228391999999994,-0.0196239999999993,-0.0203628,0,sub_10
0.0082515999999995,0.0104134000000013,-0.0153474,-0.0211637999999994,-0.0236899999999993,-0.0173548,0,sub_10
0.0043595999999995,0.0109512000000013,-0.0137332,-0.0171509999999994,-0.0277725999999993,-0.012194,0,sub_10
0.0011497999999995,0.0099738000000013,-0.0125878,-0.0118081999999994,-0.0305225999999993,-0.008804,0,sub_10
6.839999999961078e-05,0.0084434000000013,-0.0131438,-0.0055801999999995,-0.0275179999999993,-0.0066968,0,sub_10
0.0016739999999996,0.0070066000000012,-0.0129746,-0.0010313999999995,-0.0179047999999993,-0.0041826,0,sub_10
0.0035037999999996,0.0057554000000012,-0.0113226,0.0026562000000004,-0.0078707999999993,0.0004613999999999,0,sub_10
0.0054287999999995,0.0050566000000012,-0.0087238,0.0065342000000004,-0.0010409999999993,0.0070335999999999,0,sub_10
0.0063067999999995,0.0048134000000012,-0.0063656,0.0099232000000004,0.0008348000000006,0.0145323999999999,0,sub_10
0.0065727999999995,0.0045312000000012,-0.005495,0.0109574000000004,-0.0002589999999993,0.0207365999999999,0,sub_10
0.0062679999999995,0.0042980000000013,-0.0050106,0.0115736000000004,-0.0019799999999993,0.0243749999999999,0,sub_10
0.0053325999999995,0.0039050000000013,-0.0043646,0.0131110000000004,-0.0041393999999993,0.0256111999999999,0,sub_10
0.0045663999999995,0.0023734000000013,-0.0037788,0.0140170000000004,-0.0075621999999993,0.0236397999999999,0,sub_10
0.0031477999999995,0.0004076000000013,-0.0024338,0.0132350000000004,-0.0082033999999993,0.0201575999999999,0,sub_10
0.0007753999999995,-0.0001263999999986,-0.0022528,0.0107508000000004,-0.0081975999999993,0.0162353999999999,0,sub_10
-0.0004604000000004,-0.0005769999999987,-0.004257,0.0074074000000004,-0.0094671999999993,0.0123087999999999,0,sub_10
0.0004325999999995,-0.0011333999999987,-0.0074578,0.0023066000000005,-0.0098557999999993,0.0073597999999999,0,sub_10
0.0020051999999995,-0.0004311999999987,-0.00911,-0.0029961999999994,-0.0085357999999993,0.0015527999999999,0,sub_10
0.0042047999999995,0.0012708000000012,-0.0122188,-0.0087447999999994,-0.0121119999999993,-0.004892,0,sub_10
0.0063537999999995,0.0018734000000012,-0.0135688,-0.0134303999999994,-0.0167563999999993,-0.0115418,0,sub_10
0.0079185999999995,0.0035158000000013,-0.014307,-0.0165761999999994,-0.0203513999999993,-0.0169406,0,sub_10
0.0097893999999995,0.0067254000000013,-0.0145702,-0.0173873999999994,-0.0237533999999993,-0.0193322,0,sub_10
0.0114125999999995,0.0094012000000013,-0.0151012,-0.0160837999999994,-0.0259065999999993,-0.016156,0,sub_10
0.0107993999999995,0.0113922000000013,-0.0140934,-0.0107367999999994,-0.0265979999999993,-0.0091078,0,sub_10
0.0097319999999995,0.0120652000000013,-0.013734,-0.0024187999999994,-0.0292241999999993,-0.0003272,0,sub_10
0.0083305999999995,0.0112416000000013,-0.0135628,0.0060750000000005,-0.0307759999999993,0.0074253999999999,0,sub_10
0.0064901999999995,0.0086908000000013,-0.0142506,0.0118170000000005,-0.0293277999999993,0.0132319999999999,0,sub_10
0.0047967999999995,0.0068912000000013,-0.0131588,0.0161038000000004,-0.0280407999999993,0.0155819999999999,0,sub_10
0.0045003999999995,0.0053312000000013,-0.0117812,0.0182620000000004,-0.0275907999999993,0.0159953999999999,0,sub_10
0.0028297999999995,0.0045642000000013,-0.009403,0.0185006000000004,-0.0288309999999993,0.0144747999999999,0,sub_10
-6.42000000003893e-05,0.0034244000000013,-0.0067914,0.0195878000000004,-0.0315637999999993,0.0125347999999999,0,sub_10
-0.0037640000000003,0.0029388000000013,-0.0049858,0.0221658000000004,-0.0345165999999993,0.0110325999999999,0,sub_10
-0.0062212000000003,0.0015266000000013,-0.0056564,0.0226176000000004,-0.0300397999999993,0.0099617999999999,0,sub_10
-0.0077546000000003,-6.719999999869825e-05,-0.0055748,0.0220196000000004,-0.0223609999999993,0.0082385999999999,0,sub_10
-0.0071932000000003,-0.0011115999999986,-0.0052818,0.0214150000000004,-0.0174465999999993,0.0052369999999999,0,sub_10
-0.0053432000000003,-0.0013617999999986,-0.0053726,0.0190930000000004,-0.0161429999999993,0.0009461999999999,0,sub_10
-0.0023910000000003,-0.0011169999999986,-0.0056264,0.0136228000000004,-0.0141185999999993,-0.0046424,0,sub_10
-0.0003086000000003,-0.0004799999999986,-0.006511,0.0068578000000004,-0.0150733999999993,-0.0100228,0,sub_10
0.0013289999999995,0.0013998000000013,-0.0091328,0.0015808000000005,-0.0166749999999993,-0.014751,0,sub_10
0.0030413999999995,0.0027556000000013,-0.0124282,-0.0009319999999994,-0.0170215999999993,-0.016043,0,sub_10
0.0048985999999995,0.0041560000000013,-0.014447,-0.0009063999999994,-0.0197311999999993,-0.0147506,0,sub_10
0.0059013999999995,0.0049864000000013,-0.0148146,0.0009708000000005,-0.0255057999999993,-0.0108846,0,sub_10
0.0056397999999995,0.0057350000000013,-0.0143878,0.0041244000000005,-0.0315003999999993,-0.0063682,0,sub_10
0.0059265999999995,0.0056812000000012,-0.0138698,0.0064340000000004,-0.0349371999999993,-0.0014338,0,sub_10
0.0051857999999995,0.0056144000000012,-0.0128407999999999,0.0074956000000005,-0.0340467999999993,0.0028195999999999,0,sub_10
0.0038139999999995,0.0053914000000012,-0.0120995999999999,0.0087790000000005,-0.0308151999999993,0.0074987999999999,0,sub_10
0.0024333999999995,0.0051080000000012,-0.0121659999999999,0.0138936000000005,-0.0297273999999993,0.0122077999999999,0,sub_10
0.0024361999999995,0.0043968000000012,-0.011655,0.0209124000000005,-0.0335415999999993,0.0156543999999999,0,sub_10
0.0011297999999995,0.0031540000000013,-0.0098288,0.0262298000000004,-0.0362835999999993,0.0188739999999999,0,sub_10
-0.0002922000000004,0.0019934000000013,-0.0080828,0.0289902000000004,-0.0373661999999993,0.0208173999999999,0,sub_10
-0.0001326000000004,0.0014224000000013,-0.0080036,0.0272824000000004,-0.0377853999999993,0.0205923999999999,0,sub_10
0.0011589999999995,0.0008432000000013,-0.0078124,0.0208966000000004,-0.0360517999999993,0.0188363999999999,0,sub_10
