userAcceleration.x,userAcceleration.y,userAcceleration.z,rotationRate.x,rotationRate.y,rotationRate.z,label,subject
-0.0079706000000002,0.0053328000000012,0.0050555999999999,0.0143784000000004,-0.0056749999999989,-0.0010586,0,sub_4
-0.0065774000000002,0.0040100000000012,0.0068593999999999,0.0150204000000004,-0.0063119999999989,-0.0021216,0,sub_4
-0.0057928000000002,0.0031264000000012,0.0090571999999999,0.0139582000000004,-0.0054551999999989,-0.0023438,0,sub_4
-0.0051322000000002,0.0026314000000012,0.0094067999999999,0.0126808000000004,-0.0041749999999989,-0.0017134,0,sub_4
-0.0050696000000002,0.0029364000000012,0.0097227999999999,0.0116062000000004,-0.0050269999999989,-0.0008652,0,sub_4
-0.0051710000000002,0.0025880000000012,0.0103139999999999,0.0101536000000004,-0.0030955999999989,0.0004097999999999,0,sub_4
-0.0055252000000002,0.0023102000000012,0.0098915999999999,0.0087086000000004,0.000752400000001,0.0018961999999999,0,sub_4
-0.0053230000000002,0.0022184000000012,0.0102105999999999,0.0074752000000004,0.0033248000000009,0.0025309999999999,0,sub_4
-0.0046376000000002,0.0017814000000012,0.0104723999999999,0.0062322000000004,0.0031300000000009,0.0025283999999999,0,sub_4
-0.0040730000000002,0.0020042000000012,0.0097827999999999,0.0052072000000004,0.0035754000000009,0.0020991999999999,0,sub_4
-0.0039726000000002,0.0028552000000012,0.0077471999999999,0.0047766000000004,0.0018758000000009,0.0012437999999999,0,sub_4
-0.0043962000000002,0.0036254000000012,0.0067719999999999,0.0037108000000004,0.002092600000001,0.0012359999999999,0,sub_4
-0.0044642000000002,0.0037026000000012,0.0060151999999999,0.0037204000000004,0.004223000000001,0.0012333999999999,0,sub_4
-0.0037442000000002,0.0043562000000012,0.0057243999999999,0.0041750000000004,0.004639000000001,0.0008071999999999,0,sub_4
-0.0042558000000002,0.0054610000000012,0.0049129999999999,0.0039782000000004,0.002712800000001,0.0005931999999999,0,sub_4
-0.0050694000000002,0.0069844000000012,0.0038393999999999,0.0037794000000004,0.000997200000001,0.0010199999999999,0,sub_4
-0.0056044000000002,0.0083696000000012,0.0009549999999999,0.0059458000000004,0.002684800000001,0.0008177999999999,0,sub_4
-0.0048560000000002,0.0086544000000012,0.0001547999999999,0.0081218000000004,0.006290800000001,0.0003995999999999,0,sub_4
-0.0047592000000002,0.0073868000000012,0.0007405999999999,0.0098490000000004,0.011183400000001,0.0008327999999999,0,sub_4
-0.0038556000000002,0.0046650000000012,0.0022661999999999,0.0100854000000004,0.017144800000001,0.0016813999999999,0,sub_4
-0.0031028000000002,0.0033024000000012,0.0029917999999999,0.0092438000000004,0.017980600000001,0.0016739999999999,0,sub_4
-0.0022714000000002,0.0023244000000012,0.0038997999999999,0.0060340000000004,0.013713000000001,0.0012293999999999,0,sub_4
-0.0026418000000002,0.0018090000000012,0.0031595999999999,0.0017642000000004,0.012213800000001,0.0020555999999999,0,sub_4
-0.0028654000000002,0.0024060000000012,0.0028773999999999,-0.0024931999999995,0.013272200000001,0.0026649999999999,0,sub_4
-0.0026624000000002,0.0042434000000012,0.0034175999999999,-0.0052589999999995,0.013474800000001,0.0028585999999999,0,sub_4
-0.0027992000000002,0.0053782000000012,0.0039877999999999,-0.0071829999999995,0.012629400000001,0.0028461999999999,0,sub_4
-0.0042858000000002,0.0068674000000012,0.0030573999999999,-0.0076183999999995,0.010076800000001,0.0022055999999999,0,sub_4
-0.0056554000000002,0.0079306000000012,0.0008899999999999,-0.0050695999999995,0.006025800000001,0.0007331999999999,0,sub_4
-0.0061796000000002,0.0081904000000012,-0.000135,-0.0010225999999995,0.007280200000001,-9.400000000007096e-05,0,sub_4
-0.0054158000000002,0.0070112000000012,0.0008639999999999,0.0030370000000004,0.011304400000001,-0.0009246,0,sub_4
-0.0042682000000003,0.0055868000000012,0.0023719999999999,0.0056028000000004,0.015970400000001,-0.0011256,0,sub_4
-0.0030050000000003,0.0043562000000012,0.0038437999999999,0.0068752000000004,0.017870400000001,-0.0011186,0,sub_4
-0.0027720000000003,0.0039882000000012,0.0045901999999999,0.0064214000000004,0.015727400000001,-0.0009048,0,sub_4
-0.0026624000000003,0.0034524000000012,0.0036061999999999,0.0051258000000004,0.011686400000001,-0.0015496,0,sub_4
-0.0030060000000003,0.0036372000000012,0.0028125999999999,0.0029814000000004,0.009562400000001,-0.0013482,0,sub_4
-0.0030356000000002,0.0037418000000012,0.0026139999999999,0.0010600000000004,0.009143800000001,-0.0015748,0,sub_4
-0.0024016000000002,0.0040356000000012,0.0035597999999999,-0.0004793999999995,0.007445000000001,-0.001796,0,sub_4
-0.0020598000000002,0.0050228000000012,0.0031867999999999,-0.0015927999999995,0.005107400000001,-0.0024406,0,sub_4
-0.0033458000000002,0.0062542000000012,0.0025473999999999,-0.0025033999999995,0.000637600000001,-0.0028676,0,sub_4
-0.0044442000000002,0.0061132000000012,0.0012329999999999,-0.0029813999999994,-0.002979799999999,-0.00372,0,sub_4
-0.0042812000000002,0.0062278000000012,0.0015027999999999,-0.0034489999999994,-0.003404799999999,-0.0037216,0,sub_4
-0.0040234000000002,0.0061292000000012,0.0025831999999999,-0.0034401999999994,-0.000850599999999,-0.0030838,0,sub_4
-0.0044040000000002,0.0062456000000012,0.0040593999999999,-0.0034363999999994,0.0008504000000009,-0.0022314,0,sub_4
-0.0046740000000002,0.0063836000000012,0.0047511999999999,-0.0032249999999994,0.0008480000000009,-0.0018026,0,sub_4
-0.0049632000000002,0.0060172000000012,0.0050311999999999,-0.0032259999999995,0.000210600000001,-0.002229,0,sub_4
-0.0049168000000002,0.0050294000000012,0.0049671999999999,-0.0028307999999995,0.0006354000000009,-0.003296,0,sub_4
-0.0048144000000002,0.0036392000000012,0.0055829999999999,-0.0032845999999995,0.0029772000000009,-0.0035168,0,sub_4
-0.0041698000000002,0.0031616000000012,0.0054783999999999,-0.0043831999999994,0.004256000000001,-0.0037408,0,sub_4
-0.0034592000000002,0.0034516000000012,0.0056413999999999,-0.0061351999999994,0.002554400000001,-0.0039654,0,sub_4
-0.0035410000000002,0.0043132000000012,0.0044177999999999,-0.0064003999999994,-0.0002193999999989,-0.003751,0,sub_4
-0.0044758000000002,0.0051890000000012,0.0036325999999999,-0.0064099999999994,-0.0019253999999989,-0.0033216,0,sub_4
-0.0043588000000002,0.0054504000000012,0.0028753999999999,-0.0057725999999994,-0.0027789999999989,-0.0035296,0,sub_4
-0.0039616000000002,0.0051176000000012,0.0047129999999998,-0.0047417999999995,-0.001531199999999,-0.0028854,0,sub_4
-0.0036754000000002,0.0048204000000012,0.0052313999999998,-0.0039261999999995,-0.000496599999999,-0.0020288,0,sub_4
-0.0041340000000002,0.0055608000000012,0.0059245999999998,-0.0024809999999995,-0.002444399999999,-0.001805,0,sub_4
-0.0048146000000002,0.0055070000000012,0.0058141999999998,-0.0003985999999995,-0.0056701999999989,-0.002216,0,sub_4
-0.0053066000000002,0.0053394000000012,0.0064579999999998,0.0014810000000004,-0.0061271999999989,-0.0022048,0,sub_4
-0.0050224000000002,0.0047148000000012,0.0070133999999999,0.0029786000000004,-0.0052801999999989,-0.0021954,0,sub_4
-0.0050978000000003,0.0043712000000012,0.0085917999999999,0.0040530000000004,-0.0029427999999989,-0.00155,0,sub_4
-0.0051968000000002,0.0038854000000012,0.0092791999999999,0.0038406000000004,-0.0018801999999989,-0.0006982,0,sub_4
-0.0058078000000002,0.0041242000000012,0.0089631999999998,0.0036214000000004,-0.0023089999999989,0.0001553999999999,0,sub_4
-0.0063088000000002,0.0041634000000012,0.0075805999999999,0.0035968000000004,-0.0029911999999989,0.0001509999999999,0,sub_4
-0.0058562000000002,0.0037826000000012,0.0076497999999999,0.0035810000000004,-0.0019679999999989,-6.920000000007095e-05,0,sub_4
-0.0045242000000002,0.0029988000000012,0.0084875999999999,0.0027166000000005,-8.879999999899767e-05,-0.0005102,0,sub_4
-0.0035888000000002,0.0030172000000012,0.0089543999999998,0.0014158000000005,-0.0001263999999989,-0.000738,0,sub_4
-0.0034686000000002,0.0035148000000012,0.0085251999999999,0.0005398000000005,-0.0005915999999989,-0.0009624,0,sub_4
-0.0030966000000002,0.0040830000000012,0.0082277999999999,0.0003188000000004,-0.0025073999999989,-0.0011752,0,sub_4
-0.0034558000000002,0.0049800000000012,0.0079371999999999,0.0003178000000004,-0.0031447999999989,-0.0016018,0,sub_4
-0.0045324000000002,0.0049326000000012,0.0075587999999999,0.0015802000000004,-0.0027729999999989,-0.001166,0,sub_4
-0.0044770000000002,0.0041152000000012,0.0082855999999999,0.0030608000000004,-0.0006999999999989,-9.020000000009092e-05,0,sub_4
-0.0048892000000002,0.0046864000000012,0.0078799999999999,0.0045376000000004,0.0005208000000009,0.0009867999999999,0,sub_4
-0.0063670000000002,0.0053824000000012,0.0068571999999999,0.0053828000000004,0.0030246000000009,0.0014167999999999,0,sub_4
-0.0065770000000002,0.0046390000000012,0.0056431999999999,0.0057926000000004,0.0036124000000009,0.0018463999999999,0,sub_4
-0.0053818000000002,0.0048560000000012,0.0066419999999999,0.0057954000000004,0.004676000000001,0.0022721999999999,0,sub_4
-0.0048188000000002,0.0055056000000012,0.0075857999999999,0.0060202000000004,0.007868400000001,0.0029105999999999,0,sub_4
-0.0039914000000002,0.0040322000000012,0.0098491999999999,0.0062374000000004,0.008932000000001,0.0031243999999999,0,sub_4
-0.0031254000000002,0.0030362000000012,0.0113167999999999,0.0060088000000004,0.006553600000001,0.0031321999999999,0,sub_4
-0.0030468000000002,0.0026630000000012,0.0114635999999999,0.0038656000000004,0.004823600000001,0.0024847999999999,0,sub_4
-0.0024538000000002,0.0022480000000012,0.0090425999999999,0.0006546000000004,0.002247600000001,0.0011901999999999,0,sub_4
-0.0009468000000002,0.0025596000000012,0.0063673999999999,-0.0025661999999995,-0.0030953999999989,-0.0007418,0,sub_4
0.0007481999999997,0.0039668000000012,0.0036463999999999,-0.0049353999999995,-0.0069577999999989,-0.000747,0,sub_4
0.0003663999999997,0.0060486000000012,0.0005851999999999,-0.0047411999999995,-0.0103707999999989,0.0001133999999999,0,sub_4
-0.0012262000000002,0.0081858000000012,-0.001649,-0.0004919999999995,-0.0135847999999989,0.0010017999999999,0,sub_4
-0.0034272000000002,0.0091766000000012,-0.0024694,0.0061330000000004,-0.0110521999999989,0.0012583999999999,0,sub_4
-0.0046754000000002,0.0080372000000012,-0.0008366,0.0125634000000004,-0.0055559999999989,0.0017331999999999,0,sub_4
-0.0050018000000002,0.0058870000000012,0.0034647999999999,0.0160056000000004,-0.0013233999999989,0.0011203999999999,0,sub_4
-0.0038526000000002,0.0032888000000012,0.0085565999999999,0.0158032000000004,-0.0007009999999989,0.0007003999999999,0,sub_4
-0.0029474000000002,0.0022410000000012,0.0105355999999999,0.0125916000000004,-0.0045439999999989,0.0006923999999999,0,sub_4
-0.0022248000000002,0.0016104000000012,0.0106485999999999,0.0078758000000004,-0.0105129999999989,0.0008903999999999,0,sub_4
-0.0022208000000002,0.0022218000000012,0.0106785999999999,0.0033796000000005,-0.0132695999999989,0.0015033999999999,0,sub_4
-0.0028718000000002,0.0028260000000012,0.0099845999999999,0.0003896000000005,-0.0130493999999989,0.0023369999999999,0,sub_4
-0.0041576000000002,0.0038748000000012,0.0089861999999999,-0.0010991999999994,-0.0119787999999989,0.0023251999999999,0,sub_4
-0.0051214000000002,0.0043100000000012,0.0082281999999999,-0.0010895999999994,-0.0106969999999989,0.0014689999999999,0,sub_4
-0.0057710000000002,0.0055826000000012,0.0075421999999999,0.0004036000000005,-0.0115579999999989,0.0008501999999999,0,sub_4
-0.0057452000000002,0.0059564000000012,0.0057219999999999,0.0029686000000005,-0.0115697999999989,2.3999999999929155e-05,0,sub_4
-0.0047032000000002,0.0064414000000012,0.0048165999999999,0.0046828000000004,-0.0103027999999989,-0.000169,0,sub_4
-0.0033608000000002,0.0061792000000012,0.0052347999999999,0.0059646000000004,-0.0090393999999989,0.0009171999999999,0,sub_4
-0.0025928000000002,0.0057300000000012,0.0060775999999999,0.0070328000000004,-0.0069263999999989,0.0028553999999999,0,sub_4
-0.0038738000000002,0.0053904000000012,0.0060961999999999,0.0078882000000004,-0.0048055999999989,0.0045677999999999,0,sub_4
-0.0057304000000002,0.0048080000000012,0.0060427999999999,0.0085360000000004,-0.0020423999999989,0.0056369999999999,0,sub_4
-0.0060734000000002,0.0038516000000012,0.0065369999999999,0.0087628000000004,0.001580000000001,0.0054277999999999,0,sub_4
-0.0051476000000002,0.0024788000000012,0.0081691999999999,0.0075008000000004,0.006060600000001,0.0049931999999999,0,sub_4
-0.0025844000000002,0.0010840000000012,0.0107917999999999,0.0038804000000004,0.0082050000000009,0.0047587999999999,0,sub_4
0.0007059999999997,-0.0010225999999987,0.0137247999999999,-0.0018843999999995,0.0088620000000009,0.0053659999999999,0,sub_4
0.0023519999999997,-0.0012913999999987,0.0149107999999999,-0.0095993999999995,0.003345600000001,0.0063947999999999,0,sub_4
0.0012533999999997,-0.0008011999999987,0.0136725999999999,-0.0164579999999995,-0.0015385999999989,0.0082759999999999,0,sub_4
-0.0004664000000002,-1.8999999998731664e-05,0.0121875999999999,-0.0213655999999995,-3.599999999897643e-05,0.0097353999999999,0,sub_4
-0.0029270000000002,-6.459999999873173e-05,0.0113813999999999,-0.0241241999999995,0.005292200000001,0.0116321999999999,0,sub_4
-0.0049146000000002,0.0016418000000012,0.0119123999999999,-0.0249755999999995,0.009756000000001,0.0129035999999999,0,sub_4
-0.0066662000000003,0.0030790000000012,0.0116419999999999,-0.0234751999999994,0.014003800000001,0.0129097999999999,0,sub_4
-0.0078834000000002,0.0055370000000012,0.0096955999999999,-0.0198495999999994,0.015053400000001,0.0116529999999999,0,sub_4
-0.0083856000000002,0.0072210000000012,0.0051655999999999,-0.0138865999999994,0.013964200000001,0.0104153999999999,0,sub_4
-0.0075474000000002,0.0081808000000012,0.0032185999999999,-0.0074679999999994,0.019053000000001,0.0089593999999999,0,sub_4
-0.0049892000000002,0.0066368000000012,0.0023929999999999,-0.0018781999999994,0.026922600000001,0.0074927999999999,0,sub_4
-0.0021156000000002,0.0048582000000012,0.0040195999999999,0.0009236000000004,0.0328792000000009,0.0072911999999999,0,sub_4
0.0001335999999997,0.0029912000000012,0.0057419999999999,0.0009284000000004,0.034793400000001,0.0081433999999999,0,sub_4
-0.0001474000000002,0.0031396000000012,0.0064965999999999,-0.0014489999999995,0.032676400000001,0.0087687999999999,0,sub_4
-0.0025590000000002,0.0049400000000012,0.0036941999999999,-0.0025691999999995,0.024168400000001,0.0081293999999999,0,sub_4
-0.0051658000000002,0.0070522000000012,-0.0002584,-0.0023927999999995,0.018429000000001,0.0066409999999999,0,sub_4
-0.0064670000000002,0.0076892000000012,-0.0027638,0.0001584000000004,0.018647800000001,0.0049477999999999,0,sub_4
-0.0062212000000003,0.0072744000000012,-0.0033244,0.0029346000000004,0.020785800000001,0.0026127999999999,0,sub_4
-0.0037602000000003,0.0052646000000012,-0.0001176,0.0050760000000004,0.020360800000001,0.0004917999999999,0,sub_4
-0.0008198000000003,0.0029640000000012,0.0038243999999999,0.0033642000000004,0.018452800000001,-0.0003724,0,sub_4
-0.0001132000000003,0.0005876000000012,0.0081253999999999,-0.0015663999999995,0.013781200000001,2.6399999999928563e-05,0,sub_4
-0.0001604000000003,-0.0023437999999987,0.0117345999999999,-0.0116325999999995,0.0114964000000009,0.0010233999999999,0,sub_4
0.0005579999999997,-0.0051525999999987,0.0157591999999999,-0.0238181999999995,0.0134758000000009,0.0030683999999999,0,sub_4
0.0003819999999997,-0.0056335999999987,0.0179889999999999,-0.0351367999999995,0.0194960000000009,0.0061825999999999,0,sub_4
-0.0020086000000002,-0.0030045999999987,0.0176267999999999,-0.0443033999999995,0.0289202000000009,0.0086663999999999,0,sub_4
-0.0042992000000003,0.0010242000000012,0.0151939999999999,-0.0507239999999995,0.0310950000000009,0.0101103999999999,0,sub_4
-0.0072152000000002,0.0065610000000012,0.0101727999999999,-0.0511641999999995,0.027689200000001,0.0096843999999999,0,sub_4
-0.0108124000000003,0.0117296000000012,0.0020901999999999,-0.0471063999999995,0.0266174000000009,0.0077911999999999,0,sub_4
-0.0131510000000002,0.0159472000000012,-0.0068896,-0.0402649999999995,0.0251200000000009,0.0033541999999999,0,sub_4
-0.0098032000000003,0.0177402000000012,-0.0136358,-0.0276893999999995,0.0223544000000009,-0.0023308,0,sub_4
-0.0049340000000003,0.0181602000000012,-0.0178712,-0.0101745999999995,0.0274514000000009,-0.0071368,0,sub_4
0.0007103999999997,0.0179850000000012,-0.020097,0.0067002000000004,0.0344604000000009,-0.010027,0,sub_4
0.0064381999999997,0.0148828000000012,-0.0168694,0.0199142000000004,0.0352984000000009,-0.0116528,0,sub_4
0.0115927999999997,0.0116982000000012,-0.0111112,0.0277746000000004,0.0344404000000009,-0.01075,0,sub_4
0.0117705999999997,0.0080636000000012,-0.0052382,0.0255978000000004,0.0293168000000009,-0.006272,0,sub_4
0.0086159999999997,0.0059462000000012,-0.0019186,0.0165806000000004,0.022508200000001,-0.0007714,0,sub_4
0.0028205999999997,0.0048140000000012,-0.000722,0.0060784000000005,0.0165614000000009,0.0036493999999999,0,sub_4
-0.0038418000000002,0.0064500000000012,-0.003499,-0.0005463999999994,0.0127486000000009,0.0050773999999999,0,sub_4
-0.0086012000000002,0.0069500000000012,-0.006396,-0.0035217999999994,0.0112770000000009,0.0039639999999999,0,sub_4
-0.0080670000000003,0.0073642000000012,-0.006664,-0.0002709999999995,0.0168204000000009,0.0013895999999999,0,sub_4
-0.0045084000000002,0.0069742000000012,-0.0048584,0.0029750000000004,0.0208742000000009,-0.0016102,0,sub_4
-0.0001440000000002,0.0067460000000012,-0.0023302,0.0057616000000004,0.0183222000000009,-0.0039636,0,sub_4
0.0031341999999997,0.0057118000000012,0.0008579999999999,0.0042354000000004,0.010659400000001,-0.0043918,0,sub_4
0.0053945999999997,0.0044494000000012,0.0030291999999999,0.0018624000000004,0.005339600000001,-0.0039742,0,sub_4
0.0047053999999997,0.0040488000000012,0.0038161999999999,-0.0026481999999995,-0.0006127999999989,-0.003357,0,sub_4
0.0025699999999997,0.0036906000000012,0.0045727999999999,-0.0056583999999995,-0.0052911999999989,-0.0029446,0,sub_4
3.1399999999700764e-05,0.0036370000000012,0.0050953999999999,-0.0071497999999995,-0.0093849999999989,-0.002772,0,sub_4
-0.0025040000000002,0.0046552000000012,0.0055557999999999,-0.0064931999999995,-0.0107149999999989,-0.0030152,0,sub_4
-0.0055172000000003,0.0054802000000012,0.0056179999999999,-0.0060603999999995,-0.0141755999999989,-0.0030436,0,sub_4
-0.0068182000000002,0.0051724000000012,0.0058835999999999,-0.0045501999999995,-0.0163573999999989,-0.0041344,0,sub_4
-0.0063114000000003,0.0046830000000012,0.0064333999999998,-0.0021721999999995,-0.0153463999999989,-0.0052232,0,sub_4
-0.0044830000000003,0.0044340000000012,0.0076527999999998,-0.0004509999999995,-0.0127931999999989,-0.0058554,0,sub_4
-0.0028176000000003,0.0035912000000012,0.0087021999999999,-2.2199999999507336e-05,-0.0125807999999989,-0.0060662,0,sub_4
-0.0017942000000003,0.0035022000000012,0.0095565999999999,-0.0008513999999995,-0.0135081999999989,-0.005461,0,sub_4
-0.0027812000000003,0.0034172000000012,0.0092303999999999,-0.0029635999999994,-0.0152823999999989,-0.0050772,0,sub_4
-0.0027804000000003,0.0031422000000012,0.0091659999999999,-0.0044375999999994,-0.0181215999999989,-0.0053286,0,sub_4
-0.0022278000000002,0.0023342000000012,0.0107185999999999,-0.0052607999999994,-0.0188315999999989,-0.0057918,0,sub_4
-0.0013642000000002,0.0021730000000012,0.0126639999999999,-0.0054353999999994,-0.0163531999999989,-0.0049728,0,sub_4
-0.0021998000000002,0.0025540000000012,0.0128125999999999,-0.0058687999999994,-0.0172063999999989,-0.0043338,0,sub_4
-0.0028790000000002,0.0027380000000012,0.0120959999999999,-0.0048123999999994,-0.0191291999999989,-0.0038968,0,sub_4
-0.0037690000000003,0.0025542000000012,0.0108029999999999,-0.0039607999999994,-0.018497199999999,-0.0028234,0,sub_4
-0.0043552000000002,0.0021672000000012,0.0093545999999999,-0.0032293999999994,-0.0164801999999989,-0.0017778,0,sub_4
-0.0042680000000002,0.0029264000000012,0.0087323999999999,-0.0025055999999994,-0.017016399999999,-0.0015836,0,sub_4
-0.0027404000000002,0.0031882000000012,0.0078447999999999,-0.0007101999999994,-0.017127799999999,-0.0020234,0,sub_4
-0.0017870000000002,0.0034888000000012,0.0076199999999999,-0.0002017999999994,-0.017877399999999,-0.0016168,0,sub_4
-0.0018452000000002,0.0039988000000012,0.0075157999999999,0.0007296000000005,-0.019904999999999,-0.001633,0,sub_4
-0.0023608000000002,0.0046034000000012,0.0084697999999999,0.0015822000000005,-0.0199089999999989,-0.0014134,0,sub_4
-0.0035462000000002,0.0047224000000012,0.0076423999999999,0.0035130000000005,-0.016935599999999,-0.0007628,0,sub_4
-0.0056046000000002,0.0044540000000012,0.0088917999999999,0.0058764000000004,-0.013109599999999,-0.0005374,0,sub_4
-0.0073358000000002,0.0037716000000012,0.0100885999999999,0.0076352000000004,-0.0106781999999989,-0.0011782,0,sub_4
-0.0077248000000002,0.0030688000000012,0.0115449999999999,0.0072546000000004,-0.0097297999999989,-0.0020458,0,sub_4
-0.0066450000000003,0.0018318000000012,0.0113691999999999,0.0066576000000004,-0.0087831999999989,-0.002274,0,sub_4
-0.0053238000000002,0.0012476000000012,0.0110713999999999,0.0067018000000004,-0.0067769999999989,-0.0016444,0,sub_4
-0.0033712000000002,0.0014674000000012,0.0107479999999999,0.0069622000000004,-0.0032837999999989,-0.0001608,0,sub_4
-0.0025398000000002,0.0016696000000012,0.0103681999999999,0.0078204000000004,-9.939999999899804e-05,0.0019775999999999,0,sub_4
-0.0026006000000002,0.0010792000000012,0.0097625999999999,0.0076214000000004,0.005219200000001,0.0041057999999999,0,sub_4
-0.0031028000000002,0.0003044000000012,0.0097777999999999,0.0061460000000004,0.010333400000001,0.0051571999999999,0,sub_4
-0.0025210000000003,-0.0004591999999987,0.0110869999999999,0.0025560000000004,0.012812000000001,0.0053423999999999,0,sub_4
-0.0008700000000002,-0.0007443999999987,0.0116293999999999,-0.0027513999999995,0.012316600000001,0.0048785999999999,0,sub_4
0.0016303999999997,-1.159999999875167e-05,0.0124443999999999,-0.0082779999999995,0.010755600000001,0.0046281999999999,0,sub_4
0.0015353999999997,0.0022040000000012,0.0102969999999999,-0.0121101999999994,0.006206800000001,0.0041799999999999,0,sub_4
-0.0003374000000002,0.0039026000000012,0.0076833999999999,-0.0150897999999994,0.002078600000001,0.0043779999999999,0,sub_4
-0.0024058000000003,0.0054708000000012,0.0047009999999999,-0.0161497999999994,0.003149400000001,0.0039419999999999,0,sub_4
-0.0049584000000002,0.0067138000000012,0.0030243999999999,-0.0135663999999994,0.007829400000001,0.0035267999999999,0,sub_4
-0.0065970000000002,0.0076126000000012,0.0015779999999999,-0.0092691999999995,0.013570400000001,0.0026947999999999,0,sub_4
-0.0064278000000002,0.0071952000000012,0.0024671999999999,-0.0049891999999995,0.015688600000001,0.0020809999999999,0,sub_4
-0.0047294000000002,0.0075042000000012,0.0014529999999999,-0.0015529999999995,0.0145874000000009,0.0014753999999999,0,sub_4
-0.0034420000000002,0.0069576000000012,0.0011945999999999,-3.259999999952728e-05,0.0160436000000009,0.0023487999999999,0,sub_4
-0.0022162000000003,0.0051284000000012,0.0018487999999999,-0.0006265999999995,0.0221926000000009,0.0036285999999999,0,sub_4
-0.0013508000000002,0.0038242000000012,0.0020337999999999,-0.0020837999999995,0.0253654000000009,0.0040517999999999,0,sub_4
-0.0009450000000002,0.0040720000000012,0.0020149999999999,-0.0046107999999995,0.0268416000000009,0.0034013999999999,0,sub_4
-0.0012464000000002,0.0044848000000012,0.0023417999999999,-0.0071741999999995,0.024726000000001,0.0018907999999999,0,sub_4
-0.0015084000000002,0.0049476000000012,0.0010833999999999,-0.0093299999999995,0.017499000000001,-0.0004652,0,sub_4
-0.0015834000000002,0.0052270000000012,-0.0013286,-0.0116775999999995,0.010718000000001,-0.0019522,0,sub_4
-0.0013144000000002,0.0057790000000012,-0.0030392,-0.0127199999999995,0.010532800000001,-0.0023704,0,sub_4
-0.0010184000000002,0.0061898000000012,-0.0036088,-0.0118315999999995,0.013109000000001,-0.0023512,0,sub_4
-0.0003194000000002,0.0067936000000012,-0.002339,-0.0094475999999994,0.015893800000001,-0.0025356,0,sub_4
