userAcceleration.x,userAcceleration.y,userAcceleration.z,rotationRate.x,rotationRate.y,rotationRate.z,label,subject
-0.0481698000000002,-0.0098019999999986,0.0734101999999999,-0.0313445999999994,-0.0093969999999991,-0.0093085999999999,0,sub_19
-0.0474568000000002,-0.0101655999999986,0.0755563999999999,-0.0288169999999994,-0.0143993999999991,-0.0101501999999999,0,sub_19
-0.0474666000000002,-0.0109731999999986,0.0764731999999999,-0.0226405999999994,-0.0174019999999991,-0.0105305999999999,0,sub_19
-0.0481306000000002,-0.0123337999999986,0.0773467999999999,-0.0134711999999994,-0.0182879999999991,-0.0100379999999999,0,sub_19
-0.0497552000000002,-0.0139195999999986,0.0764895999999999,-0.0028121999999994,-0.0183337999999991,-0.0078269999999999,0,sub_19
-0.0528022000000002,-0.0140619999999987,0.0736649999999999,0.0038242000000005,-0.0185017999999992,-0.0067067999999999,0,sub_19
-0.0558518000000001,-0.0151991999999987,0.0719787999999999,0.0081220000000005,-0.0201393999999992,-0.0090193999999999,0,sub_19
-0.0566864000000002,-0.0149721999999987,0.0710585999999999,0.0132590000000005,-0.0254001999999992,-0.0117487999999999,0,sub_19
-0.0569708000000002,-0.0147165999999987,0.0702359999999999,0.0183738000000005,-0.0353489999999992,-0.0142585999999999,0,sub_19
-0.0572314000000002,-0.0139829999999987,0.0706013999999999,0.0221980000000005,-0.0482733999999992,-0.0174145999999999,0,sub_19
-0.0567802000000002,-0.0142437999999987,0.0717205999999999,0.0249238000000005,-0.0625431999999992,-0.0210091999999999,0,sub_19
-0.0565696000000002,-0.0133613999999987,0.0711823999999999,0.0274306000000005,-0.0780903999999991,-0.0246035999999999,0,sub_19
-0.0570880000000002,-0.0126007999999987,0.0710035999999999,0.0290810000000005,-0.0951225999999991,-0.0290565999999999,0,sub_19
-0.0562948000000002,-0.0115987999999987,0.0715149999999999,0.0312366000000005,-0.1115665999999991,-0.0339417999999999,0,sub_19
-0.0553528000000002,-0.0119849999999987,0.0716593999999999,0.0348866000000005,-0.1273783999999991,-0.0383899999999999,0,sub_19
-0.0528392000000002,-0.0125153999999987,0.0714929999999999,0.0400332000000005,-0.1417073999999991,-0.0419751999999999,0,sub_19
-0.0494116000000002,-0.0127213999999987,0.0717991999999999,0.0447568000000005,-0.1530607999999992,-0.0434307999999999,0,sub_19
-0.0461374000000002,-0.0119929999999987,0.0718675999999999,0.0482116000000005,-0.1614287999999992,-0.0444717999999999,0,sub_19
-0.0436942000000002,-0.0110221999999987,0.0708643999999999,0.0516102000000005,-0.1663349999999991,-0.0459373999999999,0,sub_19
-0.0402858000000002,-0.0085275999999987,0.0696009999999999,0.0552414000000005,-0.1661321999999992,-0.0465531999999999,0,sub_19
-0.0379202000000002,-0.0062641999999987,0.0682375999999999,0.0586794000000005,-0.1595445999999992,-0.0452557999999999,0,sub_19
-0.0362114000000002,-0.0043617999999987,0.0667337999999999,0.0615716000000005,-0.1475969999999992,-0.0442725999999999,0,sub_19
-0.0339096000000002,-0.0027343999999987,0.0646843999999999,0.0636220000000005,-0.1320287999999992,-0.0422315999999999,0,sub_19
-0.0315844000000002,-0.0012915999999987,0.0635619999999999,0.0643986000000005,-0.1143281999999991,-0.0395613999999999,0,sub_19
-0.0297008000000002,-0.0012607999999987,0.0625887999999999,0.0630396000000005,-0.0961973999999991,-0.0360521999999999,0,sub_19
-0.0273976000000002,-0.0005489999999987,0.0607685999999999,0.0597506000000005,-0.0806147999999991,-0.0329803999999999,0,sub_19
-0.0249224000000002,0.0001322000000012,0.0599035999999999,0.0555176000000005,-0.0686859999999991,-0.0287523999999999,0,sub_19
-0.0228352000000002,0.0004712000000012,0.0595747999999999,0.0510674000000005,-0.0578207999999991,-0.0247381999999999,0,sub_19
-0.0208064000000002,0.0006350000000012,0.0594387999999999,0.0451200000000005,-0.0471659999999991,-0.0200931999999999,0,sub_19
-0.0192818000000002,0.0016778000000012,0.0593723999999999,0.0388284000000005,-0.0375433999999991,-0.0170641999999999,0,sub_19
-0.0183520000000002,0.0025946000000012,0.0600985999999999,0.0316804000000005,-0.0281325999999991,-0.0136135999999998,0,sub_19
-0.0182126000000002,0.0031120000000012,0.0601181999999999,0.0241152000000005,-0.0168019999999992,-0.0103819999999998,0,sub_19
-0.0180784000000002,0.0038050000000012,0.0602205999999999,0.0167690000000005,-0.0044059999999992,-0.0073639999999998,0,sub_19
-0.0182334000000002,0.0046710000000012,0.0603123999999999,0.0098534000000005,0.0077796000000007,-0.0054109999999998,0,sub_19
-0.0187516000000002,0.0044990000000012,0.0601305999999999,0.0030686000000005,0.0190884000000007,-0.0037637999999999,0,sub_19
-0.0192228000000002,0.0043124000000012,0.0606613999999999,-0.0024329999999994,0.0293342000000007,-0.0038153999999999,0,sub_19
-0.0196650000000002,0.0033910000000012,0.0611077999999999,-0.0060171999999993,0.0378732000000008,-0.0049195999999999,0,sub_19
-0.0203422000000002,0.0020034000000012,0.0622015999999999,-0.0097407999999993,0.0450354000000007,-0.0056573999999999,0,sub_19
-0.0209972000000002,0.0011276000000012,0.0629643999999999,-0.0134683999999993,0.0526186000000008,-0.0051137999999999,0,sub_19
-0.0214396000000002,0.0006408000000012,0.0643149999999999,-0.0165567999999993,0.0612596000000008,-0.0032851999999999,0,sub_19
-0.0223312000000002,0.0006192000000012,0.0655115999999999,-0.0190021999999993,0.0713864000000008,-0.0005995999999999,0,sub_19
-0.0232442000000002,0.0017168000000012,0.0667065999999999,-0.0220857999999994,0.0823660000000008,0.0025078,0,sub_19
-0.0240036000000002,0.0022150000000012,0.0676051999999999,-0.0248241999999994,0.0932294000000008,0.0054658,0,sub_19
-0.0247908000000002,0.0016760000000012,0.0684389999999999,-0.0273501999999994,0.1032424000000008,0.0077854,0,sub_19
-0.0260748000000002,0.0005092000000012,0.0689361999999999,-0.0296703999999994,0.1104894000000007,0.0090416,0,sub_19
-0.0268516000000002,-0.0014143999999986,0.0692387999999999,-0.0315733999999994,0.1146416000000007,0.0092478,0,sub_19
-0.0280380000000002,-0.0035293999999986,0.0695189999999999,-0.0328523999999994,0.1147452000000008,0.0090362,0,sub_19
-0.0294826000000002,-0.0048479999999986,0.0693457999999999,-0.0334999999999994,0.1122924000000007,0.0081912,0,sub_19
-0.0313656000000002,-0.0054091999999986,0.0695417999999999,-0.0343655999999994,0.1087752000000007,0.0073462,0,sub_19
-0.0328942000000002,-0.0052661999999986,0.0697241999999999,-0.0354371999999993,0.1071754000000008,0.006711,0,sub_19
-0.0343686000000002,-0.0046911999999986,0.0699993999999999,-0.0369373999999993,0.1052648000000008,0.0062756,0,sub_19
-0.0349222000000002,-0.0047319999999986,0.0704035999999999,-0.0380041999999994,0.1039952000000008,0.0049878,0,sub_19
-0.0358616000000002,-0.0049205999999986,0.0708059999999999,-0.0377869999999993,0.1033614000000008,0.0034948,0,sub_19
-0.0363786000000002,-0.0060693999999986,0.0701941999999999,-0.0355553999999993,0.1016180000000008,0.0016936,0,sub_19
-0.0362812000000002,-0.0064847999999986,0.0695781999999999,-0.0337579999999993,0.0983838000000008,0.000105,0,sub_19
-0.0369836000000002,-0.0075523999999986,0.0689741999999999,-0.0319665999999993,0.0940836000000008,-0.0012685999999999,0,sub_19
-0.0373854000000002,-0.0079903999999986,0.0686245999999999,-0.0308219999999993,0.0893554000000007,-0.0015779999999999,0,sub_19
-0.0375440000000002,-0.0080669999999986,0.0677291999999999,-0.0298915999999993,0.0848392000000007,-0.0014619999999999,0,sub_19
-0.0374058000000002,-0.0075577999999987,0.0681647999999999,-0.0286333999999993,0.0805712000000007,-0.0008067999999999,0,sub_19
-0.0377880000000002,-0.0080123999999987,0.0684923999999999,-0.0269485999999994,0.0760894000000007,-0.0003619999999999,0,sub_19
-0.0378404000000002,-0.0078765999999987,0.0678613999999999,-0.0248349999999994,0.0728810000000007,0.0009388,0,sub_19
-0.0380476000000002,-0.0075289999999987,0.0669499999999999,-0.0229073999999994,0.0705106000000007,0.0025824,0,sub_19
-0.0379000000000002,-0.0071425999999987,0.0668107999999999,-0.0216255999999994,0.0666520000000008,0.0040098,0,sub_19
-0.0379948000000002,-0.0070665999999987,0.0660205999999999,-0.0212029999999994,0.0615182000000007,0.0054328,0,sub_19
-0.0379062000000002,-0.0070271999999987,0.0657637999999999,-0.0195019999999994,0.0555294000000008,0.0064386,0,sub_19
-0.0375700000000002,-0.0071471999999987,0.0660581999999999,-0.0171609999999994,0.0493262000000008,0.0072354,0,sub_19
-0.0376108000000002,-0.0075783999999987,0.0663115999999999,-0.0142043999999994,0.0433470000000008,0.0081184,0,sub_19
-0.0372286000000002,-0.0081509999999987,0.0663009999999999,-0.0114593999999994,0.0384312000000008,0.0096394,0,sub_19
-0.0363768000000002,-0.0081331999999987,0.0664513999999999,-0.0093525999999994,0.0335192000000008,0.0107286,0,sub_19
-0.0358570000000002,-0.0077125999999987,0.0661353999999999,-0.0082401999999994,0.0288426000000007,0.0129822,0,sub_19
-0.0350570000000002,-0.0070685999999986,0.0657847999999999,-0.0073429999999994,0.0239528000000007,0.0154482,0,sub_19
-0.0333674000000002,-0.0060613999999986,0.0657283999999999,-0.0070897999999994,0.0182130000000008,0.0179108,0,sub_19
-0.0320392000000002,-0.0055967999999986,0.0656069999999999,-0.0072661999999994,0.0111990000000008,0.019731,0,sub_19
-0.0316748000000002,-0.0048673999999986,0.0651903999999999,-0.0070129999999994,0.0041862000000008,0.0209134,0,sub_19
-0.0307678000000002,-0.0044051999999986,0.0654739999999999,-0.0076943999999994,-0.0045483999999991,0.021347,0,sub_19
-0.0303502000000002,-0.0044367999999986,0.0662633999999999,-0.0090149999999994,-0.0139163999999991,0.0209224,0,sub_19
-0.0307670000000002,-0.0048347999999986,0.0673997999999999,-0.0109747999999994,-0.0226447999999991,0.0209198,0,sub_19
-0.0316228000000002,-0.0046179999999987,0.0683927999999999,-0.0127573999999994,-0.0309915999999991,0.0211888,0,sub_19
-0.0322306000000002,-0.0054651999999987,0.0709125999999999,-0.0134663999999994,-0.0376385999999992,0.0216768,0,sub_19
-0.0332074000000002,-0.0061073999999987,0.0721809999999999,-0.0120195999999994,-0.0393927999999992,0.0221736,0,sub_19
-0.0336170000000002,-0.0062041999999987,0.0730529999999999,-0.0114137999999994,-0.0381621999999992,0.0228744,0,sub_19
-0.0341208000000002,-0.0063021999999987,0.0733789999999999,-0.0103763999999994,-0.0367165999999992,0.0227234,0,sub_19
-0.0344420000000002,-0.0062583999999987,0.0735269999999999,-0.0103659999999994,-0.0345851999999992,0.0225072,0,sub_19
-0.0348924000000002,-0.0055441999999987,0.0714215999999999,-0.0124949999999994,-0.0339369999999992,0.0220642,0,sub_19
-0.0332662000000002,-0.0027843999999987,0.0678289999999999,-0.0163481999999994,-0.0388151999999992,0.0199072,0,sub_19
-0.0321150000000002,0.0007068000000012,0.0634707999999999,-0.0206113999999994,-0.0548115999999992,0.0152216,0,sub_19
-0.0302132000000002,0.0048102000000012,0.0602917999999999,-0.0274637999999994,-0.0803735999999992,0.0073254,0,sub_19
-0.0289496000000002,0.0067024000000012,0.0614997999999999,-0.0332491999999994,-0.1091223999999991,-0.0037637999999999,0,sub_19
-0.0287252000000002,0.0063112000000012,0.0632791999999999,-0.0358205999999994,-0.1357483999999992,-0.0156877999999999,0,sub_19
-0.0334364000000002,-0.0013831999999987,0.0680165999999999,-0.0390187999999994,-0.1540843999999991,-0.0222857999999999,0,sub_19
-0.0388378000000002,-0.0096881999999987,0.0718031999999999,-0.0409467999999994,-0.1536599999999992,-0.0201633999999999,0,sub_19
-0.0440538000000002,-0.0175509999999987,0.0744723999999999,-0.0387813999999994,-0.1356021999999991,-0.0090617999999999,0,sub_19
-0.0457816000000002,-0.0217925999999987,0.0733369999999999,-0.0340487999999994,-0.1090593999999992,0.009097,0,sub_19
-0.0425104000000002,-0.0208003999999987,0.0725973999999999,-0.0277417999999994,-0.0858661999999992,0.0283504,0,sub_19
-0.0360442000000002,-0.0155723999999986,0.0722653999999999,-0.0188839999999994,-0.0692687999999992,0.0431436,0,sub_19
-0.0282716000000002,-0.0101659999999986,0.0749473999999999,-0.0095821999999994,-0.0575381999999991,0.0491868,0,sub_19
-0.0209606000000002,-0.0038797999999986,0.0745757999999999,-0.0008811999999994,-0.0457703999999992,0.0464661999999999,0,sub_19
-0.0146724000000002,0.0035842000000013,0.0721515999999999,0.0046546000000005,-0.0326867999999992,0.0370987999999999,0,sub_19
-0.0126588000000002,0.0090580000000013,0.0668207999999999,0.0039294000000005,-0.0198375999999992,0.0212676,0,sub_19
-0.0158714000000002,0.0152248000000012,0.0580029999999999,-0.0076929999999994,-0.0167251999999992,-0.0010365999999999,0,sub_19
-0.0218534000000002,0.0176862000000012,0.0516331999999999,-0.0353699999999994,-0.0282447999999992,-0.0266389999999999,0,sub_19
-0.0287940000000002,0.0173108000000012,0.0501667999999999,-0.0685369999999994,-0.0473303999999992,-0.0505765999999999,0,sub_19
-0.0401042000000002,0.0078820000000013,0.0545229999999999,-0.0957495999999994,-0.0660303999999992,-0.0695591999999999,0,sub_19
-0.0494456000000002,-0.0047125999999986,0.0622713999999999,-0.1144359999999994,-0.0760677999999991,-0.0778111999999999,0,sub_19
-0.0525790000000002,-0.0160377999999986,0.0741217999999999,-0.1181517999999994,-0.0685139999999991,-0.0759399999999999,0,sub_19
-0.0508918000000002,-0.0221487999999986,0.0811155999999999,-0.1022171999999994,-0.0482787999999991,-0.0656153999999999,0,sub_19
-0.0480530000000002,-0.0271455999999986,0.0852049999999999,-0.0806511999999994,-0.0322131999999991,-0.0526667999999999,0,sub_19
-0.0425380000000002,-0.0236995999999986,0.0859113999999999,-0.0663897999999994,-0.0259277999999991,-0.0384747999999999,0,sub_19
-0.0379546000000002,-0.0167927999999986,0.0885717999999999,-0.0602555999999994,-0.0247237999999991,-0.0251875999999999,0,sub_19
-0.0344992000000002,-0.0089805999999986,0.0878633999999999,-0.0634305999999994,-0.0243345999999991,-0.0111655999999999,0,sub_19
-0.0359484000000002,-0.0041157999999987,0.0855985999999999,-0.0706193999999994,-0.0183781999999991,-0.0005971999999999,0,sub_19
-0.0398568000000002,-0.0015913999999987,0.0835347999999999,-0.0786137999999994,-0.0024027999999992,0.0093118,0,sub_19
-0.0471420000000002,-0.0062129999999987,0.0809883999999999,-0.0835863999999994,0.0199590000000008,0.017952,0,sub_19
-0.0562080000000002,-0.0134189999999987,0.0755033999999999,-0.0815331999999994,0.0418580000000007,0.0296328,0,sub_19
-0.0681956000000002,-0.0273611999999987,0.0742461999999999,-0.0706339999999994,0.0575382000000007,0.0416528,0,sub_19
-0.0781420000000002,-0.0418369999999987,0.0750813999999999,-0.0536265999999994,0.0603940000000007,0.0586458,0,sub_19
-0.0836318000000002,-0.0505187999999987,0.0766305999999999,-0.0288153999999994,0.0470140000000007,0.0797734,0,sub_19
-0.0870906000000002,-0.0506651999999987,0.0788681999999999,0.0003206000000005,0.0172236000000008,0.0921176,0,sub_19
-0.0852148000000002,-0.0441157999999987,0.0787815999999999,0.0316126000000005,-0.0216791999999991,0.090388,0,sub_19
-0.0828366000000002,-0.0367285999999987,0.0766069999999999,0.0575836000000005,-0.0684029999999991,0.0777356,0,sub_19
-0.0813986000000002,-0.0252965999999987,0.0760241999999999,0.0758886000000005,-0.1157227999999992,0.060971,0,sub_19
-0.0841898000000002,-0.0193873999999987,0.0763197999999999,0.0895740000000005,-0.1491667999999991,0.0413792,0,sub_19
-0.0847974000000002,-0.0196839999999987,0.0756949999999999,0.1019372000000005,-0.1615287999999992,0.0318674,0,sub_19
-0.0895622000000002,-0.0268195999999987,0.0761499999999999,0.1113150000000005,-0.1636929999999991,0.0321494,0,sub_19
-0.0921656000000002,-0.0318823999999987,0.0769491999999999,0.1264358000000005,-0.1608005999999991,0.0416516,0,sub_19
-0.0935546000000002,-0.0400049999999987,0.0776287999999999,0.1466918000000005,-0.1519717999999991,0.0539596,0,sub_19
-0.0909098000000002,-0.0450719999999987,0.0776255999999999,0.1657724000000005,-0.1461095999999991,0.0676972,0,sub_19
-0.0879618000000002,-0.0472939999999987,0.0783335999999999,0.1826970000000005,-0.1455645999999991,0.0809994,0,sub_19
-0.0826294000000002,-0.0476207999999986,0.0808453999999999,0.1996370000000005,-0.1433083999999991,0.0925904,0,sub_19
-0.0756572000000002,-0.0460165999999986,0.0813809999999999,0.2138454000000005,-0.1348511999999992,0.1009496,0,sub_19
-0.0675972000000002,-0.0439463999999986,0.0800857999999999,0.2238006000000005,-0.1246685999999992,0.1077814,0,sub_19
-0.0641406000000002,-0.0417355999999986,0.0753639999999999,0.2310850000000005,-0.1144819999999992,0.1114512,0,sub_19
-0.0624736000000002,-0.0258011999999986,0.0672149999999999,0.2385972000000005,-0.1093759999999992,0.106797,0,sub_19
-0.0633514000000002,-0.0050275999999987,0.0559009999999999,0.2469484000000005,-0.1235961999999992,0.0859364,0,sub_19
-0.0669496000000002,0.0188696000000012,0.0449253999999999,0.2522376000000005,-0.1711877999999992,0.0482194,0,sub_19
-0.0721862000000002,0.0327352000000012,0.0412367999999999,0.2656054000000005,-0.2464203999999992,-0.0105567999999999,0,sub_19
-0.0756838000000002,0.0363428000000012,0.0437059999999999,0.2947176000000005,-0.3351165999999992,-0.0726239999999999,0,sub_19
-0.0837566000000002,0.0099112000000012,0.0552271999999999,0.3334392000000005,-0.4030439999999992,-0.1154227999999999,0,sub_19
-0.0895018000000002,-0.0271947999999987,0.0753349999999999,0.3698752000000005,-0.4210413999999992,-0.1217681999999999,0,sub_19
-0.0910308000000002,-0.0642937999999987,0.0964139999999999,0.4070404000000005,-0.3863361999999992,-0.0950611999999999,0,sub_19
-0.0818858000000002,-0.0793263999999987,0.1036831999999999,0.4363146000000005,-0.3218917999999992,-0.0393915999999999,0,sub_19
-0.0689972000000002,-0.0817243999999987,0.1057023999999999,0.4438046000000005,-0.2537819999999992,0.0242396,0,sub_19
-0.0488610000000002,-0.0643127999999987,0.1053961999999999,0.4309514000000005,-0.2115545999999991,0.0779342,0,sub_19
-0.0298842000000002,-0.0409835999999987,0.0999349999999999,0.4142172000000005,-0.1975721999999991,0.112196,0,sub_19
-0.0146910000000002,-0.0203467999999987,0.0859741999999999,0.3966420000000005,-0.1956709999999991,0.1315124,0,sub_19
-0.0132066000000002,-0.0058227999999987,0.0733767999999999,0.3556178000000005,-0.1989733999999991,0.1404166,0,sub_19
-0.0140850000000002,0.0138622000000012,0.0727979999999998,0.2982408000000005,-0.2013011999999991,0.1329684,0,sub_19
-0.0124064000000002,0.0425078000000012,0.0623165999999998,0.2634482000000006,-0.1920883999999991,0.097035,0,sub_19
-0.0172004000000002,0.0639824000000012,0.0430719999999998,0.2461578000000005,-0.2054247999999991,0.0373246,0,sub_19
-0.0164500000000002,0.0755830000000012,0.0423295999999998,0.2286146000000005,-0.2372569999999991,-0.0321915999999999,0,sub_19
-0.0109520000000002,0.0695002000000013,0.0497169999999998,0.2452016000000005,-0.2721877999999992,-0.1023197999999999,0,sub_19
-0.0097214000000002,0.0420842000000013,0.0508045999999998,0.2964944000000006,-0.3030617999999992,-0.1514873999999999,0,sub_19
-0.0161090000000002,0.0013474000000013,0.0621735999999999,0.3282812000000005,-0.3159099999999991,-0.1627857999999999,0,sub_19
-0.0138662000000002,-0.0272779999999986,0.0831293999999999,0.3293318000000005,-0.2902519999999992,-0.1333283999999999,0,sub_19
-0.0097398000000003,-0.0416567999999986,0.0911475999999999,0.3254826000000005,-0.2416521999999991,-0.0825701999999999,0,sub_19
-0.0030900000000002,-0.0377777999999987,0.0942767999999999,0.3068990000000005,-0.1894037999999992,-0.0257239999999999,0,sub_19
0.0069203999999997,-0.0192787999999987,0.0940661999999999,0.2776622000000005,-0.1451681999999992,0.0195214,0,sub_19
0.0173505999999997,-0.0041961999999987,0.0910905999999999,0.2579992000000005,-0.1249695999999991,0.0469184,0,sub_19
0.0233957999999997,0.0051336000000012,0.0867645999999999,0.2537412000000005,-0.1145483999999991,0.0552074,0,sub_19
0.0208807999999997,0.0085478000000013,0.0825505999999999,0.2518572000000005,-0.1066579999999991,0.0549706,0,sub_19
0.0139073999999997,0.0146970000000013,0.0793141999999999,0.2346296000000005,-0.0948771999999991,0.0541941999999999,0,sub_19
0.0073603999999997,0.0238506000000013,0.0775211999999999,0.1929476000000005,-0.0687189999999991,0.0489555999999999,0,sub_19
0.0068451999999997,0.0434850000000013,0.0749143999999999,0.1475348000000005,-0.0343723999999992,0.0331868,0,sub_19
0.0089711999999997,0.0708914000000013,0.0539575999999999,0.1214842000000005,-0.0287891999999992,0.0009258,0,sub_19
0.0124577999999997,0.0905598000000012,0.0390455999999999,0.0978790000000005,-0.0619377999999991,-0.0445143999999999,0,sub_19
0.0182399999999997,0.0944924000000012,0.0329389999999999,0.0834622000000005,-0.0961673999999992,-0.0939481999999999,0,sub_19
0.0247865999999997,0.0851544000000012,0.0365427999999999,0.0959446000000005,-0.1196559999999991,-0.1355165999999999,0,sub_19
0.0276611999999997,0.0637218000000012,0.0366019999999999,0.1083066000000005,-0.1415677999999992,-0.1544165999999999,0,sub_19
0.0276449999999997,0.0341606000000012,0.0558597999999999,0.0848520000000005,-0.1295879999999991,-0.1462635999999999,0,sub_19
0.0261571999999997,0.0162376000000013,0.0733315999999999,0.0503892000000005,-0.0773859999999991,-0.1173019999999999,0,sub_19
0.0218889999999997,0.0061256000000013,0.0850491999999999,0.0302166000000005,-0.0195097999999991,-0.0811975999999999,0,sub_19
0.0159203999999997,0.0048484000000013,0.0835573999999999,0.0146768000000005,0.0245024000000008,-0.0452567999999999,0,sub_19
0.0100929999999997,0.0084256000000013,0.0857229999999999,-0.0002467999999994,0.0527884000000008,-0.0197599999999999,0,sub_19
0.0076321999999997,0.0102076000000012,0.0908781999999999,0.0042292000000005,0.0652882000000008,-0.0060713999999999,0,sub_19
0.0051429999999997,0.0069832000000012,0.0916385999999999,0.0317714000000005,0.0745442000000008,-0.0003361999999999,0,sub_19
0.0035891999999997,0.0023200000000012,0.0885273999999999,0.0561218000000005,0.0853044000000008,0.0049476,0,sub_19
0.0041017999999997,0.0021390000000012,0.0840147999999999,0.0510440000000005,0.1008514000000007,0.0108744,0,sub_19
0.0074743999999997,0.0131798000000012,0.0791841999999999,0.0261820000000005,0.1241598000000007,0.0110982,0,sub_19
0.0086219999999997,0.0372266000000012,0.0660835999999999,-0.0029235999999994,0.1388042000000008,-0.0027971999999999,0,sub_19
0.0105939999999997,0.0605194000000012,0.0545409999999999,-0.0363539999999994,0.1209456000000008,-0.0365499999999999,0,sub_19
0.0121275999999997,0.0749338000000012,0.0530975999999999,-0.0726023999999994,0.0771690000000008,-0.0865261999999999,0,sub_19
0.0098945999999997,0.0746158000000012,0.0594085999999999,-0.0815169999999994,0.0356508000000008,-0.1388781999999999,0,sub_19
0.0029147999999997,0.0549338000000012,0.0621885999999999,-0.0597547999999994,0.0026818000000008,-0.1713713999999999,0,sub_19
-0.0040182000000002,0.0228840000000012,0.0673337999999999,-0.0410497999999994,-0.0108163999999991,-0.1686597999999999,0,sub_19
-0.0085856000000002,0.0009766000000012,0.0741053999999999,-0.0393831999999994,0.0131204000000008,-0.1355637999999999,0,sub_19
-0.0072730000000002,-0.0076859999999987,0.0746853999999999,-0.0364083999999994,0.0593586000000007,-0.0862503999999999,0,sub_19
-0.0014782000000002,-0.0050117999999987,0.0711637999999999,-0.0321869999999994,0.0947402000000007,-0.0403325999999999,0,sub_19
0.0058053999999997,0.0057656000000012,0.0710543999999999,-0.0365311999999994,0.1074190000000007,-0.0104689999999999,0,sub_19
0.0122383999999997,0.0180660000000012,0.0769099999999999,-0.0383033999999994,0.1022742000000007,-0.0010743999999999,0,sub_19
0.0173859999999997,0.0215622000000012,0.0820901999999999,-0.0240447999999994,0.0913688000000007,-0.0035245999999999,0,sub_19
0.0143025999999997,0.0191048000000012,0.0808091999999999,-0.0076275999999994,0.0830246000000007,-0.0089539999999999,0,sub_19
0.0054933999999997,0.0192628000000012,0.0796137999999999,-0.0200165999999994,0.0785998000000007,-0.0105303999999999,0,sub_19
0.0030785999999997,0.0302768000000012,0.0812857999999999,-0.0461559999999994,0.0972468000000007,-0.0156507999999999,0,sub_19
0.0027685999999997,0.0438110000000012,0.0697605999999999,-0.0500711999999994,0.1141484000000007,-0.0298001999999999,0,sub_19
-0.0012856000000002,0.0504590000000012,0.0594535999999999,-0.0556331999999994,0.0950570000000008,-0.0458379999999999,0,sub_19
-0.0042304000000002,0.0523116000000012,0.0626883999999999,-0.0710765999999994,0.0649066000000008,-0.0582985999999999,0,sub_19
-0.0040344000000002,0.0460440000000012,0.0688395999999999,-0.0619409999999994,0.0516830000000008,-0.0627043999999999,0,sub_19
-0.0061244000000002,0.0292030000000012,0.0709353999999999,-0.0370337999999994,0.0487860000000008,-0.0524853999999999,0,sub_19
-0.0052282000000002,0.0113544000000012,0.0785385999999999,-0.0332475999999994,0.0603950000000007,-0.0285457999999999,0,sub_19
-0.0007904000000002,0.0039504000000012,0.0840399999999999,-0.0394133999999994,0.0890832000000008,-0.0046973999999999,0,sub_19
