userAcceleration.x,userAcceleration.y,userAcceleration.z,rotationRate.x,rotationRate.y,rotationRate.z,label,subject
0.0258769999999995,0.0087748000000012,0.0185321999999998,0.0151004000000004,-0.0694205999999994,0.0396533999999999,0,sub_8
0.0253555999999995,0.0082120000000012,0.0177461999999999,0.0148880000000004,-0.0713287999999994,0.0375179999999999,0,sub_8
0.0270919999999995,0.0064862000000012,0.0167937999999999,0.0163864000000004,-0.0723907999999994,0.0353933999999999,0,sub_8
0.0276725999999995,0.0043372000000012,0.0153801999999999,0.0168066000000004,-0.0751567999999994,0.0341179999999999,0,sub_8
0.0288291999999995,0.0027606000000012,0.0138803999999999,0.0150814000000004,-0.0804719999999994,0.0328309999999999,0,sub_8
0.0297553999999995,0.0032810000000012,0.0138621999999999,0.0137858000000004,-0.0855739999999994,0.0311193999999999,0,sub_8
0.0296915999999995,0.0036162000000012,0.0127767999999998,0.0131350000000004,-0.0900373999999994,0.0289839999999999,0,sub_8
0.0293821999999995,0.0036594000000012,0.0112323999999999,0.0112070000000004,-0.0934327999999994,0.0272657999999999,0,sub_8
0.0308937999999995,0.0035430000000012,0.0098461999999998,0.0101448000000004,-0.0942735999999994,0.0253365999999999,0,sub_8
0.0321781999999995,0.0026790000000012,0.0095817999999998,0.0090816000000004,-0.0955395999999994,0.0231943999999999,0,sub_8
0.0332065999999995,0.0008758000000012,0.0091115999999999,0.0050102000000004,-0.1010579999999994,0.0214637999999999,0,sub_8
0.0337345999999995,0.0008422000000012,0.0099225999999999,-0.0007813999999995,-0.1093409999999994,0.0199383999999999,0,sub_8
0.0309945999999995,0.0018532000000012,0.0103527999999999,-0.0074187999999995,-0.1176139999999994,0.0166979999999999,0,sub_8
0.0284163999999995,0.0043030000000012,0.0121549999999999,-0.0118937999999995,-0.1218371999999994,0.0111173999999999,0,sub_8
0.0268041999999995,0.0056196000000012,0.0140599999999999,-0.0140005999999994,-0.1213813999999994,0.0055471999999999,0,sub_8
0.0247153999999995,0.0061586000000012,0.0142143999999999,-0.0145983999999994,-0.1160365999999994,0.0014769999999999,0,sub_8
0.0237905999999995,0.0060370000000012,0.0142963999999999,-0.0145419999999994,-0.1053761999999994,-0.000459,0,sub_8
0.0253053999999995,0.0055502000000012,0.0151721999999999,-0.0136253999999994,-0.0906811999999994,0.0001693999999999,0,sub_8
0.0260885999999995,0.0034832000000012,0.0153177999999999,-0.0152777999999994,-0.0768335999999994,0.0018491999999999,0,sub_8
0.0274077999999995,0.0035830000000012,0.0148853999999999,-0.0169357999999994,-0.0640521999999994,0.0037439999999999,0,sub_8
0.0291035999999995,0.0035984000000012,0.0147869999999999,-0.0177461999999994,-0.0529763999999994,0.0052195999999999,0,sub_8
0.0297825999999995,0.0033648000000012,0.0152101999999999,-0.0185659999999994,-0.0444555999999994,0.0062711999999999,0,sub_8
0.0288869999999995,0.0039360000000012,0.0147409999999999,-0.0188003999999994,-0.0398337999999994,0.0060755999999999,0,sub_8
0.0275637999999995,0.0049196000000012,0.0140011999999999,-0.0164819999999994,-0.0365009999999994,0.0063267999999999,0,sub_8
0.0259595999999995,0.0046746000000012,0.0129143999999999,-0.0143731999999994,-0.0325273999999994,0.0063619999999999,0,sub_8
0.0258075999999995,0.0050222000000012,0.0122173999999999,-0.0120423999999994,-0.0272735999999994,0.0057561999999999,0,sub_8
0.0263309999999995,0.0055102000000012,0.0116093999999999,-0.0097105999999994,-0.0226555999999994,0.0042965999999999,0,sub_8
0.0268119999999995,0.0051208000000012,0.0122595999999999,-0.0086205999999994,-0.0183947999999994,0.0034441999999999,0,sub_8
0.0276057999999995,0.0049962000000012,0.0129479999999999,-0.0096633999999994,-0.0143379999999994,0.0021497999999999,0,sub_8
0.0282373999999995,0.0058388000000012,0.0140621999999999,-0.0107023999999994,-0.0100655999999994,0.0002143999999999,0,sub_8
0.0274183999999995,0.0065308000000012,0.0158227999999999,-0.0110925999999994,-0.0043023999999994,-0.0021458,0,sub_8
0.0263839999999995,0.0056912000000012,0.0157717999999999,-0.0116847999999994,0.0038060000000005,-0.004724,0,sub_8
0.0263197999999995,0.0052698000000012,0.0154045999999999,-0.0131247999999994,0.0121348000000005,-0.0083766,0,sub_8
0.0268237999999995,0.0049096000000012,0.0150177999999998,-0.0145657999999994,0.0198262000000005,-0.0124558,0,sub_8
0.0266095999999995,0.0037460000000012,0.0146543999999998,-0.0170793999999994,0.0275162000000005,-0.0152606,0,sub_8
0.0275847999999995,0.0034888000000012,0.0131329999999998,-0.0185317999999994,0.0341364000000005,-0.017843,0,sub_8
0.0288043999999995,0.0041376000000012,0.0132015999999998,-0.0182877999999994,0.0388314000000005,-0.0199838,0,sub_8
0.0305711999999995,0.0045596000000012,0.0121357999999999,-0.0167739999999994,0.0418148000000005,-0.0214726,0,sub_8
0.0316593999999995,0.0045828000000012,0.0116573999999999,-0.0154889999999994,0.0430878000000005,-0.0212516,0,sub_8
0.0322459999999995,0.0046910000000012,0.0106495999999999,-0.0140011999999994,0.0424408000000005,-0.0205994,0,sub_8
0.0313927999999995,0.0039808000000012,0.0108073999999999,-0.0144365999999994,0.0407370000000005,-0.0203866,0,sub_8
0.0305275999999995,0.0036198000000012,0.0112827999999999,-0.0167893999999994,0.0392548000000005,-0.0206148,0,sub_8
0.0293947999999995,0.0032834000000012,0.0124833999999999,-0.0195651999999994,0.0388384000000005,-0.0206336,0,sub_8
0.0285575999999995,0.0033784000000012,0.0128093999999999,-0.0221207999999994,0.0386394000000005,-0.021933,0,sub_8
0.0284271999999995,0.0039402000000012,0.0139471999999999,-0.0238209999999994,0.0384392000000005,-0.0236538,0,sub_8
0.0285379999999995,0.0043904000000012,0.0139201999999999,-0.0253059999999994,0.0395130000000005,-0.0245202,0,sub_8
0.0291271999999995,0.0041060000000012,0.0135773999999999,-0.0267909999999994,0.0412234000000005,-0.0247464,0,sub_8
0.0295689999999995,0.0040076000000012,0.0135581999999999,-0.0280635999999994,0.0416592000000005,-0.0260378,0,sub_8
0.0298277999999995,0.0038696000000012,0.0134185999999998,-0.0306221999999994,0.0414576000000005,-0.0266964,0,sub_8
0.0296149999999995,0.0032436000000012,0.0137393999999999,-0.0344589999999995,0.0412622000000005,-0.0277912,0,sub_8
0.0295245999999995,0.0033578000000012,0.0146109999999999,-0.0380871999999995,0.0397886000000005,-0.0290964,0,sub_8
0.0290071999999995,0.0042218000000012,0.0147215999999999,-0.0410801999999995,0.0374598000000005,-0.0301826,0,sub_8
0.0281129999999995,0.0048386000000012,0.0150189999999999,-0.0434281999999994,0.0370426000000005,-0.0304121999999999,0,sub_8
0.0281783999999995,0.0056976000000012,0.0148207999999999,-0.0434203999999994,0.0383226000000005,-0.0308409999999999,0,sub_8
0.0289623999999995,0.0063852000000012,0.0138313999999999,-0.0421373999999994,0.0391696000000005,-0.0306194,0,sub_8
0.0300707999999995,0.0057350000000012,0.0124417999999999,-0.0415001999999994,0.0393770000000005,-0.0297605999999999,0,sub_8
0.0304449999999995,0.0043828000000012,0.0117787999999999,-0.0417211999999994,0.0389464000000005,-0.0284796,0,sub_8
0.0308195999999995,0.0042662000000012,0.0112417999999999,-0.0436587999999995,0.0372402000000005,-0.0263544,0,sub_8
0.0300071999999995,0.0038752000000012,0.0118337999999999,-0.0462365999999994,0.0355362000000005,-0.0242338,0,sub_8
0.0284161999999995,0.0030462000000012,0.0129499999999999,-0.0490189999999994,0.0346894000000005,-0.023184,0,sub_8
0.0265431999999995,0.0029190000000012,0.0146011999999999,-0.0522281999999994,0.0327832000000005,-0.023204,0,sub_8
0.0265193999999995,0.0030816000000012,0.0164021999999999,-0.0552211999999994,0.0298178000000005,-0.0249302,0,sub_8
0.0256895999999995,0.0030186000000012,0.0183431999999999,-0.0579979999999994,0.0262176000000005,-0.027936,0,sub_8
0.0248311999999995,0.0020424000000012,0.0184817999999999,-0.0603489999999995,0.0215540000000005,-0.031792,0,sub_8
0.0250235999999995,0.0035330000000012,0.0180119999999999,-0.0609987999999994,0.0158182000000005,-0.0354212,0,sub_8
0.0250337999999995,0.0038058000000012,0.0176217999999999,-0.0603643999999994,0.0109302000000005,-0.0390426,0,sub_8
0.0236091999999995,0.0042996000000012,0.0157549999999999,-0.0595089999999994,0.0085946000000004,-0.0418112,0,sub_8
0.0229453999999995,0.0040998000000012,0.0129693999999999,-0.0582209999999994,0.0077482000000005,-0.0443648,0,sub_8
0.0234119999999995,0.0040240000000012,0.0118447999999999,-0.0585889999999994,0.0075986000000005,-0.0462956,0,sub_8
0.0235605999999995,0.0031374000000012,0.0110927999999999,-0.0606591999999994,0.0091568000000005,-0.0475994,0,sub_8
0.0240003999999995,0.0035176000000012,0.0094753999999999,-0.0618673999999994,0.0130540000000005,-0.0484728,0,sub_8
0.0248309999999995,0.0033772000000012,0.0085143999999999,-0.0626525999999995,0.0165218000000005,-0.0489154,0,sub_8
0.0264931999999995,0.0028182000000012,0.0077479999999998,-0.0623699999999994,0.0204110000000005,-0.0491376,0,sub_8
0.0273473999999995,0.0030242000000012,0.0061791999999999,-0.0606447999999995,0.0244530000000005,-0.0491308,0,sub_8
0.0279165999999995,0.0026656000000012,0.0041485999999999,-0.0587061999999995,0.0284944000000005,-0.0491224,0,sub_8
0.0280169999999995,0.0021994000000012,0.0029429999999999,-0.0578403999999994,0.0323220000000005,-0.0480532,0,sub_8
0.0282683999999995,0.0018300000000012,0.0027863999999999,-0.0571239999999994,0.0375250000000005,-0.0465476,0,sub_8
0.0276771999999995,0.0030566000000012,0.0027243999999999,-0.0570447999999994,0.0442182000000005,-0.0441938,0,sub_8
0.0277855999999995,0.0040788000000012,0.0035915999999999,-0.0573807999999994,0.0536818000000005,-0.0416328,0,sub_8
0.0279901999999995,0.0051372000000012,0.0051547999999999,-0.0579147999999994,0.0661304000000005,-0.0395044,0,sub_8
0.0273559999999995,0.0073516000000012,0.0078945999999999,-0.0582257999999994,0.0800724000000005,-0.0380172,0,sub_8
0.0260335999999995,0.0086842000000012,0.0111489999999999,-0.0585949999999994,0.0949792000000005,-0.0359026,0,sub_8
0.0229279999999995,0.0099668000000012,0.0146403999999999,-0.0570247999999994,0.1130792000000005,-0.0348466,0,sub_8
0.0213005999999995,0.0100368000000012,0.0166857999999999,-0.0537609999999994,0.1322224000000005,-0.0297208,0,sub_8
0.0217853999999995,0.0088192000000012,0.0191405999999999,-0.0504999999999995,0.1530606000000005,-0.0222472,0,sub_8
0.0239521999999995,0.0063920000000012,0.0213153999999999,-0.0480963999999995,0.1728372000000005,-0.0149918,0,sub_8
0.0255661999999995,0.0050322000000012,0.0221621999999999,-0.0474083999999995,0.1881560000000005,-0.0103064,0,sub_8
0.0283195999999995,0.0019816000000012,0.0233767999999999,-0.0495083999999994,0.1985912000000005,-0.0073434,0,sub_8
0.0298523999999995,0.0012516000000012,0.0256115999999999,-0.0522419999999994,0.2062758000000005,-0.0086542,0,sub_8
0.0287007999999995,0.0029936000000012,0.0267957999999999,-0.0554129999999994,0.2086476000000004,-0.0129522,0,sub_8
0.0266475999999995,0.0037578000000012,0.0275761999999999,-0.0577379999999994,0.2110098000000005,-0.0155352,0,sub_8
0.0254979999999995,0.0036838000000012,0.0283913999999999,-0.0572803999999994,0.2174016000000004,-0.0159674,0,sub_8
0.0251309999999995,0.0052116000000012,0.0299643999999999,-0.0549083999999994,0.2242060000000005,-0.0146778,0,sub_8
0.0238679999999995,0.0056476000000012,0.0311087999999999,-0.0578551999999994,0.2323158000000005,-0.0155634,0,sub_8
0.0242405999999995,0.0028946000000012,0.0278315999999999,-0.0673945999999994,0.2419538000000005,-0.0199154,0,sub_8
0.0254755999999995,0.0036262000000012,0.0235913999999999,-0.0820261999999995,0.2503620000000005,-0.0319924,0,sub_8
0.0256455999999995,0.0054480000000012,0.0192761999999999,-0.1030609999999994,0.2549712000000005,-0.0475276,0,sub_8
0.0239477999999995,0.0068420000000012,0.0135359999999998,-0.1260169999999995,0.2606474000000005,-0.0617958,0,sub_8
0.0204049999999995,0.0046340000000012,0.0068731999999998,-0.1406305999999995,0.2745892000000005,-0.0723842,0,sub_8
0.0185191999999995,0.0049992000000012,0.0040547999999998,-0.1420195999999995,0.2952708000000005,-0.074984,0,sub_8
0.0204811999999995,0.0043022000000012,0.0010093999999999,-0.1332013999999995,0.3154614000000005,-0.0702482,0,sub_8
0.0285781999999995,0.0030104000000012,-0.0010928,-0.1140025999999995,0.3274856000000005,-0.0568836,0,sub_8
0.0371013999999995,-3.99999999873531e-06,-0.0027072,-0.0893223999999995,0.3315800000000005,-0.0366338,0,sub_8
0.0453885999999995,-0.0004961999999987,-0.0042124,-0.0651683999999995,0.3167014000000005,-0.0131588,0,sub_8
0.0498865999999995,-0.0012031999999987,-0.0051458,-0.0419295999999995,0.2881904000000005,0.0103271999999999,0,sub_8
0.0508637999999995,-0.0032691999999987,-0.004082,-0.0215007999999994,0.2484102000000005,0.0306035999999999,0,sub_8
0.0481421999999995,-0.0035607999999987,-0.0025782,-0.0033905999999995,0.2101490000000005,0.0459477999999999,0,sub_8
0.0418315999999995,-0.0030079999999987,0.0009725999999999,0.0126032000000005,0.1697886000000004,0.0552979999999999,0,sub_8
0.0373967999999995,-0.0007805999999987,0.0057431999999999,0.0279846000000004,0.1305162000000005,0.0595149999999999,0,sub_8
0.0323833999999995,0.0009238000000012,0.0106625999999999,0.0401972000000005,0.0936174000000005,0.0590067999999999,0,sub_8
0.0253067999999995,0.0024788000000012,0.0161333999999999,0.0503116000000005,0.0665188000000005,0.0603939999999999,0,sub_8
0.0139725999999995,0.0008490000000012,0.0216511999999999,0.0555702000000005,0.0473348000000005,0.0581051999999999,0,sub_8
0.0069527999999995,-0.0037077999999987,0.0256675999999999,0.0570208000000004,0.0301030000000005,0.0504461999999999,0,sub_8
0.0022681999999995,-0.0004377999999987,0.0301349999999999,0.0565702000000005,0.0135316000000005,0.0391411999999999,0,sub_8
-0.0012746000000004,0.0017246000000012,0.0379413999999999,0.0493022000000005,0.0003886000000005,0.0288521999999999,0,sub_8
-0.0054192000000004,0.0018696000000012,0.0449709999999999,0.0360750000000004,-0.0120833999999994,0.0157433999999999,0,sub_8
-0.0065526000000004,0.0028058000000012,0.0497723999999999,0.0211640000000005,-0.0211335999999994,0.0009093999999999,0,sub_8
-0.0069910000000004,0.0078694000000012,0.0520303999999999,0.0041536000000005,-0.0231429999999994,-0.0145892,0,sub_8
-0.0076556000000004,0.0058822000000012,0.0526575999999999,-0.0149645999999995,-0.0166339999999994,-0.0273362,0,sub_8
-0.0057358000000004,0.0055658000000012,0.0481469999999999,-0.0313107999999995,-0.0092875999999995,-0.0387828,0,sub_8
-0.0013832000000004,0.0083692000000012,0.0404161999999999,-0.0431945999999994,-0.0034583999999995,-0.0476326,0,sub_8
0.0025091999999995,0.0112580000000012,0.0321249999999999,-0.0508491999999995,-0.0038321999999995,-0.0540948,0,sub_8
0.0068603999999995,0.0127736000000012,0.0251683999999999,-0.0546995999999995,-0.0076469999999995,-0.055826,0,sub_8
0.0071913999999995,0.0135826000000012,0.0178165999999999,-0.0525965999999994,-0.0134111999999994,-0.0547358,0,sub_8
0.0053013999999995,0.0130500000000012,0.0109831999999999,-0.0434041999999995,-0.0164111999999994,-0.0521072,0,sub_8
0.0041803999999995,0.0111234000000012,0.0057489999999999,-0.0286553999999994,-0.0132689999999994,-0.0451746,0,sub_8
0.0034127999999995,0.0101684000000012,0.0018771999999999,-0.0104937999999994,-0.0052589999999994,-0.033097,0,sub_8
0.0017387999999995,0.0097884000000012,-5.100000000006098e-05,0.0112944000000005,0.0042228000000005,-0.0192868,0,sub_8
0.0023015999999995,0.0082802000000012,0.0010241999999999,0.0309410000000005,0.0143420000000005,-0.0031422,0,sub_8
0.0032513999999995,0.0079478000000012,0.0033969999999999,0.0469074000000004,0.0233784000000005,0.0142629999999999,0,sub_8
0.0025359999999995,0.0071952000000012,0.0070927999999998,0.0586122000000004,0.0313736000000005,0.0292895999999999,0,sub_8
0.0026749999999995,0.0066110000000012,0.0109173999999999,0.0641370000000004,0.0343046000000005,0.0374427999999999,0,sub_8
0.0020037999999995,0.0052496000000012,0.0161425999999999,0.0621994000000004,0.0334472000000005,0.0404213999999999,0,sub_8
-0.0002878000000004,0.0054242000000012,0.0215415999999999,0.0547238000000004,0.0292224000000005,0.0378109999999999,0,sub_8
-0.0034694000000004,0.0058632000000012,0.0273393999999999,0.0440542000000005,0.0216196000000005,0.0302685999999999,0,sub_8
-0.0046244000000004,0.0133674000000012,0.0319793999999999,0.0340324000000005,0.0135970000000005,0.0205947999999999,0,sub_8
-0.0073280000000004,0.0158102000000012,0.0367031999999999,0.0242422000000004,0.0136534000000005,0.0149715999999999,0,sub_8
-0.0085794000000004,0.0178770000000012,0.0387075999999999,0.0170316000000005,0.0190230000000005,0.0104277999999999,0,sub_8
-0.0082644000000004,0.0191680000000012,0.0389221999999999,0.0121854000000005,0.0275826000000005,0.0052553999999999,0,sub_8
-0.0060824000000004,0.0188916000000012,0.0388097999999999,0.0096854000000005,0.0357088000000005,-0.0001136,0,sub_8
-0.0032504000000004,0.0130906000000012,0.0388439999999999,0.0069642000000004,0.0431924000000005,-0.004415,0,sub_8
-0.0002266000000004,0.0110550000000012,0.0382007999999999,0.0059288000000004,0.0457708000000005,-0.008912,0,sub_8
0.0030609999999995,0.0115946000000012,0.0366441999999999,0.0052982000000004,0.0449328000000005,-0.0119064,0,sub_8
0.0054145999999995,0.0125358000000012,0.0362695999999999,0.0063458000000004,0.0400316000000005,-0.0125338,0,sub_8
0.0061661999999995,0.0132870000000012,0.0364163999999999,0.0071792000000004,0.0364034000000005,-0.0116686,0,sub_8
0.0047873999999995,0.0105794000000012,0.0360253999999999,0.0075868000000004,0.0338386000000005,-0.0099534,0,sub_8
0.0050545999999995,0.0101132000000012,0.0351105999999999,0.0099128000000004,0.0325384000000005,-0.0065172,0,sub_8
0.0058563999999995,0.0077376000000012,0.0344273999999999,0.0137324000000005,0.0333550000000005,-0.0009368,0,sub_8
0.0096571999999995,0.0056240000000012,0.0313613999999998,0.0169206000000004,0.0371522000000005,0.0057035999999999,0,sub_8
0.0134479999999995,0.0043836000000012,0.0269901999999999,0.0186054000000004,0.0379754000000005,0.0114825999999999,0,sub_8
0.0163985999999995,0.0049738000000012,0.0231119999999999,0.0209248000000004,0.0345472000000004,0.0142805999999999,0,sub_8
0.0173295999999995,0.0046970000000012,0.0190315999999999,0.0223898000000004,0.0285748000000004,0.0147257999999999,0,sub_8
0.0187339999999995,0.0044810000000012,0.0154797999999999,0.0230022000000004,0.0226062000000004,0.0149513999999999,0,sub_8
0.0185411999999995,0.0036036000000012,0.0137099999999999,0.0236078000000004,0.0162074000000005,0.0162457999999999,0,sub_8
0.0189227999999995,0.0032804000000012,0.0120863999999999,0.0248508000000004,0.0100158000000005,0.0183987999999999,0,sub_8
0.0197327999999995,0.0031498000000012,0.0103923999999999,0.0241666000000004,0.0036128000000005,0.0218205999999999,0,sub_8
0.0218771999999995,0.0022028000000012,0.0104319999999999,0.0241148000000005,-0.0032235999999994,0.0265291999999999,0,sub_8
0.0221315999999995,0.0030940000000012,0.0105003999999999,0.0247022000000004,-0.0098507999999994,0.0316691999999999,0,sub_8
0.0242875999999995,0.0024066000000012,0.0099693999999999,0.0246466000000004,-0.0173273999999994,0.0365921999999999,0,sub_8
0.0266139999999995,0.0015044000000012,0.0103555999999999,0.0230964000000004,-0.0247993999999994,0.0417185999999999,0,sub_8
0.0292275999999995,0.0015896000000013,0.0117233999999999,0.0202554000000004,-0.0354593999999994,0.0459851999999999,0,sub_8
0.0271077999999995,0.0026756000000012,0.0148151999999999,0.0155026000000004,-0.0482269999999994,0.0461819999999999,0,sub_8
0.0252601999999995,0.0029178000000012,0.0184661999999999,0.0101260000000004,-0.0616145999999994,0.0421023999999999,0,sub_8
0.0210327999999995,0.0044860000000012,0.0211397999999999,0.0062574000000004,-0.0728723999999994,0.0369623999999999,0,sub_8
0.0171625999999995,0.0053324000000012,0.0229977999999999,0.0045292000000004,-0.0813731999999994,0.0331155999999999,0,sub_8
0.0138777999999995,0.0055498000000012,0.0245727999999999,0.0055806000000004,-0.0858467999999994,0.0320603999999999,0,sub_8
0.0162497999999995,0.0056854000000012,0.0241783999999999,0.0072638000000004,-0.0886327999999994,0.0346393999999999,0,sub_8
0.0174079999999995,0.0051458000000012,0.0230403999999999,0.0089344000000004,-0.0929151999999994,0.0385021999999999,0,sub_8
0.0178987999999995,0.0037456000000012,0.0232501999999999,0.0105954000000004,-0.0991159999999994,0.0425809999999999,0,sub_8
0.0181129999999995,0.0046584000000012,0.0218697999999999,0.0131080000000004,-0.1053213999999994,0.0470929999999999,0,sub_8
0.0194899999999995,0.0051270000000012,0.0218497999999999,0.0154044000000004,-0.1121651999999994,0.0516043999999999,0,sub_8
0.0195105999999995,0.0041822000000012,0.0226541999999999,0.0151382000000004,-0.1192139999999994,0.0563117999999999,0,sub_8
0.0190191999999995,0.0040940000000012,0.0233463999999999,0.0108200000000004,-0.1275199999999994,0.0592831999999999,0,sub_8
0.0175689999999995,0.0057072000000012,0.0243295999999999,0.0028668000000004,-0.1407007999999994,0.0590307999999999,0,sub_8
0.0155561999999995,0.0048382000000012,0.0273171999999999,-0.0074211999999995,-0.1538623999999994,0.0559847999999999,0,sub_8
0.0114099999999995,0.0038400000000012,0.0277477999999999,-0.0193483999999995,-0.1633629999999994,0.0512101999999999,0,sub_8
0.0080629999999995,0.0035380000000012,0.0247277999999999,-0.0308201999999995,-0.1685953999999994,0.0442967999999999,0,sub_8
0.0088941999999995,0.0027980000000012,0.0213109999999999,-0.0416469999999995,-0.1717039999999994,0.0384533999999999,0,sub_8
0.0121687999999995,0.0007306000000012,0.0175101999999999,-0.0537415999999995,-0.1720383999999994,0.0325975999999999,0,sub_8
0.0155053999999995,-8.999999998714919e-06,0.0139909999999999,-0.0694739999999995,-0.1766133999999994,0.0247989999999999,0,sub_8
0.0185863999999995,0.0007864000000012,0.0103133999999999,-0.0848447999999994,-0.1874339999999994,0.0155201999999999,0,sub_8
0.0205351999999995,0.0017726000000012,0.0089147999999999,-0.0961737999999994,-0.1989163999999994,0.0084069999999999,0,sub_8
0.0202123999999995,0.0028762000000012,0.0088395999999999,-0.1013113999999995,-0.2061729999999994,0.0047499999999999,0,sub_8
0.0191011999999995,0.0041462000000012,0.0085133999999999,-0.0996189999999994,-0.2085709999999994,0.0056207999999999,0,sub_8
0.0177385999999995,0.0050598000000012,0.0085019999999999,-0.0891677999999994,-0.2056853999999994,0.0095369999999999,0,sub_8
0.0170841999999995,0.0067182000000012,0.0090689999999999,-0.0720721999999994,-0.1944753999999994,0.0151967999999999,0,sub_8
0.0161323999999995,0.0087726000000012,0.0098059999999999,-0.0513337999999994,-0.1792325999999994,0.0215177999999999,0,sub_8
0.0169165999999995,0.0085044000000012,0.0104293999999999,-0.0290931999999994,-0.1622897999999994,0.0276333999999999,0,sub_8
0.0195649999999995,0.0073626000000013,0.0099459999999999,-0.0070593999999994,-0.1457647999999994,0.0318253999999999,0,sub_8
0.0234283999999995,0.0059142000000013,0.0100829999999999,0.0138924000000005,-0.1341301999999994,0.0345205999999999,0,sub_8
0.0270243999999995,0.0034692000000013,0.0105325999999999,0.0309748000000005,-0.1305713999999994,0.0354899999999999,0,sub_8
0.0305379999999995,0.0012822000000013,0.0101279999999999,0.0437780000000005,-0.1329495999999994,0.0330185999999999,0,sub_8
0.0320263999999995,0.0021048000000013,0.0105725999999999,0.0555068000000005,-0.1404235999999994,0.0271281999999999,0,sub_8
0.0301763999999995,0.0023396000000012,0.0131723999999999,0.0666032000000005,-0.1483127999999994,0.0190973999999999,0,sub_8
0.0273449999999995,0.0037936000000012,0.0141397999999999,0.0764404000000004,-0.1527835999999994,0.0097715999999999,0,sub_8
0.0245717999999995,0.0054324000000012,0.0170055999999999,0.0877904000000005,-0.1513009999999994,0.0021575999999999,0,sub_8
0.0230753999999995,0.0072134000000012,0.0219441999999999,0.1023448000000005,-0.1447333999999994,-0.0011674,0,sub_8
0.0221071999999995,0.0072496000000012,0.0244335999999999,0.1147722000000004,-0.1322107999999994,-2.8600000000046645e-05,0,sub_8
0.0217515999999995,0.0076588000000012,0.0260917999999999,0.1237828000000004,-0.1162837999999994,0.0051413999999999,0,sub_8
0.0208671999999995,0.0055132000000012,0.0287129999999999,0.1259692000000004,-0.0971463999999994,0.0126095999999999,0,sub_8
