userAcceleration.x,userAcceleration.y,userAcceleration.z,rotationRate.x,rotationRate.y,rotationRate.z,label,subject
-0.0287564000000002,-0.0108223999999986,0.0995113999999999,-0.0025189999999994,0.0178718000000007,0.0250404,0,sub_19
-0.0278446000000002,-0.0108291999999986,0.1005761999999999,-0.0002265999999994,0.0027488000000007,0.0220848,0,sub_19
-0.0264690000000002,-0.0109231999999986,0.1017835999999999,0.0050712000000005,-0.0081243999999992,0.0193582,0,sub_19
-0.0251148000000002,-0.0105795999999986,0.1026911999999999,0.0112322000000005,-0.0164457999999992,0.0170618,0,sub_19
-0.0242666000000002,-0.0097191999999986,0.1030277999999999,0.0167618000000005,-0.0226351999999992,0.0149718,0,sub_19
-0.0239324000000002,-0.0080513999999986,0.1031121999999998,0.0201622000000005,-0.0277517999999992,0.0128656,0,sub_19
-0.0241698000000002,-0.0074041999999986,0.1036675999999998,0.0212156000000005,-0.0332847999999991,0.0103162,0,sub_19
-0.0248340000000002,-0.0073691999999986,0.1037883999999998,0.0205564000000005,-0.0407265999999991,0.0071166,0,sub_19
-0.0255848000000002,-0.0080643999999987,0.1037527999999999,0.0192522000000005,-0.0500801999999991,0.0030602,0,sub_19
-0.0260722000000002,-0.0084103999999987,0.1043419999999999,0.0181556000000005,-0.0609251999999991,-0.0012063999999999,0,sub_19
-0.0260614000000002,-0.0086067999999987,0.1049011999999998,0.0179098000000005,-0.0724123999999991,-0.0054661999999999,0,sub_19
-0.0264418000000001,-0.0077673999999987,0.1050153999999999,0.0180934000000005,-0.0826251999999992,-0.0090837999999999,0,sub_19
-0.0264182000000001,-0.0066221999999987,0.1055721999999998,0.0184980000000005,-0.0904977999999992,-0.0120619999999999,0,sub_19
-0.0261416000000001,-0.0057823999999987,0.1055981999999998,0.0195494000000005,-0.0951835999999992,-0.0133303999999999,0,sub_19
-0.0252772000000002,-0.0060681999999987,0.1048197999999999,0.0214592000000005,-0.0964727999999992,-0.0122471999999999,0,sub_19
-0.0241530000000002,-0.0067525999999987,0.1037509999999999,0.0233718000000005,-0.0954251999999992,-0.0094577999999999,0,sub_19
-0.0224986000000002,-0.0068725999999987,0.1030947999999999,0.0244368000000005,-0.0924597999999992,-0.0060357999999999,0,sub_19
-0.0211198000000002,-0.0075093999999987,0.1026897999999999,0.0244350000000005,-0.0884295999999992,-0.0015543999999999,0,sub_19
-0.0192354000000002,-0.0076579999999986,0.1023003999999999,0.0235834000000005,-0.0837563999999992,0.0027066,0,sub_19
-0.0186070000000002,-0.0070635999999986,0.1029197999999999,0.0214574000000005,-0.0794981999999992,0.00525,0,sub_19
-0.0183924000000002,-0.0061039999999986,0.1034109999999998,0.0191228000000005,-0.0754471999999992,0.0065104,0,sub_19
-0.0181594000000002,-0.0063507999999986,0.1034351999999999,0.0176446000000005,-0.0716085999999992,0.0069224,0,sub_19
-0.0177910000000002,-0.0062291999999986,0.1034897999999999,0.0172390000000005,-0.0675565999999992,0.0062734,0,sub_19
-0.0179698000000002,-0.0058545999999986,0.1045415999999999,0.0159866000000005,-0.0630711999999992,0.0045496,0,sub_19
-0.0179114000000002,-0.0055965999999986,0.1050917999999998,0.0149522000000005,-0.0577333999999992,0.0026128,0,sub_19
-0.0182318000000002,-0.0058517999999986,0.1056059999999999,0.0141304000000005,-0.0523971999999991,0.000891,0,sub_19
-0.0187704000000002,-0.0054929999999986,0.1064937999999999,0.0137334000000005,-0.0477009999999991,-0.0010405999999999,0,sub_19
-0.0191666000000002,-0.0048583999999986,0.1070851999999999,0.0129124000000005,-0.0427883999999991,-0.0034025999999999,0,sub_19
-0.0194716000000002,-0.0044177999999986,0.1073873999999999,0.0120934000000005,-0.0372375999999991,-0.0055517999999999,0,sub_19
-0.0197060000000002,-0.0041387999999986,0.1074597999999999,0.0110620000000005,-0.0312607999999991,-0.0074893999999999,0,sub_19
-0.0198368000000002,-0.0038705999999986,0.1074645999999999,0.0102468000000005,-0.0248577999999992,-0.0096397999999999,0,sub_19
-0.0198226000000002,-0.0035761999999986,0.1070687999999999,0.0094354000000005,-0.0176023999999991,-0.0117911999999999,0,sub_19
-0.0197392000000002,-0.0036875999999987,0.1058987999999999,0.0092632000000005,-0.0099257999999992,-0.0132977999999999,0,sub_19
-0.0197292000000002,-0.0040025999999987,0.1043835999999999,0.0097312000000005,-0.0016147999999992,-0.0141597999999999,0,sub_19
-0.0187270000000002,-0.0043301999999987,0.1029259999999999,0.0104106000000005,0.0071182000000007,-0.0141663999999999,0,sub_19
-0.0178924000000002,-0.0048553999999987,0.1014765999999999,0.0102374000000005,0.0164916000000007,-0.0137521999999999,0,sub_19
-0.0170066000000002,-0.0053593999999987,0.1005537999999999,0.0089936000000005,0.0258652000000007,-0.0124909999999999,0,sub_19
-0.0171918000000002,-0.0054677999999987,0.0995425999999999,0.0058276000000005,0.0348196000000008,-0.0112427999999999,0,sub_19
-0.0174228000000002,-0.0055825999999987,0.0982645999999999,0.0012380000000005,0.0406252000000007,-0.0099793999999999,0,sub_19
-0.0186836000000002,-0.0056727999999987,0.0981937999999999,-0.0048537999999994,0.0440942000000007,-0.0091507999999999,0,sub_19
-0.0197932000000002,-0.0054821999999987,0.0986153999999999,-0.0115905999999993,0.0462880000000007,-0.0085387999999999,0,sub_19
-0.0211502000000002,-0.0053207999999987,0.0986339999999999,-0.0183273999999993,0.0480572000000007,-0.0083533999999999,0,sub_19
-0.0220168000000002,-0.0053131999999987,0.0990643999999999,-0.0237829999999993,0.0498228000000007,-0.0083727999999999,0,sub_19
-0.0227846000000002,-0.0054833999999987,0.0997045999999999,-0.0273997999999993,0.0519532000000007,-0.0090493999999999,0,sub_19
-0.0232228000000002,-0.0055437999999987,0.0994589999999999,-0.0293115999999994,0.0540758000000008,-0.0092867999999999,0,sub_19
-0.0236818000000002,-0.0057185999999987,0.0987717999999999,-0.0299459999999994,0.0555548000000007,-0.0095143999999999,0,sub_19
-0.0241520000000002,-0.0064647999999987,0.0983903999999999,-0.0299459999999994,0.0561778000000007,-0.0093091999999998,0,sub_19
-0.0245218000000002,-0.0073097999999987,0.0978739999999999,-0.0293125999999994,0.0559436000000007,-0.0084573999999999,0,sub_19
-0.0247720000000002,-0.0075415999999986,0.0981755999999999,-0.0291077999999994,0.0559352000000007,-0.0065331999999999,0,sub_19
-0.0245482000000002,-0.0078221999999986,0.0981701999999999,-0.0291143999999993,0.0565658000000008,-0.0043975999999999,0,sub_19
-0.0243700000000002,-0.0080087999999986,0.0982921999999999,-0.0289057999999993,0.0578340000000007,-0.0020477999999999,0,sub_19
-0.0242316000000002,-0.0075437999999986,0.0983283999999999,-0.0285217999999993,0.0597628000000007,0.0004656,0,sub_19
-0.0239292000000002,-0.0070533999999986,0.0989475999999999,-0.0281415999999994,0.0610516000000007,0.0031934,0,sub_19
-0.0239796000000002,-0.0071013999999986,0.0993325999999999,-0.0275453999999994,0.0625544000000008,0.0054952,0,sub_19
-0.0249756000000002,-0.0068733999999986,0.0999965999999999,-0.0269519999999994,0.0629938000000008,0.0073712,0,sub_19
-0.0257090000000002,-0.0069161999999986,0.1005325999999999,-0.0261479999999994,0.0623688000000007,0.0088226,0,sub_19
-0.0268122000000002,-0.0075097999999986,0.1013075999999999,-0.0246697999999994,0.0593792000000008,0.009264,0,sub_19
-0.0278678000000002,-0.0075865999999986,0.1021751999999999,-0.0223361999999994,0.0557518000000007,0.008644,0,sub_19
-0.0285256000000002,-0.0083001999999986,0.1024947999999999,-0.0195833999999994,0.0504182000000007,0.0080292,0,sub_19
-0.0286364000000002,-0.0089783999999986,0.1021787999999999,-0.0158227999999994,0.0445792000000007,0.006958,0,sub_19
-0.0284358000000002,-0.0094855999999986,0.1023671999999999,-0.0118563999999994,0.0378838000000007,0.006744,0,sub_19
-0.0282436000000002,-0.0094813999999986,0.1019731999999999,-0.0087445999999994,0.0320394000000007,0.007591,0,sub_19
-0.0276664000000002,-0.0098209999999986,0.1012209999999999,-0.0069187999999994,0.0261942000000007,0.009711,0,sub_19
-0.0269522000000002,-0.0091285999999987,0.1006019999999999,-0.0050871999999994,0.0214154000000007,0.011616,0,sub_19
-0.0264556000000002,-0.0084447999999987,0.1008701999999998,-0.0034089999999994,0.0169276000000007,0.0135562,0,sub_19
-0.0261370000000002,-0.0077563999999987,0.1005623999999999,-0.0019403999999994,0.0126562000000007,0.0148538,0,sub_19
-0.0255942000000002,-0.0073577999999987,0.1004563999999998,0.0003846000000005,0.0079600000000007,0.0150898,0,sub_19
-0.0257320000000002,-0.0075627999999987,0.1003345999999998,0.0030802000000005,0.0031556000000007,0.0144736,0,sub_19
-0.0258660000000002,-0.0079251999999986,0.1009417999999998,0.0055596000000005,-0.0022871999999992,0.0138566,0,sub_19
-0.0254186000000002,-0.0080369999999986,0.1009801999999999,0.0073970000000005,-0.0079415999999992,0.0134492,0,sub_19
-0.0255102000000002,-0.0078283999999986,0.1011489999999999,0.0083838000000005,-0.0127417999999992,0.0132484,0,sub_19
-0.0254000000000002,-0.0072527999999986,0.1010331999999999,0.0083066000000005,-0.0166869999999992,0.0132526,0,sub_19
-0.0248016000000002,-0.0063031999999986,0.1012997999999999,0.0078684000000005,-0.0196663999999992,0.012826,0,sub_19
-0.0250422000000002,-0.0053297999999986,0.1005017999999999,0.0074360000000005,-0.0217919999999992,0.0119712,0,sub_19
-0.0247586000000002,-0.0050955999999986,0.1004499999999999,0.0074340000000005,-0.0228547999999992,0.0113316,0,sub_19
-0.0245568000000002,-0.0052437999999986,0.0999635999999999,0.0076426000000005,-0.0226631999999992,0.0100726,0,sub_19
-0.0239660000000002,-0.0056421999999986,0.1003131999999999,0.0082790000000005,-0.0220477999999992,0.0090298,0,sub_19
-0.0239794000000002,-0.0065687999999987,0.1001165999999999,0.0093392000000005,-0.0218609999999992,0.0082042,0,sub_19
-0.0231060000000002,-0.0067237999999987,0.1001633999999999,0.0097554000000005,-0.0223119999999992,0.0075884,0,sub_19
-0.0238062000000002,-0.0066047999999986,0.0994193999999999,0.0093164000000005,-0.0238225999999992,0.006327,0,sub_19
-0.0233912000000002,-0.0065355999999986,0.1001999999999999,0.0086724000000005,-0.0261579999999992,0.00483,0,sub_19
-0.0231580000000002,-0.0067425999999986,0.1006079999999999,0.0078132000000005,-0.0287065999999992,0.0035454,0,sub_19
-0.0226492000000002,-0.0059119999999986,0.1011951999999999,0.0061072000000005,-0.0299729999999991,0.0020396,0,sub_19
-0.0222092000000002,-0.0062771999999986,0.1018815999999999,0.0044616000000005,-0.0303173999999991,0.0005568,0,sub_19
-0.0213334000000002,-0.0066721999999987,0.1026217999999999,0.0026036000000005,-0.0302357999999991,-0.0007143999999999,0,sub_19
-0.0214752000000002,-0.0067463999999986,0.1025639999999999,0.0016002000000005,-0.0297319999999991,-0.0017665999999999,0,sub_19
-0.0213358000000002,-0.0065923999999986,0.1024397999999999,0.0010282000000005,-0.0285887999999991,-0.0032437999999999,0,sub_19
-0.0214572000000002,-0.0068219999999986,0.1023001999999999,0.0010906000000005,-0.0280895999999991,-0.0040749999999999,0,sub_19
-0.0215938000000002,-0.0069021999999986,0.1024203999999999,0.0008820000000005,-0.0274479999999991,-0.0045045999999999,0,sub_19
-0.0213152000000002,-0.0063707999999986,0.1028443999999999,0.0006714000000005,-0.0268081999999991,-0.0045067999999999,0,sub_19
-0.0208860000000002,-0.0065355999999986,0.1032839999999999,3.1200000000573475e-05,-0.0265935999999991,-0.0042977999999999,0,sub_19
-0.0215538000000002,-0.0066147999999986,0.1033603999999999,-0.0018073999999993,-0.0268031999999991,-0.0036685999999999,0,sub_19
-0.0220610000000002,-0.0063095999999987,0.1035975999999999,-0.0047175999999993,-0.0278621999999991,-0.0028319999999999,0,sub_19
-0.0223766000000002,-0.0060463999999987,0.1038505999999999,-0.0076257999999993,-0.0293439999999991,-0.0028493999999999,0,sub_19
-0.0230684000000002,-0.0064577999999987,0.1038485999999999,-0.0107425999999994,-0.0301841999999991,-0.0032965999999999,0,sub_19
-0.0239718000000002,-0.0058363999999987,0.1042149999999998,-0.0136469999999994,-0.0308137999999991,-0.0033151999999999,0,sub_19
-0.0240364000000002,-0.0052395999999987,0.1046161999999999,-0.0140697999999994,-0.0305967999999991,-0.0039593999999999,0,sub_19
-0.0237952000000002,-0.0051219999999987,0.1049773999999998,-0.0127751999999993,-0.0282541999999991,-0.0048079999999999,0,sub_19
-0.0241090000000002,-0.0049771999999987,0.1051447999999999,-0.0108365999999993,-0.0246371999999991,-0.0052263999999999,0,sub_19
-0.0237116000000002,-0.0048769999999987,0.1051493999999999,-0.0084087999999993,-0.0212009999999991,-0.0054539999999999,0,sub_19
-0.0229416000000002,-0.0053101999999986,0.1044947999999999,-0.0068345999999993,-0.0181863999999991,-0.0061143999999999,0,sub_19
-0.0219192000000002,-0.0062981999999986,0.1043193999999999,-0.0069769999999994,-0.0170839999999991,-0.0065705999999999,0,sub_19
-0.0209402000000002,-0.0073691999999986,0.1040957999999999,-0.0086223999999994,-0.0183191999999991,-0.0072479999999999,0,sub_19
-0.0205072000000002,-0.0088045999999986,0.1045791999999999,-0.0102773999999994,-0.0216849999999991,-0.0079227999999999,0,sub_19
-0.0211770000000002,-0.0101279999999986,0.1050627999999999,-0.0105041999999994,-0.0250913999999991,-0.0083471999999999,0,sub_19
-0.0218476000000002,-0.0114933999999987,0.1058025999999999,-0.0081713999999994,-0.0287197999999992,-0.0087535999999999,0,sub_19
-0.0229260000000002,-0.0114379999999987,0.1060001999999999,-0.0034867999999994,-0.0306545999999992,-0.0085047999999999,0,sub_19
-0.0240434000000002,-0.0107961999999987,0.1066687999999999,0.0020782000000005,-0.0320365999999992,-0.0078671999999999,0,sub_19
-0.0244266000000002,-0.0095169999999987,0.1069095999999999,0.0089310000000005,-0.0312941999999992,-0.0067959999999999,0,sub_19
-0.0242094000000002,-0.0081825999999987,0.1073655999999999,0.0153620000000005,-0.0296971999999992,-0.0059425999999999,0,sub_19
-0.0239110000000002,-0.0068415999999986,0.1070177999999999,0.0207318000000005,-0.0261815999999992,-0.0044579999999999,0,sub_19
-0.0234850000000002,-0.0056913999999986,0.1072511999999999,0.0235402000000005,-0.0230821999999992,-0.0032043999999999,0,sub_19
-0.0229588000000002,-0.0051587999999986,0.1072479999999999,0.0252614000000005,-0.0192557999999992,-0.0025561999999999,0,sub_19
-0.0224560000000002,-0.0054715999999986,0.1072739999999999,0.0242032000000005,-0.0169101999999991,-0.0021393999999998,0,sub_19
-0.0221080000000002,-0.0059755999999986,0.1065717999999999,0.0224990000000005,-0.0164771999999991,-0.0023653999999999,0,sub_19
-0.0216276000000002,-0.0064275999999987,0.1064273999999999,0.0201466000000005,-0.0181655999999991,-0.0028453999999999,0,sub_19
-0.0216596000000002,-0.0074441999999987,0.1061033999999999,0.0180058000000005,-0.0209175999999991,-0.0039635999999999,0,sub_19
-0.0213674000000002,-0.0089797999999987,0.1050467999999999,0.0169310000000005,-0.0238861999999991,-0.0050739999999999,0,sub_19
-0.0210418000000002,-0.0095095999999987,0.1038353999999999,0.0171382000000005,-0.0266453999999991,-0.0063891999999999,0,sub_19
-0.0207324000000002,-0.0095501999999987,0.1035103999999999,0.0173474000000005,-0.0277053999999991,-0.0064249999999999,0,sub_19
-0.0205092000000002,-0.0097761999999987,0.1038825999999999,0.0179856000000005,-0.0279215999999991,-0.0062065999999999,0,sub_19
-0.0204896000000002,-0.0096353999999987,0.1042999999999999,0.0194792000000005,-0.0272901999999991,-0.0055559999999999,0,sub_19
-0.0210266000000002,-0.0085115999999987,0.1049707999999998,0.0218330000000005,-0.0253825999999991,-0.0051147999999999,0,sub_19
-0.0212726000000002,-0.0070001999999986,0.1051613999999998,0.0252610000000005,-0.0217069999999992,-0.0044725999999999,0,sub_19
-0.0218214000000002,-0.0065351999999986,0.1060691999999998,0.0284822000000005,-0.0171759999999992,-0.0044737999999999,0,sub_19
-0.0222162000000002,-0.0060663999999986,0.1058327999999999,0.0319238000000005,-0.0115785999999992,-0.0049021999999999,0,sub_19
-0.0218420000000002,-0.0063629999999986,0.1055841999999999,0.0351528000000005,-0.0055551999999992,-0.0051189999999999,0,sub_19
-0.0217444000000002,-0.0069209999999986,0.1055395999999999,0.0381616000000005,-0.0003859999999992,-0.0046951999999999,0,sub_19
-0.0215880000000002,-0.0075613999999987,0.1060175999999998,0.0401000000000005,0.0036552000000007,-0.0046867999999999,0,sub_19
-0.0214640000000002,-0.0076915999999986,0.1057385999999999,0.0416080000000005,0.0064214000000007,-0.0051069999999999,0,sub_19
-0.0213992000000002,-0.0074855999999986,0.1059087999999999,0.0420452000000005,0.0079146000000007,-0.0059603999999999,0,sub_19
-0.0215530000000002,-0.0057617999999986,0.1058663999999998,0.0407956000000005,0.0086690000000007,-0.0072531999999999,0,sub_19
-0.0213722000000002,-0.0054697999999986,0.1060233999999999,0.0384762000000005,0.0083636000000007,-0.0089793999999999,0,sub_19
-0.0211156000000002,-0.0055379999999986,0.1061019999999999,0.0355082000000005,0.0063552000000007,-0.0104943999999999,0,sub_19
-0.0206242000000002,-0.0050911999999986,0.1062581999999999,0.0327476000000005,0.0032798000000007,-0.0117929999999999,0,sub_19
-0.0204902000000002,-0.0045709999999986,0.1061633999999999,0.0299860000000005,-8.599999999206117e-06,-0.0130911999999999,0,sub_19
-0.0202142000000002,-0.0059077999999986,0.1061009999999999,0.0282684000000005,-0.0034071999999992,-0.0141669999999999,0,sub_19
-0.0197790000000002,-0.0054565999999987,0.1062567999999999,0.0259070000000005,-0.0072313999999992,-0.0148195999999999,0,sub_19
-0.0199404000000002,-0.0058781999999986,0.1059359999999999,0.0237598000000005,-0.0104189999999992,-0.0150441999999999,0,sub_19
-0.0201110000000002,-0.0059647999999986,0.1063183999999999,0.0214192000000005,-0.0132667999999992,-0.0146127999999999,0,sub_19
-0.0196154000000002,-0.0059105999999986,0.1067131999999999,0.0190758000000005,-0.0163291999999992,-0.0137539999999999,0,sub_19
-0.0192448000000002,-0.0056607999999986,0.1074501999999999,0.0165218000000005,-0.0187519999999992,-0.0128973999999999,0,sub_19
-0.0188960000000002,-0.0061747999999986,0.1076667999999999,0.0137610000000005,-0.0203191999999991,-0.0126841999999999,0,sub_19
-0.0184306000000002,-0.0058499999999986,0.1081391999999999,0.0114280000000005,-0.0216747999999991,-0.0124681999999999,0,sub_19
-0.0180064000000002,-0.0066833999999986,0.1077925999999999,0.0095020000000005,-0.0233707999999991,-0.0129067999999999,0,sub_19
-0.0177936000000002,-0.0083733999999986,0.1077239999999999,0.0071472000000005,-0.0252793999999991,-0.0131343999999999,0,sub_19
-0.0175274000000002,-0.0098335999999986,0.1072339999999998,0.0043590000000005,-0.0284653999999991,-0.0131497999999999,0,sub_19
-0.0172752000000002,-0.0110551999999987,0.1069093999999998,0.0024196000000005,-0.0322953999999992,-0.0127311999999999,0,sub_19
-0.0160498000000002,-0.0122585999999987,0.1064673999999999,0.0004500000000005,-0.0359925999999992,-0.0118643999999999,0,sub_19
-0.0153640000000002,-0.0136359999999987,0.1060467999999999,-0.0004565999999994,-0.0394847999999992,-0.0099219999999999,0,sub_19
-0.0151020000000002,-0.0141387999999987,0.1061127999999999,0.0018326000000005,-0.0427801999999992,-0.0066757999999999,0,sub_19
-0.0156916000000002,-0.0143601999999987,0.1065659999999999,0.0077482000000005,-0.0448161999999992,-0.0019103999999999,0,sub_19
-0.0175906000000002,-0.0124493999999987,0.1089067999999999,0.0172910000000005,-0.0447425999999992,0.0050142,0,sub_19
-0.0202682000000002,-0.0110009999999986,0.1111187999999999,0.0313554000000005,-0.0412005999999992,0.0127992,0,sub_19
-0.0229208000000002,-0.0066671999999986,0.1133541999999999,0.0484328000000005,-0.0317043999999992,0.020811,0,sub_19
-0.0251940000000002,-0.0021631999999987,0.1155383999999999,0.0659024000000005,-0.0163137999999992,0.0275638,0,sub_19
-0.0262748000000002,0.0021558000000012,0.1173399999999999,0.0816910000000005,0.0035620000000007,0.0330172,0,sub_19
-0.0251312000000002,0.0040392000000012,0.1165999999999999,0.0938706000000005,0.0251642000000007,0.036093,0,sub_19
-0.0232748000000002,0.0056926000000012,0.1162231999999999,0.1005032000000006,0.0453012000000007,0.0374228,0,sub_19
-0.0201078000000002,0.0045366000000012,0.1147577999999999,0.0992258000000005,0.0603594000000008,0.0369948,0,sub_19
-0.0160552000000002,0.0023762000000013,0.1122339999999999,0.0888108000000005,0.0674342000000007,0.0349902,0,sub_19
-0.0121538000000002,0.0001850000000013,0.1096805999999999,0.0711132000000005,0.0660218000000007,0.0305956,0,sub_19
-0.0095250000000002,-0.0021351999999986,0.1074991999999999,0.0476258000000005,0.0571768000000007,0.0251018,0,sub_19
-0.0078530000000002,-0.0047147999999986,0.1052937999999999,0.0205796000000005,0.0437480000000007,0.0191948,0,sub_19
-0.0072938000000002,-0.0059997999999986,0.1043173999999999,-0.0051959999999994,0.0286084000000007,0.0137264,0,sub_19
-0.0080436000000002,-0.0054091999999987,0.1037909999999999,-0.0256277999999994,0.0166418000000007,0.0093594,0,sub_19
-0.0107122000000002,-0.0039451999999987,0.1041057999999999,-0.0398497999999994,0.0114636000000007,0.0069498,0,sub_19
-0.0132866000000002,-0.0022725999999987,0.1046693999999999,-0.0467873999999994,0.0139258000000007,0.0056494,0,sub_19
-0.0160344000000002,-6.839999999873354e-05,0.1054833999999999,-0.0458907999999994,0.0226614000000007,0.00479,0,sub_19
-0.0182720000000002,0.0011486000000012,0.1054233999999999,-0.0394263999999994,0.0356396000000007,0.0037502,0,sub_19
-0.0204762000000002,0.0009870000000012,0.1057603999999999,-0.0299631999999994,0.0509518000000007,0.0025148,0,sub_19
-0.0201746000000002,-0.0002983999999987,0.1047787999999999,-0.0195775999999994,0.0661182000000007,0.0011234,0,sub_19
-0.0190668000000002,-0.0021915999999986,0.1035063999999999,-0.0102655999999994,0.0804336000000007,0.0003668,0,sub_19
-0.0174972000000002,-0.0030919999999986,0.1018625999999999,-0.0048077999999994,0.0924162000000008,0.000227,0,sub_19
-0.0156632000000002,-0.0043585999999986,0.1010963999999999,-0.0036289999999994,0.1020694000000008,0.000274,0,sub_19
-0.0144054000000002,-0.0055547999999986,0.1004557999999999,-0.0067395999999994,0.1068372000000007,0.0002972,0,sub_19
-0.0142684000000002,-0.0064857999999986,0.1004709999999999,-0.0135655999999994,0.1066506000000007,-0.0003909999999999,0,sub_19
-0.0153078000000002,-0.0063439999999986,0.1008691999999999,-0.0238237999999994,0.1007302000000008,-0.0028051999999999,0,sub_19
-0.0172400000000002,-0.0065071999999986,0.1012267999999999,-0.0360137999999994,0.0909868000000007,-0.0065097999999999,0,sub_19
-0.0201160000000002,-0.0061803999999986,0.1017055999999999,-0.0485477999999994,0.0779370000000008,-0.0103649999999999,0,sub_19
-0.0225466000000002,-0.0055621999999986,0.1023711999999999,-0.0595891999999994,0.0648812000000007,-0.0139961999999998,0,sub_19
-0.0249422000000002,-0.0045405999999987,0.1027537999999999,-0.0676423999999994,0.0528768000000007,-0.0167533999999999,0,sub_19
-0.0268370000000002,-0.0033751999999987,0.1035615999999999,-0.0716347999999994,0.0444716000000007,-0.0173501999999999,0,sub_19
-0.0283340000000002,-0.0032665999999987,0.1046877999999999,-0.0724207999999994,0.0392432000000007,-0.0160059999999999,0,sub_19
-0.0292462000000002,-0.0028603999999987,0.1055685999999999,-0.0703033999999994,0.0385846000000007,-0.0129993999999999,0,sub_19
-0.0297558000000002,-0.0032813999999987,0.1061621999999999,-0.0666873999999994,0.0402592000000007,-0.0087033999999999,0,sub_19
-0.0304154000000002,-0.0038055999999987,0.1065877999999999,-0.0626457999999994,0.0421438000000007,-0.0039773999999999,0,sub_19
-0.0310668000000002,-0.0047203999999987,0.1060649999999999,-0.0579059999999994,0.0424468000000008,0.0001334,0,sub_19
-0.0315310000000002,-0.0050225999999987,0.1060807999999999,-0.0514575999999994,0.0418966000000008,0.0029754,0,sub_19
-0.0317470000000002,-0.0050685999999987,0.1055217999999999,-0.0432989999999994,0.0400698000000007,0.0039082,0,sub_19
-0.0323092000000002,-0.0048669999999987,0.1056717999999999,-0.0325781999999994,0.0380236000000007,0.0042182,0,sub_19
-0.0330824000000002,-0.0045969999999987,0.1066323999999999,-0.0182145999999994,0.0387368000000007,0.0039092,0,sub_19
-0.0337266000000002,-0.0046537999999987,0.1073959999999999,-0.0011275999999994,0.0422998000000007,0.0038104,0,sub_19
-0.0340232000000002,-0.0052937999999987,0.1075127999999999,0.0161738000000005,0.0458630000000007,0.0034994,0,sub_19
-0.0337426000000002,-0.0066629999999987,0.1072649999999999,0.0302610000000005,0.0473034000000007,0.0040232,0,sub_19
-0.0319508000000002,-0.0087889999999987,0.1062649999999999,0.0377100000000005,0.0449248000000008,0.003816,0,sub_19
-0.0298798000000002,-0.0111529999999987,0.1045851999999999,0.0374460000000005,0.0357546000000007,0.0037774,0,sub_19
-0.0273960000000002,-0.0134633999999987,0.1036933999999999,0.0303254000000005,0.0193678000000007,0.0028453999999999,0,sub_19
-0.0251958000000002,-0.0146389999999986,0.1023937999999999,0.0187028000000005,-0.0016903999999992,0.001888,0,sub_19
-0.0236720000000002,-0.0155053999999986,0.1017889999999999,0.0060068000000005,-0.0248729999999992,0.000285,0,sub_19
