userAcceleration.x,userAcceleration.y,userAcceleration.z,rotationRate.x,rotationRate.y,rotationRate.z,label,subject
0.0541401999999997,-0.0079643999999987,-0.0557812,-0.0202453999999995,-0.043510199999999,-0.0058198,0,sub_3
0.0540803999999997,-0.0098273999999987,-0.0565114,-0.0213417999999995,-0.049474399999999,-0.0051788,0,sub_3
0.0527905999999997,-0.0103245999999987,-0.0567646,-0.0217983999999995,-0.054591999999999,-0.0036798,0,sub_3
0.0513087999999996,-0.0099061999999987,-0.0563654,-0.0213917999999995,-0.057157799999999,-0.0017508,0,sub_3
0.0487305999999996,-0.0094005999999987,-0.0562876,-0.0205457999999995,-0.056743199999999,0.0003909999999999,0,sub_3
0.0480133999999996,-0.0078005999999987,-0.055889,-0.0192519999999995,-0.052703999999999,0.0014631999999999,0,sub_3
0.0477837999999996,-0.0060215999999987,-0.0560302,-0.0166627999999995,-0.045048199999999,0.0027533999999999,0,sub_3
0.0481969999999997,-0.0051519999999987,-0.0567092,-0.0132093999999995,-0.035263999999999,0.0038331999999999,0,sub_3
0.0485555999999997,-0.0043105999999987,-0.0571742,-0.0096407999999995,-0.026333799999999,0.0046933999999998,0,sub_3
0.0495131999999997,-0.0055597999999987,-0.0577316,-0.0060751999999995,-0.018254999999999,0.0053411999999998,0,sub_3
0.0494041999999997,-0.0060575999999987,-0.0586526,-0.0027305999999995,-0.011030999999999,0.0068429999999998,0,sub_3
0.0494787999999996,-0.0058273999999987,-0.0586752,0.0003968000000004,-0.005507199999999,0.0074907999999999,0,sub_3
0.0499443999999996,-0.0048499999999987,-0.0580698,0.0009676000000004,-0.000183399999999,0.0070527999999999,0,sub_3
0.0507733999999996,-0.0057803999999987,-0.0586282,-7.139999999949166e-05,0.0049378000000009,0.0059707999999999,0,sub_3
0.0511841999999996,-0.0052031999999987,-0.0586186,-0.0008979999999994,0.0100574000000009,0.0051037999999999,0,sub_3
0.0521689999999996,-0.0064127999999987,-0.0577564,-0.0008759999999994,0.0136846000000009,0.0038173999999999,0,sub_3
0.0530549999999996,-0.0078353999999987,-0.057036,-0.0014345999999995,0.0165900000000009,0.0033681999999999,0,sub_3
0.0530733999999996,-0.0093685999999987,-0.0566458,-0.0007225999999995,0.0177850000000009,0.0033573999999999,0,sub_3
0.0533489999999997,-0.0092697999999987,-0.055248,0.0002074000000004,0.0202566000000009,0.0035601999999999,0,sub_3
0.0539577999999997,-0.0080161999999987,-0.055413,-0.0001377999999995,0.0233736000000009,0.0033257999999999,0,sub_3
0.0544817999999997,-0.0061675999999987,-0.0561138,-0.0011201999999995,0.0275562000000009,0.0035129999999999,0,sub_3
0.0544321999999996,-0.0053897999999987,-0.0571698,-0.0017431999999994,0.0318178000000009,0.0039305999999999,0,sub_3
0.0558889999999996,-0.0047919999999987,-0.0575278,-0.0004561999999994,0.0341534000000009,0.0047911999999999,0,sub_3
0.0570065999999996,-0.0053881999999987,-0.0583338,0.0020948000000005,0.0330750000000009,0.0058785999999999,0,sub_3
0.0583251999999996,-0.0069211999999987,-0.0576664,0.0045578000000005,0.0293692000000009,0.0065295999999999,0,sub_3
0.0589327999999996,-0.0070549999999987,-0.057936,0.0059512000000004,0.0248158000000009,0.0069603999999999,0,sub_3
0.0598573999999996,-0.0065375999999987,-0.0580238,0.0071322000000004,0.0202640000000009,0.0071761999999999,0,sub_3
0.0595011999999996,-0.0068121999999987,-0.0585672,0.0063986000000004,0.0165728000000009,0.0069501999999999,0,sub_3
0.0593063999999996,-0.0063553999999987,-0.0584966,0.0052420000000004,0.0135230000000009,0.0065067999999999,0,sub_3
0.0587841999999996,-0.0059179999999987,-0.058664,0.0045914000000004,0.0105450000000009,0.0058651999999999,0,sub_3
0.0584329999999996,-0.0069053999999987,-0.057586,0.0039368000000004,0.0065026000000009,0.0050113999999999,0,sub_3
0.0580125999999997,-0.0079517999999987,-0.0572258,0.0019890000000005,0.0029484000000009,0.0039361999999999,0,sub_3
0.0576157999999996,-0.0080321999999987,-0.0569846,0.0004698000000005,-0.000181199999999,0.0028635999999999,0,sub_3
0.0579117999999996,-0.0085027999999987,-0.0570398,-0.0008339999999994,-0.002673199999999,0.0020051999999999,0,sub_3
0.0579815999999996,-0.0080735999999987,-0.057226,-0.0025617999999994,-0.004524599999999,0.0011431999999999,0,sub_3
0.0579573999999996,-0.0077505999999987,-0.0580182,-0.0032225999999994,-0.006167399999999,0.0005017999999999,0,sub_3
0.0581925999999996,-0.0077711999999987,-0.0580016,-0.0034473999999994,-0.008935599999999,0.0002901999999999,0,sub_3
0.0574685999999996,-0.0073141999999987,-0.0581218,-0.0041009999999994,-0.0123403999999989,-0.0001374,0,sub_3
0.0562589999999997,-0.0066641999999987,-0.0582544,-0.0047555999999994,-0.0157461999999989,-0.0003512,0,sub_3
0.0552665999999997,-0.0068165999999987,-0.0580988,-0.0043403999999994,-0.0180919999999989,-0.0001318,0,sub_3
0.0547099999999997,-0.0070319999999987,-0.0577428,-0.0038921999999994,-0.0190243999999989,-0.0001282,0,sub_3
0.0540931999999996,-0.0066685999999987,-0.0572898,-0.0032219999999994,-0.018464399999999,-0.0005524,0,sub_3
0.0539271999999996,-0.0067787999999987,-0.0569746,-0.0029727999999994,-0.016624599999999,-0.0009812,0,sub_3
0.0541981999999996,-0.0070663999999987,-0.0574088,-0.0040027999999994,-0.014779399999999,-0.0016326,0,sub_3
0.0541567999999996,-0.0073085999999987,-0.0575402,-0.0054641999999995,-0.014210399999999,-0.002499,0,sub_3
0.0541591999999996,-0.0069181999999987,-0.0575822,-0.0073835999999995,-0.014839399999999,-0.0033662,0,sub_3
0.0537727999999996,-0.0068113999999987,-0.0578234,-0.0097353999999994,-0.016745199999999,-0.0042348,0,sub_3
0.0537715999999997,-0.0073089999999987,-0.0572926,-0.0112337999999994,-0.018441999999999,-0.004884,0,sub_3
0.0535551999999997,-0.0063981999999987,-0.056251,-0.0114265999999994,-0.020052999999999,-0.0059632,0,sub_3
0.0534009999999997,-0.0050395999999987,-0.055536,-0.0120413999999994,-0.020809399999999,-0.00726,0,sub_3
0.0526521999999997,-0.0045349999999987,-0.055153,-0.0128695999999994,-0.021140799999999,-0.0081318,0,sub_3
0.0519269999999996,-0.0054573999999987,-0.0552462,-0.0126347999999994,-0.021903799999999,-0.0085682,0,sub_3
0.0522939999999996,-0.0055957999999987,-0.054822,-0.0106995999999994,-0.023739599999999,-0.008564,0,sub_3
0.0527355999999996,-0.0066305999999987,-0.054341,-0.0100641999999994,-0.022897399999999,-0.0066378,0,sub_3
0.0522997999999996,-0.0084509999999987,-0.0547728,-0.0096479999999994,-0.021847199999999,-0.003218,0,sub_3
0.0517827999999996,-0.0085555999999987,-0.0549958,-0.0083753999999995,-0.020585199999999,-0.0002196,0,sub_3
0.0510759999999996,-0.0090557999999987,-0.054285,-0.0062295999999995,-0.018045999999999,0.0029787999999999,0,sub_3
0.0484351999999996,-0.0083455999999987,-0.0537254,-0.0049277999999995,-0.014222199999999,0.0053149999999999,0,sub_3
0.0444533999999997,-0.0079915999999987,-0.053234,-0.0021255999999995,-0.010821999999999,0.0057393999999999,0,sub_3
0.0420013999999997,-0.0062031999999987,-0.052694,0.0013338000000004,-0.005074599999999,0.0046699999999999,0,sub_3
0.0405399999999996,-0.0060631999999987,-0.0519796,0.0050288000000004,0.0057844000000009,0.0038091999999999,0,sub_3
0.0394325999999996,-0.0038303999999987,-0.0526512,0.0065972000000004,0.0209118000000009,0.0023051999999999,0,sub_3
0.0400507999999996,-0.0038693999999987,-0.0540746,0.0079696000000004,0.0394506000000009,0.0003681999999999,0,sub_3
0.0423507999999996,-0.0036639999999987,-0.055402,0.0095580000000004,0.0590522000000009,-0.0011414,0,sub_3
0.0448237999999996,-0.0043561999999987,-0.0551488,0.0124220000000004,0.0775592000000009,-0.0020228,0,sub_3
0.0468293999999997,-0.0052043999999987,-0.055699,0.0148400000000004,0.0913824000000009,-0.0033286,0,sub_3
0.0497763999999997,-0.0045755999999987,-0.0555878,0.0178798000000004,0.1005188000000009,-0.005265,0,sub_3
0.0523737999999996,-0.0045321999999987,-0.0562216,0.0191848000000004,0.1036948000000009,-0.0069922,0,sub_3
0.0550031999999996,-0.0050977999999987,-0.0581662,0.0179074000000004,0.1024038000000009,-0.0083044,0,sub_3
0.0576203999999996,-0.0067213999999987,-0.0613132,0.0149000000000004,0.0968792000000009,-0.0093866,0,sub_3
0.0609229999999996,-0.0075655999999987,-0.0629676,0.0112314000000004,0.0870940000000009,-0.0100406,0,sub_3
0.0638791999999996,-0.0110457999999987,-0.063973,0.0064644000000004,0.0713428000000009,-0.0096264,0,sub_3
0.0653313999999996,-0.0116831999999987,-0.0639984,0.0021160000000004,0.0513392000000009,-0.0098608,0,sub_3
0.0644127999999996,-0.0101687999999987,-0.0622388,-0.0003265999999995,0.0291942000000009,-0.0090108,0,sub_3
0.0633165999999996,-0.0071303999999987,-0.0605656,-0.0016935999999994,0.0089628000000009,-0.0081558,0,sub_3
0.0635271999999996,-0.0055101999999987,-0.0605642,-0.0034613999999994,-0.005938999999999,-0.0077378,0,sub_3
0.0637975999999996,-0.0036881999999987,-0.0608694,-0.0058377999999994,-0.015293199999999,-0.0088266,0,sub_3
0.0651129999999996,-0.0053685999999987,-0.0614506,-0.0094891999999995,-0.021455599999999,-0.0096988,0,sub_3
0.0674599999999996,-0.0093441999999987,-0.0624734,-0.0146377999999995,-0.029101599999999,-0.0112206,0,sub_3
0.0697949999999996,-0.0137023999999987,-0.0624098,-0.0240633999999995,-0.045631599999999,-0.0146862,0,sub_3
0.0660525999999996,-0.0143099999999987,-0.0617828,-0.0345989999999995,-0.068774599999999,-0.0151598,0,sub_3
0.0617419999999996,-0.0130229999999987,-0.0618534,-0.0417273999999995,-0.091510999999999,-0.0136874,0,sub_3
0.0571339999999997,-0.0099903999999987,-0.0617854,-0.0477695999999994,-0.109777799999999,-0.0119994,0,sub_3
0.0521865999999996,-0.0057879999999987,-0.0616104,-0.0514217999999995,-0.119950999999999,-0.0118006,0,sub_3
0.0470661999999997,-0.0026027999999987,-0.0607284,-0.0494859999999994,-0.115275599999999,-0.0105112,0,sub_3
0.0459695999999997,-0.0024181999999987,-0.0594134,-0.0447313999999994,-0.102718399999999,-0.0113488,0,sub_3
0.0457267999999997,-0.0036241999999987,-0.058193,-0.0408167999999994,-0.087599999999999,-0.0126228,0,sub_3
0.0469093999999996,-0.0047199999999987,-0.0579224,-0.0353797999999994,-0.073693799999999,-0.0138782,0,sub_3
0.0497479999999996,-0.0060241999999987,-0.0573914,-0.0297359999999994,-0.060006199999999,-0.01385,0,sub_3
0.0527937999999996,-0.0067203999999987,-0.0583218,-0.0253899999999995,-0.048875999999999,-0.0125456,0,sub_3
0.0562061999999996,-0.0067003999999987,-0.0587922,-0.0208391999999995,-0.0398761999999989,-0.0114508,0,sub_3
0.0589821999999996,-0.0077793999999987,-0.0580408,-0.0173705999999995,-0.0342815999999989,-0.0103592,0,sub_3
0.0607253999999996,-0.0074233999999987,-0.0557586,-0.0150167999999994,-0.0304641999999989,-0.0079976,0,sub_3
0.0627885999999996,-0.0067555999999987,-0.053278,-0.0126811999999994,-0.0313315999999989,-0.006271,0,sub_3
0.0639967999999996,-0.0064501999999987,-0.051722,-0.0105761999999994,-0.0364573999999989,-0.004968,0,sub_3
0.0645951999999996,-0.0064625999999987,-0.0502336,-0.0112573999999994,-0.0434945999999989,-0.0028272,0,sub_3
0.0630273999999996,-0.0061101999999987,-0.0486816,-0.0104325999999994,-0.049706799999999,-0.000461,0,sub_3
0.0596095999999996,-0.0075077999999987,-0.0484136,-0.0085315999999995,-0.053579999999999,0.0021231999999999,0,sub_3
0.0542837999999996,-0.0090757999999987,-0.0485078,-0.0068313999999995,-0.053621799999999,0.0057693999999999,0,sub_3
0.0484327999999996,-0.0078703999999987,-0.0476408,-0.0040441999999995,-0.048556799999999,0.0100575999999999,0,sub_3
0.0421137999999996,-0.0056737999999987,-0.0482886,0.0019780000000004,-0.035832799999999,0.0143583999999999,0,sub_3
0.0368445999999996,-0.0026955999999987,-0.049772,0.0067402000000004,-0.016054199999999,0.0190663999999999,0,sub_3
0.0327755999999996,0.0011184000000012,-0.0525874,0.0119608000000004,0.0099050000000009,0.0229151999999999,0,sub_3
0.0338669999999996,0.0011596000000012,-0.0550462,0.0161138000000004,0.0346420000000009,0.0220765999999999,0,sub_3
0.0359727999999996,-0.0012311999999987,-0.057424,0.0179102000000004,0.0511030000000009,0.0150365999999999,0,sub_3
0.0406811999999996,-0.0034559999999987,-0.0584558,0.0182072000000004,0.0643810000000009,0.0060673999999999,0,sub_3
0.0453221999999997,-0.0054003999999987,-0.058698,0.0182746000000004,0.0727648000000009,-0.004179,0,sub_3
0.0506379999999997,-0.0076089999999987,-0.0570912,0.0183200000000004,0.0764604000000009,-0.0142058,0,sub_3
0.0520137999999997,-0.0069737999999987,-0.0546584,0.0205016000000004,0.0826494000000009,-0.018685,0,sub_3
0.0532921999999997,-0.0071779999999987,-0.0513194,0.0252438000000004,0.0979540000000009,-0.0139712,0,sub_3
0.0533593999999997,-0.0088597999999987,-0.0480342,0.0321014000000004,0.1125984000000009,-0.0058234,0,sub_3
0.0543877999999996,-0.0105123999999987,-0.0451434,0.0380824000000004,0.1231934000000009,0.0033915999999999,0,sub_3
0.0576503999999997,-0.0110977999999987,-0.0444212,0.0414916000000004,0.1260670000000009,0.0126341999999999,0,sub_3
0.0604299999999996,-0.0112171999999987,-0.0450984,0.0410286000000004,0.1208624000000009,0.0207919999999999,0,sub_3
0.0635641999999997,-0.0106137999999987,-0.047692,0.0377772000000004,0.1088642000000009,0.0253069999999999,0,sub_3
0.0651767999999997,-0.0098063999999987,-0.0517124,0.0323836000000004,0.0921972000000009,0.0270355999999999,0,sub_3
0.0670885999999996,-0.0089183999999987,-0.0562392,0.0274130000000004,0.0731912000000009,0.0272745999999999,0,sub_3
0.0662473999999996,-0.0094805999999987,-0.058322,0.0230650000000004,0.0553096000000009,0.0272671999999999,0,sub_3
0.0649141999999997,-0.0100623999999987,-0.0597374,0.0191590000000004,0.0395622000000009,0.0259781999999999,0,sub_3
0.0632183999999997,-0.0105097999999987,-0.0601516,0.0150494000000004,0.0257338000000009,0.0244715999999999,0,sub_3
0.0611231999999997,-0.0099209999999987,-0.0594184,0.0093462000000004,0.0144012000000009,0.0221469999999999,0,sub_3
0.0583297999999996,-0.0087085999999987,-0.0582052,0.0043014000000004,0.0073266000000009,0.0200351999999999,0,sub_3
0.0559541999999996,-0.0070973999999987,-0.0572874,0.0012038000000004,0.0049376000000009,0.0166489999999999,0,sub_3
0.0545309999999996,-0.0060869999999987,-0.0566758,4.0000000000488606e-05,0.0046756000000009,0.0124191999999999,0,sub_3
0.0539451999999996,-0.0055503999999987,-0.0553638,-0.0004827999999995,0.0037758000000009,0.0073401999999999,0,sub_3
0.0546835999999996,-0.0059215999999987,-0.0549658,-0.0004779999999994,0.001021400000001,0.0034981999999999,0,sub_3
0.0558241999999996,-0.0070809999999987,-0.0544562,-0.0009105999999994,-0.0025895999999989,0.0011497999999999,0,sub_3
0.0576423999999996,-0.0077743999999987,-0.054711,-0.0012555999999994,-0.0062323999999989,0.0011977999999999,0,sub_3
0.0585271999999997,-0.0083977999999987,-0.0546902,-0.0016071999999994,-0.0096687999999989,0.0029545999999999,0,sub_3
0.0582929999999997,-0.0084457999999987,-0.0557472,-0.0021721999999994,-0.0124677999999989,0.0053499999999999,0,sub_3
0.0576363999999997,-0.0081935999999987,-0.0554936,-0.0016731999999994,-0.016546199999999,0.0071133999999999,0,sub_3
0.0576061999999997,-0.0076977999999987,-0.0554086,-9.859999999951144e-05,-0.0195597999999989,0.0080283999999999,0,sub_3
0.0566285999999996,-0.0080571999999987,-0.0550472,-0.0022513999999995,-0.0240255999999989,0.0078053999999999,0,sub_3
0.0555765999999997,-0.0080545999999987,-0.055796,-0.0069685999999995,-0.0293345999999989,0.0075655999999999,0,sub_3
0.0552507999999997,-0.0078111999999987,-0.0560386,-0.0110457999999995,-0.0348581999999989,0.0071167999999999,0,sub_3
0.0556333999999996,-0.0077057999999987,-0.0566614,-0.0150615999999995,-0.0383293999999989,0.0066713999999999,0,sub_3
0.0554283999999996,-0.0076245999999987,-0.0573482,-0.0197281999999995,-0.0445663999999989,0.0057975999999999,0,sub_3
0.0552937999999996,-0.0072211999999987,-0.057201,-0.0211921999999995,-0.0510249999999989,0.0043055999999999,0,sub_3
0.0552785999999996,-0.0070851999999987,-0.0563294,-0.0207281999999995,-0.0555737999999989,0.0030379999999999,0,sub_3
0.0545345999999996,-0.0065391999999987,-0.055889,-0.0202573999999995,-0.057994399999999,0.0024087999999999,0,sub_3
0.0535919999999996,-0.0058723999999987,-0.0552716,-0.0187723999999995,-0.059280599999999,0.0030615999999999,0,sub_3
0.0521881999999997,-0.0053229999999987,-0.0548272,-0.0172711999999994,-0.056520399999999,0.0041367999999999,0,sub_3
0.0510889999999996,-0.0058669999999987,-0.054457,-0.0159785999999994,-0.052057399999999,0.0058491999999999,0,sub_3
0.0505937999999996,-0.0055651999999987,-0.0541414,-0.0140447999999994,-0.048232399999999,0.0067123999999999,0,sub_3
0.0501179999999996,-0.0062027999999987,-0.0537044,-0.0117107999999994,-0.044738399999999,0.0073673999999999,0,sub_3
0.0492983999999996,-0.0070539999999987,-0.0534522,-0.0108665999999994,-0.041235599999999,0.0071573999999999,0,sub_3
0.0486283999999996,-0.0076805999999987,-0.0534318,-0.0098069999999994,-0.036883199999999,0.0073749999999999,0,sub_3
0.0481931999999997,-0.0061201999999987,-0.0539134,-0.0087407999999994,-0.031675999999999,0.0069505999999999,0,sub_3
0.0476831999999997,-0.0057171999999987,-0.0546768,-0.0078821999999994,-0.024553199999999,0.0071633999999999,0,sub_3
0.0472107999999997,-0.0048107999999987,-0.0554276,-0.0072075999999994,-0.017097799999999,0.0069447999999999,0,sub_3
0.0469757999999996,-0.0038897999999987,-0.0557886,-0.0058909999999994,-0.009642999999999,0.0063035999999999,0,sub_3
0.0472597999999997,-0.0043661999999987,-0.0555928,-0.0047905999999994,-0.003462999999999,0.0050215999999999,0,sub_3
0.0475895999999997,-0.0054271999999987,-0.0553182,-0.0039743999999995,0.0029318000000009,0.0047559999999999,0,sub_3
0.0479009999999996,-0.0046617999999987,-0.0554008,-0.0027325999999995,0.0086876000000009,0.0040665999999999,0,sub_3
0.0482671999999997,-0.0043485999999987,-0.0553608,-0.0008515999999995,0.0150770000000009,0.0042355999999999,0,sub_3
0.0485281999999997,-0.0048541999999987,-0.0560064,0.0014572000000004,0.0225268000000009,0.0052607999999999,0,sub_3
0.0488269999999997,-0.0045361999999987,-0.0566944,0.0035478000000004,0.0293364000000009,0.0067125999999999,0,sub_3
0.0486119999999997,-0.0043527999999987,-0.0567776,0.0063418000000004,0.0342252000000009,0.0071529999999999,0,sub_3
0.0492207999999997,-0.0054657999999987,-0.0571502,0.0078498000000004,0.0374158000000009,0.0071595999999999,0,sub_3
0.0502557999999997,-0.0064925999999987,-0.0572808,0.0086650000000004,0.0391900000000009,0.0066843999999999,0,sub_3
0.0513709999999997,-0.0062013999999987,-0.0573816,0.0088352000000004,0.0399012000000009,0.0062059999999999,0,sub_3
0.0519833999999997,-0.0055513999999987,-0.0577138,0.0094312000000004,0.0403978000000009,0.0057307999999999,0,sub_3
0.0528463999999996,-0.0055221999999987,-0.0585596,0.0096014000000004,0.0415332000000009,0.0056791999999999,0,sub_3
0.0534893999999997,-0.0050269999999987,-0.0578486,0.0108356000000004,0.0420258000000009,0.0056357999999999,0,sub_3
0.0536083999999997,-0.0056423999999987,-0.057388,0.0121148000000004,0.0415960000000009,0.0054317999999999,0,sub_3
0.0538723999999996,-0.0058035999999987,-0.0573026,0.0131798000000004,0.0403172000000009,0.0045863999999999,0,sub_3
0.0542739999999996,-0.0055649999999987,-0.0563792,0.0146754000000004,0.0386160000000009,0.0024625999999999,0,sub_3
0.0544775999999996,-0.0053191999999987,-0.054954,0.0165872000000004,0.0352064000000009,0.0009849999999999,0,sub_3
0.0536391999999996,-0.0061239999999987,-0.0554398,0.0174266000000004,0.0336894000000009,-0.000337,0,sub_3
0.0549429999999996,-0.0046419999999987,-0.0566736,0.0180632000000004,0.0345166000000009,-0.0016636,0,sub_3
0.0563955999999996,-0.0043727999999987,-0.0579162,0.0170060000000004,0.0376960000000009,-0.003646,0,sub_3
0.0582289999999996,-0.0062009999999987,-0.0606104,0.0140074000000004,0.0376804000000009,-0.0041422,0,sub_3
0.0598113999999996,-0.0081545999999987,-0.0623378,0.0105628000000004,0.0336174000000009,-0.0044228,0,sub_3
0.0620001999999996,-0.0094233999999987,-0.0630044,0.0079552000000004,0.0242478000000009,-0.0033608,0,sub_3
0.0609015999999996,-0.0095097999999987,-0.061418,0.0059668000000004,0.0118864000000009,-0.0005814,0,sub_3
0.0589159999999996,-0.0088435999999987,-0.0593262,0.0071814000000004,-0.003809399999999,0.0043179999999999,0,sub_3
0.0567369999999997,-0.0065385999999987,-0.0559544,0.0107546000000004,-0.016532399999999,0.0096571999999999,0,sub_3
0.0537953999999997,-0.0041801999999987,-0.0530674,0.0154120000000004,-0.024363199999999,0.0160659999999999,0,sub_3
0.0507411999999996,-0.0017107999999987,-0.0495324,0.0207316000000004,-0.028356999999999,0.0214061999999999,0,sub_3
0.0488717999999997,-0.0016125999999987,-0.047103,0.0267064000000004,-0.030217399999999,0.0254663999999999,0,sub_3
0.0489013999999997,-0.0032763999999987,-0.0459668,0.0326742000000004,-0.028970999999999,0.0282837999999999,0,sub_3
0.0494911999999997,-0.0043019999999987,-0.0449468,0.0405670000000004,-0.027090599999999,0.0306867999999999,0,sub_3
0.0510699999999996,-0.0051145999999987,-0.045084,0.0480446000000004,-0.024137399999999,0.0315897999999999,0,sub_3
0.0519819999999996,-0.0063669999999987,-0.0471286,0.0534256000000004,-0.020011999999999,0.0328625999999999,0,sub_3
0.0530679999999996,-0.0076985999999987,-0.0502666,0.0566702000000004,-0.016730399999999,0.0339079999999999,0,sub_3
0.0531851999999996,-0.0083399999999987,-0.0523516,0.0584220000000004,-0.014503799999999,0.0336623999999999,0,sub_3
0.0519671999999996,-0.0094731999999987,-0.0546854,0.0557006000000004,-0.0118301999999989,0.0321029999999999,0,sub_3
0.0513899999999996,-0.0101739999999987,-0.0572846,0.0491452000000004,-0.0093495999999989,0.0288079999999999,0,sub_3
0.0518397999999996,-0.0101047999999987,-0.05927,0.0419260000000004,-0.0065341999999989,0.0236265999999999,0,sub_3
0.0529919999999996,-0.0100001999999987,-0.0600662,0.0351392000000004,-0.003078599999999,0.0178061999999999,0,sub_3
0.0539709999999997,-0.0090527999999987,-0.0609788,0.0272808000000004,0.0003766000000009,0.0130467999999999,0,sub_3
0.0555725999999996,-0.0084089999999987,-0.062113,0.0213428000000004,0.0042494000000009,0.0087273999999999,0,sub_3
0.0567053999999997,-0.0074707999999987,-0.0623124,0.0194618000000004,0.0078912000000009,0.0065337999999999,0,sub_3
0.0571975999999996,-0.0074505999999987,-0.0615656,0.0209804000000004,0.0106594000000009,0.0067151999999999,0,sub_3
0.0570837999999997,-0.0077695999999987,-0.0604788,0.0233420000000004,0.0129908000000009,0.0088257999999999,0,sub_3
0.0564279999999997,-0.0082529999999987,-0.0588228,0.0278276000000004,0.0144572000000009,0.0122341999999999,0,sub_3
0.0560015999999997,-0.0082175999999987,-0.0570452,0.0323028000000004,0.0146412000000009,0.0167123999999999,0,sub_3
0.0549723999999997,-0.0085627999999987,-0.0554082,0.0369740000000004,0.0139676000000009,0.0212323999999999,0,sub_3
0.0542757999999996,-0.0084041999999987,-0.0537326,0.0414300000000004,0.0124444000000009,0.0253245999999999,0,sub_3
0.0532509999999996,-0.0075683999999987,-0.0528116,0.0467184000000004,0.0102004000000009,0.0287507999999999,0,sub_3
