userAcceleration.x,userAcceleration.y,userAcceleration.z,rotationRate.x,rotationRate.y,rotationRate.z,label,subject
0.0385887999999996,-0.0002439999999987,0.0050085999999999,-0.0003885999999995,-0.044258799999999,0.0028217999999999,0,sub_3
0.0381205999999996,-0.0003863999999987,0.0052869999999999,-0.0023089999999995,-0.045100999999999,0.0019547999999999,0,sub_3
0.0380013999999997,-0.0001775999999987,0.0055937999999999,-0.0033729999999995,-0.044670199999999,0.0017331999999999,0,sub_3
0.0380613999999997,0.0001976000000012,0.0054405999999999,-0.0033643999999995,-0.042328199999999,0.0021575999999999,0,sub_3
0.0380049999999997,0.0008158000000012,0.0055607999999999,-0.0020743999999995,-0.039565599999999,0.0028039999999999,0,sub_3
0.0382025999999997,0.0006194000000012,0.0057947999999999,-0.0010459999999995,-0.037161999999999,0.0034645999999999,0,sub_3
0.0391261999999997,0.0003368000000012,0.0060513999999999,-0.0004509999999995,-0.035823799999999,0.0045509999999999,0,sub_3
0.0399203999999997,-0.0001579999999987,0.0056127999999999,-0.0004969999999995,-0.035545399999999,0.0047793999999999,0,sub_3
0.0401013999999997,-0.0004517999999987,0.0058901999999999,-0.0018281999999995,-0.037176599999999,0.0041467999999999,0,sub_3
0.0404559999999997,-0.0006747999999987,0.0058821999999999,-0.0040157999999995,-0.039868399999999,0.0030823999999999,0,sub_3
0.0406161999999997,-0.0005407999999987,0.0057369999999999,-0.0063685999999995,-0.042199399999999,0.0020007999999999,0,sub_3
0.0396929999999996,-7.19999999987577e-05,0.0052515999999999,-0.0089299999999995,-0.043888999999999,0.0004895999999999,0,sub_3
0.0398501999999996,0.0003024000000012,0.0050447999999999,-0.0108531999999995,-0.045157999999999,-0.000163,0,sub_3
0.0398543999999996,0.0002834000000012,0.0044409999999999,-0.0110741999999995,-0.047073799999999,-0.0003756,0,sub_3
0.0400297999999996,0.0002110000000012,0.0045093999999999,-0.0110855999999995,-0.049418199999999,-0.000159,0,sub_3
0.0397053999999996,4.0400000001222295e-05,0.0043749999999999,-0.0106683999999995,-0.051338199999999,5.999999999998301e-05,0,sub_3
0.0401949999999997,-0.0003527999999987,0.0046647999999999,-0.0102483999999995,-0.052618799999999,0.0002781999999999,0,sub_3
0.0392669999999997,-0.0006761999999987,0.0050397999999999,-0.0102551999999995,-0.054534599999999,-0.0001468,0,sub_3
0.0386813999999997,-0.0004803999999987,0.0052433999999999,-0.0115391999999995,-0.055806799999999,-0.0005813999999999,0,sub_3
0.0374255999999997,-0.0005673999999987,0.0052211999999999,-0.0125973999999995,-0.054734399999999,-0.0014447999999999,0,sub_3
0.0365933999999997,-0.0002233999999987,0.0052665999999999,-0.0130155999999995,-0.053239799999999,-0.0018769999999999,0,sub_3
0.0358661999999996,0.0003520000000012,0.0055771999999999,-0.0130165999999994,-0.053664999999999,-0.0020901999999999,0,sub_3
0.0353487999999997,0.0009626000000012,0.0057789999999999,-0.0128031999999994,-0.053028999999999,-0.0014485999999999,0,sub_3
0.0350409999999997,0.0015740000000012,0.0055815999999999,-0.0115191999999994,-0.051120199999999,-0.0003739999999999,0,sub_3
0.0346637999999997,0.0024670000000012,0.0050945999999999,-0.0095959999999994,-0.048790199999999,0.0013456,0,sub_3
0.0345721999999997,0.0030050000000012,0.0059035999999999,-0.0076727999999994,-0.046672199999999,0.0028517999999999,0,sub_3
0.0347607999999996,0.0027498000000012,0.0058569999999999,-0.0063799999999995,-0.042845999999999,0.0039241999999999,0,sub_3
0.0342763999999996,0.0020562000000012,0.0054175999999999,-0.0057207999999995,-0.038162799999999,0.0043501999999999,0,sub_3
0.0338691999999996,0.0010624000000012,0.0054669999999999,-0.0057015999999995,-0.034538399999999,0.0037047999999999,0,sub_3
0.0338731999999996,-4.219999999871783e-05,0.0057767999999999,-0.0063243999999995,-0.031125599999999,0.0032687999999999,0,sub_3
0.0334887999999996,-0.0007775999999987,0.0048973999999999,-0.0071595999999995,-0.027711199999999,0.0026177999999999,0,sub_3
0.0324503999999996,-0.0002987999999987,0.0051153999999999,-0.0062879999999995,-0.023666199999999,0.0026185999999999,0,sub_3
0.0318319999999996,0.0006540000000012,0.0051635999999999,-0.0041649999999995,-0.019780799999999,0.0026347999999999,0,sub_3
0.0313889999999996,0.0016834000000012,0.0059433999999999,-0.0011865999999995,-0.014411199999999,0.0037233999999999,0,sub_3
0.0316885999999996,0.0024642000000012,0.0056599999999999,0.0020050000000004,-0.009890999999999,0.0039599999999999,0,sub_3
0.0316147999999996,0.0027748000000012,0.0054193999999999,0.0047700000000004,-0.004944999999999,0.0046201999999999,0,sub_3
0.0317669999999996,0.0026326000000012,0.0047697999999999,0.0064698000000004,3.660000000094352e-05,0.0046301999999999,0,sub_3
0.0322715999999996,0.0019608000000012,0.0051495999999999,0.0081948000000004,0.0047454000000009,0.0050615999999999,0,sub_3
0.0327035999999996,0.0016626000000012,0.0051103999999999,0.0090682000000004,0.0090344000000009,0.0046327999999999,0,sub_3
0.0321201999999996,0.0015026000000012,0.0054869999999999,0.0097310000000004,0.0137512000000009,0.0039883999999999,0,sub_3
0.0321785999999996,0.0013588000000012,0.0054039999999999,0.0106120000000004,0.0188958000000009,0.0027041999999999,0,sub_3
0.0336119999999996,0.0011890000000012,0.0052813999999999,0.0116962000000004,0.0225148000000009,0.0024933999999999,0,sub_3
0.0349519999999996,0.0017098000000012,0.0043093999999999,0.0112760000000004,0.0242198000000009,0.0027017999999999,0,sub_3
0.0361087999999997,0.0018206000000012,0.0035965999999999,0.0114884000000004,0.0248550000000009,0.0035571999999999,0,sub_3
0.0381225999999996,0.0021490000000012,0.0028527999999999,0.0123264000000004,0.0255216000000009,0.0041805999999999,0,sub_3
0.0396297999999997,0.0015166000000012,0.0029067999999999,0.0133766000000004,0.0257622000000009,0.0045921999999999,0,sub_3
0.0397219999999997,0.0006812000000012,0.0024379999999998,0.0142268000000004,0.0275010000000009,0.0035051999999999,0,sub_3
0.0406697999999997,6.080000000126206e-05,0.0029201999999998,0.0146552000000004,0.0298822000000009,0.0019869999999999,0,sub_3
0.0412029999999996,-0.0001655999999987,0.0026461999999999,0.0144424000000004,0.0318402000000009,0.0002512,0,sub_3
0.0410045999999996,-2.5799999998737945e-05,0.0031771999999999,0.0133822000000004,0.0326988000000009,-0.0003981999999999,0,sub_3
0.0413313999999996,0.0004784000000012,0.0035073999999999,0.0125354000000004,0.0339810000000009,-0.0006194,0,sub_3
0.0420867999999996,0.0007076000000012,0.0034649999999999,0.0114638000000004,0.0341926000000009,0.0006545999999999,0,sub_3
0.0420835999999996,0.0005068000000012,0.0029731999999999,0.0114572000000004,0.0337622000000009,0.0017233999999999,0,sub_3
0.0424531999999997,-3.379999999875791e-05,0.0031807999999999,0.0112534000000004,0.0338274000000009,0.0027761999999999,0,sub_3
0.0428337999999996,-0.0006927999999987,0.0030349999999999,0.0110486000000004,0.0332550000000009,0.0034023999999999,0,sub_3
0.0430509999999996,-0.0007835999999987,0.0029057999999999,0.0097702000000004,0.0311950000000009,0.0040231999999999,0,sub_3
0.0426787999999996,-0.0008415999999987,0.0032375999999999,0.0089176000000004,0.0278596000000009,0.0035803999999999,0,sub_3
0.0423291999999996,-0.0002899999999987,0.0038553999999999,0.0078516000000004,0.0249494000000009,0.0035627999999999,0,sub_3
0.0417119999999996,0.0003372000000012,0.0042925999999998,0.0071942000000004,0.0211166000000009,0.0035629999999999,0,sub_3
0.0408503999999997,0.0001434000000012,0.0050129999999998,0.0069674000000004,0.0179224000000009,0.0033517999999999,0,sub_3
0.0400329999999996,0.0004030000000012,0.0055625999999998,0.0071924000000004,0.0147888000000009,0.0035563999999999,0,sub_3
0.0396655999999997,0.0013466000000012,0.0068165999999999,0.0076316000000004,0.0120796000000009,0.0039757999999999,0,sub_3
0.0384879999999996,0.0008994000000012,0.0071705999999999,0.0080718000000004,0.0091590000000009,0.0039679999999999,0,sub_3
0.0380577999999996,0.0012010000000012,0.0071607999999999,0.0087330000000004,0.0077300000000009,0.0037463999999999,0,sub_3
0.0377445999999996,0.0017480000000012,0.0077845999999999,0.0100362000000004,0.0063006000000009,0.0031019999999999,0,sub_3
0.0369599999999996,0.0009254000000012,0.0070699999999999,0.0111068000000004,0.0065126000000009,0.0024683999999999,0,sub_3
0.0363291999999996,0.0005316000000012,0.0064293999999999,0.0111194000000004,0.0084336000000009,0.0016113999999999,0,sub_3
0.0367777999999997,0.0008854000000012,0.0066481999999999,0.0100708000000004,0.0110000000000009,0.0001053999999999,0,sub_3
0.0369341999999996,0.0002864000000012,0.0065393999999999,0.0075296000000004,0.0137846000000009,-0.0014114,0,sub_3
0.0371229999999997,0.0001664000000012,0.0053489999999999,0.0043574000000004,0.0161316000000009,-0.002309,0,sub_3
0.0375427999999996,0.0007896000000012,0.0060619999999999,0.0020340000000004,0.0171982000000009,-0.0034126,0,sub_3
0.0375347999999996,0.0009026000000012,0.0060305999999999,0.0007734000000004,0.0176210000000009,-0.0042944,0,sub_3
0.0378959999999996,0.0007550000000012,0.0057857999999999,0.0007864000000004,0.0173968000000009,-0.0043118,0,sub_3
0.0375411999999997,0.0006994000000012,0.0056645999999999,0.0018586000000004,0.0156768000000009,-0.0041064,0,sub_3
0.0375711999999997,0.0004108000000012,0.0052097999999999,0.0027036000000004,0.0141808000000009,-0.0036711999999999,0,sub_3
0.0372891999999997,0.0005930000000012,0.0048969999999999,0.0031160000000004,0.0116202000000009,-0.0030241999999999,0,sub_3
0.0375687999999997,0.0001822000000012,0.0046841999999999,0.0039474000000004,0.0082024000000009,-0.0015183999999999,0,sub_3
0.0378949999999997,0.0019606000000012,0.0044203999999999,0.0054096000000004,0.0046590000000009,-0.0015223999999999,0,sub_3
0.0374087999999997,0.0020548000000012,0.0047943999999999,0.0081558000000004,0.0026000000000009,-0.0008781999999999,0,sub_3
0.0369133999999996,0.0021476000000012,0.0050229999999999,0.0119680000000004,0.0011730000000009,0.000627,0,sub_3
0.0376159999999996,0.0019312000000012,0.0044139999999998,0.0157830000000004,0.0008094000000009,0.0025582,0,sub_3
0.0379251999999997,0.0019038000000012,0.0038073999999998,0.0183246000000004,0.0015174000000009,0.0040518,0,sub_3
0.0372739999999997,-0.0012031999999987,0.0028963999999998,0.0183218000000004,0.0030002000000009,0.0061861999999999,0,sub_3
0.0380545999999997,-0.0014797999999987,0.0023699999999998,0.0161872000000004,0.0034312000000009,0.0068115999999999,0,sub_3
0.0383991999999997,-0.0018957999999987,0.0024199999999998,0.0119244000000004,0.0036624000000009,0.0059269999999999,0,sub_3
0.0373395999999997,-0.0024941999999987,0.0028053999999998,0.0067804000000004,0.0045226000000009,0.0035241999999999,0,sub_3
0.0363227999999997,-0.0026771999999987,0.0027507999999998,0.0022842000000004,0.0062362000000009,0.0002701999999999,0,sub_3
0.0360265999999997,-0.0015491999999987,0.0030891999999999,-0.0007221999999995,0.0077290000000009,-0.0023322,0,sub_3
0.0358653999999997,-0.0010983999999987,0.0029913999999999,-0.0030931999999995,0.0094274000000009,-0.0036486,0,sub_3
0.0359607999999997,-0.0004145999999987,0.0023985999999999,-0.0039685999999995,0.0119712000000009,-0.0045283999999999,0,sub_3
0.0369735999999997,0.0005968000000012,0.0015921999999999,-0.0039579999999994,0.0145270000000009,-0.0043179999999999,0,sub_3
0.0377553999999997,0.0004586000000012,0.0010957999999999,-0.0041693999999994,0.0158026000000009,-0.0034666,0,sub_3
0.0384935999999997,-0.0002103999999987,0.0008233999999999,-0.0050677999999994,0.0161658000000009,-0.0028502,0,sub_3
0.0390711999999997,1.740000000124203e-05,0.0002673999999999,-0.0057489999999994,0.0167438000000009,-0.0028736,0,sub_3
0.0394045999999997,-0.0005649999999987,0.0002647999999999,-0.0068615999999994,0.0164702000000009,-0.0026852,0,sub_3
0.0394783999999997,-0.0017831999999987,0.0002399999999999,-0.0088333999999995,0.0144968000000009,-0.0029279999999999,0,sub_3
0.0396337999999997,-0.0016489999999987,0.0006171999999999,-0.0105889999999995,0.0129498000000009,-0.0033833999999999,0,sub_3
0.0397065999999997,-0.0015281999999987,0.0004043999999999,-0.0122977999999995,0.0118930000000009,-0.0040347999999999,0,sub_3
0.0396037999999997,-0.0015157999999987,0.0008405999999999,-0.0142209999999995,0.0104118000000009,-0.0049007999999999,0,sub_3
0.0387957999999997,-0.0013259999999987,0.0014601999999999,-0.0167863999999995,0.0082946000000009,-0.0059841999999999,0,sub_3
0.0380559999999996,-0.0008277999999987,0.0023599999999999,-0.0180657999999995,0.0078756000000009,-0.0066333999999999,0,sub_3
0.0379045999999996,0.0001248000000012,0.0035879999999999,-0.0189753999999995,0.0058898000000009,-0.0064363999999999,0,sub_3
0.0380051999999997,0.0012042000000012,0.0046943999999999,-0.0186039999999995,0.0043250000000009,-0.0060173999999999,0,sub_3
0.0379053999999997,0.0008714000000012,0.0049475999999999,-0.0180181999999995,0.0038212000000009,-0.0047435999999999,0,sub_3
0.0381493999999997,0.0007458000000012,0.0053667999999999,-0.0170055999999995,0.0028914000000009,-0.0038935999999999,0,sub_3
0.0382841999999997,0.0005760000000012,0.0055561999999999,-0.0174893999999995,0.0013278000000009,-0.0030533999999999,0,sub_3
0.0384339999999997,-0.0004985999999987,0.0055267999999999,-0.0189877999999995,0.0004800000000009,-0.0028492,0,sub_3
0.0380189999999997,-0.0007649999999987,0.0058607999999999,-0.0207003999999995,-0.001004599999999,-0.003073,0,sub_3
0.0374105999999997,-0.0004781999999987,0.0065721999999999,-0.0211727999999995,-0.002779199999999,-0.0035039999999999,0,sub_3
0.0374245999999997,0.0001970000000012,0.0067161999999998,-0.0203657999999995,-0.003710199999999,-0.0028587999999999,0,sub_3
0.0382065999999997,0.0015816000000012,0.0074033999999998,-0.0180623999999995,-0.005492799999999,-0.0036973999999999,0,sub_3
0.0379765999999997,0.0025552000000012,0.0071211999999998,-0.0144817999999995,-0.006433599999999,-0.0030327999999999,0,sub_3
0.0373271999999997,0.0026712000000012,0.0071073999999998,-0.0108991999999995,-0.006311599999999,-0.0017285999999999,0,sub_3
0.0374019999999997,0.0025394000000012,0.0079565999999999,-0.0074927999999995,-0.006542599999999,-0.000209,0,sub_3
0.0372101999999996,0.0017458000000012,0.0086975999999999,-0.0045047999999995,-0.005915599999999,0.0002383999999999,0,sub_3
0.0364053999999996,0.0005514000000012,0.0086541999999999,-0.0025797999999995,-0.003583799999999,0.0015305999999999,0,sub_3
0.0359317999999996,0.0003628000000012,0.0092007999999999,-0.0021415999999995,-0.001240799999999,0.0013169999999999,0,sub_3
0.0361053999999996,4.420000000124231e-05,0.0097691999999999,-0.0021789999999995,0.0004122000000009,2.539999999996278e-05,0,sub_3
0.0359695999999996,-0.0001327999999987,0.0094269999999999,-0.0028535999999995,0.0022822000000009,-0.0016982,0,sub_3
0.0360035999999996,0.0003786000000012,0.0091051999999999,-0.0043845999999995,0.0039404000000009,-0.0030004,0,sub_3
0.0359431999999996,0.0011044000000012,0.0091859999999999,-0.0050687999999994,0.0045288000000009,-0.0038678,0,sub_3
0.0360831999999996,0.0012182000000012,0.0095921999999999,-0.0044707999999994,0.0057510000000009,-0.0045136,0,sub_3
0.0358187999999996,0.0018304000000012,0.0096579999999999,-0.0027579999999994,0.0080844000000009,-0.0034364,0,sub_3
0.0353309999999996,0.0023280000000012,0.0091967999999999,-0.0014711999999994,0.0106324000000009,-0.0023624,0,sub_3
0.0347319999999996,0.0027944000000012,0.0088459999999998,3.300000000048904e-05,0.0138196000000009,-0.0015013999999999,0,sub_3
0.0343171999999996,0.0029354000000012,0.0084817999999998,0.0013008000000004,0.0175826000000009,-0.0006419999999999,0,sub_3
0.0347225999999996,0.0035546000000012,0.0081029999999998,0.0017130000000004,0.0209224000000009,0.0002122,0,sub_3
0.0346611999999996,0.0032250000000012,0.0076817999999998,0.0010592000000004,0.0234180000000009,-8.399999999997375e-06,0,sub_3
0.0348875999999996,0.0031964000000012,0.0070045999999998,0.0012610000000004,0.0259124000000009,-0.0006501999999999,0,sub_3
0.0354167999999996,0.0026300000000012,0.0065731999999999,0.0025230000000004,0.0273362000000009,-0.0008558,0,sub_3
0.0355515999999996,0.0019258000000012,0.0057383999999999,0.0038090000000004,0.0283978000000009,-0.0010618,0,sub_3
0.0355969999999996,0.0013334000000012,0.0043949999999999,0.0050894000000004,0.0273324000000009,-0.0021197999999999,0,sub_3
0.0358011999999996,0.0008996000000012,0.0034387999999999,0.0070196000000004,0.0255616000000009,-0.0029477999999999,0,sub_3
0.0369603999999996,0.0002674000000012,0.0031369999999999,0.0085210000000004,0.0235782000000009,-0.0035649999999999,0,sub_3
0.0391701999999997,-0.0005811999999987,0.0032969999999999,0.0087354000000004,0.0201080000000009,-0.0041891999999999,0,sub_3
0.0416343999999997,-0.0010431999999987,0.0041547999999999,0.0072380000000004,0.0151540000000009,-0.0052507999999999,0,sub_3
0.0444021999999997,-0.0018107999999987,0.0054119999999999,0.0046746000000004,0.0110534000000008,-0.0056798,0,sub_3
0.0475261999999997,-0.0012969999999987,0.0062413999999999,0.0003974000000004,0.0095742000000008,-0.0050668,0,sub_3
0.0506153999999997,0.0002586000000012,0.0089205999999999,-0.0030395999999995,0.0053218000000009,-0.0042308,0,sub_3
0.0529041999999997,0.0021518000000012,0.0109855999999999,-0.0047925999999995,-0.003837799999999,-0.0031632,0,sub_3
0.0522831999999997,0.0040176000000012,0.0106839999999999,-0.0026533999999995,-0.011141199999999,-0.000346,0,sub_3
0.0482801999999997,0.0044088000000012,0.0099095999999999,0.0029238000000004,-0.0127057999999989,0.0029149999999999,0,sub_3
0.0467853999999997,0.0030650000000012,0.0085893999999999,0.0132220000000004,-0.0095945999999989,0.0049211999999999,0,sub_3
0.0478809999999996,0.0004248000000012,0.0052781999999999,0.0233010000000004,-0.0066999999999989,0.0079943999999999,0,sub_3
0.0501569999999996,-0.0010885999999987,0.0019611999999999,0.0314538000000004,-0.005501399999999,0.0106289999999999,0,sub_3
0.0528683999999996,-0.0018175999999987,0.0016699999999999,0.0378366000000004,-0.010420599999999,0.0098251999999999,0,sub_3
0.0556331999999996,-0.0010833999999987,0.0021745999999999,0.0439966000000004,-0.019591599999999,0.0068889999999999,0,sub_3
0.0548549999999996,0.0005098000000012,0.0050401999999999,0.0490936000000004,-0.028118799999999,0.0037308,0,sub_3
0.0504977999999996,0.0016550000000012,0.0091289999999999,0.0544518000000004,-0.026630799999999,-7.939999999999719e-05,0,sub_3
0.0438957999999996,0.0019410000000012,0.0132637999999999,0.0605692000000004,-0.010886399999999,-0.0047449999999999,0,sub_3
0.0402289999999996,0.0019628000000012,0.0169669999999999,0.0661020000000004,0.0170052000000009,-0.0096437999999999,0,sub_3
0.0389129999999997,0.0008052000000012,0.0195519999999999,0.0663272000000004,0.0500320000000009,-0.015441,0,sub_3
0.0405623999999997,-0.0006721999999987,0.0201037999999999,0.0586538000000004,0.0792636000000009,-0.0242794,0,sub_3
0.0448001999999997,-0.0018495999999987,0.0189865999999998,0.0437182000000004,0.1023598000000009,-0.0376472,0,sub_3
0.0490073999999997,-0.0034117999999987,0.0175645999999998,0.0240116000000004,0.1186784000000009,-0.05212,0,sub_3
0.0543723999999996,-0.0062963999999987,0.0147689999999998,0.0025732000000004,0.1290390000000009,-0.0670244,0,sub_3
0.0608713999999996,-0.0078525999999987,0.0121705999999998,-0.0152291999999995,0.1333854000000009,-0.0812422,0,sub_3
0.0667039999999996,-0.0087945999999987,0.0105751999999998,-0.0264571999999994,0.1319434000000009,-0.0922021999999999,0,sub_3
0.0709019999999996,-0.0085117999999987,0.0096073999999999,-0.0283389999999994,0.1259750000000009,-0.0981771999999999,0,sub_3
0.0758197999999996,-0.0067811999999987,0.0093569999999999,-0.0223403999999995,0.1191172000000009,-0.1017458,0,sub_3
0.0790253999999996,-0.0041663999999987,0.0096195999999999,-0.0114457999999995,0.1132932000000009,-0.1016497999999999,0,sub_3
0.0782951999999996,-0.0018989999999987,0.0104181999999999,0.0023986000000004,0.1081298000000009,-0.1011192,0,sub_3
0.0751703999999996,-0.0003027999999987,0.0118297999999999,0.0169040000000004,0.1065902000000009,-0.1016568,0,sub_3
0.0710415999999996,-0.0008407999999987,0.0139161999999999,0.0299398000000004,0.1084724000000009,-0.1041318,0,sub_3
0.0658833999999996,-0.0016009999999987,0.0161095999999999,0.0391426000000004,0.1097384000000009,-0.108983,0,sub_3
0.0601079999999996,-0.0027893999999987,0.0179629999999999,0.0451662000000004,0.1084010000000009,-0.1176862,0,sub_3
0.0585065999999996,-0.0051445999999987,0.0208811999999999,0.0477566000000004,0.1021780000000009,-0.1270482,0,sub_3
0.0610603999999996,-0.0060939999999987,0.0235213999999999,0.0451774000000004,0.0846828000000009,-0.136859,0,sub_3
0.0674599999999996,-0.0058223999999987,0.0255837999999999,0.0382914000000004,0.0571940000000009,-0.147969,0,sub_3
0.0764207999999996,-0.0063253999999987,0.0255241999999999,0.0298924000000004,0.0250250000000009,-0.1595108,0,sub_3
0.0849227999999996,-0.0075245999999987,0.0254497999999999,0.0189040000000004,-0.008771399999999,-0.1697992,0,sub_3
0.0893381999999997,-0.0067693999999987,0.0255415999999999,0.0057964000000004,-0.037454999999999,-0.178186,0,sub_3
0.0902459999999996,-0.0060453999999987,0.0257353999999999,-0.0049355999999995,-0.054874399999999,-0.181657,0,sub_3
0.0853963999999996,-0.0062159999999987,0.0261241999999999,-0.0132835999999995,-0.058107999999999,-0.1789222,0,sub_3
0.0806187999999997,-0.0042151999999987,0.0283507999999999,-0.0184077999999995,-0.052632199999999,-0.1725439999999999,0,sub_3
0.0775007999999997,-0.0024883999999987,0.0315351999999999,-0.0198893999999995,-0.042274799999999,-0.1646512,0,sub_3
0.0736403999999997,-0.0023769999999987,0.0323049999999999,-0.0224293999999995,-0.028510599999999,-0.1552745999999999,0,sub_3
0.0679487999999997,-0.0014743999999987,0.0317799999999999,-0.0277335999999995,-0.014516199999999,-0.1478403999999999,0,sub_3
0.0647327999999997,0.0006384000000012,0.0308011999999999,-0.0351613999999994,-0.001934599999999,-0.1442764,0,sub_3
0.0612709999999997,-0.0006979999999987,0.0293667999999999,-0.0462203999999994,0.0098076000000009,-0.1407368,0,sub_3
0.0575023999999996,-0.0007753999999987,0.0286891999999999,-0.0613611999999994,0.0189928000000009,-0.1335904,0,sub_3
0.0569677999999996,0.0001762000000012,0.0287035999999999,-0.0748113999999995,0.0273086000000009,-0.1236538,0,sub_3
0.0518519999999996,-0.0001399999999987,0.0263613999999999,-0.0826811999999995,0.0449710000000009,-0.1115536,0,sub_3
0.0445347999999996,-0.0006817999999987,0.0232631999999999,-0.0832445999999995,0.0760228000000009,-0.0974968,0,sub_3
0.0353575999999996,-0.0016147999999987,0.0192985999999999,-0.0747801999999995,0.1204706000000009,-0.084676,0,sub_3
0.0290953999999997,-0.0020913999999987,0.0136353999999999,-0.0596335999999995,0.1723708000000009,-0.077368,0,sub_3
0.0236957999999997,-0.0024063999999987,0.0085847999999999,-0.0399887999999995,0.2225732000000009,-0.0755812,0,sub_3
0.0267711999999997,-0.0030675999999987,0.0059867999999999,-0.0205899999999995,0.2589542000000009,-0.0804016,0,sub_3
0.0321045999999997,-0.0047967999999987,0.0049103999999999,-0.0046875999999995,0.2723562000000009,-0.089917,0,sub_3
0.0387613999999997,-0.0055203999999987,0.0038783999999999,0.0062018000000004,0.2623394000000009,-0.0994374,0,sub_3
0.0395851999999996,-0.0051433999999987,0.0029445999999999,0.0161574000000004,0.2408074000000009,-0.1046814,0,sub_3
0.0374907999999997,-0.0040013999999987,0.0009845999999999,0.0263064000000004,0.2188322000000009,-0.1058644,0,sub_3
0.0318275999999997,-0.0016343999999987,-0.000973,0.0379710000000004,0.2074814000000009,-0.1012818,0,sub_3
0.0244143999999997,0.0019802000000012,-0.0026126,0.0507590000000004,0.2127288000000008,-0.0926534,0,sub_3
0.0159877999999996,0.0038654000000012,-0.0034762,0.0632046000000004,0.2350290000000009,-0.0857584,0,sub_3
0.0123809999999997,0.0034992000000012,-0.0035818,0.0737856000000004,0.2643878000000009,-0.0842266,0,sub_3
0.0123925999999997,0.0029760000000012,-0.0027432,0.0811744000000004,0.2910068000000009,-0.0874136,0,sub_3
0.0141519999999996,0.0049316000000012,0.0001643999999999,0.0883250000000004,0.3106018000000009,-0.0920888,0,sub_3
0.0152523999999996,0.0050584000000012,0.0036539999999999,0.0939446000000004,0.3233784000000009,-0.0952706,0,sub_3
0.0177351999999996,0.0062522000000012,0.0078347999999999,0.0986588000000004,0.3284726000000009,-0.0946034,0,sub_3
