userAcceleration.x,userAcceleration.y,userAcceleration.z,rotationRate.x,rotationRate.y,rotationRate.z,label,subject
0.0146273999999997,0.0051264000000012,-0.0151934,0.0045570000000005,-0.0141669999999991,0.0086312,0,sub_20
0.0139139999999997,0.0037274000000012,-0.0153822,0.0032902000000005,-0.0122407999999991,0.0075516,0,sub_20
0.0129867999999997,0.0042076000000012,-0.0143722,0.0020420000000005,-0.0101631999999991,0.0070335999999999,0,sub_20
0.0132345999999997,0.0051318000000012,-0.0139004,0.0018578000000005,-0.0085161999999991,0.0067372,0,sub_20
0.0138107999999997,0.0057028000000012,-0.0134962,0.0035882000000005,-0.0079421999999991,0.0066691999999999,0,sub_20
0.0132447999999997,0.0065900000000012,-0.0127616,0.0059510000000005,-0.0080137999999992,0.0076745999999999,0,sub_20
0.0138133999999997,0.0083554000000012,-0.0122718,0.0085282000000005,-0.0089339999999992,0.0076145999999999,0,sub_20
0.0135015999999997,0.0086404000000012,-0.0120954,0.0112934000000005,-0.0104367999999992,0.0080629999999999,0,sub_20
0.0130607999999997,0.0085628000000012,-0.0117328,0.0127756000000005,-0.0121499999999991,0.0089301999999999,0,sub_20
0.0126917999999997,0.0084310000000012,-0.0110796,0.0125546000000005,-0.0130049999999991,0.0097843999999999,0,sub_20
0.0120465999999997,0.0077794000000012,-0.01049,0.0097928000000005,-0.0130827999999991,0.0094762,0,sub_20
0.0107835999999997,0.0064364000000012,-0.0095654,0.0063888000000005,-0.0140089999999991,0.0087372,0,sub_20
0.0091551999999997,0.0050094000000012,-0.0086002,0.0029906000000005,-0.0151421999999991,0.0065032,0,sub_20
0.0081273999999997,0.0041590000000012,-0.0081294,0.0002362000000005,-0.0162741999999991,0.0034187999999999,0,sub_20
0.0073939999999997,0.0039974000000012,-0.0079676,-0.0020875999999994,-0.0169797999999991,-9.02e-05,0,sub_20
0.0084759999999997,0.0047676000000012,-0.0078822,-0.0025057999999994,-0.0182439999999991,-0.0032962,0,sub_20
0.0095721999999997,0.0053742000000012,-0.0081056,-0.0020743999999994,-0.0188777999999991,-0.0050015999999999,0,sub_20
0.0124851999999997,0.0059400000000012,-0.0095528,-0.0007911999999994,-0.0188795999999991,-0.0056335999999999,0,sub_20
0.0153579999999997,0.0064374000000012,-0.0103552,0.0011386000000005,-0.0177097999999991,-0.0052623999999999,0,sub_20
0.0175473999999997,0.0069522000000012,-0.0113184,0.0039144000000005,-0.0169741999999991,-0.0036032,0,sub_20
0.0188057999999997,0.0061818000000012,-0.0122378,0.0060384000000005,-0.0168831999999992,-2.4799999999999824e-05,0,sub_20
0.0194987999999997,0.0052776000000012,-0.013194,0.0075262000000005,-0.0161499999999992,0.0033347999999999,0,sub_20
0.0191159999999997,0.0046630000000012,-0.0132646,0.0079490000000005,-0.0154113999999992,0.0062595999999999,0,sub_20
0.0182301999999997,0.0046048000000012,-0.0137316,0.0075174000000005,-0.0147773999999992,0.0079647999999999,0,sub_20
0.0175787999999997,0.0048788000000012,-0.0136652,0.0070972000000005,-0.0130723999999992,0.0081733999999999,0,sub_20
0.0170085999999997,0.0053200000000012,-0.0134434,0.0071192000000005,-0.0100819999999992,0.0062469999999999,0,sub_20
0.0169069999999997,0.0056784000000012,-0.013361,0.0071422000000005,-0.0070907999999992,0.0041068,0,sub_20
0.0174955999999997,0.0053224000000012,-0.0131722,0.0063028000000005,-0.0048311999999991,0.0021156,0,sub_20
0.0177999999999997,0.0053670000000012,-0.0127954,0.0054520000000005,-0.0044917999999991,0.0007678,0,sub_20
0.0183063999999997,0.0050942000000012,-0.0132072,0.0048088000000005,-0.0050069999999991,-0.0001501999999999,0,sub_20
0.0183165999999997,0.0053660000000012,-0.0133478,0.0041696000000005,-0.0042453999999991,-0.0006425999999999,0,sub_20
0.0179673999999997,0.0057600000000012,-0.0139276,0.0037456000000005,-0.0024219999999991,-0.0004937999999999,0,sub_20
0.0175487999999997,0.0063640000000012,-0.0148896,0.0039686000000005,0.0003442000000007,0.0001452,0,sub_20
0.0170441999999997,0.0059788000000012,-0.015587,0.0037744000000004,0.0050304000000007,0.0005651999999999,0,sub_20
0.0166559999999997,0.0057610000000012,-0.0157486,0.0035640000000005,0.0089696000000007,0.0009283999999999,0,sub_20
0.0165285999999997,0.0061192000000012,-0.0157254,0.0035572000000005,0.0105652000000007,0.0010823999999999,0,sub_20
0.0164059999999997,0.0066930000000012,-0.0155722,0.0035476000000005,0.0104608000000007,0.0001701999999999,0,sub_20
0.0153191999999997,0.0067230000000012,-0.0147576,0.0031160000000005,0.0101500000000007,-0.0020266,0,sub_20
0.0148287999999997,0.0063290000000012,-0.014709,0.0022568000000005,0.0096276000000007,-0.004226,0,sub_20
0.0139053999999997,0.0056698000000012,-0.0148124,0.0001364000000005,0.0100714000000007,-0.0068052,0,sub_20
0.0129659999999997,0.0050496000000012,-0.0154016,-0.0026183999999994,0.0115836000000007,-0.0096038,0,sub_20
0.0127845999999997,0.0045712000000012,-0.0157548,-0.0049453999999994,0.0141562000000007,-0.011546,0,sub_20
0.0130471999999997,0.0054024000000012,-0.0164718,-0.0068719999999994,0.0172434000000007,-0.0128996,0,sub_20
0.0132665999999997,0.0064044000000012,-0.0163398,-0.0068801999999994,0.0205342000000007,-0.0135994,0,sub_20
0.0137819999999997,0.0069104000000012,-0.0161412,-0.0056157999999994,0.0233894000000007,-0.0130076,0,sub_20
0.0145841999999997,0.0067308000000012,-0.0158464,-0.0041437999999994,0.0260266000000007,-0.011346,0,sub_20
0.0145015999999997,0.0061976000000012,-0.0154424,-0.0030995999999994,0.0284522000000007,-0.0096872,0,sub_20
0.0147699999999997,0.0054366000000012,-0.0147722,-0.0022489999999994,0.0299320000000007,-0.0075467999999999,0,sub_20
0.0151469999999997,0.0055656000000012,-0.0146448,-0.0024661999999994,0.0305660000000007,-0.0060535999999999,0,sub_20
0.0148579999999997,0.0059882000000012,-0.0148148,-0.0035329999999994,0.0312064000000007,-0.005421,0,sub_20
0.0146643999999997,0.0061270000000012,-0.0141604,-0.0046157999999994,0.0319480000000007,-0.005677,0,sub_20
0.0143457999999997,0.0063576000000012,-0.0137312,-0.0054861999999993,0.0322636000000007,-0.0061445999999999,0,sub_20
0.0141931999999997,0.0061080000000012,-0.0137376,-0.0059279999999993,0.0325794000000007,-0.0070364,0,sub_20
0.0141789999999997,0.0055960000000012,-0.0134768,-0.0061573999999993,0.0326814000000007,-0.0079265999999999,0,sub_20
0.0151453999999997,0.0050520000000012,-0.0123912,-0.0057505999999993,0.0323534000000007,-0.0083845999999999,0,sub_20
0.0158615999999997,0.0053330000000012,-0.0121532,-0.0049017999999994,0.0310730000000007,-0.0085905999999999,0,sub_20
0.0167629999999997,0.0057084000000012,-0.0121122,-0.0036281999999994,0.0297894000000008,-0.0083663999999999,0,sub_20
0.0177475999999997,0.0062146000000012,-0.0116222,-0.0027813999999994,0.0287196000000007,-0.0079319999999999,0,sub_20
0.0179269999999997,0.0065344000000012,-0.0110786,-0.0023883999999994,0.0281636000000007,-0.0068889999999999,0,sub_20
0.0177969999999997,0.0067268000000012,-0.0112566,-0.0022105999999994,0.0269700000000007,-0.0060603999999999,0,sub_20
0.0170479999999997,0.0059448000000012,-0.0110214,-0.0022491999999994,0.0253502000000007,-0.0050192,0,sub_20
0.0167485999999997,0.0053990000000012,-0.0106126,-0.0027153999999994,0.0226700000000007,-0.0048341999999999,0,sub_20
0.0161039999999997,0.0050474000000012,-0.010016,-0.0038245999999994,0.0189284000000007,-0.0050795999999999,0,sub_20
0.0158827999999997,0.0047954000000012,-0.009847,-0.0042647999999994,0.0144618000000007,-0.0065725999999999,0,sub_20
0.0157213999999997,0.0051096000000012,-0.0093466,-0.0044887999999994,0.0104214000000007,-0.0082781999999999,0,sub_20
0.0161315999999997,0.0057208000000012,-0.0097834,-0.0047087999999994,0.0065964000000007,-0.0106249999999999,0,sub_20
0.0166959999999997,0.0064010000000012,-0.0097832,-0.0047429999999994,0.0032498000000007,-0.0125621999999999,0,sub_20
0.0171135999999997,0.0066618000000012,-0.0100516,-0.0037113999999994,0.0003232000000007,-0.0138516,0,sub_20
0.0178117999999997,0.0072036000000012,-0.010519,-0.0035369999999994,-0.0023917999999992,-0.014079,0,sub_20
0.0182903999999997,0.0065940000000012,-0.0106298,-0.0035805999999993,-0.0053223999999992,-0.0134529999999999,0,sub_20
0.0185193999999997,0.0061232000000012,-0.0102492,-0.0040491999999993,-0.0076131999999992,-0.0126171999999999,0,sub_20
0.0179317999999997,0.0056988000000012,-0.0107612,-0.0040617999999993,-0.0093217999999992,-0.0115469999999999,0,sub_20
0.0173585999999997,0.0057390000000012,-0.0113752,-0.0047075999999993,-0.0097491999999992,-0.0106963999999999,0,sub_20
0.0166309999999996,0.0049766000000012,-0.0111272,-0.0042807999999993,-0.0093261999999992,-0.0102665999999999,0,sub_20
0.0155763999999996,0.0059898000000012,-0.0119534,-0.0036501999999994,-0.0082589999999992,-0.010471,0,sub_20
0.0146433999999996,0.0071684000000012,-0.0124672,-0.0025947999999994,-0.0074071999999992,-0.0104586,0,sub_20
0.0145787999999996,0.0080176000000012,-0.0122925999999999,-0.0021773999999994,-0.0061269999999992,-0.0104509999999999,0,sub_20
0.0143193999999996,0.0076054000000012,-0.0123492,-0.0013341999999994,-0.0052735999999991,-0.0106536,0,sub_20
0.0140119999999996,0.0072746000000012,-0.013249,-0.0019835999999994,-0.0042019999999991,-0.010867,0,sub_20
0.0141605999999996,0.0053490000000012,-0.0136002,-0.0038943999999994,-0.0024891999999991,-0.0113098,0,sub_20
0.0147767999999997,0.0042720000000012,-0.014313,-0.0055897999999993,-0.0001387999999991,-0.0115382,0,sub_20
0.0150597999999997,0.0036760000000012,-0.0148995999999999,-0.0068583999999993,0.0026344000000008,-0.011337,0,sub_20
0.0152955999999997,0.0044700000000012,-0.0155666,-0.0074895999999993,0.0053400000000008,-0.0106816,0,sub_20
0.0151311999999997,0.0052258000000012,-0.0153964,-0.0068483999999993,0.0069734000000007,-0.009375,0,sub_20
0.0154169999999997,0.0065078000000012,-0.0154694,-0.0047181999999993,0.0083850000000007,-0.0072032,0,sub_20
0.0150239999999997,0.0058284000000012,-0.0152316,-0.0025917999999994,0.0087322000000007,-0.0052435999999999,0,sub_20
0.0149973999999997,0.0053962000000012,-0.0157396,-0.0008921999999994,0.0086566000000007,-0.0037137999999999,0,sub_20
0.0147883999999997,0.0050336000000012,-0.0155382,-0.0004731999999994,0.0082240000000007,-0.0024283999999999,0,sub_20
0.0150759999999997,0.0050658000000012,-0.0153266,0.0001642000000005,0.0084314000000007,-0.0015695999999999,0,sub_20
0.0144271999999997,0.0059424000000012,-0.0142946,0.0005900000000005,0.0084290000000007,-0.0013529999999999,0,sub_20
0.0131857999999997,0.0067514000000012,-0.0131366,0.0010206000000005,0.0097042000000007,-0.0009243999999999,0,sub_20
0.0119123999999997,0.0068088000000012,-0.0115716,0.0014598000000005,0.0110832000000007,-0.0002504,0,sub_20
0.0117521999999997,0.0066206000000012,-0.0107152,0.0025440000000005,0.0128886000000007,-0.0002134,0,sub_20
0.0116867999999997,0.0070000000000012,-0.0107732,0.0027756000000005,0.0151222000000007,3.079999999998071e-05,0,sub_20
0.0120705999999997,0.0066018000000012,-0.011144,0.0021576000000005,0.0177868000000007,-0.0001588,0,sub_20
0.0131829999999997,0.0068070000000012,-0.0117912,0.0011128000000005,0.0198162000000007,-0.0009915999999999,0,sub_20
0.0141173999999997,0.0068166000000012,-0.0119638,-0.0005825999999994,0.0202568000000007,-0.0031403999999999,0,sub_20
0.0145829999999997,0.0069108000000012,-0.0119618,-0.0029247999999994,0.0198448000000007,-0.0046517999999999,0,sub_20
0.0150699999999997,0.0060940000000012,-0.0116152,-0.0061243999999994,0.0177348000000007,-0.0070215999999999,0,sub_20
0.0151839999999997,0.0053348000000012,-0.0120982,-0.0086723999999994,0.0142454000000007,-0.0097703999999999,0,sub_20
0.0159191999999997,0.0052782000000012,-0.0124078,-0.0105833999999994,0.0107512000000007,-0.0118737999999999,0,sub_20
0.0170425999999997,0.0061194000000012,-0.0133162,-0.0109987999999994,0.0083144000000007,-0.0133271999999999,0,sub_20
0.0182851999999997,0.0062522000000012,-0.014103,-0.0099187999999994,0.0067230000000007,-0.0143437999999999,0,sub_20
0.0187549999999997,0.0066836000000012,-0.0144516,-0.0071335999999994,0.0061850000000007,-0.0138544,0,sub_20
0.0199065999999997,0.0065738000000012,-0.014091,-0.0041541999999994,0.0059554000000007,-0.0123378,0,sub_20
0.0208651999999997,0.0065032000000012,-0.014051,-0.0016059999999994,0.0050866000000007,-0.0103959999999999,0,sub_20
0.0210185999999997,0.0059834000000012,-0.0135612,-0.0005391999999994,0.0039560000000007,-0.0075572,0,sub_20
0.0206369999999997,0.0058238000000012,-0.0133922,-0.0005409999999994,0.0021908000000007,-0.0049387999999999,0,sub_20
0.0202401999999997,0.0056930000000012,-0.0131992,-0.0013915999999994,0.0006450000000007,-0.0031809999999999,0,sub_20
0.0195421999999997,0.0062044000000012,-0.0126648,-0.0024555999999994,-0.0013243999999992,-0.0018513999999999,0,sub_20
0.0185785999999997,0.0065938000000012,-0.012527,-0.0030871999999994,-0.0028657999999992,-0.0013739999999999,0,sub_20
0.0173001999999997,0.0066778000000012,-0.0128487999999999,-0.0026603999999994,-0.0039281999999991,-0.0024377999999999,0,sub_20
0.0165975999999997,0.0067436000000012,-0.0129072,-0.0022289999999994,-0.0041375999999991,-0.0037163999999999,0,sub_20
0.0166281999999997,0.0067962000000012,-0.0130374,-0.0013697999999994,-0.0045597999999991,-0.0054189999999999,0,sub_20
0.0167735999999997,0.0059346000000012,-0.0141374,-0.0007013999999994,-0.0041629999999991,-0.0064253999999999,0,sub_20
0.0167403999999997,0.0059106000000012,-0.0147126,-0.0011007999999994,-0.0037633999999991,-0.0072255999999999,0,sub_20
0.0174377999999997,0.0062602000000012,-0.0149366,-0.0021461999999994,-0.0037909999999992,-0.0071751999999999,0,sub_20
0.0180659999999997,0.0061434000000012,-0.0147914,-0.0023407999999994,-0.0044607999999991,-0.0071179999999999,0,sub_20
0.0182259999999997,0.0060656000000012,-0.0151418,-0.0033899999999994,-0.0051283999999991,-0.0068531999999999,0,sub_20
0.0179039999999997,0.0057436000000012,-0.0152346,-0.0044537999999994,-0.0053341999999991,-0.007715,0,sub_20
0.0179689999999997,0.0048998000000012,-0.0150835999999999,-0.0044517999999994,-0.0053323999999991,-0.0081424,0,sub_20
0.0174003999999997,0.0044154000000012,-0.015017,-0.0038087999999994,-0.0049077999999991,-0.0083521999999999,0,sub_20
0.0165611999999997,0.0049206000000012,-0.0145678,-0.0040025999999994,-0.0040945999999991,-0.0080961999999999,0,sub_20
0.0160443999999997,0.0056856000000012,-0.0138548,-0.0026987999999994,-0.0024345999999991,-0.0078309999999999,0,sub_20
0.0161605999999997,0.0069830000000012,-0.0132226,-0.0011827999999994,-0.0005639999999991,-0.0071371999999999,0,sub_20
0.0163925999999997,0.0076022000000012,-0.0125712,-0.0007297999999994,0.0019504000000008,-0.0066651999999999,0,sub_20
0.0170119999999997,0.0071740000000012,-0.0118174,-0.0013445999999994,0.0044678000000007,-0.0059871999999999,0,sub_20
0.0176981999999997,0.0060256000000012,-0.0124376,-0.0028275999999994,0.0070288000000007,-0.0057871999999999,0,sub_20
0.0193735999999997,0.0059482000000012,-0.0133332,-0.0055985999999994,0.0076778000000007,-0.0058073999999999,0,sub_20
0.0200649999999997,0.0059692000000012,-0.013389,-0.0073113999999994,0.0059812000000007,-0.0062445999999999,0,sub_20
0.0200103999999997,0.0059194000000012,-0.014204,-0.0081581999999994,0.0035822000000007,-0.0064217999999999,0,sub_20
0.0197457999999997,0.0056864000000012,-0.015211,-0.0077285999999994,0.0003266000000008,-0.0065887999999999,0,sub_20
0.0196787999999997,0.0055868000000012,-0.0157374,-0.0055949999999994,-0.0035741999999991,-0.0067431999999999,0,sub_20
0.0183151999999997,0.0048264000000012,-0.015993,-0.0028231999999994,-0.0070545999999991,-0.0060389999999999,0,sub_20
0.0176289999999997,0.0047536000000012,-0.0152534,-0.0004721999999994,-0.0079819999999992,-0.0040589999999999,0,sub_20
0.0171055999999997,0.0048076000000012,-0.0142954,0.0025016000000005,-0.0082163999999992,-0.0012604,0,sub_20
0.0167745999999997,0.0053512000000012,-0.013334,0.0044162000000005,-0.0078037999999992,0.0004615999999999,0,sub_20
0.0164693999999997,0.0058070000000012,-0.0129656,0.0046306000000005,-0.0063181999999991,0.0017431999999999,0,sub_20
0.0166923999999997,0.0058388000000012,-0.0123162,0.0039992000000005,-0.0035495999999991,0.0025897999999999,0,sub_20
0.0158825999999997,0.0060324000000012,-0.0129464,0.0025312000000005,-0.0023183999999991,0.0028385999999999,0,sub_20
0.0149867999999997,0.0067406000000012,-0.0129826,0.0004202000000005,-0.0027851999999991,0.0020167999999999,0,sub_20
0.0139489999999997,0.0066788000000012,-0.0126638,-0.0014763999999993,-0.0028273999999991,0.0014097999999999,0,sub_20
0.0129031999999997,0.0070090000000012,-0.0116974,-0.0027299999999993,-0.0028693999999992,0.0001662,0,sub_20
0.0120975999999997,0.0065342000000012,-0.0114442,-0.0031301999999993,-0.0037631999999992,-0.0019247999999999,0,sub_20
0.0132881999999997,0.0057388000000012,-0.0114718,-0.0031205999999993,-0.0037545999999992,-0.0040611999999999,0,sub_20
0.0145479999999997,0.0050258000000012,-0.0119832,-0.0031033999999994,-0.0018293999999992,-0.0059861999999999,0,sub_20
0.0165405999999997,0.0058072000000012,-0.0127778,-0.0028567999999994,0.0009142000000007,-0.0065891999999999,0,sub_20
0.0182697999999997,0.0064600000000012,-0.0131082,-0.0019777999999994,0.0036488000000007,-0.0054785999999999,0,sub_20
0.0188439999999997,0.0073082000000012,-0.0130812,-0.0011053999999994,0.0061652000000007,-0.0030859999999999,0,sub_20
0.0186195999999997,0.0072514000000012,-0.012265,-2.639999999942272e-05,0.0074016000000007,-0.0004765999999999,0,sub_20
0.0187629999999997,0.0066860000000012,-0.0118446,0.0004116000000005,0.0071540000000007,0.0008484,0,sub_20
0.0181397999999997,0.0056876000000012,-0.0113744,-0.0002321999999994,0.0065162000000007,0.0010584,0,sub_20
0.0175053999999997,0.0053058000000012,-0.011549,-0.0017257999999994,0.0060970000000007,0.0006212,0,sub_20
0.0173853999999997,0.0044158000000012,-0.0116156,-0.0025753999999994,0.0056790000000007,-0.0006659999999999,0,sub_20
0.0172785999999997,0.0049626000000012,-0.0128288,-0.0033995999999994,0.0061074000000007,-0.0025539999999999,0,sub_20
0.0173557999999997,0.0061638000000012,-0.0133188,-0.0035855999999994,0.0069562000000007,-0.0035835999999999,0,sub_20
0.0191653999999997,0.0063508000000012,-0.0132354,-0.0014321999999994,0.0063046000000007,-0.0043813999999999,0,sub_20
0.0205103999999997,0.0056802000000012,-0.013303,0.0007128000000005,0.0043722000000007,-0.0045365999999999,0,sub_20
0.0216073999999997,0.0059606000000012,-0.013808,0.0009354000000005,0.0026570000000007,-0.0040645999999999,0,sub_20
0.0220423999999997,0.0051306000000012,-0.0135096,0.0002858000000005,0.0013774000000007,-0.0032129999999999,0,sub_20
0.0226681999999997,0.0041498000000012,-0.0131488,-0.0005753999999994,0.0005248000000007,-0.0023633999999999,0,sub_20
0.0214053999999997,0.0045404000000012,-0.0135326,-0.0022899999999994,-0.0001127999999991,-0.0013061999999999,0,sub_20
0.0208719999999997,0.0051952000000012,-0.0136502,-0.0026973999999994,-0.0007607999999991,-0.0014807999999999,0,sub_20
0.0204447999999997,0.0055946000000012,-0.0133784,-0.0016131999999994,-0.0018399999999991,-0.0016443999999999,0,sub_20
0.0203489999999997,0.0058778000000012,-0.013424,-0.0001069999999994,-0.0037735999999991,-0.0015903999999999,0,sub_20
0.0197243999999997,0.0061712000000012,-0.0141764,0.0009726000000005,-0.0052815999999991,-0.0011125999999999,0,sub_20
0.0197623999999997,0.0058720000000012,-0.0142832,0.0018406000000005,-0.0065745999999991,-0.0008501999999999,0,sub_20
0.0192541999999997,0.0054258000000012,-0.014229,0.0018330000000005,-0.0072179999999991,0.0002188,0,sub_20
0.0182913999999997,0.0055444000000012,-0.0135586,0.0011854000000005,-0.0080713999999991,0.00107,0,sub_20
0.0173929999999997,0.0063600000000012,-0.013017,0.0005434000000005,-0.0082831999999991,0.0012796,0,sub_20
0.0168779999999997,0.0061264000000012,-0.01261,0.0003450000000005,-0.0080637999999991,0.000879,0,sub_20
0.0163065999999997,0.0061286000000012,-0.0129994,-6.099999999942252e-05,-0.0069899999999991,4.860000000000142e-05,0,sub_20
0.0158687999999997,0.0061192000000012,-0.012873,-3.959999999942252e-05,-0.0061287999999991,-0.0012057999999999,0,sub_20
0.0157909999999997,0.0057870000000012,-0.013731,0.0004076000000005,-0.0048455999999991,-0.0018167999999999,0,sub_20
0.0161531999999997,0.0054598000000012,-0.0139912,0.0006426000000005,-0.0031363999999991,-0.0022163999999999,0,sub_20
0.0169331999999997,0.0056178000000012,-0.0136558,0.0004330000000005,-0.0022833999999992,-0.0022189999999999,0,sub_20
0.0166379999999997,0.0058968000000012,-0.0131148,0.0002196000000005,-0.0014337999999992,-0.0013669999999999,0,sub_20
0.0167135999999997,0.0063188000000012,-0.0132684,0.0002206000000005,-0.0001597999999992,-0.0003003999999999,0,sub_20
0.0171327999999997,0.0064776000000012,-0.013012,2.560000000055749e-05,0.0017616000000007,0.000146,0,sub_20
0.0170065999999997,0.0060334000000012,-0.0126378,0.0002552000000005,0.0034678000000007,0.0008094,0,sub_20
0.0167301999999997,0.0060430000000012,-0.0127676,0.0007002000000005,0.0047504000000007,0.0006202,0,sub_20
0.0170521999999997,0.0060368000000012,-0.0122658,0.0011462000000005,0.0058218000000007,4.0000000000416e-06,0,sub_20
0.0174711999999997,0.0061554000000012,-0.0121298,0.0007358000000005,0.0060448000000007,-0.0008307999999999,0,sub_20
0.0179205999999997,0.0063420000000012,-0.0118208,0.0003118000000005,0.0058368000000007,-0.0016881999999999,0,sub_20
0.0183193999999997,0.0066914000000012,-0.0120416,-0.0005425999999994,0.0049902000000007,-0.0023339999999999,0,sub_20
0.0183271999999997,0.0065340000000012,-0.012024,-0.0007597999999994,0.0043510000000007,-0.0021209999999999,0,sub_20
0.0188095999999997,0.0060636000000012,-0.0124218,-0.0009817999999994,0.0028586000000007,-0.0016933999999999,0,sub_20
0.0193623999999997,0.0053462000000012,-0.012858,-0.0005529999999994,0.0015670000000007,-0.0010289999999999,0,sub_20
0.0196381999999997,0.0050778000000012,-0.0136474,0.0003064000000005,0.0009138000000007,-0.0005759999999999,0,sub_20
0.0200947999999997,0.0055944000000012,-0.0141814,0.0009532000000005,0.0006866000000007,8.840000000000167e-05,0,sub_20
0.0205823999999997,0.0055498000000012,-0.0143692,0.0018106000000005,3.180000000081451e-05,0.0009684,0,sub_20
0.0200071999999997,0.0056866000000012,-0.01452,0.0020248000000005,-0.0010477999999991,0.0020582,0,sub_20
0.0196633999999997,0.0056370000000012,-0.0140252,0.0020152000000005,-0.0021173999999991,0.0031276,0,sub_20
0.0189507999999997,0.0050494000000012,-0.0139794,0.0011464000000005,-0.0040377999999991,0.0046194,0,sub_20
0.0180749999999997,0.0047808000000012,-0.0140412,0.0011420000000005,-0.0061783999999991,0.005281,0,sub_20
0.0169111999999997,0.0054088000000012,-0.013864,0.0013538000000005,-0.0081051999999992,0.0055166,0,sub_20
0.0167065999999997,0.0061142000000012,-0.013496,0.0024268000000005,-0.0089669999999992,0.0051158,0,sub_20
0.0159013999999997,0.0064842000000012,-0.0140694,0.0032902000000005,-0.0096123999999992,0.0040724,0,sub_20
0.0154083999999997,0.0063034000000012,-0.0138012,0.0039440000000005,-0.0094049999999992,0.0030264,0,sub_20
0.0154009999999997,0.0052244000000012,-0.013404,0.0033106000000005,-0.0085479999999991,0.00238,0,sub_20
