userAcceleration.x,userAcceleration.y,userAcceleration.z,rotationRate.x,rotationRate.y,rotationRate.z,label,subject
-0.0608694000000002,-0.0139089999999986,0.1099671999999999,-0.0080305999999994,0.0082898000000008,-0.0004693999999999,0,sub_19
-0.0613210000000002,-0.0145621999999986,0.1099663999999999,-0.0048171999999994,0.0106086000000008,0.0012368,0,sub_19
-0.0618052000000002,-0.0144871999999986,0.1099865999999999,-0.0020325999999994,0.0125028000000008,0.0029406,0,sub_19
-0.0620006000000002,-0.0143637999999986,0.1097599999999999,0.0011710000000005,0.0129034000000008,0.004863,0,sub_19
-0.0616530000000002,-0.0144663999999986,0.1097059999999999,0.0032924000000005,0.0118240000000008,0.0065884,0,sub_19
-0.0619656000000002,-0.0141063999999986,0.1095725999999999,0.0052052000000005,0.0105374000000008,0.0070306,0,sub_19
-0.0619880000000002,-0.0138301999999986,0.1100591999999999,0.0058280000000005,0.0073368000000008,0.00768,0,sub_19
-0.0621386000000002,-0.0140331999999986,0.1104995999999999,0.0070852000000005,0.0030456000000008,0.0083166,0,sub_19
-0.0623644000000002,-0.0145217999999986,0.1110407999999999,0.0077024000000005,-0.0016675999999991,0.008522,0,sub_19
-0.0619858000000002,-0.0145327999999986,0.1110677999999999,0.0085346000000005,-0.0057433999999991,0.0089416,0,sub_19
-0.0616652000000002,-0.0146615999999986,0.1103737999999999,0.0093630000000005,-0.0106713999999991,0.0093624,0,sub_19
-0.0617396000000002,-0.0152029999999987,0.1099083999999999,0.0110412000000005,-0.0166665999999991,0.0095768,0,sub_19
-0.0612894000000002,-0.0154495999999987,0.1100397999999999,0.0120802000000005,-0.0224243999999991,0.0100186,0,sub_19
-0.0613092000000002,-0.0152989999999987,0.1100129999999998,0.0131210000000005,-0.0273317999999991,0.0108866,0,sub_19
-0.0617346000000002,-0.0155053999999987,0.1096895999999999,0.0139478000000005,-0.0320269999999991,0.0121802,0,sub_19
-0.0607922000000002,-0.0149513999999987,0.1086785999999999,0.0154370000000005,-0.0354603999999991,0.0141122,0,sub_19
-0.0599452000000002,-0.0138253999999987,0.1075311999999999,0.0169384000000005,-0.0361241999999991,0.0160406,0,sub_19
-0.0589676000000002,-0.0121211999999987,0.1064105999999999,0.0184456000000005,-0.0361461999999991,0.0173274,0,sub_19
-0.0579730000000002,-0.0105551999999987,0.1059883999999999,0.0197502000000005,-0.0350971999999991,0.0173296,0,sub_19
-0.0575432000000002,-0.0084437999999987,0.1058719999999999,0.0206442000000005,-0.0321223999999991,0.0156172,0,sub_19
-0.0571548000000002,-0.0071147999999987,0.1066373999999999,0.0198242000000005,-0.0269967999999991,0.0132548,0,sub_19
-0.0565420000000002,-0.0055993999999987,0.1078927999999999,0.0185844000000005,-0.0210149999999991,0.0102474,0,sub_19
-0.0561780000000002,-0.0056353999999987,0.1090109999999999,0.0167102000000005,-0.0133281999999991,0.0076608,0,sub_19
-0.0557888000000002,-0.0057259999999987,0.1097413999999999,0.0140396000000005,-0.0052119999999991,0.00485,0,sub_19
-0.0549722000000002,-0.0074811999999986,0.1109627999999999,0.0098668000000005,0.0016286000000008,0.0026714,0,sub_19
-0.0552052000000002,-0.0093751999999986,0.1126187999999999,0.0056836000000005,0.0063378000000007,0.000709,0,sub_19
-0.0561326000000002,-0.0116827999999986,0.1131257999999999,0.0010648000000005,0.0101922000000007,-0.0001869999999999,0,sub_19
-0.0572124000000002,-0.0133139999999986,0.1131041999999999,-0.0022793999999994,0.0123392000000007,-0.0014993999999999,0,sub_19
-0.0580150000000002,-0.0152579999999986,0.1131137999999999,-0.0048339999999994,0.0134144000000008,-0.0017321999999999,0,sub_19
-0.0595826000000002,-0.0157047999999987,0.1130603999999999,-0.0056893999999994,0.0134156000000007,-0.0013109999999999,0,sub_19
-0.0604200000000002,-0.0147531999999987,0.1120261999999999,-0.0080431999999994,0.0125690000000007,-0.0006853999999999,0,sub_19
-0.0606494000000002,-0.0130361999999986,0.1118813999999999,-0.0110361999999994,0.0115132000000007,-0.0004913999999999,0,sub_19
-0.0609308000000002,-0.0116343999999986,0.1128147999999999,-0.0141747999999994,0.0117302000000007,0.0003412,0,sub_19
-0.0606836000000002,-0.0106665999999986,0.1125197999999999,-0.0179525999999994,0.0123746000000007,0.0013822,0,sub_19
-0.0591866000000002,-0.0102313999999986,0.1118279999999999,-0.0227903999999994,0.0140900000000008,0.0019874,0,sub_19
-0.0584884000000002,-0.0109161999999986,0.1115989999999999,-0.0256955999999994,0.0179316000000008,0.0019622,0,sub_19
-0.0575886000000002,-0.0123653999999987,0.1112027999999999,-0.0275327999999994,0.0213460000000008,0.0013042,0,sub_19
-0.0567420000000002,-0.0130525999999987,0.1096847999999999,-0.0296481999999994,0.0243406000000007,0.0002174,0,sub_19
-0.0565802000000002,-0.0135719999999987,0.1090227999999999,-0.0306957999999994,0.0275444000000007,-0.0008621999999999,0,sub_19
-0.0564944000000002,-0.0134025999999987,0.1088171999999999,-0.0295671999999994,0.0313628000000007,-0.0021529999999999,0,sub_19
-0.0562502000000002,-0.0129447999999987,0.1092223999999999,-0.0271563999999994,0.0353908000000007,-0.0036485999999999,0,sub_19
-0.0569664000000002,-0.0126305999999987,0.1088087999999999,-0.0226107999999994,0.0404732000000008,-0.0042761999999999,0,sub_19
-0.0571526000000002,-0.0137341999999987,0.1093251999999999,-0.0176423999999994,0.0459750000000008,-0.0036195999999999,0,sub_19
-0.0575788000000002,-0.0144329999999987,0.1099679999999999,-0.0124711999999994,0.0499814000000008,-0.0021049999999999,0,sub_19
-0.0589248000000002,-0.0150707999999987,0.1110765999999999,-0.0096983999999994,0.0525174000000007,0.0006884,0,sub_19
-0.0605740000000002,-0.0154981999999987,0.1121505999999999,-0.0075769999999994,0.0533476000000007,0.004334,0,sub_19
-0.0611566000000002,-0.0157437999999987,0.1145949999999998,-0.0056681999999994,0.0541794000000007,0.0077646,0,sub_19
-0.0623268000000002,-0.0142369999999987,0.1155897999999999,-0.0033339999999994,0.0544100000000007,0.0103106,0,sub_19
-0.0628164000000002,-0.0124301999999987,0.1158639999999999,-0.0027019999999994,0.0544386000000007,0.011563,0,sub_19
-0.0628304000000002,-0.0112487999999987,0.1160319999999999,-0.0042053999999994,0.0527752000000008,0.0115208,0,sub_19
-0.0623702000000002,-0.0111827999999987,0.1156793999999999,-0.0089123999999994,0.0494230000000008,0.0103902,0,sub_19
-0.0624146000000002,-0.0111239999999986,0.1139815999999999,-0.0168217999999994,0.0437460000000008,0.0073174,0,sub_19
-0.0622486000000002,-0.0122601999999986,0.1128441999999999,-0.0264473999999994,0.0348458000000007,0.0036296,0,sub_19
-0.0629796000000002,-0.0138177999999986,0.1119415999999999,-0.0347995999999994,0.0244498000000007,-4.739999999994922e-05,0,sub_19
-0.0640742000000002,-0.0147791999999986,0.1100443999999999,-0.0399501999999994,0.0144678000000007,-0.0034887999999999,0,sub_19
-0.0647044000000002,-0.0146197999999986,0.1083273999999999,-0.0415087999999994,0.0060302000000007,-0.0060981999999999,0,sub_19
-0.0651116000000002,-0.0144241999999987,0.1070117999999999,-0.0400821999999994,-0.0011461999999992,-0.0069791999999999,0,sub_19
-0.0649056000000002,-0.0143979999999987,0.1059053999999999,-0.0358711999999994,-0.0045033999999991,-0.0063501999999999,0,sub_19
-0.0637764000000002,-0.0137467999999987,0.1049115999999999,-0.0301549999999994,-0.0036115999999991,-0.0040069999999999,0,sub_19
-0.0618722000000002,-0.0131579999999987,0.1038885999999999,-0.0246455999999994,-0.0001665999999991,-0.0006001999999999,0,sub_19
-0.0603906000000002,-0.0130169999999987,0.1030549999999999,-0.0197313999999994,0.0059760000000008,0.0041264,0,sub_19
-0.0586860000000002,-0.0132369999999987,0.1030563999999999,-0.0152399999999994,0.0146698000000008,0.010556,0,sub_19
-0.0576742000000002,-0.0126593999999987,0.1033973999999999,-0.0107437999999994,0.0237924000000008,0.016344,0,sub_19
-0.0567308000000002,-0.0133903999999987,0.1047801999999999,-0.0075433999999994,0.0318828000000008,0.0208114,0,sub_19
-0.0563944000000002,-0.0144017999999987,0.1065233999999999,-0.0041287999999994,0.0393368000000008,0.0244264,0,sub_19
-0.0566162000000002,-0.0152985999999987,0.1081625999999999,-0.0005063999999994,0.0444508000000008,0.0269776,0,sub_19
-0.0576994000000002,-0.0157591999999987,0.1085657999999999,0.0024662000000005,0.0459512000000008,0.0280334,0,sub_19
-0.0590420000000002,-0.0164211999999987,0.1091489999999999,0.0041508000000005,0.0451148000000007,0.0284424,0,sub_19
-0.0600082000000002,-0.0152315999999987,0.1091785999999999,0.0052032000000005,0.0425520000000007,0.029094,0,sub_19
-0.0613878000000002,-0.0142987999999987,0.1090811999999999,0.0056138000000005,0.0389286000000007,0.0291014,0,sub_19
-0.0607532000000002,-0.0133941999999987,0.1090863999999998,0.0053918000000005,0.0357388000000007,0.027822,0,sub_19
-0.0598070000000001,-0.0121443999999987,0.1104517999999999,0.0041520000000005,0.0344342000000007,0.0267268,0,sub_19
-0.0575288000000001,-0.0116169999999987,0.1111999999999999,0.0012148000000005,0.0346296000000007,0.024977,0,sub_19
-0.0583000000000002,-0.0111903999999987,0.1109789999999999,-0.0029995999999994,0.0335588000000007,0.021297,0,sub_19
-0.0576828000000002,-0.0113643999999986,0.1106653999999998,-0.0072131999999994,0.0339744000000008,0.018897,0,sub_19
-0.0596294000000002,-0.0116627999999986,0.1104979999999999,-0.0110039999999994,0.0339604000000008,0.016928,0,sub_19
-0.0605336000000002,-0.0124629999999986,0.1090609999999999,-0.0150493999999994,0.0337700000000008,0.0147636,0,sub_19
-0.0623452000000002,-0.0124053999999986,0.1079583999999999,-0.0190995999999994,0.0323022000000007,0.012387,0,sub_19
-0.0614318000000002,-0.0137883999999986,0.1084739999999998,-0.0218667999999994,0.0327422000000007,0.0112988,0,sub_19
-0.0621690000000002,-0.0143643999999987,0.1088707999999998,-0.0237823999999994,0.0316920000000007,0.0091504,0,sub_19
-0.0618736000000002,-0.0154641999999987,0.1088769999999998,-0.0256489999999994,0.0302946000000007,0.0078352,0,sub_19
-0.0625742000000002,-0.0160607999999987,0.1094385999999998,-0.0262373999999994,0.0280422000000007,0.0061028,0,sub_19
-0.0632202000000002,-0.0167159999999987,0.1098707999999998,-0.0246939999999993,0.0262050000000007,0.0052394,0,sub_19
-0.0644718000000002,-0.0168385999999987,0.1093371999999998,-0.0227265999999993,0.0237272000000007,0.0043798,0,sub_19
-0.0648206000000002,-0.0166309999999987,0.1087845999999999,-0.0211879999999994,0.0210370000000008,0.003731,0,sub_19
-0.0647742000000002,-0.0159621999999986,0.1089155999999999,-0.0194905999999994,0.0180516000000008,0.002892,0,sub_19
-0.0648284000000002,-0.0157319999999986,0.1089207999999999,-0.0173693999999994,0.0146378000000008,0.0022702,0,sub_19
-0.0648768000000002,-0.0156177999999986,0.1089167999999999,-0.0153721999999994,0.0110734000000008,0.0020564,0,sub_19
-0.0646744000000002,-0.0152417999999986,0.1092625999999999,-0.0123033999999994,0.0089948000000008,0.0022756,0,sub_19
-0.0645112000000002,-0.0146175999999986,0.1095289999999999,-0.0087991999999994,0.0090444000000008,0.0027088,0,sub_19
-0.0642444000000002,-0.0139617999999987,0.1085429999999999,-0.0059323999999993,0.0097356000000007,0.0031368,0,sub_19
-0.0635722000000002,-0.0125897999999987,0.1076363999999999,-0.0036987999999993,0.0114960000000007,0.0031316,0,sub_19
-0.0636634000000002,-0.0107271999999987,0.1063071999999999,-0.0028375999999993,0.0129852000000007,0.0029222,0,sub_19
-0.0638868000000002,-0.0089835999999987,0.1045767999999998,-0.0038949999999994,0.0140584000000007,0.0018452,0,sub_19
-0.0640554000000002,-0.0077909999999987,0.1022701999999999,-0.0060199999999994,0.0144980000000007,0.0003342,0,sub_19
-0.0641178000000002,-0.0071401999999987,0.1009857999999999,-0.0076153999999994,0.0143792000000008,-0.0020565999999999,0,sub_19
-0.0637240000000002,-0.0075645999999987,0.1002663999999999,-0.0087851999999994,0.0131970000000008,-0.0052975999999999,0,sub_19
-0.0623372000000002,-0.0096605999999987,0.0996199999999999,-0.0091013999999994,0.0113752000000008,-0.0091727999999998,0,sub_19
-0.0621170000000002,-0.0115599999999986,0.0997997999999999,-0.0087803999999993,0.0082756000000008,-0.0136827999999999,0,sub_19
-0.0613188000000002,-0.0147311999999986,0.1008945999999999,-0.0067611999999993,0.0045256000000008,-0.0168981999999999,0,sub_19
-0.0610936000000002,-0.0174561999999986,0.1017527999999999,-0.0031415999999994,0.0015352000000008,-0.0181509999999999,0,sub_19
-0.0613174000000002,-0.0197159999999986,0.1026193999999999,0.0017516000000005,-0.0008289999999991,-0.0172591999999999,0,sub_19
-0.0615094000000002,-0.0204373999999986,0.1040305999999999,0.0079202000000005,-0.0023529999999991,-0.0144367999999999,0,sub_19
-0.0605320000000002,-0.0215371999999987,0.1047893999999999,0.0156434000000005,-0.0025725999999991,-0.0097575999999999,0,sub_19
-0.0608052000000002,-0.0199421999999987,0.1051657999999999,0.0222978000000005,-0.0019411999999992,-0.0038049999999999,0,sub_19
-0.0606282000000002,-0.0175109999999987,0.1042399999999999,0.0268280000000005,0.0004038000000007,0.0017032,0,sub_19
-0.0606410000000002,-0.0150007999999986,0.1029713999999999,0.0292340000000005,0.0040378000000007,0.0063404,0,sub_19
-0.0610472000000002,-0.0131073999999986,0.1016923999999999,0.0310094000000005,0.0072582000000007,0.00841,0,sub_19
-0.0615918000000002,-0.0115563999999986,0.1007975999999999,0.0316534000000005,0.0074716000000007,0.0077734,0,sub_19
-0.0621990000000002,-0.0109799999999986,0.1006889999999999,0.0327298000000005,0.0055664000000007,0.003724,0,sub_19
-0.0630078000000002,-0.0109655999999986,0.1020639999999999,0.0374404000000005,0.0030180000000008,-0.0024353999999999,0,sub_19
-0.0628340000000002,-0.0127477999999986,0.1030547999999999,0.0449962000000005,-0.0005747999999991,-0.0090841999999999,0,sub_19
-0.0636114000000002,-0.0142815999999986,0.1040881999999999,0.0504144000000005,-0.0033147999999991,-0.0140397999999999,0,sub_19
-0.0642628000000002,-0.0148189999999986,0.1053013999999999,0.0526404000000005,-0.0005185999999991,-0.0153929999999999,0,sub_19
-0.0636544000000002,-0.0159481999999987,0.1071647999999999,0.0529626000000005,0.0084526000000008,-0.0142033999999999,0,sub_19
-0.0632084000000002,-0.0173485999999987,0.1088165999999999,0.0522120000000005,0.0178468000000008,-0.0113127999999999,0,sub_19
-0.0633710000000002,-0.0169869999999987,0.1105337999999999,0.0507404000000005,0.0267842000000008,-0.0072753999999999,0,sub_19
-0.0634110000000002,-0.0166017999999986,0.1106165999999999,0.0496792000000005,0.0316738000000008,-0.0036571999999999,0,sub_19
-0.0633870000000002,-0.0164341999999987,0.1101999999999999,0.0488066000000005,0.0286888000000008,-0.0023775999999999,0,sub_19
-0.0645208000000002,-0.0158109999999986,0.1083481999999999,0.0471322000000005,0.0155388000000008,-0.0032927999999999,0,sub_19
-0.0653800000000002,-0.0143745999999986,0.1068065999999999,0.0418076000000005,-0.0035605999999991,-0.0050803999999999,0,sub_19
-0.0661590000000002,-0.0136491999999986,0.1059329999999999,0.0354150000000005,-0.0239303999999991,-0.0079419999999999,0,sub_19
-0.0662318000000002,-0.0128921999999986,0.1062251999999999,0.0301028000000005,-0.0411089999999991,-0.0105865999999999,0,sub_19
-0.0660388000000002,-0.0128591999999986,0.1064547999999999,0.0265090000000005,-0.0548879999999991,-0.0123687999999999,0,sub_19
-0.0644666000000002,-0.0132495999999986,0.1072941999999999,0.0241198000000005,-0.0646783999999991,-0.0128001999999999,0,sub_19
-0.0632222000000002,-0.0145351999999986,0.1080505999999999,0.0230212000000005,-0.0714931999999991,-0.0125855999999999,0,sub_19
-0.0631618000000002,-0.0147505999999986,0.1079861999999999,0.0227792000000005,-0.0774595999999991,-0.0121521999999999,0,sub_19
-0.0641102000000002,-0.0139459999999986,0.1080129999999999,0.0241024000000005,-0.0831399999999991,-0.0113247999999999,0,sub_19
-0.0646620000000002,-0.0132811999999986,0.1072779999999999,0.0288510000000005,-0.0856391999999991,-0.0098365999999999,0,sub_19
-0.0657550000000002,-0.0121229999999986,0.1066623999999999,0.0350978000000005,-0.0866539999999991,-0.0079125999999999,0,sub_19
-0.0664264000000002,-0.0105493999999986,0.1052041999999999,0.0417744000000005,-0.0863943999999991,-0.0053461999999999,0,sub_19
-0.0654678000000002,-0.0094221999999986,0.1036281999999999,0.0465326000000005,-0.0859141999999991,-0.0030073999999999,0,sub_19
-0.0634586000000002,-0.0091097999999986,0.1024227999999999,0.0486576000000005,-0.0869903999999992,-0.0021365999999999,0,sub_19
-0.0615562000000002,-0.0082481999999986,0.1018855999999999,0.0463000000000005,-0.0908111999999991,-0.0036437999999999,0,sub_19
-0.0602192000000002,-0.0076535999999986,0.1017721999999999,0.0411762000000005,-0.0950397999999991,-0.0073061999999998,0,sub_19
-0.0589822000000002,-0.0076005999999986,0.1029065999999998,0.0352524000000005,-0.0984961999999991,-0.0133293999999998,0,sub_19
-0.0593600000000002,-0.0076149999999986,0.1046435999999998,0.0306232000000005,-0.0998221999999991,-0.0204143999999999,0,sub_19
-0.0600030000000002,-0.0082315999999986,0.1057063999999999,0.0275032000000005,-0.0973201999999991,-0.0270665999999999,0,sub_19
-0.0607438000000002,-0.0093111999999986,0.1069021999999998,0.0256624000000005,-0.0939745999999991,-0.0326425999999999,0,sub_19
-0.0612342000000002,-0.0104011999999986,0.1074327999999998,0.0246674000000005,-0.0912755999999991,-0.0371435999999999,0,sub_19
-0.0617644000000002,-0.0111929999999986,0.1075841999999999,0.0238294000000005,-0.0910467999999991,-0.0403543999999999,0,sub_19
-0.0614012000000002,-0.0117561999999987,0.1074893999999999,0.0219080000000005,-0.0935873999999991,-0.0427145999999999,0,sub_19
-0.0606574000000002,-0.0115647999999987,0.1078597999999999,0.0199808000000005,-0.0971939999999991,-0.0448597999999999,0,sub_19
-0.0600102000000002,-0.0108169999999987,0.1078331999999999,0.0186434000000005,-0.0991687999999992,-0.0455053999999999,0,sub_19
-0.0590674000000002,-0.0103793999999987,0.1079333999999999,0.0188104000000005,-0.0983807999999991,-0.0457167999999999,0,sub_19
-0.0574318000000002,-0.0102117999999987,0.1075807999999999,0.0192022000000005,-0.0944003999999991,-0.0452897999999999,0,sub_19
-0.0556076000000002,-0.0104931999999987,0.1079377999999999,0.0200276000000005,-0.0876567999999991,-0.0435813999999999,0,sub_19
-0.0536122000000002,-0.0110061999999987,0.1081405999999999,0.0206386000000005,-0.0800645999999991,-0.0408073999999999,0,sub_19
-0.0516212000000002,-0.0119289999999986,0.1082365999999999,0.0223676000000005,-0.0721995999999991,-0.0378143999999999,0,sub_19
-0.0499678000000002,-0.0116093999999986,0.1080357999999999,0.0247280000000005,-0.0645565999999991,-0.0331075999999999,0,sub_19
-0.0484956000000002,-0.0109631999999986,0.1079763999999999,0.0268712000000005,-0.0564917999999991,-0.0271207999999999,0,sub_19
-0.0475636000000002,-0.0098381999999986,0.1072161999999999,0.0280206000000005,-0.0476395999999991,-0.0202675999999999,0,sub_19
-0.0466184000000002,-0.0091027999999986,0.1068127999999998,0.0289538000000005,-0.0387891999999991,-0.0127749999999999,0,sub_19
-0.0458592000000002,-0.0084643999999987,0.1065671999999999,0.0292442000000005,-0.0307879999999991,-0.0054995999999999,0,sub_19
-0.0457140000000002,-0.0082107999999986,0.1059043999999998,0.0284638000000005,-0.0244839999999991,0.0009162,0,sub_19
-0.0462666000000002,-0.0074935999999986,0.1054519999999999,0.0264004000000005,-0.0196635999999991,0.0064702,0,sub_19
-0.0458100000000002,-0.0062425999999986,0.1051261999999999,0.0223416000000005,-0.0173195999999991,0.009857,0,sub_19
-0.0453960000000002,-0.0047059999999986,0.1049367999999999,0.0176436000000005,-0.0160333999999991,0.011959,0,sub_19
-0.0450678000000002,-0.0028363999999986,0.1050445999999999,0.0116730000000005,-0.0149479999999991,0.0121296,0,sub_19
-0.0455280000000002,-0.0024407999999987,0.1055393999999999,0.0044280000000005,-0.0136409999999991,0.0112226,0,sub_19
-0.0456338000000002,-0.0021801999999987,0.1049799999999999,-0.0040925999999994,-0.0112641999999991,0.0103054,0,sub_19
-0.0461728000000002,-0.0024501999999987,0.1046613999999999,-0.0119747999999994,-0.0093155999999991,0.0093934,0,sub_19
-0.0471438000000002,-0.0034037999999987,0.1048163999999999,-0.0187921999999994,-0.0088579999999991,0.0074224,0,sub_19
-0.0479902000000002,-0.0046347999999987,0.1042547999999999,-0.0241197999999993,-0.0092577999999991,0.005463,0,sub_19
-0.0482414000000002,-0.0052283999999987,0.1039983999999999,-0.0273021999999994,-0.0071083999999991,0.0035152,0,sub_19
-0.0490960000000002,-0.0059681999999986,0.1035055999999999,-0.0277029999999994,-0.0036885999999991,0.001158,0,sub_19
-0.0502482000000002,-0.0068811999999986,0.1028629999999999,-0.0268265999999994,0.0009972000000008,0.0007308,0,sub_19
-0.0509858000000002,-0.0074029999999986,0.1005163999999999,-0.0270177999999994,0.0058982000000008,0.0007232,0,sub_19
-0.0508410000000002,-0.0083173999999986,0.1002509999999999,-0.0265717999999994,0.0107944000000008,0.001361,0,sub_19
-0.0496170000000002,-0.0101621999999986,0.1002617999999999,-0.0252809999999994,0.0129212000000008,0.0011538,0,sub_19
-0.0484558000000002,-0.0117747999999986,0.1015645999999999,-0.0222871999999994,0.0131288000000008,-0.0001075999999999,0,sub_19
-0.0484470000000002,-0.0132287999999987,0.1027887999999999,-0.0169413999999994,0.0129082000000007,-0.0028473999999999,0,sub_19
-0.0488974000000002,-0.0145531999999987,0.1045701999999999,-0.0103173999999994,0.0126814000000007,-0.0051509999999999,0,sub_19
-0.0508142000000002,-0.0150037999999987,0.1050589999999999,-0.0047715999999994,0.0107504000000007,-0.0066053999999999,0,sub_19
-0.0528952000000002,-0.0141065999999987,0.1053805999999999,-0.0018005999999994,0.0073304000000007,-0.0063667999999999,0,sub_19
-0.0554158000000002,-0.0131595999999986,0.1060417999999999,-0.0011901999999994,0.0022090000000007,-0.0048603999999999,0,sub_19
-0.0561928000000002,-0.0117851999999986,0.1063589999999999,-0.0018599999999994,-0.0033323999999991,-0.0037897999999999,0,sub_19
-0.0562798000000002,-0.0111437999999986,0.1068633999999999,-0.0040233999999994,-0.0082319999999991,-0.0020893999999999,0,sub_19
-0.0560948000000002,-0.0100307999999986,0.1074735999999999,-0.0063849999999994,-0.0105707999999991,-0.0012483999999999,0,sub_19
-0.0561808000000002,-0.0090437999999986,0.1077311999999999,-0.0076671999999994,-0.0114167999999991,-0.0016833999999999,0,sub_19
-0.0558122000000002,-0.0090475999999986,0.1077241999999999,-0.0087319999999994,-0.0120479999999991,-0.0027581999999999,0,sub_19
-0.0564202000000002,-0.0096277999999987,0.1078893999999999,-0.0097969999999994,-0.0131035999999991,-0.0042597999999999,0,sub_19
-0.0576124000000002,-0.0090431999999986,0.1083547999999999,-0.0087223999999994,-0.0143737999999991,-0.0072417999999999,0,sub_19
-0.0582146000000002,-0.0098015999999986,0.1087939999999999,-0.0063733999999994,-0.0169265999999991,-0.0102129999999999,0,sub_19
-0.0579366000000002,-0.0094075999999986,0.1096243999999999,-0.0031757999999994,-0.0201233999999991,-0.0127503999999999,0,sub_19
-0.0570498000000002,-0.0092217999999986,0.1105503999999999,-0.0001943999999994,-0.0228975999999991,-0.0142215999999999,0,sub_19
-0.0560272000000002,-0.0087305999999986,0.1114061999999999,0.0021450000000005,-0.0248223999999991,-0.0144163999999999,0,sub_19
-0.0545294000000002,-0.0086985999999987,0.1123311999999999,0.0016980000000005,-0.0280217999999991,-0.0131333999999999,0,sub_19
-0.0538050000000002,-0.0083287999999987,0.1125297999999999,-0.0011131999999994,-0.0337747999999991,-0.0105819999999999,0,sub_19
-0.0528652000000002,-0.0106411999999987,0.1124035999999999,-0.0049949999999994,-0.0401639999999991,-0.0078235999999999,0,sub_19
-0.0531524000000001,-0.0128267999999986,0.1120317999999999,-0.0073841999999994,-0.0471957999999991,-0.0054811999999999,0,sub_19
-0.0530538000000002,-0.0150915999999986,0.1121121999999999,-0.0082873999999994,-0.0555129999999991,-0.0026993999999999,0,sub_19
-0.0536244000000002,-0.0173857999999986,0.1121031999999999,-0.0051289999999994,-0.0632007999999992,-0.0009583999999999,0,sub_19
-0.0538222000000002,-0.0189337999999986,0.1129029999999999,0.0025352000000005,-0.0666381999999991,-0.0004731999999999,0,sub_19
-0.0546886000000002,-0.0182481999999986,0.1135987999999999,0.0123464000000005,-0.0675247999999991,-0.0004033999999999,0,sub_19
-0.0548254000000002,-0.0172095999999987,0.1134835999999999,0.0225950000000005,-0.0664935999999991,-0.0007603999999999,0,sub_19
-0.0550800000000002,-0.0165813999999987,0.1129743999999999,0.0319976000000005,-0.0643915999999991,-0.0017655999999999,0,sub_19
-0.0547148000000002,-0.0155207999999987,0.1126451999999999,0.0388362000000005,-0.0624963999999991,-0.0021475999999999,0,sub_19
-0.0536304000000002,-0.0149237999999987,0.1123057999999999,0.0426768000000005,-0.0620853999999991,-0.0016939999999999,0,sub_19
-0.0534866000000002,-0.0148825999999986,0.1122571999999999,0.0459604000000005,-0.0624161999999991,-0.0005539999999999,0,sub_19
