userAcceleration.x,userAcceleration.y,userAcceleration.z,rotationRate.x,rotationRate.y,rotationRate.z,label,subject
0.0003623999999996,-0.0029515999999986,0.0433785999999999,0.0020316000000004,-0.0301095999999993,-0.0012786,0,sub_9
0.0001999999999996,-0.0025195999999986,0.0413531999999999,0.0003160000000004,-0.0337185999999993,-0.002995,0,sub_9
-0.0016682000000003,-0.0020275999999986,0.0396607999999999,-0.0007401999999994,-0.0340965999999993,-0.0036282,0,sub_9
-0.0035220000000003,-0.0018119999999986,0.0399549999999999,-0.0007217999999994,-0.0319251999999993,-0.0034026,0,sub_9
-0.0058204000000004,-0.0014271999999986,0.0408625999999999,-0.0002641999999995,-0.0263489999999993,-0.0025372,0,sub_9
-0.0078764000000004,-0.0014519999999987,0.0434565999999999,0.0010488000000004,-0.0195009999999993,-0.000813,0,sub_9
-0.0086800000000004,-0.0033267999999987,0.0468009999999999,0.0012980000000004,-0.0115855999999993,0.0013297999999999,0,sub_9
-0.0077704000000003,-0.0054149999999987,0.0496415999999999,3.700000000049913e-05,-0.0060467999999993,0.0025957999999999,0,sub_9
-0.0056018000000004,-0.0053887999999986,0.0509109999999999,-0.0037941999999995,-0.0041149999999993,0.0023529999999999,0,sub_9
-0.0020330000000004,-0.0046689999999986,0.0510819999999999,-0.0095845999999994,-0.0061835999999993,0.0016827999999999,0,sub_9
0.0011135999999995,-0.0039861999999986,0.0491125999999999,-0.0153833999999994,-0.0101695999999993,0.0010149999999999,0,sub_9
0.0018217999999995,-0.0014621999999986,0.0461079999999999,-0.0190477999999994,-0.0139499999999993,0.0003617999999999,0,sub_9
0.0006571999999995,0.0005690000000013,0.0447495999999999,-0.0188655999999994,-0.0156167999999993,0.0005873999999999,0,sub_9
-0.0013462000000003,0.0012936000000012,0.0441057999999999,-0.0133403999999994,-0.0138993999999993,0.0023413999999999,0,sub_9
-0.0038618000000003,0.0004968000000012,0.0445063999999999,-0.0047919999999995,-0.0092489999999993,0.0041041999999999,0,sub_9
-0.0049820000000003,-0.0007521999999987,0.0479761999999999,0.0046204000000005,-0.0024701999999993,0.0056565999999999,0,sub_9
-0.0048346000000004,-0.0034681999999987,0.0530193999999999,0.0118320000000005,0.0022276000000006,0.0071979999999999,0,sub_9
-0.0044242000000004,-0.0050783999999987,0.0560493999999999,0.0147636000000004,0.0037462000000006,0.0082861999999999,0,sub_9
-0.0031696000000004,-0.0058749999999987,0.0574651999999999,0.0132114000000004,0.0027316000000006,0.0074235999999999,0,sub_9
-0.0013228000000004,-0.0056903999999987,0.0581729999999999,0.0095236000000005,0.0008740000000006,0.0061197999999999,0,sub_9
-0.0009946000000004,-0.0052701999999987,0.0571693999999999,0.0039184000000004,-0.0007621999999993,0.0043751999999999,0,sub_9
-0.0017986000000004,-0.0040067999999987,0.0532173999999999,-0.0005557999999995,-0.0011649999999993,0.0024215999999999,0,sub_9
-0.0016828000000003,-0.0031915999999987,0.0499839999999999,-0.0018243999999995,-8.919999999937901e-05,0.0009157999999998,0,sub_9
-0.0016716000000003,-0.0023075999999987,0.0493573999999999,-0.0007439999999995,0.0026776000000006,0.0007061999999998,0,sub_9
-0.0013970000000003,-0.0015873999999987,0.0494129999999999,0.0018318000000004,0.0062896000000006,0.0009331999999998,0,sub_9
0.0002693999999996,-0.0015857999999987,0.0501261999999999,0.0055832000000004,0.0082120000000006,0.0013795999999999,0,sub_9
0.0010617999999996,-0.0021777999999987,0.0521237999999999,0.0089034000000004,0.0088582000000006,0.0016109999999999,0,sub_9
-1.100000000041866e-05,-0.0025925999999986,0.0543995999999999,0.0107308000000005,0.0099348000000006,0.0020451999999999,0,sub_9
-0.0012624000000004,-0.0033589999999986,0.0550513999999999,0.0110664000000005,0.0116550000000006,0.0026815999999999,0,sub_9
-0.0018438000000004,-0.0040365999999986,0.0539191999999999,0.0101210000000005,0.0127424000000006,0.0028827999999999,0,sub_9
-0.0036296000000004,-0.0035771999999986,0.0524393999999999,0.0101306000000005,0.0155094000000006,0.0035203999999999,0,sub_9
-0.0042172000000004,-0.0028697999999986,0.0512067999999999,0.0107850000000004,0.0199762000000006,0.0048011999999999,0,sub_9
-0.0027300000000004,-0.0023281999999987,0.0495473999999999,0.0122928000000005,0.0238034000000006,0.0054477999999999,0,sub_9
-0.0004798000000004,-0.0023121999999987,0.0484949999999999,0.0141426000000005,0.0261920000000006,0.0052425999999999,0,sub_9
0.0005251999999995,-0.0024363999999987,0.0490255999999999,0.0155598000000004,0.0273038000000006,0.0050359999999999,0,sub_9
0.0019027999999995,-0.0027365999999987,0.0494781999999999,0.0154720000000005,0.0252276000000006,0.0041819999999999,0,sub_9
0.0027329999999995,-0.0032605999999987,0.0503225999999999,0.0138846000000005,0.0220904000000006,0.0035325999999999,0,sub_9
0.0018815999999995,-0.0030389999999987,0.0510377999999999,0.0114468000000005,0.0198076000000006,0.0030897999999999,0,sub_9
-0.0008436000000004,-0.0031555999999986,0.0506997999999998,0.0099444000000005,0.0178954000000006,0.0030817999999999,0,sub_9
-0.0042372000000004,-0.0032757999999986,0.0497051999999999,0.0095128000000004,0.0166194000000006,0.0028667999999999,0,sub_9
-0.0070874000000004,-0.0035119999999986,0.0489619999999999,0.0103312000000005,0.0192418000000006,0.0028679999999999,0,sub_9
-0.0078638000000004,-0.0033439999999986,0.0493539999999999,0.0124426000000004,0.0242050000000006,0.0024479999999999,0,sub_9
-0.0071858000000004,-0.0037511999999986,0.0501909999999999,0.0141242000000004,0.0287428000000006,0.0022391999999999,0,sub_9
-0.0042712000000004,-0.0034801999999987,0.0505373999999999,0.0145152000000005,0.0311536000000006,0.0022377999999999,0,sub_9
-0.0008114000000004,-0.0029747999999987,0.0511817999999999,0.0140458000000005,0.0327126000000006,0.0028723999999999,0,sub_9
0.0006733999999995,-0.0016887999999987,0.0518259999999999,0.0138238000000005,0.0312202000000006,0.0033001999999999,0,sub_9
0.0001651999999995,-0.0011859999999987,0.0515509999999999,0.0142304000000004,0.0271690000000006,0.0037353999999999,0,sub_9
-0.0008452000000004,-0.0014117999999987,0.0509043999999999,0.0152772000000004,0.0224790000000006,0.0035349999999999,0,sub_9
-0.0040584000000004,-0.0015899999999986,0.0512981999999999,0.0176204000000004,0.0211942000000006,0.0031255999999999,0,sub_9
-0.0072458000000004,-0.0022319999999986,0.0517353999999999,0.0203798000000005,0.0231620000000006,0.0027051999999999,0,sub_9
-0.0089492000000004,-0.0037611999999986,0.0522555999999999,0.0216542000000005,0.0270526000000006,0.0022719999999999,0,sub_9
-0.0096980000000004,-0.0042085999999986,0.0529099999999999,0.0225028000000005,0.0315820000000005,0.0022623999999999,0,sub_9
-0.0107362000000004,-0.0036495999999986,0.0535343999999999,0.0229342000000005,0.0390922000000006,0.0031005999999999,0,sub_9
-0.0106452000000004,-0.0035421999999986,0.0550767999999999,0.0225026000000005,0.0448994000000006,0.0043623999999999,0,sub_9
-0.0102480000000004,-0.0041883999999986,0.0575407999999999,0.0225142000000005,0.0487292000000006,0.0056395999999999,0,sub_9
-0.0107998000000004,-0.0042797999999986,0.0587029999999999,0.0212418000000004,0.0521356000000006,0.0073353999999999,0,sub_9
-0.0111136000000004,-0.0045981999999986,0.0562033999999999,0.0182424000000005,0.0553714000000006,0.0077251999999999,0,sub_9
-0.0110620000000004,-0.0047419999999987,0.0543391999999999,0.0158764000000005,0.0566890000000006,0.0076945999999999,0,sub_9
-0.0107384000000004,-0.0056221999999987,0.0525919999999999,0.0150118000000004,0.0588570000000006,0.0068185999999999,0,sub_9
-0.0110908000000004,-0.0055637999999987,0.0492097999999998,0.0126572000000004,0.0620946000000006,0.0061443999999999,0,sub_9
-0.0092280000000003,-0.0043341999999987,0.0456121999999998,0.0094510000000005,0.0657614000000006,0.0054639999999999,0,sub_9
-0.0095110000000003,-0.0043987999999987,0.0427103999999999,0.0072094000000005,0.0849614000000006,0.0011507999999999,0,sub_9
-0.0094182000000003,-0.0040861999999987,0.0415849999999999,0.0048910000000005,0.0922100000000006,0.0019797999999999,0,sub_9
-0.0071336000000003,-0.0026883999999987,0.0392317999999999,0.0012838000000005,0.0966968000000006,0.0019489999999999,0,sub_9
-0.0038360000000003,-0.0011975999999987,0.0388211999999999,-1.959999999946102e-05,0.1000930000000006,0.0017057999999999,0,sub_9
-0.0028478000000004,-0.0020971999999986,0.0399165999999999,0.0008146000000005,0.1047584000000006,0.0019029999999999,0,sub_9
-0.0008348000000004,-0.0015573999999986,0.0429851999999999,0.0013490000000005,0.0949180000000006,0.0068169999999999,0,sub_9
0.0003849999999995,-0.0028247999999986,0.0431043999999999,-0.0001235999999994,0.1034470000000006,0.0018657999999999,0,sub_9
0.0001523999999995,-0.0033307999999986,0.0450407999999999,-0.0022919999999994,0.1057748000000006,0.0031131999999999,0,sub_9
-0.0003698000000004,-0.0038363999999986,0.0451619999999999,-0.0071965999999994,0.1070678000000006,0.0037181999999999,0,sub_9
-0.0001164000000004,-0.0029905999999986,0.0438471999999999,-0.0114697999999994,0.1064410000000006,0.0043301999999999,0,sub_9
-0.0002570000000004,-0.0028927999999986,0.0434471999999999,-0.0144751999999994,0.1026158000000005,0.0045277999999999,0,sub_9
-0.0002502000000003,-0.0015971999999986,0.0439391999999999,-0.0154053999999994,0.0910918000000006,0.0100907999999999,0,sub_9
-0.0018266000000003,-0.0006531999999986,0.0424007999999999,-0.0165381999999994,0.0891112000000006,0.0111359999999999,0,sub_9
-0.0010044000000003,0.0006772000000013,0.0413817999999999,-0.0165887999999994,0.0911722000000005,0.0128243999999999,0,sub_9
-0.0013786000000003,-0.0002249999999986,0.0416363999999999,-0.0168075999999994,0.0987912000000005,0.0100179999999999,0,sub_9
-0.0018328000000003,0.0006940000000012,0.0398067999999999,-0.0159805999999994,0.1057512000000006,0.0112789999999999,0,sub_9
-0.0016044000000004,-8.699999999871709e-05,0.0396479999999999,-0.0151593999999994,0.1101596000000006,0.0112613999999999,0,sub_9
-0.0007258000000004,-0.0005519999999987,0.0409819999999999,-0.0149219999999994,0.1146364000000006,0.0104027999999999,0,sub_9
-0.0020164000000004,-0.0015105999999987,0.0423207999999999,-0.0151255999999994,0.1150702000000006,0.0086917999999999,0,sub_9
-0.0004478000000004,-0.0003927999999987,0.0438785999999999,-0.0151695999999994,0.1059064000000006,0.0093441999999999,0,sub_9
0.0036989999999995,-0.0002199999999987,0.0458655999999999,-0.0156551999999994,0.0924718000000006,0.0046513999999999,0,sub_9
0.0092303999999995,-0.0002299999999987,0.0456927999999999,-0.0138071999999994,0.0756218000000006,-0.0004478,0,sub_9
0.0117239999999995,-0.0022425999999986,0.0487949999999999,-0.0094227999999994,0.0544976000000006,-0.0044558,0,sub_9
0.0111645999999995,-0.0040789999999986,0.0527473999999999,-0.0065309999999994,0.0359258000000006,-0.0061274,0,sub_9
0.0072703999999995,-0.0049839999999986,0.0558201999999999,-0.0080855999999994,0.0275860000000006,-0.0052794,0,sub_9
-0.0072818000000003,-0.0072873999999986,0.0554385999999999,-0.0146791999999994,0.0384500000000006,0.0008563999999999,0,sub_9
-0.0214484000000004,-0.0070265999999986,0.0562019999999999,-0.0231507999999994,0.0567854000000006,0.0050465999999999,0,sub_9
-0.0358936000000003,-0.0063709999999987,0.0514761999999999,-0.0345385999999994,0.0934434000000006,0.0117567999999999,0,sub_9
-0.0465444000000003,-0.0057937999999987,0.0464841999999999,-0.0422847999999994,0.1301016000000006,0.0152877999999999,0,sub_9
-0.0493734000000003,-0.0059371999999987,0.0447523999999999,-0.0463633999999994,0.1742100000000006,0.0173391999999999,0,sub_9
-0.0435422000000004,-0.0048757999999987,0.0474623999999999,-0.0489443999999994,0.2187410000000006,0.0189731999999999,0,sub_9
-0.0372662000000004,-0.0045501999999987,0.0485199999999999,-0.0539243999999994,0.2553826000000006,0.0242323999999999,0,sub_9
-0.0273548000000004,-0.0032833999999987,0.0500223999999999,-0.0597875999999994,0.2841496000000006,0.0282137999999999,0,sub_9
-0.0177750000000004,-0.0012937999999987,0.0486907999999999,-0.0696683999999994,0.3227242000000005,0.0338635999999999,0,sub_9
-0.0136648000000004,-0.0003529999999987,0.0446547999999999,-0.0758139999999994,0.3408204000000006,0.0425569999999999,0,sub_9
-0.0071712000000004,0.0006802000000012,0.0403373999999999,-0.0777305999999994,0.3454990000000006,0.0463831999999999,0,sub_9
-0.0026020000000004,0.0028278000000012,0.0361151999999999,-0.0763995999999994,0.3572108000000006,0.0468047999999999,0,sub_9
0.0005215999999995,0.0037232000000012,0.0345755999999999,-0.0674695999999994,0.3503608000000006,0.0470895999999999,0,sub_9
0.0039429999999995,0.0032526000000012,0.0363053999999999,-0.0566757999999994,0.3298732000000005,0.0463367999999999,0,sub_9
0.0068787999999995,0.0031422000000012,0.0379813999999999,-0.0507377999999994,0.3189976000000006,0.0436147999999999,0,sub_9
0.0066909999999995,0.0022622000000012,0.0399289999999999,-0.0456809999999994,0.3038562000000006,0.0428149999999999,0,sub_9
0.0058959999999995,6.360000000130298e-05,0.0420095999999999,-0.0427751999999994,0.2874340000000006,0.0445655999999999,0,sub_9
0.0042051999999995,-0.0008355999999986,0.0419789999999999,-0.0455451999999994,0.2876594000000006,0.0439049999999999,0,sub_9
0.0016747999999995,-0.0018375999999986,0.0416419999999999,-0.0462093999999994,0.2823352000000006,0.0439071999999999,0,sub_9
-0.0010846000000004,-0.0027943999999986,0.0408623999999999,-0.0462409999999994,0.2740314000000006,0.0426357999999999,0,sub_9
-0.0037414000000004,-0.0028957999999986,0.0400377999999999,-0.0474933999999994,0.2759704000000006,0.0383515999999999,0,sub_9
-0.0057210000000003,-0.0021937999999987,0.0401923999999999,-0.0468627999999994,0.2721400000000006,0.0366517999999999,0,sub_9
-0.0036870000000004,-0.0022103999999987,0.0405405999999999,-0.0449961999999994,0.2582924000000006,0.0347597999999999,0,sub_9
-0.0006432000000004,-0.0011199999999987,0.0404153999999999,-0.0450277999999994,0.2491396000000006,0.0326347999999999,0,sub_9
0.0032637999999995,0.0016484000000012,0.0408385999999999,-0.0427257999999994,0.2380568000000006,0.0315967999999999,0,sub_9
0.0064039999999995,0.0022104000000012,0.0418219999999999,-0.0383275999999994,0.2209918000000005,0.0329313999999999,0,sub_9
0.0082703999999995,0.0012042000000012,0.0422039999999999,-0.0322097999999994,0.2039318000000006,0.0315003999999999,0,sub_9
0.0078779999999995,0.0004130000000012,0.0416643999999999,-0.0258689999999994,0.1909116000000006,0.0319885999999999,0,sub_9
0.0065163999999995,-0.0005863999999987,0.0415929999999999,-0.0176069999999994,0.1778856000000006,0.0322765999999999,0,sub_9
0.0054275999999995,-0.0022395999999987,0.0420345999999999,-0.0114679999999994,0.1646642000000006,0.0299863999999999,0,sub_9
0.0078941999999995,-0.0023025999999987,0.0423087999999999,-0.0057949999999994,0.1427090000000006,0.0277039999999999,0,sub_9
0.0117091999999995,-0.0019537999999987,0.0420693999999999,-0.0009631999999994,0.1226776000000006,0.0245587999999999,0,sub_9
0.0142603999999995,-0.0018919999999986,0.0443469999999999,0.0040590000000005,0.0951980000000006,0.0190743999999999,0,sub_9
0.0151711999999995,-0.0027199999999986,0.0481173999999999,0.0079914000000005,0.0623966000000006,0.0133755999999999,0,sub_9
0.0142849999999995,-0.0043659999999986,0.0510389999999999,0.0125446000000005,0.0263930000000006,0.0087533999999999,0,sub_9
0.0105595999999995,-0.0054311999999986,0.0525321999999999,0.0158396000000005,-0.0066155999999993,0.0021957999999999,0,sub_9
0.0048041999999995,-0.0064787999999986,0.0550425999999999,0.0174286000000005,-0.0402539999999993,-0.0052276,0,sub_9
0.0006721999999995,-0.0077285999999987,0.0576887999999999,0.0177594000000005,-0.0698365999999993,-0.0135194,0,sub_9
-0.0028238000000004,-0.0087367999999987,0.0570857999999998,0.0161930000000005,-0.0942991999999993,-0.0218312,0,sub_9
-0.0053144000000004,-0.0082505999999987,0.0552727999999998,0.0142046000000005,-0.1170585999999993,-0.0295072,0,sub_9
-0.0077934000000004,-0.0073375999999987,0.0537387999999998,0.0111628000000005,-0.1351337999999994,-0.0354874,0,sub_9
-0.0095566000000004,-0.0061607999999987,0.0501299999999998,0.0074980000000005,-0.1476741999999993,-0.0397698,0,sub_9
-0.0104290000000004,-0.0050903999999987,0.0425845999999999,0.0044764000000005,-0.1587287999999993,-0.0431952,0,sub_9
-0.0099852000000004,-0.0032357999999987,0.0357973999999999,0.0033730000000005,-0.1702161999999993,-0.0466064,0,sub_9
-0.0094742000000004,-0.0021389999999987,0.0304549999999999,0.0018468000000005,-0.1795767999999993,-0.0487416,0,sub_9
-0.0087876000000004,-0.0014365999999987,0.0262789999999999,0.0007560000000005,-0.1855359999999993,-0.0493826,0,sub_9
-0.0089284000000004,-0.0002857999999987,0.0234717999999999,0.0007776000000005,-0.1887065999999993,-0.0480892,0,sub_9
-0.0109876000000004,0.0019964000000012,0.0238205999999999,0.0022974000000005,-0.1886951999999993,-0.044653,0,sub_9
-0.0142704000000004,0.0037334000000012,0.0251477999999999,0.0059644000000005,-0.1831621999999993,-0.0386452,0,sub_9
-0.0186736000000004,0.0038246000000012,0.0283167999999999,0.0124282000000005,-0.1716765999999993,-0.0317708,0,sub_9
-0.0225052000000004,0.0028728000000012,0.0319181999999999,0.0201856000000005,-0.1565761999999993,-0.024251,0,sub_9
-0.0242220000000003,0.0003316000000013,0.0389189999999999,0.0276996000000004,-0.1400097999999993,-0.0178104,0,sub_9
-0.0244772000000003,-0.0026729999999986,0.0460029999999999,0.0335200000000004,-0.1215155999999993,-0.0124524,0,sub_9
-0.0232572000000003,-0.0055441999999986,0.0535543999999999,0.0357094000000004,-0.1057707999999993,-0.009039,0,sub_9
-0.0197356000000003,-0.0057925999999986,0.0594005999999999,0.0346800000000004,-0.0963969999999993,-0.00799,0,sub_9
-0.0156794000000004,-0.0061305999999986,0.0644321999999999,0.0312976000000004,-0.0904153999999993,-0.0090896,0,sub_9
-0.0142132000000004,-0.0057501999999986,0.0650763999999999,0.0268398000000004,-0.0867717999999993,-0.010621,0,sub_9
-0.0140298000000004,-0.0046233999999986,0.0637843999999999,0.0210836000000005,-0.0856863999999993,-0.0106626,0,sub_9
-0.0159366000000004,-0.0031881999999986,0.0596897999999999,0.0163894000000005,-0.0839723999999993,-0.0089884,0,sub_9
-0.0191602000000004,-0.0014907999999986,0.0541909999999999,0.0157550000000005,-0.0820551999999993,-0.0083544,0,sub_9
-0.0236160000000004,-0.0005395999999986,0.0464755999999999,0.0185414000000005,-0.0763243999999993,-0.0053512,0,sub_9
-0.0255350000000004,0.0005562000000013,0.0404905999999999,0.0225926000000005,-0.0746435999999993,-0.002975,0,sub_9
-0.0204174000000004,0.0005882000000012,0.0386185999999999,0.0290034000000005,-0.0757185999999993,-0.0061334,0,sub_9
-0.0139698000000004,-0.0008137999999987,0.0387507999999999,0.0415300000000005,-0.0921573999999993,-0.0085886,0,sub_9
-0.0005712000000004,-0.0077831999999987,0.0500439999999999,0.0519642000000005,-0.1032471999999993,-0.0149108,0,sub_9
-0.0017642000000004,-0.0113685999999986,0.0598885999999999,0.0485148000000005,-0.1113303999999993,-0.0151382,0,sub_9
-0.0069274000000004,-0.0149543999999986,0.0667845999999999,0.0378384000000005,-0.1098143999999993,-0.01201,0,sub_9
-0.0224992000000004,-0.0182629999999986,0.0665113999999999,0.0248428000000005,-0.0957455999999993,-0.0025048,0,sub_9
-0.0387130000000004,-0.0176583999999986,0.0644711999999999,0.0100668000000005,-0.0533231999999993,0.0041741999999999,0,sub_9
-0.0605442000000003,-0.0136137999999986,0.0541657999999999,0.0006164000000005,-0.0096537999999993,0.0140935999999999,0,sub_9
-0.0571372000000004,-0.0094609999999987,0.0514629999999999,0.0054870000000005,0.0314414000000006,0.0159977999999999,0,sub_9
-0.0482908000000004,-0.0053867999999987,0.0522145999999999,0.0156872000000005,0.0723014000000006,0.0187939999999999,0,sub_9
-0.0350572000000004,-0.0022245999999987,0.0572389999999999,0.0241314000000005,0.1039992000000006,0.0232987999999999,0,sub_9
-0.0221668000000004,-0.0016929999999987,0.0619717999999999,0.0239650000000005,0.1212300000000005,0.0301121999999999,0,sub_9
-0.0133654000000004,-0.0012353999999987,0.0615757999999999,0.0169496000000005,0.1352828000000006,0.0383771999999999,0,sub_9
-0.0172336000000004,-0.0035417999999987,0.0544473999999999,0.0090682000000005,0.1429614000000006,0.0430123999999999,0,sub_9
-0.0224842000000004,-0.0059679999999987,0.0456281999999999,0.0030928000000005,0.1395862000000006,0.0397703999999999,0,sub_9
-0.0245620000000004,-0.0070311999999986,0.0382511999999999,-0.0013621999999994,0.1355930000000006,0.0299167999999999,0,sub_9
-0.0233686000000004,-0.0070269999999986,0.0352617999999999,-0.0045071999999994,0.1369268000000006,0.0187835999999999,0,sub_9
-0.0182648000000004,-0.0056897999999986,0.0348787999999999,-0.0104335999999994,0.1395366000000006,0.0106203999999999,0,sub_9
-0.0092316000000004,-0.0019531999999986,0.0344235999999999,-0.0191569999999994,0.1421358000000006,0.0075651999999999,0,sub_9
-0.0013068000000004,0.0017852000000012,0.0345571999999999,-0.0249045999999994,0.1474728000000006,0.0098681999999999,0,sub_9
0.0019821999999995,0.0041084000000012,0.0348837999999999,-0.0261923999999994,0.1523512000000006,0.0164759999999999,0,sub_9
0.0020305999999995,0.0055734000000012,0.0317911999999999,-0.0244901999999994,0.1582826000000006,0.0235305999999999,0,sub_9
0.0009289999999995,0.0057152000000012,0.0297343999999999,-0.0174489999999994,0.1629266000000006,0.0282739999999999,0,sub_9
0.0008289999999995,0.0030402000000012,0.0304027999999999,-0.0046389999999994,0.1662838000000006,0.0300681999999999,0,sub_9
0.0026169999999995,-0.0004461999999986,0.0357637999999999,0.0068438000000005,0.1570840000000006,0.0297329999999999,0,sub_9
0.0059213999999995,-0.0017681999999986,0.0393373999999998,0.0136180000000005,0.1427950000000006,0.0274483999999999,0,sub_9
0.0110691999999995,-0.0022381999999986,0.0417111999999999,0.0194986000000005,0.1180754000000005,0.0236753999999999,0,sub_9
0.0161295999999995,-0.0025691999999986,0.0445341999999999,0.0249122000000005,0.0837722000000006,0.0192705999999999,0,sub_9
0.0169019999999995,-0.0027845999999986,0.0481409999999999,0.0260238000000005,0.0426630000000006,0.0156991999999999,0,sub_9
0.0140833999999995,-0.0020625999999987,0.0461113999999999,0.0233330000000005,0.0098772000000006,0.0118767999999999,0,sub_9
0.0108807999999995,-0.0023713999999987,0.0425661999999999,0.0225768000000005,-0.0214171999999993,0.0063569999999999,0,sub_9
0.0064901999999995,-0.0035283999999987,0.0408911999999999,0.0226856000000005,-0.0512189999999993,-0.000227,0,sub_9
0.0023105999999995,-0.0045385999999987,0.0380159999999999,0.0204780000000005,-0.0750435999999993,-0.0076894,0,sub_9
0.0012059999999995,-0.0045443999999987,0.0340383999999999,0.0162024000000005,-0.0906961999999993,-0.0160178,0,sub_9
0.0031817999999995,-0.0033355999999987,0.0304355999999999,0.0119412000000005,-0.1031531999999993,-0.0243502,0,sub_9
0.0046233999999995,-0.0019609999999987,0.0285415999999998,0.0063914000000005,-0.1154011999999993,-0.0305554,0,sub_9
0.0058681999999995,-7.039999999873675e-05,0.0268081999999998,0.0006204000000005,-0.1265941999999993,-0.033986,0,sub_9
0.0055079999999995,0.0021852000000012,0.0254781999999999,-0.0032379999999994,-0.1373761999999993,-0.0352674,0,sub_9
0.0036627999999995,0.0034506000000012,0.0245951999999999,-0.0026619999999994,-0.1508041999999994,-0.0343916,0,sub_9
-0.0002064000000004,0.0041124000000012,0.0246803999999999,0.0017546000000005,-0.1623357999999994,-0.0315686,0,sub_9
-0.0050696000000004,0.0041574000000012,0.0260895999999999,0.0093976000000005,-0.1672773999999993,-0.027877,0,sub_9
-0.0087980000000004,0.0025760000000012,0.0279577999999999,0.0161340000000005,-0.1654159999999994,-0.0252484,0,sub_9
-0.0104318000000004,-3.779999999873676e-05,0.0297357999999999,0.0213960000000005,-0.1597127999999993,-0.0230622,0,sub_9
-0.0113618000000004,-0.0008681999999987,0.0324699999999999,0.0232640000000005,-0.1495233999999993,-0.0209056,0,sub_9
-0.0121752000000004,-0.0011819999999986,0.0358831999999999,0.0227870000000005,-0.1395363999999993,-0.019406,0,sub_9
-0.0087136000000004,-0.0021193999999986,0.0390863999999999,0.0220774000000005,-0.1344461999999993,-0.0185426,0,sub_9
-0.0047622000000004,-0.0038071999999986,0.0437455999999999,0.0218564000000005,-0.1346643999999993,-0.0170484,0,sub_9
-0.0026250000000004,-0.0043979999999986,0.0479355999999999,0.0184166000000005,-0.1372217999999994,-0.0138646,0,sub_9
-0.0011656000000004,-0.0040815999999986,0.0489429999999999,0.0127748000000004,-0.1422635999999993,-0.0120184,0,sub_9
0.0016629999999995,-0.0048379999999986,0.0466357999999999,0.0069166000000005,-0.1498533999999993,-0.0120932,0,sub_9
0.0031367999999995,-0.0041031999999986,0.0423553999999999,-0.0002217999999994,-0.1591363999999993,-0.013884,0,sub_9
0.0045595999999995,-0.0012673999999987,0.0359709999999999,-0.0064979999999994,-0.1679903999999993,-0.0171648,0,sub_9
