userAcceleration.x,userAcceleration.y,userAcceleration.z,rotationRate.x,rotationRate.y,rotationRate.z,label,subject
-0.0044170000000002,0.0038400000000012,0.0186933999999999,0.0108812000000004,0.0118648000000005,0.0074543999999999,0,sub_13
-0.0034716000000002,0.0026634000000012,0.0180182,0.0129378000000004,0.0058442000000005,0.0113009999999999,0,sub_13
-0.0031072000000002,0.0029736000000012,0.0191142,0.0162766000000004,-0.0003913999999993,0.0145155999999999,0,sub_13
-0.0040830000000002,0.0037546000000012,0.0201392,0.0164224000000004,-0.0055479999999993,0.0170655999999999,0,sub_13
-0.0068440000000001,0.0049178000000012,0.0200973999999999,0.0149192000000004,-0.0078855999999993,0.0168445999999999,0,sub_13
-0.0082070000000001,0.0052270000000012,0.0178345999999999,0.0157698000000004,-0.0106497999999993,0.0147175999999998,0,sub_13
-0.0076414000000001,0.0054918000000012,0.0183611999999999,0.0165984000000004,-0.0164043999999993,0.0145169999999998,0,sub_13
-0.0058120000000001,0.0044694000000012,0.0196987999999999,0.0152514000000004,-0.0219477999999993,0.0161765999999998,0,sub_13
-0.0052348000000001,0.0042692000000012,0.0215241999999999,0.0167032000000004,-0.0232347999999993,0.0165683999999998,0,sub_13
-0.0051066000000002,0.0056218000000012,0.0240493999999999,0.0173186000000004,-0.0219569999999993,0.0156691999999999,0,sub_13
-0.0061132000000002,0.0072060000000012,0.0258925999999999,0.0147576000000004,-0.0172513999999993,0.0128205999999999,0,sub_13
-0.0077114000000002,0.0065424000000012,0.0244512,0.0126262000000004,-0.0129691999999993,0.0089073999999999,0,sub_13
-0.0075882000000002,0.0057964000000012,0.0238472,0.0119936000000004,-0.0138089999999993,0.0063403999999999,0,sub_13
-0.0064186000000002,0.0047560000000012,0.0238396,0.0109046000000004,-0.0201907999999993,0.0048455999999999,0,sub_13
-0.0052242000000002,0.0044400000000012,0.024177,0.0108912000000004,-0.0248709999999993,0.0031423999999999,0,sub_13
-0.0045452000000001,0.0053004000000012,0.0243584,0.0091616000000004,-0.0248949999999993,0.0009647999999999,0,sub_13
-0.0045212000000001,0.0065966000000012,0.0234815999999999,0.0044658000000004,-0.0208577999999993,-0.0018796,0,sub_13
-0.0057682000000001,0.0066850000000012,0.0203243999999999,0.0012684000000004,-0.0172459999999993,-0.0062084,0,sub_13
-0.0058622000000001,0.0063686000000012,0.0184995999999999,0.0008286000000004,-0.0159925999999993,-0.0092332,0,sub_13
-0.0058548000000001,0.0060058000000012,0.0175601999999999,0.0001736000000004,-0.0141035999999993,-0.011192,0,sub_13
-0.0042298000000002,0.0062862000000012,0.0166237999999999,0.0010424000000004,-0.0113341999999993,-0.0118304,0,sub_13
-0.0027950000000002,0.0074816000000012,0.0159678,0.0025474000000004,-0.0089949999999993,-0.0120364,0,sub_13
-0.0002234000000002,0.0070562000000012,0.014489,0.0014988000000004,-0.0049431999999993,-0.012049,0,sub_13
0.0019935999999997,0.0057952000000012,0.0117332,-0.0008707999999995,0.0020198000000006,-0.0121244,0,sub_13
0.0039445999999997,0.0035538000000012,0.0091394,-0.0026185999999995,0.0062058000000006,-0.0109102,0,sub_13
0.0033621999999997,0.0014464000000012,0.0083966,-0.0024633999999995,0.0063378000000006,-0.009891,0,sub_13
0.0010205999999997,0.0016128000000012,0.0087106,-0.0016611999999995,0.0075346000000006,-0.009296,0,sub_13
-0.0010602000000002,0.0027718000000012,0.0104002,-0.0021181999999995,0.0119376000000006,-0.0102094,0,sub_13
-0.0032140000000002,0.0026556000000012,0.011281,-0.0038011999999995,0.0159966000000006,-0.0115082,0,sub_13
-0.0042484000000002,0.0035466000000012,0.011507,-0.0048489999999995,0.0179270000000006,-0.013868,0,sub_13
-0.0036208000000002,0.0045762000000012,0.0128696,-0.0057053999999995,0.0158054000000006,-0.0153666,0,sub_13
-0.0024446000000002,0.0044488000000012,0.0151792,-0.0083491999999995,0.0114748000000006,-0.0160776,0,sub_13
-0.0040932000000001,0.0050730000000012,0.0158868,-0.0124951999999995,0.0069296000000006,-0.0150896,0,sub_13
-0.0044030000000001,0.0055228000000012,0.0150405999999999,-0.0153513999999995,0.0040860000000006,-0.0145222,0,sub_13
-0.0028660000000001,0.0039772000000012,0.0148533999999999,-0.0154565999999995,-0.0013339999999993,-0.0113686,0,sub_13
-0.0016854000000001,0.0022178000000012,0.0150561999999999,-0.0138749999999995,-0.0082633999999993,-0.0052102,0,sub_13
-0.0016008000000001,0.0016848000000012,0.0154339999999999,-0.0105175999999995,-0.0138427999999993,0.0018705999999999,0,sub_13
0.0005223999999997,0.0012574000000012,0.0160525999999999,-0.0052349999999995,-0.0192123999999993,0.0081099999999999,0,sub_13
0.0003557999999997,0.0023830000000012,0.0183562,-0.0012403999999995,-0.0258575999999993,0.0147693999999999,0,sub_13
-0.0017770000000001,0.0039812000000012,0.019735,0.0005816000000004,-0.0269797999999993,0.0181339999999999,0,sub_13
-0.0030196000000001,0.0042226000000011,0.0206502,0.0017922000000004,-0.0255277999999993,0.0176451999999999,0,sub_13
-0.0029988000000001,0.0043996000000011,0.022567,0.0017188000000004,-0.0264089999999993,0.0156549999999999,0,sub_13
-0.0041832000000001,0.0042680000000012,0.0238148,0.0003680000000004,-0.0281319999999993,0.0121615999999998,0,sub_13
-0.0039910000000001,0.0044380000000012,0.0244176,-0.0030915999999995,-0.0266421999999993,0.0062991999999999,0,sub_13
-0.0037872000000001,0.0050252000000012,0.0248037999999999,-0.0077513999999995,-0.0248975999999993,0.0002823999999999,0,sub_13
-0.0027880000000002,0.0066462000000012,0.0247521999999999,-0.0132663999999995,-0.0227271999999993,-0.0048862,0,sub_13
-0.0009084000000002,0.0063446000000012,0.0228295999999999,-0.0166505999999995,-0.0190813999999993,-0.0079054,0,sub_13
-0.0009822000000002,0.0057884000000012,0.0230201999999999,-0.0175571999999995,-0.0143751999999993,-0.0077618,0,sub_13
-0.0008542000000002,0.0050996000000012,0.0230665999999999,-0.0161405999999995,-0.0126693999999993,-0.005248,0,sub_13
-0.0002844000000002,0.0045372000000012,0.0231359999999999,-0.0136733999999995,-0.0135279999999993,-0.0016554,0,sub_13
-0.0005240000000002,0.0042300000000012,0.0226119999999999,-0.0094975999999995,-0.0131177999999993,0.0028021999999999,0,sub_13
-0.0018868000000002,0.0036396000000012,0.0228474,-0.0053119999999995,-0.0120623999999993,0.0057633999999999,0,sub_13
-0.0018708000000002,0.0042002000000012,0.0227436,-0.0021181999999995,-0.0122917999999993,0.0070679999999999,0,sub_13
-0.0035468000000002,0.0047578000000012,0.0234655999999999,0.0002326000000004,-0.0112355999999993,0.0072967999999999,0,sub_13
-0.0053254000000002,0.0045714000000012,0.0232461999999999,0.0010946000000004,-0.0097455999999993,0.0068737999999999,0,sub_13
-0.0064242000000002,0.0043508000000012,0.0227751999999999,0.0011034000000004,-0.0088889999999993,0.0058043999999999,0,sub_13
-0.0063680000000002,0.0050752000000012,0.0227667999999999,0.0014948000000004,-0.0077833999999993,0.0034389999999999,0,sub_13
-0.0053666000000002,0.0067274000000012,0.0240305999999999,0.0008310000000004,-0.0045417999999993,0.0006359999999999,0,sub_13
-0.0043188000000002,0.0070478000000012,0.0231111999999999,-0.0015377999999995,-0.0012923999999993,-0.0026062,0,sub_13
-0.0042422000000001,0.0062576000000012,0.0204231999999999,-0.0032771999999995,0.0008842000000006,-0.0045608,0,sub_13
-0.0038234000000001,0.0048860000000012,0.0175833999999999,-0.0041793999999995,0.0002848000000006,-0.0056512,0,sub_13
-0.0034902000000001,0.0039814000000012,0.0164573999999999,-0.0041917999999995,-0.0016359999999993,-0.0047944,0,sub_13
-0.0046612000000001,0.0028198000000012,0.0167287999999999,-0.0035631999999995,-0.0033459999999993,-0.0039332,0,sub_13
-0.0057404000000001,0.0036538000000012,0.0181691999999999,-0.0031595999999995,-0.0035631999999993,-0.0032708,0,sub_13
-0.0054232000000002,0.0054220000000012,0.0198527999999999,-0.0031777999999994,-0.0029255999999993,-0.0028262,0,sub_13
-0.0059676000000002,0.0059312000000012,0.0215865999999999,-0.0042495999999994,0.0002740000000006,-0.0028196,0,sub_13
-0.0055786000000002,0.0059220000000012,0.0221375999999999,-0.0053251999999994,0.0019846000000006,-0.0034518,0,sub_13
-0.0056496000000002,0.0066644000000012,0.0219127999999999,-0.0055605999999995,0.0013462000000006,-0.0034344,0,sub_13
-0.0051904000000002,0.0067908000000012,0.0208581999999999,-0.0064121999999995,0.0017754000000006,-0.003441,0,sub_13
-0.0054266000000001,0.0061554000000012,0.0209433999999999,-0.0063919999999995,0.0047642000000006,-0.0049402,0,sub_13
-0.0050910000000001,0.0064652000000012,0.0215391999999999,-0.0057355999999995,0.0064740000000006,-0.0068606,0,sub_13
-0.0065978000000001,0.0063266000000012,0.0220105999999999,-0.0052913999999995,0.0082116000000006,-0.0081342,0,sub_13
-0.0070290000000001,0.0057698000000012,0.0212773999999999,-0.0048501999999995,0.0093100000000006,-0.0094068,0,sub_13
-0.0074446000000001,0.0056036000000012,0.0217414,-0.0035773999999995,0.0063538000000006,-0.0098138,0,sub_13
-0.0079300000000002,0.0064242000000012,0.0225846,-0.0048699999999995,0.0023414000000006,-0.0102374,0,sub_13
-0.0083430000000002,0.0061846000000012,0.021431,-0.0078577999999995,0.0008916000000005,-0.0106762,0,sub_13
-0.0073040000000001,0.0055584000000012,0.0196105999999999,-0.0108439999999995,5.4000000000605125e-05,-0.0117642,0,sub_13
-0.0047940000000001,0.0046814000000012,0.0186537999999999,-0.0119117999999995,-0.0007919999999993,-0.0124116,0,sub_13
-0.0026966000000001,0.0049758000000012,0.0194221999999999,-0.0121155999999995,0.0009150000000006,-0.0128426,0,sub_13
-0.0019912000000001,0.0056792000000012,0.0200417999999999,-0.0105903999999995,0.0043808000000006,-0.011555,0,sub_13
-0.0022000000000001,0.0046718000000012,0.0195399999999999,-0.0097091999999995,0.0074210000000006,-0.009844,0,sub_13
-0.0022834000000001,0.0042840000000012,0.0178298,-0.0086317999999995,0.0074744000000006,-0.0072732,0,sub_13
-0.0026832000000001,0.0039588000000012,0.0170288,-0.0077821999999995,0.0051816000000006,-0.0038464,0,sub_13
-0.0027402000000002,0.0034354000000012,0.0166222,-0.0054435999999995,0.0013938000000006,-0.0008346,0,sub_13
-0.0037628000000002,0.0035744000000012,0.0178125999999999,-0.0041891999999995,-0.0033021999999993,0.0002483999999999,0,sub_13
-0.0055254000000002,0.0060332000000011,0.0204621999999999,-0.0039767999999995,-0.0050013999999993,-0.0012434,0,sub_13
-0.0072130000000001,0.0082668000000011,0.0221187999999999,-0.0065141999999995,-0.0028499999999993,-0.0042548,0,sub_13
-0.0071686000000001,0.0073308000000012,0.0215733999999999,-0.0098883999999995,-0.0019057999999993,-0.0070648,0,sub_13
-0.0072798000000001,0.0057416000000012,0.0200195999999999,-0.0117893999999995,-0.0037431999999993,-0.0081518,0,sub_13
-0.0062296000000001,0.0045508000000012,0.0194716,-0.0115689999999995,-0.0068723999999993,-0.0077268,0,sub_13
-0.0051166000000001,0.0041622000000012,0.0192816,-0.0105093999999995,-0.0115027999999993,-0.005585,0,sub_13
-0.0047974000000002,0.0036352000000012,0.0203208,-0.0088069999999995,-0.0154961999999993,-0.0034396,0,sub_13
-0.0072182000000002,0.0051162000000012,0.0214708,-0.0077487999999995,-0.0169929999999993,-0.003003,0,sub_13
-0.0077328000000002,0.0056100000000012,0.0213374,-0.0088213999999995,-0.0182675999999993,-0.0030088,0,sub_13
-0.0076992000000002,0.0051682000000012,0.0196222,-0.0111951999999995,-0.0235881999999993,-0.0023776,0,sub_13
-0.0070440000000002,0.0051952000000012,0.0189956,-0.0129149999999995,-0.0301413999999993,-0.0010978,0,sub_13
-0.0058666000000002,0.0059712000000012,0.0198716,-0.0126969999999995,-0.0332907999999994,-0.0002362,0,sub_13
-0.0050268000000002,0.0061220000000012,0.0212198,-0.0115939999999995,-0.0304733999999993,-0.0004444,0,sub_13
-0.0061376000000001,0.0078860000000012,0.022412,-0.0108801999999995,-0.0218917999999994,-0.0032264,0,sub_13
-0.0069616000000001,0.0079460000000012,0.0229272,-0.0107903999999995,-0.0103227999999994,-0.0066574,0,sub_13
-0.0072318000000001,0.0062586000000012,0.0219786,-0.0098899999999995,-0.0024325999999994,-0.009225,0,sub_13
-0.0073180000000001,0.0043302000000012,0.0210138,-0.0092365999999995,-0.0003007999999993,-0.0100776,0,sub_13
-0.0057720000000001,0.0037164000000012,0.0205736,-0.0086021999999995,-0.0009445999999993,-0.0094314,0,sub_13
-0.0050808000000002,0.0037712000000012,0.0218598,-0.0073373999999995,-0.0022359999999993,-0.0072844,0,sub_13
-0.0061060000000001,0.0056304000000012,0.0221584,-0.0053863999999995,-0.0003009999999993,-0.0066202,0,sub_13
-0.0073950000000001,0.0067286000000011,0.0231192,-0.0053307999999995,0.0054826000000006,-0.0076832,0,sub_13
-0.0074530000000001,0.0059216000000011,0.0220058,-0.0056961999999995,0.0119092000000005,-0.009391,0,sub_13
-0.0070468000000001,0.0051996000000012,0.0207294,-0.0047975999999995,0.0153460000000005,-0.010445,0,sub_13
-0.0058970000000001,0.0044072000000011,0.0200542,-0.0032597999999995,0.0187798000000005,-0.011281,0,sub_13
-0.0042464000000001,0.0030868000000011,0.021558,-0.0015355999999995,0.0221844000000005,-0.0117006,0,sub_13
-0.0039376000000001,0.0044114000000012,0.0230537999999999,-0.0006569999999995,0.0260232000000005,-0.0134084,0,sub_13
-0.0051678000000001,0.0067818000000012,0.0247837999999999,-0.0031441999999995,0.0311670000000005,-0.0166058,0,sub_13
-0.0065762000000001,0.0074304000000012,0.0244701999999999,-0.0082043999999995,0.0335502000000005,-0.0198178,0,sub_13
-0.0065336000000002,0.0064056000000012,0.0221611999999999,-0.0128733999999995,0.0286854000000005,-0.0223768,0,sub_13
-0.0054434000000002,0.0060488000000012,0.0196327999999999,-0.0165001999999995,0.0208240000000005,-0.0223608,0,sub_13
-0.0021880000000002,0.0047050000000012,0.0168151999999999,-0.0173695999999995,0.0118774000000005,-0.0197606,0,sub_13
-0.0003112000000002,0.0024838000000012,0.0140219999999999,-0.0155075999999995,0.0039674000000006,-0.01461,0,sub_13
0.0001269999999998,0.0016710000000012,0.0119341999999999,-0.0112889999999995,-0.0009715999999993,-0.008592,0,sub_13
-0.0007484000000001,0.0004128000000012,0.0121943999999999,-0.0032391999999995,-0.0063567999999993,-0.0008376,0,sub_13
-0.0019978000000001,0.0009420000000012,0.0148087999999999,0.0035618000000004,-0.0130115999999993,0.0075813999999999,0,sub_13
-0.0057268000000001,0.0016182000000012,0.0182327999999999,0.0073890000000004,-0.0175221999999993,0.0151223999999999,0,sub_13
-0.0086760000000001,0.0040722000000012,0.0219109999999999,0.0101734000000004,-0.0200979999999993,0.0192353999999999,0,sub_13
-0.0106506000000001,0.0056040000000012,0.0254893999999999,0.0104194000000004,-0.0211597999999993,0.0199101999999999,0,sub_13
-0.0116624000000001,0.0072720000000012,0.0269715999999999,0.0066380000000004,-0.0196371999999993,0.0171353999999999,0,sub_13
-0.0117302000000001,0.0072662000000012,0.0269911999999999,0.0037074000000004,-0.0138471999999993,0.0102709999999999,0,sub_13
-0.0091160000000001,0.0079650000000012,0.0271967999999999,0.0014256000000004,-0.0080515999999993,0.0014881999999999,0,sub_13
-0.0062890000000002,0.0073650000000012,0.0266049999999999,-0.0034243999999995,-0.0037391999999993,-0.007097,0,sub_13
-0.0045908000000002,0.0077660000000012,0.0257171999999999,-0.0080089999999995,0.0016800000000006,-0.0154404,0,sub_13
-0.0031568000000002,0.0084550000000012,0.0240827999999999,-0.0119447999999995,0.0092266000000006,-0.0235684,0,sub_13
-0.0024294000000001,0.0076124000000012,0.0209378,-0.0152615999999995,0.0139936000000006,-0.0297656,0,sub_13
-0.0020558000000001,0.0051392000000012,0.0176172,-0.0164619999999995,0.0174646000000006,-0.0333826,0,sub_13
-0.0003404000000001,0.0030070000000012,0.0161154,-0.0140685999999995,0.0177100000000006,-0.0326976,0,sub_13
-0.0004536000000001,0.0026128000000012,0.0153926,-0.0115397999999995,0.0140654000000006,-0.0292568,0,sub_13
-0.0007200000000001,0.0025996000000012,0.0160038,-0.0102911999999995,0.0121230000000006,-0.024118,0,sub_13
0.0020037999999997,0.0023866000000012,0.0135796,-0.0098971999999995,0.0112438000000006,-0.0177048,0,sub_13
0.0029903999999997,0.0012892000000012,0.011742,-0.0069157999999995,0.0069824000000006,-0.0086734,0,sub_13
0.0026293999999997,0.0005980000000012,0.0090604,-0.0022331999999995,0.0012246000000006,0.0001581999999999,0,sub_13
0.0034427999999997,-0.0006887999999987,0.0110692,0.0035162000000004,-0.0043245999999993,0.0092105999999999,0,sub_13
0.0029595999999997,0.0004140000000012,0.0136198,0.0077874000000004,-0.0087939999999993,0.0159011999999999,0,sub_13
-0.0008352000000002,0.0033594000000012,0.0180324,0.0091136000000004,-0.0083349999999993,0.0180781999999999,0,sub_13
-0.0030742000000002,0.0055656000000011,0.0187212,0.0067982000000004,-0.0036301999999994,0.0157057999999999,0,sub_13
-0.0054972000000002,0.0068840000000011,0.0205856,0.0042742000000004,0.0006552000000005,0.0118369999999999,0,sub_13
-0.0069240000000002,0.0072322000000012,0.0212398,0.0013350000000004,0.0060132000000005,0.0064683999999999,0,sub_13
-0.0075362000000002,0.0076060000000012,0.021865,-0.0015571999999995,0.0109370000000005,0.0009371999999999,0,sub_13
-0.0074132000000002,0.0071066000000012,0.0221104,-0.0057507999999995,0.0122392000000005,-0.0035302,0,sub_13
-0.0083360000000002,0.0060148000000012,0.0216398,-0.0112535999999995,0.0090640000000005,-0.0060782,0,sub_13
-0.0078292000000002,0.0056462000000012,0.0198182,-0.0150501999999995,0.0063064000000005,-0.0079738,0,sub_13
-0.0063544000000002,0.0051634000000012,0.0170936,-0.0158691999999995,0.0024688000000005,-0.008779,0,sub_13
-0.0043958000000002,0.0037826000000012,0.0147494,-0.0142015999999995,-0.0039381999999993,-0.0064092,0,sub_13
-0.0040018000000001,0.0023040000000012,0.0144776,-0.0106297999999995,-0.0110029999999993,-0.001034,0,sub_13
-0.0035106000000001,0.0023898000000012,0.0164098,-0.0072559999999995,-0.0146579999999993,0.0043353999999999,0,sub_13
-0.0037666000000001,0.0030462000000012,0.0177212,-0.0062131999999995,-0.0155317999999993,0.0088301999999999,0,sub_13
-0.0041076000000001,0.0036020000000012,0.0187898,-0.0036355999999995,-0.0179147999999993,0.0131713999999999,0,sub_13
-0.0050648000000001,0.0036586000000012,0.0199018,-0.0023391999999995,-0.0213551999999993,0.0166505999999999,0,sub_13
-0.0064448000000002,0.0050776000000012,0.020523,-0.0023105999999995,-0.0241433999999993,0.0179833999999999,0,sub_13
-0.0067136000000002,0.0055962000000012,0.021266,-0.0029077999999995,-0.0258557999999993,0.0171741999999999,0,sub_13
-0.0061564000000002,0.0046228000000012,0.0222794,-0.0045649999999995,-0.0273461999999993,0.0150753999999999,0,sub_13
-0.0057880000000002,0.0041678000000012,0.0218268,-0.0071177999999995,-0.0279669999999994,0.0127081999999999,0,sub_13
-0.0053594000000002,0.0052964000000012,0.0221096,-0.0081643999999995,-0.0260355999999994,0.0101345999999999,0,sub_13
-0.0045222000000002,0.0053158000000012,0.0225897999999999,-0.0081061999999995,-0.0223989999999993,0.0078101999999999,0,sub_13
-0.0045650000000002,0.0050176000000012,0.0220363999999999,-0.0089033999999995,-0.0187611999999994,0.0059067999999999,0,sub_13
-0.0048576000000002,0.0048770000000012,0.0214369999999999,-0.0094979999999995,-0.0164067999999993,0.0050747999999998,0,sub_13
-0.0044392000000002,0.0044818000000012,0.0201157999999999,-0.0105239999999995,-0.0146915999999993,0.0046679999999998,0,sub_13
-0.0032546000000002,0.0021552000000012,0.0189209999999999,-0.0107089999999995,-0.0146879999999993,0.0053373999999998,0,sub_13
-0.0016912000000002,0.0013022000000012,0.0179854,-0.0088029999999995,-0.0157685999999993,0.0074883999999998,0,sub_13
-0.0012948000000002,0.0025832000000012,0.0195234,-0.0064635999999995,-0.0151469999999993,0.0098541999999998,0,sub_13
-0.0017942000000001,0.0035648000000012,0.0212428,-0.0056023999999995,-0.0125965999999994,0.0107115999999998,0,sub_13
-0.0036824000000001,0.0036302000000012,0.022289,-0.0051183999999995,-0.0083541999999994,0.0107693999999998,0,sub_13
-0.0048916000000001,0.0044332000000012,0.0215726,-0.0046287999999995,-0.0036823999999993,0.0099721999999998,0,sub_13
-0.0049500000000001,0.0049420000000012,0.0214864,-0.0047831999999995,0.0005640000000006,0.0095983999999998,0,sub_13
-0.0047584000000001,0.0046652000000012,0.0217682,-0.0021759999999995,0.0028798000000006,0.0101007999999998,0,sub_13
-0.0041064000000002,0.0049406000000012,0.0225898,0.0032078000000004,0.0054006000000006,0.0101949999999998,0,sub_13
-0.0034782000000002,0.0060796000000012,0.0241319999999999,0.0057922000000004,0.0105058000000006,0.0099927999999998,0,sub_13
-0.0034794000000002,0.0061192000000012,0.0246205999999999,0.0043350000000004,0.0175460000000006,0.0089053999999998,0,sub_13
-0.0033164000000002,0.0049554000000012,0.0244543999999999,0.0039428000000004,0.0239442000000006,0.0076125999999998,0,sub_13
-0.0028850000000002,0.0043156000000012,0.0241673999999999,0.0061334000000004,0.0296812000000006,0.0059357999999998,0,sub_13
-0.0036048000000002,0.0040996000000012,0.0238395999999999,0.0072526000000004,0.0349934000000006,0.0048929999999999,0,sub_13
-0.0042380000000002,0.0041196000000012,0.023541,0.0087966000000004,0.0394534000000006,0.0034269999999999,0,sub_13
-0.0051826000000002,0.0038460000000012,0.0242974,0.0109778000000004,0.0439088000000006,0.0026063999999999,0,sub_13
-0.0062924000000002,0.0047016000000012,0.0242314,0.0125112000000004,0.0466620000000006,0.0017833999999999,0,sub_13
-0.0073764000000002,0.0045506000000012,0.0244906,0.0127246000000004,0.0468736000000006,0.0019981999999999,0,sub_13
-0.0079056000000002,0.0046392000000012,0.0245966,0.0135684000000004,0.0462254000000006,0.0035005999999999,0,sub_13
-0.0080666000000002,0.0044854000000012,0.0247982,0.0141978000000004,0.0451528000000006,0.0047881999999998,0,sub_13
-0.0080036000000002,0.0031836000000012,0.0246138,0.0157074000000004,0.0423758000000006,0.0060977999999998,0,sub_13
-0.0075492000000001,0.0018504000000012,0.0254274,0.0180744000000004,0.0406602000000005,0.0076257999999998,0,sub_13
-0.0072774000000001,0.0024182000000012,0.0261688,0.0204606000000004,0.0423568000000005,0.0082949999999999,0,sub_13
-0.0078730000000001,0.0039350000000012,0.0278078,0.0217982000000003,0.0472564000000005,0.0080979999999998,0,sub_13
-0.0091642000000001,0.0051156000000012,0.0294672,0.0229330000000004,0.0534394000000005,0.0068297999999999,0,sub_13
-0.0104768000000001,0.0064298000000012,0.0293679999999999,0.0231896000000004,0.0602674000000005,0.0040453999999999,0,sub_13
-0.0114628000000002,0.0060756000000012,0.0276153999999999,0.0219418000000004,0.0643326000000005,0.0008267999999999,0,sub_13
-0.0115578000000002,0.0055876000000012,0.0256735999999999,0.0202434000000004,0.0641340000000005,-0.0013214,0,sub_13
-0.0103640000000002,0.0047566000000012,0.0239081999999999,0.0179184000000004,0.0592994000000005,-0.003058,0,sub_13
-0.0087010000000002,0.0050878000000011,0.0228747999999999,0.0160076000000004,0.0529668000000005,-0.003508,0,sub_13
-0.0072020000000002,0.0065444000000011,0.0231308,0.0158056000000004,0.0476910000000005,-0.0033064,0,sub_13
-0.0066172000000002,0.0075976000000012,0.0241372,0.0154126000000004,0.0468918000000005,-0.0035394,0,sub_13
-0.0059212000000002,0.0068532000000012,0.0227239999999999,0.0156566000000004,0.0458756000000005,-0.0033402,0,sub_13
-0.0061258000000002,0.0060972000000011,0.0213099999999999,0.0186198000000004,0.0415998000000005,-0.0022458,0,sub_13
-0.0063076000000002,0.0054520000000012,0.0209427999999999,0.0194426000000004,0.0364766000000005,-0.0005242,0,sub_13
-0.0069660000000002,0.0046146000000012,0.0213433999999999,0.0198340000000004,0.0296532000000005,0.0005553999999999,0,sub_13
-0.0091068000000002,0.0052438000000012,0.0213121999999999,0.0209134000000004,0.0235336000000005,0.0003263999999999,0,sub_13
