userAcceleration.x,userAcceleration.y,userAcceleration.z,rotationRate.x,rotationRate.y,rotationRate.z,label,subject
0.0474387999999996,-0.0043547999999987,-0.0292526,0.0181454000000004,0.0382526000000009,0.0035343999999998,0,sub_3
0.0501133999999996,-0.0044029999999987,-0.0308568,0.0177456000000004,0.0399756000000009,-0.0007436,0,sub_3
0.0514477999999997,-0.0062777999999987,-0.0330092,0.0143908000000004,0.0381720000000009,-0.0055534,0,sub_3
0.0527039999999997,-0.0072345999999987,-0.0354652,0.0105956000000005,0.0338116000000009,-0.009936,0,sub_3
0.0522289999999996,-0.0088671999999987,-0.0361822,0.0074234000000005,0.0277360000000009,-0.0121756,0,sub_3
0.0507535999999996,-0.0104447999999987,-0.0354566,0.0050912000000005,0.0227064000000009,-0.0103514,0,sub_3
0.0471169999999996,-0.0119545999999987,-0.0338936,0.0048802000000005,0.0185070000000009,-0.0048814,0,sub_3
0.0442165999999996,-0.0106649999999987,-0.0298092,0.0099522000000004,0.0156870000000009,0.0032759999999999,0,sub_3
0.0413769999999996,-0.0102437999999987,-0.0237314,0.0186546000000004,0.0145544000000009,0.0125249999999999,0,sub_3
0.0381641999999997,-0.0105971999999987,-0.0170154,0.0303594000000004,0.0170324000000009,0.0220039999999999,0,sub_3
0.0361783999999997,-0.0093031999999987,-0.0135228,0.0413852000000004,0.0236520000000009,0.0318251999999999,0,sub_3
0.0365411999999997,-0.0068561999999987,-0.0130404,0.0466740000000004,0.0328596000000009,0.0388255999999999,0,sub_3
0.0389489999999997,-0.0053623999999987,-0.0152726,0.0434536000000005,0.0412712000000009,0.0391445999999999,0,sub_3
0.0427507999999997,-0.0046463999999987,-0.0211654,0.0336388000000005,0.0478140000000009,0.0330105999999999,0,sub_3
0.0474703999999996,-0.0026953999999987,-0.029595,0.0172084000000005,0.0501350000000009,0.0227765999999999,0,sub_3
0.0502687999999996,-0.0028191999999987,-0.0355484,-0.0011003999999994,0.0447186000000008,0.0079141999999999,0,sub_3
0.0510115999999996,-0.0044165999999987,-0.0372908,-0.0153887999999994,0.0316188000000009,-0.007124,0,sub_3
0.0493199999999996,-0.0077545999999987,-0.0366654,-0.0241485999999994,0.0189070000000009,-0.0174238,0,sub_3
0.0453239999999996,-0.0098995999999986,-0.0344914,-0.0286553999999994,0.0101994000000009,-0.0204352,0,sub_3
0.0415355999999997,-0.0122641999999987,-0.0320026,-0.0282713999999994,0.0055330000000009,-0.0185868,0,sub_3
0.0399355999999996,-0.0127693999999987,-0.0302958,-0.0257489999999994,0.0055318000000009,-0.0130974,0,sub_3
0.0401351999999997,-0.0126411999999987,-0.0314472,-0.0219433999999994,0.0093484000000009,-0.0043992,0,sub_3
0.0429585999999996,-0.0110067999999987,-0.0333726,-0.0168593999999995,0.0135832000000009,0.0051619999999999,0,sub_3
0.0470661999999996,-0.0101443999999987,-0.0350912,-0.0115745999999995,0.0148354000000009,0.0145147999999999,0,sub_3
0.0505659999999996,-0.0075333999999987,-0.0351798,-0.0071463999999994,0.0109534000000009,0.0224555999999999,0,sub_3
0.0518347999999996,-0.0054963999999987,-0.0347634,-0.0027365999999994,0.0013256000000009,0.0286943999999999,0,sub_3
0.0520421999999996,-0.0034429999999987,-0.0326132,0.0029512000000005,-0.010802599999999,0.0329559999999999,0,sub_3
0.0510105999999997,-0.0016635999999987,-0.0312284,0.0073644000000005,-0.023769999999999,0.0350731999999999,0,sub_3
0.0507955999999997,0.0010920000000012,-0.0305196,0.0098776000000005,-0.037137399999999,0.0322637999999999,0,sub_3
0.0522027999999997,0.0023040000000012,-0.0319982,0.0079310000000005,-0.050682599999999,0.0245097999999999,0,sub_3
0.0558991999999997,0.0015172000000012,-0.033818,0.0002436000000005,-0.064826199999999,0.0115887999999999,0,sub_3
0.0597449999999997,-0.0009369999999987,-0.0373842,-0.0129747999999994,-0.079624799999999,-0.0057898,0,sub_3
0.0622329999999996,-0.0042771999999987,-0.0398302,-0.0279031999999994,-0.095480999999999,-0.0236064,0,sub_3
0.0627253999999997,-0.0086385999999987,-0.041169,-0.0413561999999994,-0.111782799999999,-0.03778,0,sub_3
0.0599265999999997,-0.0139437999999987,-0.0384008,-0.0494873999999994,-0.125567999999999,-0.0465786,0,sub_3
0.0550429999999996,-0.0183765999999987,-0.034025,-0.0512403999999994,-0.132397799999999,-0.0481186,0,sub_3
0.0495505999999997,-0.0210307999999987,-0.0285272,-0.0470151999999994,-0.130756799999999,-0.0419366,0,sub_3
0.0447603999999997,-0.0215553999999987,-0.024321,-0.0380803999999994,-0.120206199999999,-0.0301782,0,sub_3
0.0403281999999996,-0.0207439999999987,-0.0203354,-0.0246485999999994,-0.101805399999999,-0.0141256,0,sub_3
0.0374783999999997,-0.0190069999999987,-0.0185432,-0.0062947999999994,-0.076830599999999,0.0053711999999999,0,sub_3
0.0350839999999997,-0.0163803999999987,-0.0175326,0.0146530000000005,-0.048223199999999,0.0259907999999999,0,sub_3
0.0325857999999997,-0.0124727999999987,-0.016329,0.0345454000000004,-0.020875199999999,0.0427589999999999,0,sub_3
0.0308331999999997,-0.0085509999999987,-0.0148846,0.0499754000000004,0.0050192000000009,0.0539429999999999,0,sub_3
0.0300373999999996,-0.0047385999999987,-0.013969,0.0566226000000004,0.0294152000000009,0.0568919999999999,0,sub_3
0.0325377999999997,0.0006374000000012,-0.0189388,0.0524098000000004,0.0487758000000009,0.0497303999999999,0,sub_3
0.0359781999999997,0.0049958000000012,-0.0259028,0.0413854000000004,0.0628698000000009,0.0335547999999999,0,sub_3
0.0408039999999996,0.0076498000000012,-0.033482,0.0277986000000004,0.0725148000000009,0.0133077999999999,0,sub_3
0.0441837999999997,0.0072022000000012,-0.0394022,0.0161062000000004,0.0744910000000009,-0.0088388,0,sub_3
0.0465473999999997,0.0044826000000012,-0.0435212,0.0091310000000004,0.0686328000000009,-0.0296034,0,sub_3
0.0455037999999997,-0.0010159999999987,-0.0416114,0.0068164000000004,0.0610308000000009,-0.044565,0,sub_3
0.0421567999999996,-0.0058051999999987,-0.0375054,0.0072508000000004,0.0546702000000009,-0.0526722,0,sub_3
0.0392905999999997,-0.0095697999999987,-0.0327252,0.0118988000000004,0.0509290000000009,-0.0535312,0,sub_3
0.0376823999999997,-0.0116201999999987,-0.0298598,0.0186700000000005,0.0526880000000009,-0.0464776,0,sub_3
0.0363479999999997,-0.0124737999999987,-0.027317,0.0290628000000005,0.0595220000000009,-0.032996,0,sub_3
0.0353985999999997,-0.0116045999999987,-0.024432,0.0439384000000004,0.0703740000000009,-0.0158562,0,sub_3
0.0367029999999997,-0.0109059999999987,-0.021548,0.0609466000000004,0.0827030000000009,0.0030057999999999,0,sub_3
0.0371171999999997,-0.0097689999999987,-0.0193388,0.0750082000000004,0.0949426000000009,0.0201797999999999,0,sub_3
0.0370149999999996,-0.0083427999999987,-0.0173228,0.0852414000000004,0.1052970000000009,0.0326293999999999,0,sub_3
0.0376661999999996,-0.0066975999999987,-0.0164064,0.0884582000000004,0.1150616000000009,0.0388349999999999,0,sub_3
0.0410111999999996,-0.0053067999999987,-0.020491,0.0820808000000004,0.1205660000000009,0.0372245999999999,0,sub_3
0.0451001999999996,-0.0036667999999987,-0.0268446,0.0682442000000004,0.1207992000000009,0.0283049999999999,0,sub_3
0.0501673999999996,-0.0030611999999987,-0.0352926,0.0509800000000004,0.1131810000000009,0.0144577999999999,0,sub_3
0.0556887999999996,-0.0021017999999987,-0.0431234,0.0339044000000004,0.0979006000000009,-0.0015148,0,sub_3
0.0593973999999996,-0.0029287999999987,-0.049794,0.0191260000000004,0.0732308000000009,-0.0157502,0,sub_3
0.0579117999999996,-0.0057887999999987,-0.0502774,0.0111412000000004,0.0436824000000009,-0.025382,0,sub_3
0.0550725999999996,-0.0096661999999987,-0.048582,0.0110252000000004,0.0128102000000009,-0.0304708,0,sub_3
0.0519777999999996,-0.0141983999999987,-0.044862,0.0160282000000004,-0.011927799999999,-0.0289085999999999,0,sub_3
0.0487285999999996,-0.0169917999999987,-0.041715,0.0255618000000004,-0.028672599999999,-0.0196419999999999,0,sub_3
0.0463965999999996,-0.0158433999999987,-0.0416048,0.0423530000000004,-0.040559599999999,-0.0060579999999999,0,sub_3
0.0462103999999996,-0.0085355999999987,-0.0441644,0.0706500000000005,-0.055896599999999,0.0078243999999999,0,sub_3
0.0450379999999997,-0.0025625999999987,-0.0432298,0.1136696000000005,-0.071921799999999,0.0211695999999999,0,sub_3
0.0426903999999997,0.0031712000000012,-0.0411708,0.1584154000000004,-0.088360199999999,0.0298269999999999,0,sub_3
0.0393953999999997,0.0070334000000012,-0.0379318,0.1982336000000005,-0.102790399999999,0.0341827999999999,0,sub_3
0.0360977999999997,0.0078496000000012,-0.0329082,0.2261566000000005,-0.109491999999999,0.0341727999999999,0,sub_3
0.0349641999999996,0.0014168000000012,-0.0284186,0.2281366000000005,-0.102257799999999,0.0302923999999999,0,sub_3
0.0371615999999996,-0.0037153999999987,-0.0311508,0.1975004000000005,-0.090638999999999,0.0238283999999999,0,sub_3
0.0403887999999996,-0.0080033999999987,-0.0385664,0.1534094000000005,-0.083228399999999,0.0157803999999999,0,sub_3
0.0437655999999996,-0.0117759999999987,-0.0492486,0.1084254000000004,-0.089642799999999,0.0026163999999999,0,sub_3
0.0472967999999996,-0.0150883999999987,-0.058959,0.0723620000000005,-0.108644999999999,-0.0138876,0,sub_3
0.0484601999999997,-0.0142583999999987,-0.0656668,0.0526762000000004,-0.134938799999999,-0.028092,0,sub_3
0.0462343999999997,-0.0131349999999987,-0.0686254,0.0491866000000004,-0.159397399999999,-0.0357762,0,sub_3
0.0433019999999997,-0.0116281999999987,-0.0655462,0.0553130000000005,-0.172629999999999,-0.0352892,0,sub_3
0.0418843999999996,-0.0110275999999987,-0.0602232,0.0595412000000004,-0.173528599999999,-0.0273538,0,sub_3
0.0399541999999996,-0.0101663999999987,-0.056012,0.0596824000000004,-0.168884399999999,-0.0153858,0,sub_3
0.0375223999999996,-0.0110981999999987,-0.0520524,0.0566144000000004,-0.164236799999999,-0.0015176,0,sub_3
0.0347637999999996,-0.0124969999999987,-0.0486234,0.0492668000000004,-0.161918199999999,0.0099761999999999,0,sub_3
0.0298005999999996,-0.0164273999999987,-0.0466136,0.0397942000000004,-0.162979799999999,0.0161183999999999,0,sub_3
0.0232415999999997,-0.0207033999999987,-0.0430292,0.0307896000000004,-0.160823199999999,0.0162777999999999,0,sub_3
0.0173187999999997,-0.0231745999999987,-0.0397532,0.0188872000000005,-0.151190199999999,0.0127663999999999,0,sub_3
0.0130601999999997,-0.0249285999999987,-0.0377016,0.0012860000000004,-0.130871599999999,0.0059969999999999,0,sub_3
0.0102037999999996,-0.0260211999999987,-0.0362584,-0.0241527999999994,-0.101987599999999,-0.0023362,0,sub_3
0.0115633999999997,-0.0260509999999986,-0.0396868,-0.0604611999999994,-0.070720399999999,-0.0111756,0,sub_3
0.0162707999999997,-0.0269189999999986,-0.0461826,-0.1051015999999994,-0.042191999999999,-0.020497,0,sub_3
0.0212105999999996,-0.0296363999999986,-0.0528846,-0.1563699999999995,-0.015774399999999,-0.0290074,0,sub_3
0.0245439999999996,-0.0347489999999987,-0.0582228,-0.2168535999999995,0.0044856000000009,-0.034797,0,sub_3
0.0246519999999996,-0.0402545999999987,-0.0646874,-0.2867619999999994,0.0181678000000009,-0.0391484,0,sub_3
0.0220795999999996,-0.0437717999999987,-0.0694834,-0.3577631999999995,0.0254648000000009,-0.0441402,0,sub_3
0.0170653999999996,-0.0441771999999987,-0.073048,-0.4202601999999995,0.0254898000000009,-0.0494906,0,sub_3
0.0115139999999996,-0.0311545999999987,-0.0688456,-0.4704189999999995,0.0169502000000009,-0.0549574,0,sub_3
0.0055815999999997,-0.0154465999999987,-0.0660946,-0.5026381999999995,0.0066650000000009,-0.0656378,0,sub_3
0.0016703999999997,0.0046122000000012,-0.0602528,-0.5081225999999994,0.0003746000000009,-0.086178,0,sub_3
-0.0006480000000002,0.0295308000000012,-0.0523742,-0.4913539999999995,0.0027624000000009,-0.1117014,0,sub_3
-0.0033210000000002,0.0550356000000012,-0.0440212,-0.4600165999999995,0.0125792000000009,-0.1429008,0,sub_3
-0.0060200000000002,0.0672444000000012,-0.042511,-0.4220051999999995,0.0287918000000009,-0.1808984,0,sub_3
-0.0057344000000002,0.0785094000000012,-0.0421132,-0.3767325999999995,0.0432874000000009,-0.2220478,0,sub_3
0.0021223999999997,0.0872542000000012,-0.0446808,-0.3217137999999995,0.0502604000000009,-0.2552146,0,sub_3
0.0171649999999997,0.0843234000000012,-0.0486752,-0.2605941999999995,0.0509802000000009,-0.2750848,0,sub_3
0.0319797999999997,0.0703940000000012,-0.0556794,-0.2059841999999995,0.0401674000000009,-0.2823808,0,sub_3
0.0420825999999996,0.0465010000000012,-0.0633014,-0.1636439999999995,0.0074450000000009,-0.2878116,0,sub_3
0.0495381999999996,0.0170498000000012,-0.066314,-0.1403645999999995,-0.041613599999999,-0.2939954,0,sub_3
0.0522167999999996,-0.0122025999999987,-0.064093,-0.1423025999999995,-0.091255799999999,-0.2922362,0,sub_3
0.0486235999999996,-0.0316869999999987,-0.0596766,-0.1638709999999995,-0.132765799999999,-0.282506,0,sub_3
0.0412933999999996,-0.0319477999999987,-0.0478882,-0.1907353999999995,-0.159793399999999,-0.2668494,0,sub_3
0.0426817999999997,-0.0276269999999987,-0.0339652,-0.2107285999999995,-0.160705799999999,-0.234514,0,sub_3
0.0466979999999997,-0.0218109999999987,-0.0246908,-0.2289957999999994,-0.137840799999999,-0.1825416,0,sub_3
0.0540947999999997,-0.0209309999999987,-0.0169046,-0.2481527999999994,-0.121583199999999,-0.1290714,0,sub_3
0.0587551999999996,-0.0229451999999987,-0.0139018,-0.2647531999999994,-0.119130999999999,-0.088598,0,sub_3
0.0665003999999997,-0.0326283999999987,-0.0171598,-0.2766189999999995,-0.124298799999999,-0.064746,0,sub_3
0.0691193999999996,-0.0344609999999987,-0.0181296,-0.2873719999999995,-0.141736999999999,-0.0635168,0,sub_3
0.0710231999999997,-0.0327141999999987,-0.0184708,-0.2951051999999995,-0.169978799999999,-0.0804126,0,sub_3
0.0696751999999996,-0.0272089999999987,-0.0220172,-0.2969843999999995,-0.180969999999999,-0.100708,0,sub_3
0.0714127999999997,-0.0239305999999987,-0.0241302,-0.2932965999999995,-0.180928999999999,-0.114142,0,sub_3
0.0745045999999996,-0.0233589999999987,-0.0225552,-0.2881803999999995,-0.180738799999999,-0.1128246,0,sub_3
0.0795461999999996,-0.0244481999999987,-0.023081,-0.2843961999999995,-0.175709599999999,-0.0950722,0,sub_3
0.0832727999999996,-0.0232453999999987,-0.0228988,-0.2774343999999995,-0.168802199999999,-0.0702496,0,sub_3
0.0852815999999996,-0.0238211999999987,-0.0213202,-0.2659975999999995,-0.167220599999999,-0.0494482,0,sub_3
0.0843231999999997,-0.0245317999999987,-0.0179962,-0.2573231999999995,-0.168589999999999,-0.034217,0,sub_3
0.0817859999999996,-0.0280043999999987,-0.0156264,-0.2562793999999995,-0.162672599999999,-0.0231078,0,sub_3
0.0776913999999996,-0.0304089999999987,-0.0151884,-0.2695121999999995,-0.155627199999999,-0.0153044,0,sub_3
0.0724251999999996,-0.0305937999999987,-0.0143924,-0.2959875999999995,-0.155550199999999,-0.011644,0,sub_3
0.0664825999999996,-0.0287919999999987,-0.0196048,-0.3273829999999995,-0.166713599999999,-0.0165492,0,sub_3
0.0645539999999996,-0.0178921999999987,-0.01561,-0.3402447999999994,-0.193246799999999,-0.0300646,0,sub_3
0.0650655999999996,-0.0051781999999987,-0.007037,-0.3473455999999995,-0.217890399999999,-0.0416194,0,sub_3
0.0638481999999996,0.0038594000000012,-0.0022472,-0.3356983999999994,-0.239654399999999,-0.0436466,0,sub_3
0.0616055999999996,0.0177760000000012,0.0019193999999999,-0.2881969999999995,-0.254958399999999,-0.0405178,0,sub_3
0.0618455999999996,0.0300506000000012,0.0127181999999999,-0.2078187999999995,-0.251051799999999,-0.0215878,0,sub_3
0.0603417999999996,0.0331116000000012,0.0163139999999999,-0.1258467999999995,-0.216714999999999,0.0193393999999999,0,sub_3
0.0614839999999996,0.0304786000000012,0.0134947999999999,-0.0357925999999995,-0.185400399999999,0.0631043999999999,0,sub_3
0.0651663999999997,0.0293444000000012,0.0169579999999999,0.0517050000000004,-0.159590599999999,0.1004491999999999,0,sub_3
0.0697589999999997,0.0193660000000012,0.0214579999999999,0.1086924000000004,-0.129852999999999,0.1409941999999999,0,sub_3
0.0634213999999997,0.0088248000000012,0.0231037999999999,0.1287584000000004,-0.109329999999999,0.1736017999999999,0,sub_3
0.0550305999999996,-0.0003435999999987,0.0244711999999999,0.1169760000000004,-0.104025799999999,0.1893223999999999,0,sub_3
0.0418541999999997,-0.0027821999999987,0.0260415999999999,0.0770640000000004,-0.096045199999999,0.1995017999999999,0,sub_3
0.0314643999999997,-0.0083047999999987,0.0188515999999999,0.0156654000000004,-0.077109999999999,0.2060989999999999,0,sub_3
0.0240001999999996,-0.0107577999999987,0.0093787999999999,-0.0441887999999995,-0.060468999999999,0.1990365999999999,0,sub_3
0.0272229999999996,-0.0093825999999987,0.0019183999999999,-0.0952513999999995,-0.045305599999999,0.1809279999999999,0,sub_3
0.0360835999999996,-0.0099343999999987,-0.0145752,-0.1349937999999995,-0.029746999999999,0.1607615999999999,0,sub_3
0.0463601999999996,-0.0100407999999987,-0.0304842,-0.1561699999999995,-0.016372799999999,0.1379503999999999,0,sub_3
0.0549145999999996,-0.0051151999999987,-0.0416046,-0.1543143999999995,-0.0056365999999991,0.1155169999999999,0,sub_3
0.0682759999999997,-0.0037389999999987,-0.054741,-0.1362241999999995,0.0148204000000008,0.0989529999999999,0,sub_3
0.0856799999999996,-0.0046347999999987,-0.0694926,-0.1089725999999994,0.0392650000000008,0.0894979999999999,0,sub_3
0.1020435999999997,-0.0059039999999987,-0.0771506,-0.0757849999999994,0.0558032000000009,0.0807353999999999,0,sub_3
0.1184593999999997,-0.0106507999999987,-0.0841168,-0.0465069999999994,0.0553176000000009,0.0702581999999999,0,sub_3
0.1337091999999997,-0.0177923999999987,-0.0885822,-0.0281981999999994,0.0335724000000009,0.0578087999999999,0,sub_3
0.1391399999999996,-0.0229211999999987,-0.0887712,-0.0228019999999994,-0.013690199999999,0.0442337999999999,0,sub_3
0.1362879999999996,-0.0254117999999987,-0.0858672,-0.0270717999999994,-0.078376599999999,0.0274089999999999,0,sub_3
0.1275069999999996,-0.0240293999999987,-0.0795262,-0.0377397999999994,-0.145372399999999,0.0075513999999999,0,sub_3
0.1099819999999996,-0.0172347999999987,-0.069089,-0.0471055999999994,-0.205138399999999,-0.0099562,0,sub_3
0.0850687999999996,-0.0101709999999987,-0.0582726,-0.0538427999999994,-0.2461789999999991,-0.0238374,0,sub_3
0.0622469999999996,-0.0027691999999987,-0.0492996,-0.0577161999999994,-0.262109599999999,-0.0326034,0,sub_3
0.0379969999999996,0.0023238000000012,-0.0426498,-0.0634455999999994,-0.2552709999999991,-0.0328658,0,sub_3
0.0161633999999996,0.0075406000000012,-0.035765,-0.0706609999999995,-0.237810199999999,-0.024179,0,sub_3
0.0031605999999996,0.0091036000000012,-0.0321608,-0.0808453999999995,-0.210137199999999,-0.0093306,0,sub_3
4.639999999968021e-05,0.0102264000000012,-0.0291146,-0.0920899999999995,-0.177786199999999,0.0087089999999999,0,sub_3
-0.0002130000000002,0.0090956000000012,-0.026761,-0.1009931999999994,-0.144811799999999,0.0286869999999999,0,sub_3
0.0044161999999996,0.0064902000000012,-0.0236396,-0.1028539999999995,-0.117378399999999,0.0429529999999999,0,sub_3
0.0138321999999997,0.0006676000000012,-0.0229176,-0.1004215999999994,-0.097151799999999,0.0442257999999999,0,sub_3
0.0263137999999997,-0.0028645999999987,-0.0243356,-0.0924203999999994,-0.084989199999999,0.0327293999999999,0,sub_3
0.0397287999999996,-0.0033427999999987,-0.0279064,-0.0793143999999994,-0.083044799999999,0.0146587999999999,0,sub_3
0.0511573999999997,-0.0011987999999987,-0.0307162,-0.0649781999999995,-0.094093399999999,-0.0053094,0,sub_3
0.0577693999999996,0.0031338000000012,-0.0334226,-0.0526293999999994,-0.113258599999999,-0.0184444,0,sub_3
0.0525029999999997,0.0106710000000012,-0.0351438,-0.0358245999999995,-0.126732199999999,-0.0202324,0,sub_3
0.0403413999999996,0.0148752000000012,-0.0358706,-0.0153705999999994,-0.128739999999999,-0.0153868,0,sub_3
0.0258949999999997,0.0159452000000012,-0.036143,0.0083520000000004,-0.113085799999999,-0.0079772,0,sub_3
0.0157907999999996,0.0129766000000012,-0.0356764,0.0325696000000004,-0.080608799999999,0.0011233999999999,0,sub_3
0.0139783999999996,0.0089580000000012,-0.0342878,0.0538488000000004,-0.038316599999999,0.0091225999999999,0,sub_3
0.0202635999999996,0.0031214000000012,-0.0335938,0.0640402000000004,0.0031724000000009,0.0144815999999999,0,sub_3
0.0307339999999996,0.0003054000000012,-0.031406,0.0654740000000004,0.0393784000000009,0.0165815999999999,0,sub_3
0.0389495999999996,-0.0006447999999987,-0.0294778,0.0594042000000004,0.0658178000000009,0.0167187999999999,0,sub_3
0.0444183999999997,0.0003816000000012,-0.0296384,0.0496782000000004,0.0843928000000009,0.0153451999999999,0,sub_3
0.0462055999999996,0.0008914000000012,-0.0305015999999999,0.0420676000000004,0.0989124000000009,0.0139915999999999,0,sub_3
0.0474521999999996,0.0006576000000012,-0.0321828,0.0391418000000004,0.1117094000000009,0.0131001999999999,0,sub_3
0.0486013999999997,-0.0002823999999987,-0.03454,0.0387572000000004,0.1212974000000009,0.0132989999999999,0,sub_3
0.0512665999999997,-0.0017451999999987,-0.0350038,0.0398442000000004,0.1261922000000009,0.0137275999999999,0,sub_3
0.0536231999999997,-0.0031023999999987,-0.0305036,0.0456504000000004,0.1344880000000009,0.0120483999999999,0,sub_3
0.0503659999999997,-0.0028939999999987,-0.034983,0.0474082000000004,0.1423786000000009,0.0086321999999999,0,sub_3
0.0495005999999996,-0.0021293999999987,-0.0351236,0.0384196000000004,0.1305028000000009,0.0026025999999999,0,sub_3
0.0473197999999997,-0.0005775999999987,-0.0348086,0.0307740000000004,0.1199528000000008,-0.0029732,0,sub_3
0.0449939999999996,0.0005562000000012,-0.036099,0.0263480000000004,0.1149258000000008,-0.0072516,0,sub_3
0.0424085999999996,0.0018624000000012,-0.041053,0.0178296000000004,0.1030886000000009,-0.0098408,0,sub_3
0.0453457999999996,0.0020780000000012,-0.0376668,0.0127062000000004,0.0884638000000009,-0.0109072,0,sub_3
0.0464661999999996,0.0017372000000012,-0.0388546,0.0206646000000004,0.0914650000000009,-0.0089138,0,sub_3
0.0482021999999996,-0.0004663999999987,-0.0418772,0.0281248000000004,0.0924930000000009,-0.0060856,0,sub_3
0.0502931999999996,-0.0023495999999987,-0.0435408,0.0321474000000004,0.0867214000000009,-0.0047682,0,sub_3
0.0529045999999996,-0.0041461999999987,-0.0446544,0.0333904000000004,0.0779834000000009,-0.0051756,0,sub_3
0.0550031999999996,-0.0059653999999987,-0.0455294,0.0314354000000004,0.0673494000000009,-0.0081666,0,sub_3
0.0550263999999996,-0.0065339999999987,-0.045861,0.0260666000000004,0.0554542000000009,-0.0124616,0,sub_3
0.0535517999999996,-0.0045577999999987,-0.044555,0.0209074000000004,0.0437670000000009,-0.0156874,0,sub_3
0.0515381999999996,-0.0032799999999987,-0.044281,0.0163892000000004,0.0356858000000009,-0.015495,0,sub_3
0.0481613999999996,-0.0021017999999987,-0.0446184,0.0157240000000004,0.0322706000000009,-0.0133588,0,sub_3
