userAcceleration.x,userAcceleration.y,userAcceleration.z,rotationRate.x,rotationRate.y,rotationRate.z,label,subject
-0.0195366000000002,0.0054420000000012,-0.0347342,0.0122356000000005,-0.0318587999999991,0.0007738,0,sub_18
-0.0249932000000002,0.0058696000000012,-0.032749,0.0131402000000004,-0.0180183999999991,0.0022493999999999,0,sub_18
-0.0268658000000002,0.0060126000000012,-0.0315302,0.0121582000000004,0.0018002000000008,0.0022085999999999,0,sub_18
-0.0263958000000002,0.0062906000000012,-0.0309142,0.0092588000000004,0.0212038000000008,0.0010867999999999,0,sub_18
-0.0236550000000002,0.0067272000000012,-0.0306252,0.0074156000000004,0.0378356000000008,-0.0004512,0,sub_18
-0.0209770000000002,0.0082550000000012,-0.0311462,0.0044882000000004,0.0514848000000008,-0.0011384,0,sub_18
-0.0175122000000002,0.0094206000000012,-0.0315576,0.0034434000000005,0.0582986000000008,0.0007683999999999,0,sub_18
-0.0142798000000002,0.0110280000000012,-0.0340234,0.0019496000000005,0.0623356000000008,0.0048119999999999,0,sub_18
-0.0101526000000002,0.0111300000000012,-0.0367872,0.0013038000000005,0.0641370000000008,0.0073453999999999,0,sub_18
-0.0060980000000002,0.0092334000000012,-0.0386084,0.0027486000000005,0.0540094000000008,0.0075585999999999,0,sub_18
-0.0041370000000002,0.0052678000000012,-0.0404086,0.0045722000000005,0.0315300000000008,0.0060811999999999,0,sub_18
-0.0039412000000002,0.0005688000000012,-0.0423894,0.0040496000000005,0.0099084000000008,0.0052271999999999,0,sub_18
-0.0089500000000002,-0.0018243999999987,-0.0414908,0.0056416000000005,-0.0157693999999991,0.0046067999999999,0,sub_18
-0.0151962000000002,-0.0036799999999987,-0.0385618,0.0072220000000005,-0.0430495999999991,0.0055073999999999,0,sub_18
-0.0215936000000002,-0.0043803999999987,-0.0364104,0.0045790000000005,-0.0581801999999991,0.0087129999999999,0,sub_18
-0.0253002000000002,-0.0019887999999987,-0.0326662,0.0015880000000005,-0.0558387999999991,0.0118935999999999,0,sub_18
-0.0285126000000002,0.0014738000000012,-0.0292712,-0.0011407999999994,-0.0484105999999991,0.0120514,0,sub_18
-0.0286582000000002,0.0026296000000012,-0.0268444,-0.0059611999999994,-0.0335105999999991,0.0102623999999999,0,sub_18
-0.0293472000000002,0.0061982000000012,-0.0274614,-0.0107527999999994,-0.0124311999999991,0.0082519999999999,0,sub_18
-0.0291612000000002,0.0080950000000012,-0.0291516,-0.0129829999999994,0.0080036000000008,0.0054055999999999,0,sub_18
-0.0269516000000002,0.0080618000000012,-0.0323072,-0.0152371999999994,0.0231120000000008,0.0025659999999999,0,sub_18
-0.0225684000000002,0.0067532000000012,-0.0352576,-0.0185887999999994,0.0346382000000008,0.0001777999999999,0,sub_18
-0.0174502000000002,0.0051760000000012,-0.0400404,-0.0243171999999994,0.0395680000000008,-0.0022185999999999,0,sub_18
-0.0119246000000002,0.0030084000000012,-0.0450012,-0.0319995999999994,0.0370476000000008,-0.0046191999999999,0,sub_18
-0.0068730000000002,0.0032188000000012,-0.049359,-0.0394983999999994,0.0289828000000008,-0.0059429999999999,0,sub_18
-0.0035398000000002,0.0027018000000012,-0.0515754,-0.0420973999999994,0.0155310000000008,-0.0055259999999999,0,sub_18
-0.0021944000000002,0.0027320000000012,-0.0536026,-0.0423857999999994,-0.0047519999999991,-0.0038023999999999,0,sub_18
-0.0030192000000002,0.0031860000000012,-0.0543924,-0.0411939999999994,-0.0273861999999991,-0.0014243999999999,0,sub_18
-0.0053600000000002,0.0049464000000012,-0.0542188,-0.0380761999999994,-0.0489609999999991,0.000752,0,sub_18
-0.0091904000000002,0.0053626000000012,-0.0530212,-0.0332311999999994,-0.0671285999999991,0.0018677999999999,0,sub_18
-0.0129794000000002,0.0060998000000012,-0.0522604,-0.0290221999999994,-0.0799275999999991,0.0021271999999999,0,sub_18
-0.0159268000000002,0.0070890000000012,-0.0512414,-0.0251929999999994,-0.0827097999999991,0.0019439999999999,0,sub_18
-0.0184866000000002,0.0072924000000012,-0.0489878,-0.0213177999999994,-0.0772253999999991,0.0019631999999999,0,sub_18
-0.0201990000000002,0.0077166000000012,-0.0463822,-0.0180557999999994,-0.0655609999999991,0.0021839999999999,0,sub_18
-0.0222086000000002,0.0092830000000012,-0.0438514,-0.0136999999999994,-0.0477227999999991,0.0026181999999999,0,sub_18
-0.0244630000000002,0.0094004000000012,-0.0422484,-0.0086869999999994,-0.0258393999999991,0.0032653999999999,0,sub_18
-0.0266392000000001,0.0094262000000012,-0.0392166,-0.0032461999999994,-0.0037445999999991,0.0039151999999999,0,sub_18
-0.0272470000000002,0.0095250000000012,-0.0373672,0.0009048000000005,0.0183962000000008,0.0045567999999999,0,sub_18
-0.0266410000000002,0.0083792000000012,-0.0372864,0.0029248000000005,0.0403348000000008,0.0043291999999999,0,sub_18
-0.0236560000000002,0.0065876000000012,-0.038558,0.0004506000000005,0.0584576000000008,0.0032203999999999,0,sub_18
-0.0178136000000002,0.0050200000000012,-0.0398788,-0.0052645999999994,0.0687394000000008,0.0020923999999999,0,sub_18
-0.0111612000000002,0.0035352000000012,-0.042776,-0.0116689999999994,0.0683702000000008,0.0011869999999999,0,sub_18
-0.0060122000000002,0.0033936000000012,-0.044374,-0.0176973999999994,0.0564954000000008,8.519999999999828e-05,0,sub_18
-0.0033950000000002,0.0040824000000012,-0.0445362,-0.0233477999999994,0.0341778000000008,-0.0005732,0,sub_18
-0.0031116000000002,0.0053960000000012,-0.045095,-0.0258167999999994,0.0084368000000008,-0.0003504,0,sub_18
-0.0060648000000002,0.0068522000000012,-0.0447086,-0.0250583999999994,-0.0124461999999991,-0.0001046,0,sub_18
-0.0104902000000002,0.0063430000000012,-0.043415,-0.0234203999999994,-0.0275797999999991,0.0001397999999999,0,sub_18
-0.0145046000000002,0.0054746000000012,-0.042782,-0.0232519999999994,-0.0380183999999991,-0.0002728,0,sub_18
-0.0171018000000002,0.0049610000000012,-0.0426942,-0.0247695999999994,-0.0435515999999991,-0.00049,0,sub_18
-0.0178972000000002,0.0045364000000012,-0.0425632,-0.0286291999999994,-0.0466701999999991,-0.0005344,0,sub_18
-0.0165920000000002,0.0045750000000012,-0.0429464,-0.0333449999999994,-0.0502125999999991,-0.0003708,0,sub_18
-0.0150500000000002,0.0055994000000012,-0.0430386,-0.0361375999999994,-0.0535469999999991,-0.0006212,0,sub_18
-0.0141154000000002,0.0061688000000012,-0.0428262,-0.0363697999999994,-0.0558293999999991,0.0002131999999999,0,sub_18
-0.0141100000000002,0.0061628000000012,-0.0426016,-0.0355341999999994,-0.0572657999999991,0.0016947999999999,0,sub_18
-0.0156220000000002,0.0060576000000012,-0.04205,-0.0359675999999994,-0.0579067999999991,0.0025471999999999,0,sub_18
-0.0185884000000001,0.0061238000000012,-0.0425456,-0.0363923999999994,-0.0579035999999991,0.0021169999999999,0,sub_18
-0.0206926000000001,0.0063360000000012,-0.0425842,-0.0373923999999994,-0.0561811999999991,0.0008117999999999,0,sub_18
-0.0209376000000002,0.0062988000000012,-0.0429494,-0.0381617999999994,-0.0514733999999991,-0.0013503999999999,0,sub_18
-0.0200806000000002,0.0061050000000012,-0.0433252,-0.0395653999999994,-0.0459093999999991,-0.0039451999999999,0,sub_18
-0.0179512000000002,0.0056790000000012,-0.044421,-0.0411815999999994,-0.0403437999999991,-0.0067551999999999,0,sub_18
-0.0164038000000002,0.0060586000000012,-0.0447304,-0.0438683999999994,-0.0354145999999991,-0.0093581999999999,0,sub_18
-0.0150940000000002,0.0049636000000012,-0.0461306,-0.0438347999999994,-0.0302919999999991,-0.0117145999999999,0,sub_18
-0.0152646000000002,0.0057038000000012,-0.0464038,-0.0412521999999994,-0.0249761999999991,-0.011276,0,sub_18
-0.0164306000000002,0.0063142000000012,-0.0463746,-0.0358977999999994,-0.0171255999999991,-0.0078304,0,sub_18
-0.0188940000000002,0.0069520000000012,-0.0452456,-0.0291743999999994,-0.0089575999999991,-0.0024646,0,sub_18
-0.0197266000000002,0.0072900000000012,-0.044475,-0.0218231999999994,-0.0044101999999991,0.0020557999999999,0,sub_18
-0.0202116000000002,0.0094260000000012,-0.0446314,-0.0189691999999994,-0.0036813999999991,0.0063359999999999,0,sub_18
-0.0167256000000002,0.0083936000000012,-0.0463096,-0.0186805999999994,-0.0069797999999991,0.0076123999999999,0,sub_18
-0.0107314000000002,0.0064068000000012,-0.0470328,-0.0203265999999994,-0.0153769999999991,0.0069589999999999,0,sub_18
-0.0038054000000002,0.0043914000000012,-0.0480386,-0.0246561999999994,-0.0296349999999991,0.0065197999999999,0,sub_18
0.0011981999999997,0.0027336000000012,-0.0481368,-0.0322009999999994,-0.0453799999999991,0.0077689999999999,0,sub_18
0.0047421999999997,0.0031094000000012,-0.0454334,-0.0376129999999994,-0.0607087999999991,0.0096735999999999,0,sub_18
0.0017329999999997,0.0025354000000012,-0.0390634,-0.0387545999999994,-0.0747767999999991,0.0122473999999999,0,sub_18
-0.0088300000000002,0.0037450000000012,-0.0324136,-0.0407113999999994,-0.0798953999999991,0.0152313999999999,0,sub_18
-0.0236146000000002,0.0052280000000012,-0.0248948,-0.0398233999999994,-0.0696819999999991,0.0177881999999999,0,sub_18
-0.0390024000000002,0.0057162000000012,-0.017006,-0.0382301999999994,-0.0464687999999991,0.0188377999999999,0,sub_18
-0.0529118000000002,0.0047422000000012,-0.0142562,-0.0429881999999994,-0.0149129999999991,0.0170549999999999,0,sub_18
-0.0562388000000002,0.0085696000000012,-0.0196138,-0.0555823999999994,0.0275446000000008,0.0130669999999999,0,sub_18
-0.0515836000000002,0.0090778000000012,-0.0267794,-0.0660055999999994,0.0770306000000008,0.0078031999999999,0,sub_18
-0.0395376000000002,0.0069832000000012,-0.0342964,-0.0790045999999995,0.1229044000000008,0.0023123999999999,0,sub_18
-0.0244426000000002,0.0055094000000012,-0.0447494,-0.0927231999999994,0.1513094000000008,-0.0029472,0,sub_18
-0.0063288000000002,0.0069948000000012,-0.0590964,-0.1073663999999994,0.1648002000000008,-0.0073398,0,sub_18
0.0086423999999997,0.0092762000000012,-0.0728032,-0.1169873999999994,0.1576018000000008,-0.0103888,0,sub_18
0.0257371999999997,0.0120144000000012,-0.0874052,-0.1184947999999994,0.1043542000000008,-0.0131084,0,sub_18
0.0429113999999997,0.0125958000000012,-0.106387,-0.1107473999999994,0.0072124000000008,-0.0140072,0,sub_18
0.0588185999999997,0.0130406000000012,-0.1230672,-0.0973519999999994,-0.1110579999999991,-0.0107804,0,sub_18
0.0705919999999997,0.0145630000000012,-0.1300492,-0.0761825999999994,-0.2498347999999991,-0.0010636,0,sub_18
0.0777075999999997,0.0139076000000012,-0.1316946,-0.0519055999999994,-0.4035593999999992,0.0144624,0,sub_18
0.0818291999999997,0.0130656000000012,-0.1280738,-0.0265483999999994,-0.5487877999999992,0.0355397999999999,0,sub_18
0.0814865999999997,0.0117080000000012,-0.115879,-0.0035533999999994,-0.6787135999999991,0.0593678,0,sub_18
0.0783301999999997,0.0105520000000012,-0.101009,0.0105384000000005,-0.7968849999999991,0.0818365999999999,0,sub_18
0.0696665999999997,0.0075904000000013,-0.0852588,0.0142728000000005,-0.8990177999999991,0.0984441999999999,0,sub_18
0.0572123999999997,-0.0004097999999986,-0.0648252,0.0055016000000005,-0.9878759999999992,0.1096061999999999,0,sub_18
0.0416561999999997,-0.0073183999999986,-0.0458002,-0.0223781999999994,-1.0619409999999991,0.1142065999999999,0,sub_18
0.0162645999999997,-0.0100871999999986,-0.0259424,-0.0599513999999995,-1.1152799999999992,0.1123031999999999,0,sub_18
-0.0119802000000002,-0.0127525999999986,-0.0077516,-0.0990771999999994,-1.1381311999999992,0.1065043999999999,0,sub_18
-0.0443544000000002,-0.0123487999999986,0.0044569999999999,-0.1346279999999994,-1.1266867999999992,0.0991909999999999,0,sub_18
-0.0717222000000002,-0.0093473999999986,0.0128641999999999,-0.1627333999999994,-1.0758409999999992,0.0888881999999999,0,sub_18
-0.0943906000000002,-0.0056705999999987,0.0257531999999999,-0.1778483999999995,-0.9847667999999992,0.0771289999999999,0,sub_18
-0.1106768000000002,0.0032398000000012,0.0342707999999999,-0.1881301999999995,-0.8638773999999991,0.0642971999999999,0,sub_18
-0.1299872000000002,0.0165314000000012,0.0391731999999999,-0.1868063999999994,-0.7266147999999991,0.0493891999999999,0,sub_18
-0.1411922000000002,0.0233370000000012,0.0452877999999999,-0.1711175999999994,-0.5763963999999991,0.0322147999999999,0,sub_18
-0.1506790000000002,0.0277050000000012,0.0541007999999999,-0.1410637999999994,-0.410463799999999,0.0155479999999999,0,sub_18
-0.1602478000000002,0.0333692000000012,0.0538369999999999,-0.1028961999999994,-0.2424325999999991,-0.0002104,0,sub_18
-0.1645650000000002,0.0357302000000012,0.0499553999999999,-0.0574537999999994,-0.0676183999999991,-0.0135763999999999,0,sub_18
-0.1600824000000002,0.0326976000000012,0.0475531999999999,-0.0092107999999994,0.1173958000000008,-0.0226631999999999,0,sub_18
-0.1458044000000002,0.0275956000000012,0.0471023999999999,0.0362354000000005,0.3004892000000009,-0.0285623999999999,0,sub_18
-0.1274822000000002,0.0244380000000012,0.0413389999999999,0.0726508000000005,0.4693352000000008,-0.0334383999999999,0,sub_18
-0.1098376000000002,0.0188470000000012,0.0369551999999999,0.1008978000000005,0.6237262000000008,-0.0394209999999999,0,sub_18
-0.0910490000000002,0.0085214000000012,0.0304699999999999,0.1224132000000005,0.750025800000001,-0.0475511999999999,0,sub_18
-0.0681676000000002,-0.0009729999999987,0.0210589999999999,0.1271264000000005,0.8397436000000009,-0.0570335999999999,0,sub_18
-0.0514888000000002,-0.0045549999999987,0.0101367999999999,0.1175998000000005,0.8969042000000009,-0.0642235999999999,0,sub_18
-0.0292056000000002,-0.0045363999999986,-0.0036962,0.1006412000000005,0.9172216000000007,-0.0688546,0,sub_18
-0.0060854000000002,-0.0018909999999987,-0.019537,0.0907618000000005,0.9068010000000007,-0.0650645999999999,0,sub_18
0.0149725999999997,0.0050158000000012,-0.0278008,0.0662284000000004,0.8657456000000009,-0.0598421999999999,0,sub_18
0.0414993999999997,0.0118314000000012,-0.0440626,0.0543286000000004,0.7899066000000009,-0.0517095999999999,0,sub_18
0.0709651999999997,0.0154720000000012,-0.0599114,0.0431336000000004,0.6799804000000008,-0.0445967999999999,0,sub_18
0.0883897999999997,0.0172964000000012,-0.0719804,0.0315682000000004,0.5361754000000009,-0.0363747999999999,0,sub_18
0.1011381999999997,0.0146230000000012,-0.0838744,0.0105192000000004,0.3715232000000009,-0.0279786,0,sub_18
0.1062157999999997,0.0107030000000012,-0.0962882,0.0077734000000004,0.2029454000000009,-0.0128265999999999,0,sub_18
0.0996895999999997,0.0073004000000012,-0.0957568,0.0029168000000005,0.0386396000000008,0.0014504,0,sub_18
0.0852951999999997,0.0056350000000012,-0.0941946,0.0041038000000005,-0.1111959999999991,0.0148967999999999,0,sub_18
0.0666533999999997,0.0040590000000012,-0.0910276,0.0069500000000004,-0.2279983999999991,0.0244668,0,sub_18
0.0439159999999997,0.0038376000000013,-0.0817774,0.0067770000000004,-0.3121619999999991,0.0262826,0,sub_18
0.0239567999999997,0.0032234000000013,-0.0740384,-0.0026309999999995,-0.3675091999999991,0.0226557999999999,0,sub_18
0.0013113999999997,0.0038972000000013,-0.0651978,-0.0167921999999995,-0.3902353999999991,0.0172449999999999,0,sub_18
-0.0216480000000002,0.0033302000000013,-0.0558204,-0.0291169999999995,-0.3833565999999991,0.0126633999999999,0,sub_18
-0.0454366000000002,0.0038488000000013,-0.0451236,-0.0360211999999995,-0.3573215999999991,0.0080951999999999,0,sub_18
-0.0632048000000002,0.0072648000000012,-0.0367532,-0.0371123999999995,-0.3204383999999991,0.0029128,0,sub_18
-0.0735820000000002,0.0117164000000012,-0.031694,-0.0263839999999994,-0.2656965999999991,-0.0030643999999999,0,sub_18
-0.0788676000000002,0.0139936000000012,-0.0297672,-0.0046909999999994,-0.1901237999999991,-0.0064279999999999,0,sub_18
-0.0796630000000002,0.0167390000000012,-0.02713,0.0196160000000005,-0.1015679999999991,-0.0087215999999999,0,sub_18
-0.0748878000000002,0.0175312000000012,-0.0276518,0.0411714000000005,-0.0059801999999991,-0.0089071999999999,0,sub_18
-0.0683106000000002,0.0172792000000012,-0.0304188,0.0584554000000005,0.0915288000000008,-0.0063478,0,sub_18
-0.0556904000000002,0.0177568000000012,-0.0359686,0.0701710000000004,0.1737338000000008,-0.0025215999999999,0,sub_18
-0.0409276000000002,0.0181138000000012,-0.0415626,0.0783518000000004,0.2288938000000008,0.0011009999999999,0,sub_18
-0.0233610000000002,0.0154732000000012,-0.0499784,0.0844742000000004,0.2538052000000008,0.0051751999999999,0,sub_18
-0.0012784000000002,0.0116572000000012,-0.0589488,0.0859912000000004,0.2514598000000009,0.0096795999999999,0,sub_18
0.0197529999999997,0.0088974000000012,-0.0686044,0.0805382000000004,0.2176064000000008,0.0141755999999999,0,sub_18
0.0359603999999997,0.0060464000000012,-0.076616,0.0687400000000005,0.1632900000000008,0.0212129999999999,0,sub_18
0.0491629999999997,0.0026558000000012,-0.0809772,0.0541018000000005,0.0957680000000008,0.029743,0,sub_18
0.0567035999999997,0.0002222000000012,-0.0818038,0.0383152000000005,0.0116258000000008,0.0397818,0,sub_18
0.0556467999999997,-0.0029129999999987,-0.0813918,0.0209516000000005,-0.0901979999999991,0.0506868,0,sub_18
0.0519695999999997,-0.0016251999999987,-0.0801304,0.0074488000000005,-0.1865001999999991,0.06268,0,sub_18
0.0440803999999997,-0.0003411999999987,-0.0744116,0.0008132000000005,-0.2774861999999991,0.0712962,0,sub_18
0.0335433999999997,0.0010088000000012,-0.0686442,-0.0076957999999994,-0.3618453999999991,0.076045,0,sub_18
0.0184373999999997,0.0010026000000012,-0.0631828,-0.0218669999999994,-0.427423199999999,0.0775256,0,sub_18
0.0036397999999997,0.0035808000000012,-0.058161,-0.0373975999999994,-0.4665635999999991,0.0755445999999999,0,sub_18
-0.0158062000000002,0.0027838000000012,-0.05096,-0.0532685999999994,-0.491620399999999,0.0684156,0,sub_18
-0.0349674000000002,0.0022540000000012,-0.043958,-0.0707467999999994,-0.497909199999999,0.057833,0,sub_18
-0.0541168000000002,0.0034242000000012,-0.0372766,-0.0857791999999994,-0.4833227999999991,0.0461726,0,sub_18
-0.0669222000000002,0.0075830000000012,-0.031697,-0.0936705999999995,-0.4478765999999991,0.0332534,0,sub_18
-0.0766784000000002,0.0112552000000012,-0.0246838,-0.0935839999999994,-0.3928613999999991,0.021433,0,sub_18
-0.0803310000000002,0.0131846000000012,-0.0193838,-0.0878881999999995,-0.3225325999999991,0.0113414,0,sub_18
-0.0830306000000002,0.0150204000000012,-0.0157796,-0.0793947999999994,-0.2449771999999991,0.0031828,0,sub_18
-0.0820116000000002,0.0153212000000012,-0.0135878,-0.0672633999999994,-0.1636053999999991,-0.0034598,0,sub_18
-0.0798640000000002,0.0140434000000012,-0.0124096,-0.0523783999999994,-0.0845955999999991,-0.0079435999999999,0,sub_18
-0.0792012000000002,0.0136168000000012,-0.0135812,-0.0368761999999994,-0.0094279999999991,-0.0111364,0,sub_18
-0.0785930000000002,0.0127820000000012,-0.014203,-0.0226637999999994,0.0653110000000008,-0.0126283999999999,0,sub_18
-0.0778754000000002,0.0117978000000012,-0.0137042,-0.0088741999999994,0.1411158000000008,-0.0139112,0,sub_18
-0.0772290000000002,0.0130106000000012,-0.0144258,0.0034236000000005,0.2162910000000008,-0.0162716,0,sub_18
-0.0759128000000002,0.0146832000000012,-0.0155881999999999,0.0142384000000005,0.2933908000000008,-0.0190721999999999,0,sub_18
-0.0724802000000002,0.0157404000000012,-0.0152226,0.0288824000000005,0.3668594000000008,-0.0229095999999999,0,sub_18
-0.0683130000000002,0.0151924000000012,-0.0144116,0.0460572000000005,0.4335024000000008,-0.0269341999999999,0,sub_18
-0.0608808000000002,0.0136440000000012,-0.016069,0.0597604000000005,0.4884350000000008,-0.0298997999999999,0,sub_18
-0.0521886000000002,0.0107100000000012,-0.016962,0.0653000000000005,0.5335852000000009,-0.0303463999999999,0,sub_18
-0.0401334000000002,0.0064058000000012,-0.0187024,0.0624432000000004,0.561509800000001,-0.0314703999999999,0,sub_18
-0.0255124000000002,0.0024152000000012,-0.0233102,0.0497330000000004,0.580097800000001,-0.0335057999999999,0,sub_18
-0.0117620000000002,0.0016994000000012,-0.029134,0.0297402000000004,0.5897740000000009,-0.0383581999999999,0,sub_18
0.0036511999999997,0.0012654000000012,-0.0376494,0.0120130000000004,0.5830302000000009,-0.0414644,0,sub_18
0.0159413999999997,-0.0005581999999986,-0.0412784,0.0040606000000004,0.570911200000001,-0.0408634,0,sub_18
0.0221505999999997,-0.0011479999999986,-0.0447348,-0.0220761999999994,0.5490518000000009,-0.0395224,0,sub_18
0.0296285999999997,-0.0009305999999986,-0.0558606,-0.0515727999999994,0.4916246000000009,-0.038373,0,sub_18
0.0362003999999997,-0.0002197999999987,-0.0625968,-0.0696125999999995,0.4270964000000008,-0.0296568,0,sub_18
0.0367817999999997,0.0006338000000012,-0.064723,-0.0919569999999994,0.3532132000000009,-0.0220269999999999,0,sub_18
0.0372459999999997,0.0047490000000012,-0.0740212,-0.1211955999999994,0.2593482000000008,-0.0197608,0,sub_18
0.0380803999999997,0.0113948000000012,-0.0827124,-0.1237865999999994,0.1600636000000009,-0.0173016,0,sub_18
0.0314781999999997,0.0187354000000012,-0.080894,-0.1111399999999994,0.0824488000000009,-0.0126271999999999,0,sub_18
0.0245163999999997,0.0214046000000012,-0.0833274,-0.1033893999999994,0.0027396000000009,-0.0126845999999999,0,sub_18
0.0185897999999997,0.0217650000000012,-0.0869102,-0.0896231999999994,-0.068677999999999,-0.0135651999999999,0,sub_18
0.0150821999999997,0.0163018000000012,-0.0881834,-0.0734907999999995,-0.133508599999999,-0.0120875999999999,0,sub_18
0.0118621999999997,0.0084482000000013,-0.0878562,-0.0656683999999994,-0.193631599999999,-0.0085375999999999,0,sub_18
0.0091423999999997,0.0025850000000013,-0.0860304,-0.0740345999999995,-0.2475191999999991,-0.0051087999999999,0,sub_18
0.0061479999999997,0.0024768000000013,-0.0813234,-0.0885635999999994,-0.2979677999999991,-0.0038637999999999,0,sub_18
0.0007151999999997,0.0043648000000013,-0.073954,-0.1017499999999995,-0.3354213999999991,-0.0034806,0,sub_18
-0.0114200000000002,0.0094612000000013,-0.0613828,-0.1077411999999995,-0.3515675999999991,-0.0045664,0,sub_18
-0.0235522000000002,0.0147174000000012,-0.048803,-0.1042405999999994,-0.3455855999999991,-0.0064687999999999,0,sub_18
-0.0352304000000002,0.0159524000000012,-0.0372256,-0.0895551999999994,-0.3198285999999991,-0.0083182,0,sub_18
-0.0483476000000002,0.0147642000000012,-0.0265312,-0.0692377999999994,-0.2747057999999991,-0.0095122,0,sub_18
-0.0602458000000002,0.0133764000000012,-0.0170418,-0.0524653999999994,-0.2120963999999991,-0.0116079999999999,0,sub_18
-0.0667900000000002,0.0112418000000012,-0.0130344,-0.0455209999999994,-0.1426489999999991,-0.0154939999999999,0,sub_18
-0.0699726000000002,0.0095766000000012,-0.0133776,-0.0447375999999995,-0.0686997999999991,-0.0209244,0,sub_18
-0.0682260000000002,0.0090580000000012,-0.0147298,-0.0473529999999995,0.0080336000000008,-0.027023,0,sub_18
-0.0568464000000002,0.0103060000000012,-0.019578,-0.0491395999999995,0.0809222000000008,-0.0314018,0,sub_18
-0.0420350000000002,0.0120000000000012,-0.024516,-0.0460839999999995,0.1427012000000008,-0.0323142,0,sub_18
-0.0259032000000002,0.0145970000000012,-0.0293934,-0.0360463999999994,0.1944294000000009,-0.0299602,0,sub_18
-0.0144960000000002,0.0167182000000012,-0.0317544,-0.0220207999999995,0.2314426000000008,-0.0275596,0,sub_18
-0.0068296000000002,0.0188280000000012,-0.0349706,-0.0065859999999995,0.2511874000000008,-0.0236316,0,sub_18
-0.0057504000000002,0.0185942000000012,-0.0368522,0.0079568000000005,0.2634742000000008,-0.018632,0,sub_18
-0.0086934000000002,0.0173668000000012,-0.0416354,0.0203458000000005,0.2698088000000008,-0.0151351999999999,0,sub_18
