userAcceleration.x,userAcceleration.y,userAcceleration.z,rotationRate.x,rotationRate.y,rotationRate.z,label,subject
-0.0066702000000002,0.0058242000000012,0.0106847999999999,0.0123920000000005,-0.0437589999999991,0.0082196,0,sub_18
-0.0044010000000002,0.0060712000000012,0.0112031999999999,0.0028798000000005,-0.0296685999999991,0.0045036,0,sub_18
-0.0009208000000002,0.0061962000000012,0.0094585999999999,-0.0081365999999994,-0.0185531999999991,0.00014,0,sub_18
0.0026227999999997,0.0073104000000012,0.0061149999999999,-0.0185263999999994,-0.0097861999999991,-0.0035751999999999,0,sub_18
0.0054339999999997,0.0092916000000012,0.0015165999999999,-0.0272263999999994,-0.0044357999999991,-0.0068469999999999,0,sub_18
0.0072969999999997,0.0108232000000012,-0.0027946,-0.0319041999999994,-0.0027071999999991,-0.0088045999999999,0,sub_18
0.0080579999999997,0.0120778000000012,-0.0065708,-0.0325501999999994,-0.0037709999999991,-0.0085941999999999,0,sub_18
0.0080911999999997,0.0126988000000012,-0.0081324,-0.0293707999999994,-0.0063473999999991,-0.0064323999999999,0,sub_18
0.0073465999999997,0.0124102000000012,-0.0089502,-0.0236413999999994,-0.0106395999999991,-0.0036095999999999,0,sub_18
0.0054599999999997,0.0125640000000012,-0.00722,-0.0170455999999994,-0.0145285999999991,-0.0005703999999999,0,sub_18
0.0026633999999997,0.0126776000000012,-0.0053404,-0.0110849999999994,-0.0175623999999991,0.0022496,0,sub_18
0.0004959999999997,0.0120064000000012,-0.002667,-0.0061843999999994,-0.0191011999999991,0.0050604,0,sub_18
-0.0011942000000002,0.0117926000000012,-0.0004752,-0.0023391999999994,-0.0185039999999991,0.0074338,0,sub_18
-0.0027710000000002,0.0122496000000012,0.0024037999999999,0.0004476000000005,-0.0161977999999991,0.009584,0,sub_18
-0.0032404000000002,0.0109186000000012,0.0038765999999999,0.0034454000000004,-0.0119549999999991,0.0115224,0,sub_18
-0.0031682000000002,0.0099614000000012,0.0052219999999999,0.0053916000000004,-0.0051483999999991,0.0125956,0,sub_18
-0.0028508000000002,0.0098458000000012,0.0067581999999999,0.0065134000000004,0.0026908000000007,0.0125766,0,sub_18
-0.0031098000000002,0.0099018000000012,0.0079949999999999,0.0067780000000004,0.0094686000000007,0.0123394,0,sub_18
-0.0028628000000002,0.0088302000000012,0.0086071999999999,0.0057672000000004,0.0166796000000008,0.0114516,0,sub_18
-0.0032264000000002,0.0079258000000012,0.0102879999999999,0.0032628000000005,0.0224104000000008,0.0090598,0,sub_18
-0.0039528000000002,0.0077552000000012,0.0121329999999999,0.0026672000000004,0.0255778000000008,0.0066846,0,sub_18
-0.0044028000000002,0.0084170000000012,0.0134533999999999,0.0054478000000004,0.0251496000000008,0.0047818,0,sub_18
-0.0055552000000002,0.0083610000000012,0.0130055999999999,0.0105726000000004,0.0244986000000008,0.0033228,0,sub_18
-0.0070054000000002,0.0097776000000012,0.0135533999999999,0.0174024000000004,0.0240520000000008,0.0025166,0,sub_18
-0.0082746000000002,0.0107824000000012,0.0134367999999999,0.0236688000000004,0.0260424000000008,0.0033942,0,sub_18
-0.0088278000000002,0.0105444000000012,0.0136315999999999,0.0267462000000004,0.0314496000000008,0.0050998,0,sub_18
-0.0081458000000001,0.0087910000000012,0.0127377999999999,0.0257954000000005,0.0413502000000008,0.0054894,0,sub_18
-0.0040050000000002,0.0072826000000012,0.0118669999999999,0.0225032000000004,0.0499908000000008,0.0033008,0,sub_18
0.0013247999999997,0.0054908000000012,0.0088719999999999,0.0183346000000004,0.0509748000000008,-0.0014479999999999,0,sub_18
0.0064283999999997,0.0045674000000012,0.0038017999999999,0.0142700000000004,0.0418550000000007,-0.0083013999999999,0,sub_18
0.0098233999999997,0.0043346000000012,-0.00255,0.0099604000000004,0.0250684000000007,-0.0157875999999999,0,sub_18
0.0109573999999997,0.0067774000000012,-0.0086264,0.0049780000000005,0.0025258000000007,-0.0217755999999999,0,sub_18
0.0102293999999997,0.0115632000000012,-0.013369,0.0004166000000005,-0.0172647999999991,-0.0237049999999999,0,sub_18
0.0102019999999997,0.0158968000000012,-0.0161334,-0.0011101999999994,-0.0287759999999991,-0.0207391999999999,0,sub_18
0.0105381999999997,0.0183318000000012,-0.0174158,0.0016458000000005,-0.0318003999999991,-0.0126267999999999,0,sub_18
0.0110557999999997,0.0193256000000012,-0.0170402,0.0093074000000005,-0.0314483999999991,-0.0006387999999999,0,sub_18
0.0125749999999997,0.0180824000000012,-0.0120488,0.0214460000000005,-0.0304789999999991,0.0128752,0,sub_18
0.0120949999999997,0.0139132000000012,-0.0065064,0.0348590000000005,-0.0316411999999991,0.0255461999999999,0,sub_18
0.0089617999999997,0.0091912000000012,-0.0019308,0.0444032000000005,-0.0357577999999991,0.0343775999999999,0,sub_18
0.0035015999999997,0.0058442000000012,0.0020013999999999,0.0477798000000005,-0.0406835999999991,0.0378257999999999,0,sub_18
3.239999999981174e-05,0.0042704000000012,0.0070713999999999,0.0457218000000005,-0.0400037999999991,0.0360883999999999,0,sub_18
-0.0041762000000001,0.0044260000000012,0.0094853999999999,0.0411388000000005,-0.0335539999999991,0.0321896,0,sub_18
-0.0072336000000001,0.0061146000000012,0.0136717999999999,0.0367742000000005,-0.0287983999999991,0.025517,0,sub_18
-0.0085082000000001,0.0068310000000012,0.0153237999999999,0.0343116000000005,-0.0283095999999991,0.0186496,0,sub_18
-0.0060888000000001,0.0079554000000012,0.0174863999999999,0.0320680000000004,-0.0273919999999991,0.0109286,0,sub_18
-0.0028258000000002,0.0069196000000012,0.0167945999999999,0.0278198000000004,-0.0316039999999991,0.0023584,0,sub_18
-0.0001696000000002,0.0041300000000012,0.0129949999999999,0.0186468000000004,-0.0419681999999991,-0.0085881999999999,0,sub_18
0.0027297999999997,0.0006828000000012,0.0069105999999999,0.0028716000000004,-0.0489027999999991,-0.0189443999999999,0,sub_18
0.0061923999999997,0.0026326000000012,0.0019885999999999,-0.0147547999999994,-0.0479255999999991,-0.0274289999999999,0,sub_18
0.0075221999999997,0.0049404000000012,-0.003299,-0.0279089999999994,-0.0459107999999991,-0.0328925999999999,0,sub_18
0.0072523999999997,0.0087348000000012,-0.0077698,-0.0325397999999994,-0.0418139999999991,-0.0335989999999999,0,sub_18
0.0057759999999997,0.0136766000000012,-0.010194,-0.0273687999999994,-0.0341557999999991,-0.0276187999999999,0,sub_18
0.0026193999999997,0.0168720000000012,-0.0129312,-0.0121971999999994,-0.0271939999999991,-0.0160129999999999,0,sub_18
-0.0023354000000002,0.0155162000000012,-0.0138996,0.0069718000000004,-0.0211379999999991,-0.0019999999999999,0,sub_18
-0.0063066000000002,0.0142258000000012,-0.0115212,0.0261428000000004,-0.0152923999999991,0.0113724,0,sub_18
-0.0116774000000002,0.0121466000000012,-0.0083876,0.0408416000000004,-0.0109087999999991,0.021297,0,sub_18
-0.0148242000000002,0.0071258000000012,-0.0048882,0.0489478000000005,-0.0075435999999991,0.025195,0,sub_18
-0.0157926000000001,0.0037438000000012,-0.0004374,0.0491968000000005,-0.0013949999999992,0.0230224,0,sub_18
-0.0157930000000001,0.0027292000000012,0.0049477999999999,0.0424274000000005,0.0058598000000007,0.0167402,0,sub_18
-0.0159542000000001,0.0022944000000012,0.0081171999999999,0.0305428000000005,0.0135618000000007,0.009567,0,sub_18
-0.0141590000000001,0.0031766000000012,0.0105757999999999,0.0176028000000005,0.0233998000000007,0.0019564,0,sub_18
-0.0118826000000001,0.0059674000000012,0.0126617999999999,0.0061652000000005,0.0351500000000008,-0.0056461999999999,0,sub_18
-0.0093952000000001,0.0087374000000012,0.0134553999999999,-0.0016529999999994,0.0445826000000008,-0.0134039999999999,0,sub_18
-0.0061028000000001,0.0095884000000012,0.0120773999999999,-0.0052187999999994,0.0505914000000008,-0.0211277999999999,0,sub_18
-0.0017276000000001,0.0079290000000012,0.0088697999999999,-0.0058543999999994,0.0505696000000008,-0.0281809999999999,0,sub_18
0.0026447999999998,0.0054648000000012,0.0062147999999999,-0.0065263999999994,0.0435126000000008,-0.0341571999999999,0,sub_18
0.0067729999999998,0.0038870000000012,0.0022461999999999,-0.0080759999999994,0.0328300000000008,-0.0384257999999999,0,sub_18
0.0089965999999997,0.0044650000000012,-0.0008198,-0.0109219999999994,0.0208640000000008,-0.0403517999999999,0,sub_18
0.0094755999999997,0.0060966000000012,-0.0037316,-0.0139863999999994,0.0114410000000008,-0.0386505999999999,0,sub_18
0.0088391999999997,0.0096744000000012,-0.0051804,-0.0150877999999994,0.0075944000000008,-0.0348077999999999,0,sub_18
0.0070927999999997,0.0133752000000012,-0.0083064,-0.0134019999999994,0.0092672000000008,-0.0283887999999999,0,sub_18
0.0052769999999997,0.0162982000000012,-0.0102584,-0.0091537999999994,0.0136914000000008,-0.0196053999999999,0,sub_18
0.0047653999999997,0.0162434000000012,-0.0120614,-0.0040557999999994,0.0187458000000008,-0.0093213999999999,0,sub_18
0.0041863999999997,0.0149694000000012,-0.0127138,0.0011600000000005,0.0206458000000008,-0.0007841999999999,0,sub_18
0.0034371999999997,0.0130648000000012,-0.013144,0.0050878000000005,0.0197850000000008,0.0066792,0,sub_18
0.0035387999999997,0.0112656000000012,-0.0117806,0.0075230000000005,0.0165962000000008,0.0115714,0,sub_18
0.0033043999999997,0.0101502000000012,-0.009573,0.0082502000000005,0.0102294000000008,0.0134648,0,sub_18
0.0024203999999997,0.0092388000000012,-0.0078118,0.0081314000000005,0.0030236000000008,0.0127896,0,sub_18
8.579999999977112e-05,0.0091144000000012,-0.0043978,0.0074740000000005,-0.0025065999999991,0.0110828,0,sub_18
-0.0025030000000002,0.0094636000000012,-0.0008946,0.0074682000000005,-0.0056947999999991,0.0091639999999999,0,sub_18
-0.0062136000000002,0.0094714000000012,0.0034903999999999,0.0087532000000005,-0.0056949999999991,0.0081047999999999,0,sub_18
-0.0099278000000002,0.0081240000000012,0.0076705999999999,0.0106178000000005,-0.0006939999999991,0.0078855999999999,0,sub_18
-0.0124146000000001,0.0076292000000012,0.0129319999999999,0.0133464000000005,0.0053744000000008,0.0063893999999999,0,sub_18
-0.0128940000000001,0.0072936000000012,0.0153299999999999,0.0154396000000005,0.0112370000000008,0.0036072,0,sub_18
-0.0109096000000001,0.0063390000000012,0.0159981999999999,0.0141266000000005,0.0164818000000008,-0.0015481999999999,0,sub_18
-0.0070262000000001,0.0059844000000012,0.0143485999999999,0.0089748000000005,0.0204684000000008,-0.0084379999999999,0,sub_18
-0.0031552000000001,0.0059282000000012,0.0119675999999999,0.0013288000000005,0.0205266000000008,-0.0163961999999999,0,sub_18
0.0015561999999997,0.0061956000000012,0.0073495999999999,-0.0084623999999994,0.0193090000000008,-0.0230859999999999,0,sub_18
0.0063849999999997,0.0066874000000012,0.0026183999999999,-0.0177197999999994,0.0169088000000008,-0.0274343999999999,0,sub_18
0.0089793999999997,0.0079018000000012,-0.0004574,-0.0244339999999994,0.0136356000000008,-0.0287729999999999,0,sub_18
0.0100267999999997,0.0092200000000012,-0.003213,-0.0264711999999994,0.0088452000000008,-0.0277267999999999,0,sub_18
0.0107863999999997,0.0109812000000012,-0.0063622,-0.0251107999999994,0.0029674000000008,-0.0240917999999999,0,sub_18
0.0095955999999997,0.0126208000000012,-0.008508,-0.0207697999999994,-0.0025023999999991,-0.0185135999999999,0,sub_18
0.0074773999999997,0.0129090000000012,-0.0101536,-0.0152661999999994,-0.0065927999999991,-0.0127015999999999,0,sub_18
0.0058739999999997,0.0127210000000012,-0.011686,-0.0091195999999994,-0.0113193999999991,-0.0081659999999999,0,sub_18
0.0054867999999997,0.0125228000000012,-0.0123586,-0.0040341999999994,-0.0158249999999991,-0.0047063999999999,0,sub_18
0.0051969999999997,0.0120658000000012,-0.0120465999999999,-7.379999999949284e-05,-0.0181871999999991,-0.0025189999999999,0,sub_18
0.0051379999999997,0.0116308000000012,-0.0101689999999999,0.0032560000000005,-0.0203265999999991,-0.0022591999999999,0,sub_18
0.0046287999999997,0.0110780000000012,-0.0083456,0.0059438000000005,-0.0226775999999991,-0.0017897999999999,0,sub_18
0.0030727999999997,0.0104086000000012,-0.0055202,0.0077800000000005,-0.0237507999999991,-0.0004733999999999,0,sub_18
0.0006023999999997,0.0097398000000012,-0.002554,0.0089836000000005,-0.0226929999999991,0.001263,0,sub_18
-0.0016710000000001,0.0093642000000012,0.0002349999999999,0.0096274000000004,-0.0212065999999991,0.0019066,0,sub_18
-0.0037972000000001,0.0086122000000012,0.0021721999999999,0.0089996000000004,-0.0184347999999991,0.0018988,0,sub_18
-0.0044030000000001,0.0088812000000012,0.0041457999999999,0.0079586000000004,-0.0143761999999991,0.0001772,0,sub_18
-0.0041852000000001,0.0094590000000012,0.0049947999999999,0.0060718000000004,-0.0092469999999991,-0.0021927999999999,0,sub_18
-0.0035366000000001,0.0090392000000012,0.0054801999999999,0.0030852000000004,-0.0043637999999991,-0.0047253999999999,0,sub_18
-0.0025616000000002,0.0080908000000012,0.0049133999999999,-0.0001195999999994,0.0007282000000008,-0.0059779999999999,0,sub_18
-0.0016114000000002,0.0073930000000012,0.0044287999999999,-0.0039663999999994,0.0056084000000007,-0.0070211999999999,0,sub_18
-0.0012326000000002,0.0071246000000012,0.0039385999999999,-0.0078141999999994,0.0104876000000008,-0.0078505999999999,0,sub_18
-0.0012676000000001,0.0070624000000012,0.0032439999999999,-0.0106057999999994,0.0136562000000007,-0.0080293999999999,0,sub_18
-0.0012788000000001,0.0076146000000012,0.0022601999999999,-0.0120925999999994,0.0160016000000008,-0.0071881999999999,0,sub_18
-0.0016152000000001,0.0087806000000012,0.0019731999999999,-0.0122981999999994,0.0185554000000007,-0.0063381999999999,0,sub_18
-0.0021744000000001,0.0094102000000012,0.0011189999999999,-0.0106277999999994,0.0202104000000008,-0.0050247999999999,0,sub_18
-0.0024680000000001,0.0094824000000012,0.0009051999999999,-0.0087565999999994,0.0193070000000008,-0.0034931999999999,0,sub_18
-0.0023048000000002,0.0090860000000012,0.0004515999999999,-0.0070967999999994,0.0184062000000008,-0.0023901999999999,0,sub_18
-0.0025806000000002,0.0088256000000012,0.0007465999999999,-0.0056465999999994,0.0179338000000008,-0.0017165999999999,0,sub_18
-0.0026074000000002,0.0080164000000012,0.0010681999999999,-0.0052555999999994,0.0181088000000008,-0.0021193999999999,0,sub_18
-0.0024420000000002,0.0081692000000012,0.0017841999999999,-0.0050451999999994,0.0178932000000007,-0.0016903999999999,0,sub_18
-0.0027354000000002,0.0079344000000012,0.0019689999999999,-0.0041963999999994,0.0174616000000008,-0.0010429999999999,0,sub_18
-0.0030874000000002,0.0081598000000012,0.0026223999999999,-0.0039819999999994,0.0180982000000008,-0.0006151999999999,0,sub_18
-0.0035172000000002,0.0087090000000012,0.0037339999999999,-0.0037665999999994,0.0183114000000008,-0.0008275999999999,0,sub_18
-0.0036744000000002,0.0095456000000012,0.0041893999999999,-0.0027263999999994,0.0165442000000007,-0.0001323999999999,0,sub_18
-0.0030510000000002,0.0091494000000012,0.0037983999999999,-0.0023205999999994,0.0152090000000008,-0.0002965999999999,0,sub_18
-0.0014174000000002,0.0092134000000012,0.0033991999999999,-0.0034017999999994,0.0153704000000008,-0.0004731999999999,0,sub_18
0.0001987999999997,0.0092440000000012,0.0031229999999999,-0.0038485999999994,0.0142512000000008,-0.0006435999999999,0,sub_18
0.0009267999999997,0.0087100000000012,0.0020519999999999,-0.0043039999999994,0.0112146000000008,-0.0008115999999999,0,sub_18
0.0010643999999998,0.0085752000000012,0.0012685999999999,-0.0045307999999994,0.0080204000000008,-0.0010227999999999,0,sub_18
0.0002805999999998,0.0085650000000012,0.0009721999999999,-0.0043325999999994,0.0050352000000008,-0.0005903999999999,0,sub_18
-0.0003242000000001,0.0080362000000012,0.0011113999999999,-0.0030685999999994,0.0016210000000008,-0.0003635999999999,0,sub_18
-0.0009520000000001,0.0078388000000012,0.0008569999999999,-0.0017971999999994,-0.0015989999999991,0.0005562,0,sub_18
-0.0006322000000001,0.0077370000000012,0.0001557999999999,-0.0009497999999994,-0.0037539999999991,0.001899,0,sub_18
-0.0002104000000002,0.0074314000000012,-0.0004384,-0.0013767999999994,-0.0048381999999991,0.003018,0,sub_18
0.0002363999999997,0.0079284000000012,-0.0014824,-0.0020143999999994,-0.0054947999999991,0.0039214,0,sub_18
-2.9800000000208674e-05,0.0086044000000012,-0.0023012,-0.0028673999999994,-0.0057279999999991,0.0056772,0,sub_18
-0.0003070000000002,0.0092190000000012,-0.0031596,-0.0032979999999994,-0.0050931999999991,0.007169,0,sub_18
-0.0001984000000002,0.0095984000000012,-0.0034502,-0.0028721999999994,-0.0040345999999991,0.0084524,0,sub_18
-0.0005198000000001,0.0092730000000012,-0.0033848,-0.0013871999999994,-0.0031741999999991,0.0102078,0,sub_18
-0.0006850000000001,0.0091410000000012,-0.002565,-0.0001117999999994,-0.0016729999999992,0.0117472,0,sub_18
-0.0015294000000001,0.0093330000000012,-0.0012154,0.0007484000000005,0.0023864000000007,0.0132806,0,sub_18
-0.0028710000000001,0.0089056000000012,0.0011305999999999,0.0011856000000005,0.0070872000000007,0.0145964,0,sub_18
-0.0050432000000001,0.0090044000000012,0.0030311999999999,0.0018390000000005,0.0120022000000007,0.0154862,0,sub_18
-0.0063158000000001,0.0095550000000012,0.0061679999999999,0.0035688000000004,0.0173218000000007,0.015705,0,sub_18
-0.0082898000000001,0.0090448000000012,0.0089637999999999,0.0059388000000004,0.0222146000000008,0.0155016,0,sub_18
-0.0097154000000001,0.0080658000000012,0.0110393999999999,0.0078802000000004,0.0247730000000008,0.0133754,0,sub_18
-0.0088772000000001,0.0064902000000012,0.0124903999999999,0.0085566000000004,0.0258368000000007,0.0095696,0,sub_18
-0.0067778000000002,0.0049190000000012,0.0125015999999999,0.0058258000000004,0.0262820000000007,0.0036046,0,sub_18
-0.0044676000000002,0.0031050000000012,0.0101443999999999,-0.0013943999999994,0.0239764000000008,-0.0032429999999999,0,sub_18
1.0199999999791278e-05,0.0026092000000012,0.0069545999999999,-0.0120313999999994,0.0210438000000008,-0.0101135999999999,0,sub_18
0.0048453999999997,0.0042524000000012,0.0033375999999999,-0.0216177999999994,0.0163952000000007,-0.0150519999999999,0,sub_18
0.0077195999999997,0.0068702000000012,-0.0012694,-0.0286761999999994,0.0110996000000008,-0.0165899999999999,0,sub_18
0.0100063999999997,0.0104446000000012,-0.0051414,-0.0310557999999994,0.0061982000000008,-0.0142503999999999,0,sub_18
0.0109501999999997,0.0128632000000012,-0.0083524,-0.0272601999999994,0.0014764000000008,-0.0088765999999999,0,sub_18
0.0103071999999997,0.0143904000000012,-0.0106356,-0.0181407999999994,-0.0041223999999991,-0.0019691999999999,0,sub_18
0.0088211999999997,0.0144988000000012,-0.0123504,-0.0077203999999994,-0.0095597999999991,0.0049736,0,sub_18
0.0067251999999997,0.0135830000000012,-0.012366,0.0022722000000005,-0.0160577999999991,0.0110602,0,sub_18
0.0039211999999997,0.0115356000000012,-0.011125,0.0103474000000005,-0.0233953999999991,0.0156388,0,sub_18
0.0013489999999997,0.0101440000000012,-0.0088344,0.0148136000000005,-0.0287941999999991,0.0180532,0,sub_18
-0.0020144000000002,0.0099590000000012,-0.0052014,0.0158764000000005,-0.0333227999999991,0.0189474,0,sub_18
-0.0050572000000002,0.0095428000000012,-0.0017242,0.0150200000000005,-0.0343833999999991,0.0185154,0,sub_18
-0.0076804000000001,0.0096512000000012,0.0016923999999999,0.0122760000000005,-0.0298909999999991,0.016354,0,sub_18
-0.0100082000000001,0.0085942000000012,0.0057539999999999,0.0086966000000005,-0.0217719999999991,0.013755,0,sub_18
-0.0116504000000001,0.0084386000000012,0.0091121999999999,0.0053450000000005,-0.0106701999999991,0.01094,0,sub_18
-0.0119286000000001,0.0065600000000012,0.0106899999999999,0.0022404000000005,0.0033668000000007,0.0081396,0,sub_18
-0.0104964000000001,0.0056740000000012,0.0116917999999999,-0.0006477999999994,0.0178300000000007,0.0051266,0,sub_18
-0.0080168000000002,0.0051802000000012,0.0120325999999999,-0.0026949999999994,0.0295206000000007,0.0021228,0,sub_18
-0.0043492000000002,0.0065904000000012,0.0103527999999999,-0.0036905999999994,0.0380108000000008,-0.0006557999999999,0,sub_18
-0.0011358000000002,0.0091900000000012,0.0080499999999999,-0.0042785999999994,0.0424506000000007,-0.0032125999999999,0,sub_18
0.0012817999999997,0.0125668000000012,0.0059689999999999,-0.0034115999999994,0.0433084000000008,-0.0053441999999999,0,sub_18
0.0026103999999997,0.0138928000000012,0.0042743999999999,-0.0012739999999994,0.0400800000000007,-0.0055447999999999,0,sub_18
0.0038959999999997,0.0142336000000012,0.0024951999999999,0.0019178000000005,0.0355634000000007,-0.0042407999999999,0,sub_18
0.0042007999999997,0.0132268000000012,0.0019107999999999,0.0051040000000005,0.0301930000000007,-0.0025085999999999,0,sub_18
0.0048051999999997,0.0109290000000012,0.0017999999999999,0.0080690000000005,0.0239678000000007,7.78000000000223e-05,0,sub_18
0.0059667999999997,0.0092104000000012,0.0022817999999999,0.0103844000000005,0.0156142000000008,0.0026626,0,sub_18
0.0063991999999997,0.0081454000000012,0.0031677999999999,0.0111946000000005,0.0072970000000008,0.0039608,0,sub_18
0.0052575999999997,0.0077652000000012,0.0033883999999999,0.0107210000000005,-0.0025043999999991,0.004611,0,sub_18
0.0039969999999997,0.0080016000000012,0.0037083999999999,0.0098300000000005,-0.0114469999999991,0.0039754,0,sub_18
0.0024675999999997,0.0093964000000012,0.0040929999999999,0.0085258000000004,-0.0180419999999991,0.0026928,0,sub_18
-0.0004268000000002,0.0089984000000012,0.0048141999999999,0.0078812000000004,-0.0212873999999991,0.0018124,0,sub_18
-0.0024068000000002,0.0087266000000012,0.0054667999999999,0.0089448000000004,-0.0236891999999991,0.001584,0,sub_18
-0.0030826000000002,0.0088348000000012,0.0066001999999999,0.0117258000000004,-0.0239655999999991,0.0011512,0,sub_18
-0.0041318000000002,0.0095972000000012,0.0066173999999999,0.0151468000000004,-0.0231831999999991,0.0017898,0,sub_18
-0.0048500000000002,0.0087550000000012,0.0069145999999999,0.0189984000000004,-0.0211255999999991,0.002857,0,sub_18
-0.0046868000000001,0.0085816000000012,0.0059611999999999,0.0228440000000004,-0.0192249999999991,0.0037362,0,sub_18
-0.0047394000000001,0.0102806000000012,0.0053977999999999,0.0273304000000004,-0.0177499999999991,0.0039792,0,sub_18
-0.0051832000000001,0.0121578000000012,0.0034407999999999,0.0329170000000004,-0.0167489999999991,0.0042218,0,sub_18
-0.0039722000000001,0.0119844000000012,0.0017301999999999,0.0382836000000004,-0.0161777999999991,0.0055314,0,sub_18
-0.0019988000000002,0.0101966000000012,-0.0003522,0.0421412000000004,-0.0181613999999991,0.0076886,0,sub_18
-0.0009104000000002,0.0083734000000012,-0.0009012,0.0432172000000004,-0.0222639999999991,0.0094016,0,sub_18
-0.0002546000000002,0.0048850000000012,-0.001629,0.0400250000000004,-0.0276257999999991,0.0100182,0,sub_18
-0.0004726000000002,0.0026280000000012,-0.0006666,0.0327520000000005,-0.0316483999999991,0.0099724,0,sub_18
-0.0016068000000002,0.0024682000000012,-4.760000000004147e-05,0.0242132000000005,-0.0333195999999991,0.0090604,0,sub_18
-0.0035614000000002,0.0045030000000012,0.0007609999999999,0.0171854000000005,-0.0324341999999991,0.0068736,0,sub_18
-0.0047558000000002,0.0061204000000012,0.0005443999999999,0.0125296000000005,-0.0272847999999991,0.0046632,0,sub_18
-0.0056402000000002,0.0081096000000012,0.0001157999999999,0.0102314000000005,-0.0181023999999991,0.0041734,0,sub_18
-0.0053526000000002,0.0084034000000012,-0.000399,0.0094202000000004,-0.0091433999999991,0.0049762,0,sub_18
-0.0049482000000002,0.0071888000000012,-0.0003406,0.0094586000000004,-0.0018881999999991,0.0049324,0,sub_18
-0.0045576000000002,0.0072236000000012,-0.0001888,0.0092826000000004,0.0043056000000008,0.004034,0,sub_18
-0.0047582000000002,0.0084574000000012,0.0003583999999999,0.0093046000000004,0.0079326000000008,0.0027478,0,sub_18
-0.0045550000000001,0.0084376000000012,0.0003083999999999,0.0095342000000004,0.0098562000000008,0.0010378,0,sub_18
-0.0038218000000001,0.0085410000000012,0.0002089999999999,0.0097706000000005,0.0128468000000008,-0.0011007999999999,0,sub_18
