userAcceleration.x,userAcceleration.y,userAcceleration.z,rotationRate.x,rotationRate.y,rotationRate.z,label,subject
-0.0244060000000002,0.0019256000000012,0.0120539999999999,0.0102834000000006,-0.0299341999999992,-0.0019745999999999,0,sub_21
-0.0241598000000002,0.0025994000000012,0.0125699999999999,0.0097870000000006,-0.0271297999999992,-0.0017713999999999,0,sub_21
-0.0240618000000002,0.0028572000000012,0.0127553999999999,0.0105624000000006,-0.0262473999999992,-0.0015567999999999,0,sub_21
-0.0241014000000002,0.0033294000000012,0.0124613999999999,0.0121874000000006,-0.0264323999999992,-0.0015485999999999,0,sub_21
-0.0236822000000002,0.0031994000000012,0.0124347999999999,0.0129502000000006,-0.0281073999999992,-0.0011173999999999,0,sub_21
-0.0234808000000002,0.0026540000000012,0.0137669999999999,0.0111670000000006,-0.0261531999999992,-0.0002811999999999,0,sub_21
-0.0239640000000002,0.0021352000000012,0.0153487999999999,0.0073456000000006,-0.0225151999999992,-0.0009535999999999,0,sub_21
-0.0241592000000002,0.0024306000000012,0.0159437999999999,0.0028838000000006,-0.0197237999999992,-0.0024839999999999,0,sub_21
-0.0238444000000002,0.0025670000000012,0.0159639999999999,-0.0001903999999993,-0.0175125999999992,-0.0031427999999999,0,sub_21
-0.0234788000000002,0.0030726000000012,0.0174699999999999,-0.0004953999999993,-0.0163761999999992,-0.0037807999999999,0,sub_21
-0.0240782000000002,0.0032334000000012,0.0158945999999999,0.0011266000000006,-0.0137551999999992,-0.0044071999999999,0,sub_21
-0.0243338000000002,0.0032348000000012,0.0142665999999999,0.0033858000000006,-0.0115633999999992,-0.0048147999999999,0,sub_21
-0.0234226000000002,0.0014278000000012,0.0141935999999999,0.0043716000000006,-0.0076635999999993,-0.0050199999999999,0,sub_21
-0.0239414000000002,0.0014650000000012,0.0135999999999999,0.0022638000000006,-0.0019035999999993,-0.0050419999999999,0,sub_21
-0.0243550000000002,0.0014260000000012,0.0107953999999999,-0.0028639999999993,-0.0023161999999993,-0.0040089999999999,0,sub_21
-0.0245712000000002,0.0022076000000012,0.0106589999999999,-0.0064883999999993,-0.0012399999999992,-0.0036083999999999,0,sub_21
-0.0251964000000002,0.0033226000000012,0.0094839999999999,-0.0061843999999993,4.340000000072966e-05,-0.0033901999999999,0,sub_21
-0.0251324000000002,0.0044646000000012,0.0075095999999999,-0.0043857999999993,0.0013224000000007,-0.0033749999999999,0,sub_21
-0.0232396000000002,0.0036468000000012,0.0073827999999999,-0.0036433999999993,0.0053732000000007,-0.0029435999999999,0,sub_21
-0.0220028000000002,0.0029600000000012,0.0082635999999999,-0.0048087999999993,0.0126248000000007,-0.0021023999999999,0,sub_21
-0.0215796000000002,0.0033054000000012,0.0079571999999999,-0.0070919999999993,0.0102860000000007,0.0004524,0,sub_21
-0.0223196000000002,0.0032688000000012,0.0086083999999999,-0.0101059999999993,0.0068774000000007,0.0029993999999999,0,sub_21
-0.0241820000000001,0.0037156000000012,0.0089569999999999,-0.0114053999999993,0.0041062000000007,0.0044891999999999,0,sub_21
-0.0251532000000002,0.0042558000000012,0.0098247999999999,-0.0124809999999993,0.0028290000000007,0.0051241999999999,0,sub_21
-0.0252286000000002,0.0038284000000012,0.0115309999999999,-0.0123965999999993,0.0019820000000007,0.0051333999999999,0,sub_21
-0.0250386000000002,0.0031660000000012,0.0137043999999999,-0.0125083999999993,0.0049706000000007,0.0051363999999999,0,sub_21
-0.0251842000000002,0.0030276000000012,0.0138369999999999,-0.0122009999999993,0.0066778000000007,0.0055712,0,sub_21
-0.0246296000000002,0.0026274000000012,0.0145895999999999,-0.0121097999999993,0.0077466000000007,0.0060054,0,sub_21
-0.0244378000000002,0.0021332000000012,0.0170035999999999,-0.0118119999999993,0.0071110000000007,0.0062296,0,sub_21
-0.0253012000000002,0.0017184000000012,0.0183907999999998,-0.0128875999999993,0.0047728000000007,0.0057978,0,sub_21
-0.0250942000000002,0.0021954000000012,0.0190383999999999,-0.0131115999999993,0.0013690000000007,0.0047324,0,sub_21
-0.0246816000000002,0.0028468000000012,0.0188799999999999,-0.0111949999999993,-0.0003387999999992,0.0038934,0,sub_21
-0.0250852000000002,0.0033892000000012,0.0190825999999999,-0.0081005999999993,-0.0011399999999992,0.0030722,0,sub_21
-0.0245824000000002,0.0034392000000012,0.0181237999999999,-0.0048031999999993,-0.0044977999999992,0.0020419999999999,0,sub_21
-0.0243470000000002,0.0038232000000012,0.0184165999999999,-0.0014961999999993,-0.0048761999999992,0.0018627999999999,0,sub_21
-0.0244808000000002,0.0040946000000012,0.0185629999999999,0.0005296000000006,-0.0054631999999992,0.0016747999999999,0,sub_21
-0.0245840000000002,0.0034028000000012,0.0199211999999999,0.0004090000000006,-0.0090245999999992,0.0012619999999999,0,sub_21
-0.0242602000000002,0.0030886000000012,0.0194051999999999,-0.0015189999999993,-0.0109345999999992,0.0010373999999999,0,sub_21
-0.0255304000000002,0.0038748000000012,0.0172349999999999,0.0006004000000006,-0.0143499999999992,0.0008429999999999,0,sub_21
-0.0256450000000002,0.0049340000000012,0.0150087999999999,0.0054916000000006,-0.0177767999999992,0.0010951999999999,0,sub_21
-0.0264458000000001,0.0043640000000012,0.0136193999999999,0.0112278000000006,-0.0235485999999992,0.0009289999999999,0,sub_21
-0.0265808000000002,0.0035008000000012,0.0138521999999999,0.0162526000000006,-0.0270987999999992,0.0001262,0,sub_21
-0.0256662000000002,0.0037480000000012,0.0141923999999999,0.0225518000000006,-0.0325683999999992,-0.0013061999999999,0,sub_21
-0.0251202000000002,0.0034422000000012,0.0153531999999999,0.0239568000000006,-0.0339771999999992,-0.0017097999999999,0,sub_21
-0.0251310000000002,0.0027948000000012,0.0159193999999999,0.0213174000000006,-0.0330289999999992,-0.0019309999999999,0,sub_21
-0.0259622000000002,0.0027710000000012,0.0158471999999999,0.0165518000000006,-0.0303687999999992,-0.0021691999999999,0,sub_21
-0.0249952000000002,0.0033244000000012,0.0145247999999999,0.0133694000000006,-0.0263095999999992,-0.0021967999999999,0,sub_21
-0.0250420000000002,0.0029438000000012,0.0129003999999999,0.0095354000000006,-0.0228949999999992,-0.0003051999999999,0,sub_21
-0.0240608000000002,0.0034346000000012,0.0111829999999999,0.0069280000000006,-0.0202739999999992,0.0016126,0,sub_21
-0.0234830000000002,0.0047244000000012,0.0083111999999999,0.0068754000000006,-0.0193647999999992,0.0031232,0,sub_21
-0.0215680000000002,0.0051558000000012,0.0094107999999999,0.0068296000000006,-0.0167521999999992,0.0048452,0,sub_21
-0.0218446000000002,0.0049412000000012,0.0116573999999999,0.0025104000000006,-0.0147661999999992,0.0071792,0,sub_21
-0.0219316000000002,0.0034696000000012,0.0158521999999999,-0.0015953999999993,-0.0132053999999991,0.0090878,0,sub_21
-0.0230828000000002,0.0009608000000012,0.0206821999999999,0.0001280000000006,-0.0091651999999991,0.0095218,0,sub_21
-0.0239146000000002,-0.0022319999999987,0.0283351999999999,0.0057064000000006,-0.0051253999999992,0.0067782,0,sub_21
-0.0240528000000002,-0.0033619999999987,0.0308335999999999,0.0117018000000006,-0.0053395999999992,0.0019066,0,sub_21
-0.0233934000000002,-0.0039869999999986,0.0319789999999999,0.0159776000000006,-0.0074319999999992,-0.0040371999999999,0,sub_21
-0.0232216000000002,-0.0031507999999986,0.0310109999999999,0.0159802000000006,-0.0116363999999992,-0.0108627999999999,0,sub_21
-0.0217058000000002,-0.0002711999999986,0.0253509999999999,0.0116846000000006,-0.0230679999999992,-0.0181363999999999,0,sub_21
-0.0209866000000002,0.0016058000000013,0.0150137999999999,0.0062990000000006,-0.0355775999999992,-0.0213571999999999,0,sub_21
-0.0210046000000002,0.0025778000000013,0.0070601999999999,0.0030800000000006,-0.0372433999999992,-0.0209447999999999,0,sub_21
-0.0206138000000002,0.0045886000000012,-7.800000000005234e-05,0.0020046000000006,-0.0374595999999992,-0.0192429999999999,0,sub_21
-0.0204430000000002,0.0060906000000012,-0.006202,0.0037184000000006,-0.0323667999999992,-0.0156055999999999,0,sub_21
-0.0211072000000002,0.0060714000000012,-0.0082682,0.0067210000000006,-0.0228145999999992,-0.0094011999999999,0,sub_21
-0.0206014000000002,0.0063988000000012,-0.0050942,0.0065394000000006,-0.0142983999999992,-0.0040788,0,sub_21
-0.0204220000000002,0.0066808000000012,-0.002168,0.0031388000000006,-0.0098189999999992,0.0012263999999999,0,sub_21
-0.0216678000000002,0.0052472000000012,0.0007963999999999,-0.0006951999999993,-0.0072537999999992,0.0061035999999999,0,sub_21
-0.0209236000000002,0.0036658000000012,0.0070483999999999,-0.0066763999999993,-0.0083005999999992,0.0103295999999999,0,sub_21
-0.0221088000000002,0.0028272000000012,0.0113019999999998,-0.0120107999999993,-0.0101923999999992,0.0122109999999999,0,sub_21
-0.0233942000000002,0.0028894000000012,0.0132971999999999,-0.0137243999999993,-0.0110411999999992,0.0128411999999999,0,sub_21
-0.0240794000000002,0.0029100000000012,0.0156531999999999,-0.0135071999999993,-0.0110385999999992,0.0119879999999999,0,sub_21
-0.0233924000000002,0.0028278000000012,0.0192377999999999,-0.0115781999999993,-0.0101889999999992,0.0109321999999999,0,sub_21
-0.0247218000000002,0.0023974000000013,0.0208119999999999,-0.0085735999999993,-0.0080195999999992,0.0094493999999999,0,sub_21
-0.0255472000000002,0.0022922000000013,0.0212919999999999,-0.0064187999999993,-0.0047829999999992,0.008173,0,sub_21
-0.0258496000000002,0.0017690000000013,0.0225085999999999,-0.0070235999999993,0.0012348000000007,0.0064462,0,sub_21
-0.0255402000000002,0.0008392000000013,0.0245491999999999,-0.0087131999999993,0.0038450000000007,0.0053573999999999,0,sub_21
-0.0265244000000002,0.0014876000000013,0.0250161999999999,-0.0089043999999993,0.0083640000000007,0.0051311999999999,0,sub_21
-0.0273028000000002,0.0026664000000012,0.0221811999999999,-0.0054673999999993,0.0124042000000007,0.0040817999999999,0,sub_21
-0.0262520000000002,0.0034002000000012,0.0206893999999999,-0.0026655999999993,0.0166632000000007,0.0021729999999999,0,sub_21
-0.0242730000000002,0.0029044000000012,0.0191041999999999,0.0001218000000006,0.0187874000000007,0.0013351999999999,0,sub_21
-0.0229552000000002,0.0027450000000012,0.0174591999999999,0.0020282000000006,0.0207830000000007,0.0007012,0,sub_21
-0.0222306000000002,0.0026384000000012,0.0141733999999999,0.0024170000000006,0.0174576000000007,6.340000000000494e-05,0,sub_21
-0.0215342000000002,0.0030378000000012,0.0118027999999999,0.0032212000000006,0.0117862000000007,-0.0003547999999999,0,sub_21
-0.0217726000000002,0.0028008000000012,0.0112131999999999,0.0046712000000006,0.0084520000000007,0.0002968,0,sub_21
-0.0222032000000002,0.0032980000000012,0.0096243999999999,0.0033426000000006,0.0034256000000007,0.0002902,0,sub_21
-0.0214486000000002,0.0044470000000012,0.0068881999999999,0.0013984000000006,-0.0014695999999992,0.0007102,0,sub_21
-0.0195654000000002,0.0050138000000012,0.0050189999999999,0.0009516000000006,-0.0053055999999992,0.0013529999999999,0,sub_21
-0.0179260000000002,0.0050334000000012,0.0059875999999999,-0.0009879999999993,-0.0082867999999992,0.0026251999999999,0,sub_21
-0.0180254000000002,0.0043750000000012,0.0060043999999999,-0.0040193999999993,-0.0163791999999992,0.0043235999999999,0,sub_21
-0.0192628000000002,0.0044256000000012,0.0068447999999999,-0.0040837999999993,-0.0214145999999992,0.0064633999999999,0,sub_21
-0.0219384000000002,0.0037158000000012,0.0097015999999999,-0.0034839999999993,-0.0221867999999992,0.0075339999999999,0,sub_21
-0.0237902000000002,0.0033382000000012,0.0137327999999999,-0.0047795999999993,-0.0186861999999992,0.0073039999999999,0,sub_21
-0.0246802000000002,0.0025160000000012,0.0166767999999999,-0.0075621999999993,-0.0147497999999992,0.0059947999999999,0,sub_21
-0.0253800000000002,0.0030508000000012,0.0182169999999999,-0.0084155999999993,-0.0084783999999992,0.0051233999999999,0,sub_21
-0.0258432000000002,0.0032032000000012,0.0177503999999999,-0.0060501999999993,-0.0061361999999992,0.0034275999999999,0,sub_21
-0.0250048000000002,0.0025292000000012,0.0187235999999999,-0.0019875999999993,-0.0065669999999992,0.0011063999999999,0,sub_21
-0.0247978000000002,0.0017222000000012,0.0180963999999999,0.0024578000000006,-0.0090237999999992,-0.0005495999999999,0,sub_21
-0.0257064000000002,0.0024242000000012,0.0170541999999999,0.0069140000000005,-0.0078639999999992,-0.0009283999999999,0,sub_21
-0.0262288000000002,0.0025986000000012,0.0169927999999999,0.0100724000000005,-0.0113833999999992,-0.0021647999999999,0,sub_21
-0.0267400000000002,0.0030808000000012,0.0181837999999999,0.0108972000000005,-0.0119115999999992,-0.0034211999999999,0,sub_21
-0.0265162000000002,0.0040520000000012,0.0164041999999999,0.0117174000000005,-0.0132931999999992,-0.0044629999999999,0,sub_21
-0.0267796000000002,0.0042376000000012,0.0152661999999999,0.0125806000000006,-0.0120143999999992,-0.0053131999999999,0,sub_21
-0.0267944000000002,0.0034138000000012,0.0131645999999999,0.0130102000000006,-0.0128619999999992,-0.0068045999999999,0,sub_21
-0.0250384000000002,0.0028188000000012,0.0122469999999999,0.0125940000000006,-0.0113655999999992,-0.0076639999999999,0,sub_21
-0.0231232000000002,0.0024148000000012,0.0116333999999999,0.0108766000000006,-0.0134911999999992,-0.0074595999999999,0,sub_21
-0.0234596000000002,0.0027240000000012,0.0108613999999999,0.0093730000000006,-0.0140413999999992,-0.0059813999999999,0,sub_21
-0.0240610000000002,0.0035074000000012,0.0100791999999999,0.0100078000000006,-0.0139581999999992,-0.0049163999999999,0,sub_21
-0.0241054000000002,0.0034008000000012,0.0098969999999999,0.0121344000000006,-0.0149429999999992,-0.0044805999999999,0,sub_21
-0.0234876000000002,0.0034766000000012,0.0120043999999999,0.0123464000000006,-0.0142183999999992,-0.0036329999999999,0,sub_21
-0.0242304000000002,0.0033980000000012,0.0134601999999999,0.0119278000000006,-0.0111485999999992,-0.0025791999999999,0,sub_21
-0.0242396000000002,0.0030682000000012,0.0126199999999999,0.0130052000000006,-0.0092329999999992,-0.0030013999999999,0,sub_21
-0.0228554000000002,0.0030674000000012,0.0125063999999999,0.0136472000000006,-0.0094457999999992,-0.0036375999999999,0,sub_21
-0.0228224000000002,0.0036160000000012,0.0127073999999999,0.0142886000000006,-0.0100551999999992,-0.0030035999999999,0,sub_21
-0.0234126000000002,0.0038660000000012,0.0110183999999999,0.0142958000000006,-0.0095961999999992,-0.0025891999999999,0,sub_21
-0.0235040000000002,0.0038802000000012,0.0107873999999999,0.0138800000000006,-0.0084957999999992,-0.0023921999999999,0,sub_21
-0.0233896000000002,0.0033268000000012,0.0123199999999999,0.0113304000000006,-0.0073879999999992,-0.0022099999999999,0,sub_21
-0.0242194000000002,0.0037808000000012,0.0137827999999999,0.0087770000000005,-0.0071323999999992,-0.0020267999999999,0,sub_21
-0.0237124000000002,0.0039116000000012,0.0144205999999999,0.0066460000000005,-0.0071223999999992,-0.0026825999999999,0,sub_21
-0.0243846000000002,0.0038096000000012,0.0146849999999999,0.0057992000000005,-0.0058401999999992,-0.0029037999999999,0,sub_21
-0.0243532000000002,0.0038568000000012,0.0142413999999999,0.0058048000000005,-0.0049861999999992,-0.0033321999999999,0,sub_21
-0.0250862000000002,0.0040374000000012,0.0141739999999999,0.0047474000000006,-0.0026397999999992,-0.0031289999999999,0,sub_21
-0.0246002000000002,0.0030930000000012,0.0137295999999999,0.0026322000000006,0.0008078000000007,-0.0029493999999999,0,sub_21
-0.0242594000000002,0.0031984000000012,0.0132701999999999,-0.0003383999999993,0.0036202000000007,-0.0029885999999999,0,sub_21
-0.0232600000000002,0.0039784000000012,0.0118749999999999,-0.0022441999999993,0.0057904000000007,-0.0032329999999999,0,sub_21
-0.0221954000000002,0.0050038000000012,0.0107073999999999,-0.0018065999999993,0.0077368000000007,-0.0028199999999999,0,sub_21
-0.0213288000000002,0.0054138000000012,0.0101379999999999,0.0007504000000006,0.0069044000000007,-0.0019613999999999,0,sub_21
-0.0213570000000002,0.0047310000000013,0.0102233999999999,0.0026516000000006,0.0030612000000007,-0.001516,0,sub_21
-0.0211530000000002,0.0035648000000013,0.0112263999999999,0.0030784000000006,0.0043328000000007,-0.0002328,0,sub_21
-0.0215806000000002,0.0025976000000013,0.0124049999999999,0.0030822000000006,0.0053972000000007,-2.0600000000015093e-05,0,sub_21
-0.0220060000000002,0.0020338000000012,0.0121121999999999,0.0020272000000006,0.0060882000000007,-0.0006855999999999,0,sub_21
-0.0225524000000002,0.0022636000000012,0.0121815999999999,0.0009798000000006,0.0080594000000007,-0.0017793999999999,0,sub_21
-0.0224898000000002,0.0032776000000012,0.0118281999999999,0.0005582000000006,0.0078934000000007,-0.0017977999999999,0,sub_21
-0.0232868000000002,0.0037394000000012,0.0117421999999999,0.0003518000000006,0.0083650000000007,-0.0016019999999999,0,sub_21
-0.0240762000000002,0.0033266000000012,0.0108153999999999,0.0005656000000006,0.0073438000000007,-0.0014013999999999,0,sub_21
-0.0238060000000002,0.0030390000000012,0.0113087999999999,0.0001398000000006,0.0075584000000007,-0.0014045999999999,0,sub_21
-0.0231342000000002,0.0032956000000012,0.0102933999999999,-7.639999999935762e-05,0.0069200000000007,-0.0014053999999999,0,sub_21
-0.0226064000000002,0.0032272000000012,0.0100387999999999,-0.0009175999999993,0.0101170000000007,-0.0009881999999999,0,sub_21
-0.0224228000000002,0.0029990000000012,0.0093257999999999,-0.0013673999999993,0.0093238000000007,-0.0012035999999999,0,sub_21
-0.0223428000000002,0.0029690000000012,0.0114739999999999,-0.0031023999999993,0.0078942000000007,-0.0009997999999999,0,sub_21
-0.0226318000000002,0.0029708000000012,0.0109115999999999,-0.0039827999999993,0.0066748000000007,-0.0007903999999999,0,sub_21
-0.0230174000000002,0.0030020000000012,0.0109289999999999,-0.0037895999999993,0.0069430000000007,-0.0005753999999999,0,sub_21
-0.0234232000000002,0.0030148000000012,0.0106553999999999,-0.0027505999999993,0.0052916000000007,-0.0005655999999999,0,sub_21
-0.0232146000000002,0.0031100000000012,0.0119413999999999,-0.0025525999999993,0.0018822000000007,-0.0005599999999999,0,sub_21
-0.0230596000000002,0.0030218000000012,0.0119033999999999,-0.0014913999999993,0.0008124000000007,-0.0003375999999999,0,sub_21
-0.0244074000000002,0.0027476000000012,0.0135121999999999,1.200000000622925e-06,0.0003818000000007,-0.0005401999999999,0,sub_21
-0.0250958000000002,0.0024108000000012,0.0132599999999999,0.0010264000000006,-0.0001999999999992,-0.0009515999999999,0,sub_21
-0.0247500000000002,0.0025428000000012,0.0133459999999999,0.0007696000000006,-0.0012031999999992,-0.0013715999999999,0,sub_21
-0.0255162000000002,0.0032048000000012,0.0131685999999999,0.0007358000000006,0.0009842000000007,-0.0007257999999999,0,sub_21
-0.0264478000000002,0.0038148000000012,0.0125785999999999,0.0013286000000006,-0.0008743999999992,-0.0011387999999999,0,sub_21
-0.0256412000000002,0.0038688000000012,0.0120113999999999,0.0017110000000006,-0.0018807999999992,-0.0013405999999999,0,sub_21
-0.0248492000000002,0.0039362000000012,0.0122007999999999,0.0010700000000006,-0.0012427999999992,-0.0004913999999999,0,sub_21
-0.0254928000000002,0.0039212000000012,0.0129103999999999,0.0006472000000006,3.5200000000769684e-05,-6.859999999999512e-05,0,sub_21
-0.0258564000000002,0.0035228000000012,0.0131953999999999,0.0004242000000006,-0.0027311999999992,-0.0007076,0,sub_21
-0.0248154000000002,0.0033882000000012,0.0126839999999999,-0.0004655999999993,-0.0016149999999992,-0.0007032,0,sub_21
-0.0252268000000002,0.0032620000000012,0.0117555999999999,-0.0017811999999993,-0.0002841999999992,-0.0007022,0,sub_21
-0.0243286000000002,0.0028930000000012,0.0109669999999999,-0.0024681999999993,-0.0019367999999992,-0.0011202,0,sub_21
-0.0233642000000002,0.0027824000000012,0.0101467999999999,-0.0029379999999993,-0.0014645999999992,-0.0002576,0,sub_21
-0.0225052000000002,0.0030280000000012,0.0087155999999999,-0.0021207999999993,7.000000000072955e-05,0.0001854,0,sub_21
-0.0221084000000002,0.0031372000000012,0.0069035999999999,-0.0018949999999993,0.0032634000000007,0.0006102,0,sub_21
-0.0215464000000002,0.0031286000000012,0.0066859999999999,-0.0025341999999993,0.0039030000000007,0.0010322,0,sub_21
-0.0210460000000002,0.0036174000000012,0.0075687999999999,-0.0034209999999993,0.0043482000000007,0.0018922,0,sub_21
-0.0214226000000002,0.0037346000000012,0.0086757999999999,-0.0051613999999993,0.0039474000000007,0.0018928,0,sub_21
-0.0218158000000002,0.0034472000000012,0.0094579999999999,-0.0066825999999993,0.0046120000000007,0.00168,0,sub_21
-0.0214002000000002,0.0034980000000012,0.0115785999999999,-0.0073483999999993,0.0054876000000007,0.0012592,0,sub_21
-0.0203932000000002,0.0045496000000012,0.0124339999999999,-0.0069501999999993,0.0063568000000007,0.0014866,0,sub_21
-0.0220648000000002,0.0046450000000012,0.0133371999999999,-0.0063129999999993,0.0055032000000007,0.0012786,0,sub_21
-0.0230248000000002,0.0037942000000012,0.0135153999999999,-0.0063051999999993,0.0063588000000007,0.0004228,0,sub_21
-0.0217198000000002,0.0035478000000012,0.0140313999999999,-0.0077939999999993,0.0067928000000007,-0.0002291999999999,0,sub_21
-0.0220566000000002,0.0039872000000012,0.0134807999999999,-0.0084639999999993,0.0046604000000007,-6.999999999974822e-06,0,sub_21
-0.0226110000000002,0.0035956000000012,0.0129483999999999,-0.0084947999999993,0.0023128000000007,0.0002202,0,sub_21
-0.0222376000000002,0.0033902000000012,0.0124127999999999,-0.0080769999999993,0.0048638000000007,0.000444,0,sub_21
-0.0222182000000002,0.0037716000000012,0.0109647999999999,-0.0059549999999993,0.0063454000000007,0.000254,0,sub_21
-0.0229600000000002,0.0043668000000012,0.0101031999999999,-0.0025507999999993,0.0084606000000007,0.0002858,0,sub_21
-0.0222604000000002,0.0040702000000012,0.0106915999999999,-0.0014819999999993,0.0090950000000007,0.0005062,0,sub_21
-0.0219474000000002,0.0040868000000012,0.0103959999999999,-0.0014771999999993,0.0103724000000007,0.0007182,0,sub_21
-0.0227638000000002,0.0040602000000012,0.0107327999999999,-0.0016943999999993,0.0093086000000007,0.0005044,0,sub_21
-0.0224808000000002,0.0042478000000012,0.0118477999999999,-0.0021429999999993,0.0065280000000007,0.000514,0,sub_21
-0.0226294000000002,0.0042138000000012,0.0125325999999999,-0.0042967999999993,0.0052406000000007,0.001578,0,sub_21
-0.0241172000000002,0.0041444000000012,0.0116221999999999,-0.0040955999999993,0.0048008000000007,0.0018028,0,sub_21
-0.0248966000000002,0.0036424000000012,0.0127535999999999,-0.0038839999999993,0.0060678000000007,0.0013846,0,sub_21
-0.0239832000000002,0.0033002000000012,0.0122699999999999,-0.0038961999999993,0.0043554000000007,0.0003278,0,sub_21
-0.0233766000000002,0.0028790000000012,0.0117319999999999,-0.0038961999999993,0.0045676000000007,0.0005412,0,sub_21
-0.0238322000000002,0.0026922000000012,0.0119581999999999,-0.0036913999999993,0.0026494000000007,0.000545,0,sub_21
-0.0236668000000002,0.0026400000000012,0.0122841999999999,-0.0028533999999993,-0.0009745999999992,0.0003418,0,sub_21
-0.0240354000000002,0.0023266000000012,0.0118019999999999,-0.0026613999999993,-0.0041789999999992,0.0005681999999999,0,sub_21
-0.0240370000000002,0.0027890000000012,0.0122745999999999,-0.0020359999999993,-0.0054689999999992,0.0012223999999999,0,sub_21
-0.0250148000000002,0.0035444000000012,0.0123567999999999,-0.0009741999999993,-0.0048421999999992,0.0016636,0,sub_21
-0.0256492000000002,0.0035320000000012,0.0130335999999999,0.0011612000000006,-0.0037887999999992,0.0010436,0,sub_21
-0.0258692000000002,0.0034800000000012,0.0128557999999999,0.0007420000000006,-0.0014481999999992,0.000404,0,sub_21
-0.0255270000000002,0.0032384000000012,0.0126513999999999,-0.0003315999999993,-0.0027235999999992,0.0006118,0,sub_21
-0.0250432000000002,0.0026158000000012,0.0117399999999999,-0.0022461999999993,-0.0005897999999992,0.0014502,0,sub_21
-0.0244716000000002,0.0027454000000012,0.0115547999999999,-0.0031073999999993,-0.0018667999999992,0.0018732,0,sub_21
-0.0239416000000002,0.0035178000000012,0.0104717999999999,-0.0020515999999993,-0.0048641999999992,0.002102,0,sub_21
-0.0244770000000002,0.0033734000000012,0.0100483999999999,-0.0005527999999993,-0.0040289999999992,0.0025426,0,sub_21
-0.0253068000000002,0.0039112000000012,0.0101485999999999,0.0020236000000006,-0.0014903999999992,0.0023476,0,sub_21
-0.0266126000000002,0.0038684000000012,0.0107849999999999,0.0030940000000006,-0.0023529999999992,0.0015056,0,sub_21
-0.0264770000000002,0.0034922000000012,0.0109263999999999,0.0041556000000006,-0.0057697999999992,2.5600000000005396e-05,0,sub_21
-0.0250398000000002,0.0029512000000012,0.0109803999999999,0.0041566000000006,-0.0059811999999992,-0.0004013999999999,0,sub_21
-0.0244546000000002,0.0036290000000012,0.0107159999999999,0.0060636000000006,-0.0081219999999992,0.0004692,0,sub_21
-0.0240694000000002,0.0036786000000012,0.0110287999999999,0.0071074000000006,-0.0136633999999992,5.620000000000529e-05,0,sub_21
