userAcceleration.x,userAcceleration.y,userAcceleration.z,rotationRate.x,rotationRate.y,rotationRate.z,label,subject
-0.0533512000000002,0.0188172000000012,0.0326831999999999,0.1873024000000004,-0.0698475999999992,-0.0306404,0,sub_16
-0.0591806000000002,-0.0044465999999987,0.0382335999999999,0.2069326000000004,-0.0652477999999992,-0.025809,0,sub_16
-0.0563904000000002,-0.0179645999999986,0.0342355999999999,0.2090366000000005,-0.0542473999999992,-0.0080758,0,sub_16
-0.0441666000000002,-0.0154185999999986,0.0338845999999999,0.1885500000000005,-0.0327459999999992,0.0139725999999999,0,sub_16
-0.0316948000000002,-0.0156291999999986,0.0347567999999999,0.1544172000000005,-0.0156445999999992,0.0293081999999999,0,sub_16
-0.0222262000000002,-0.0171659999999986,0.0420083999999999,0.1030194000000005,-0.0105619999999992,0.0283017999999999,0,sub_16
-0.0176684000000002,-0.0232601999999986,0.0540745999999999,0.0253988000000005,-0.0161903999999992,0.0113161999999999,0,sub_16
-0.0158154000000002,-0.0329971999999987,0.0699015999999999,-0.0756207999999994,-0.0182775999999992,-0.0184424,0,sub_16
-0.0162252000000002,-0.0349099999999987,0.0779611999999999,-0.1861779999999994,-0.0126349999999992,-0.0549006,0,sub_16
-0.0214366000000002,-0.0230731999999987,0.0780377999999999,-0.2896411999999994,0.0025790000000007,-0.0934578,0,sub_16
-0.0287260000000002,-0.0090983999999987,0.0726259999999999,-0.3632619999999994,0.0146912000000007,-0.1281708,0,sub_16
-0.0323052000000002,0.0086374000000012,0.0614297999999999,-0.3919195999999994,0.0198036000000007,-0.1563648,0,sub_16
-0.0333162000000002,0.0288544000000012,0.0513815999999999,-0.3690187999999994,0.0187250000000007,-0.1728678,0,sub_16
-0.0333666000000002,0.0423980000000012,0.0401233999999999,-0.3037249999999994,0.0140422000000007,-0.1773194,0,sub_16
-0.0282650000000002,0.0478130000000012,0.0349471999999999,-0.2103215999999995,0.0085750000000007,-0.1698233999999999,0,sub_16
-0.0173040000000002,0.0538608000000012,0.0334703999999999,-0.1037455999999994,-0.0014781999999992,-0.1502705999999999,0,sub_16
-0.0059238000000002,0.0633490000000013,0.0352077999999999,-0.0004737999999994,-0.0245565999999992,-0.1206827999999999,0,sub_16
0.0031627999999997,0.0706146000000012,0.0395879999999999,0.0815898000000005,-0.0610047999999992,-0.0858849999999999,0,sub_16
0.0099827999999997,0.0733838000000012,0.0455981999999999,0.1307882000000005,-0.0973431999999992,-0.0500349999999999,0,sub_16
0.0130627999999997,0.0750298000000012,0.0489755999999999,0.1452568000000005,-0.1265131999999992,-0.0184959999999999,0,sub_16
0.0095573999999997,0.0724402000000012,0.0499143999999999,0.1350116000000005,-0.1534081999999992,0.0028314,0,sub_16
0.0034801999999997,0.0626616000000012,0.0502791999999999,0.1122406000000005,-0.1751099999999992,0.0150913999999999,0,sub_16
-0.0030070000000002,0.0500794000000012,0.0485207999999999,0.0903902000000005,-0.1918743999999992,0.0173103999999999,0,sub_16
-0.0131760000000002,0.0349526000000012,0.0450255999999999,0.0781648000000005,-0.2116227999999992,0.0114818,0,sub_16
-0.0224734000000002,0.0173702000000012,0.0476113999999999,0.0684970000000005,-0.2292607999999992,0.008446,0,sub_16
-0.0293458000000002,0.0046950000000013,0.0561183999999999,0.0462430000000005,-0.2373029999999992,0.0142829999999999,0,sub_16
-0.0339972000000002,-0.0017095999999986,0.0664635999999999,0.0050392000000005,-0.2293279999999992,0.0270173999999999,0,sub_16
-0.0388964000000001,-0.0034099999999986,0.0747121999999999,-0.0491073999999994,-0.2025691999999992,0.0422009999999999,0,sub_16
-0.0424764000000001,0.0017706000000013,0.0799859999999999,-0.1053341999999994,-0.1651451999999992,0.0560745999999999,0,sub_16
-0.0453550000000001,0.0139394000000013,0.0795751999999999,-0.1472507999999994,-0.1339119999999992,0.0606555999999999,0,sub_16
-0.0458674000000002,0.0286970000000012,0.0743103999999999,-0.1614249999999994,-0.1125337999999992,0.0547607999999999,0,sub_16
-0.0453632000000002,0.0416184000000012,0.0687243999999999,-0.1504183999999994,-0.0965459999999992,0.0430665999999999,0,sub_16
-0.0425794000000002,0.0525506000000012,0.0659119999999999,-0.1221277999999994,-0.0812543999999992,0.0306395999999999,0,sub_16
-0.0371416000000002,0.0590354000000012,0.0654541999999999,-0.0859345999999994,-0.0613149999999992,0.0212528,0,sub_16
-0.0319856000000002,0.0598772000000012,0.0657109999999999,-0.0531561999999994,-0.0392427999999992,0.0141896,0,sub_16
-0.0287530000000001,0.0576740000000012,0.0661149999999999,-0.0287233999999994,-0.0207699999999992,0.0087818,0,sub_16
-0.0266752000000001,0.0552078000000012,0.0659341999999999,-0.0094709999999994,-0.0146397999999992,0.0042084,0,sub_16
-0.0252586000000001,0.0509796000000012,0.0631959999999999,0.0082198000000005,-0.0234189999999992,-0.0001433999999999,0,sub_16
-0.0250128000000002,0.0471996000000012,0.0601519999999999,0.0237432000000005,-0.0404963999999992,-0.0053541999999999,0,sub_16
-0.0249692000000002,0.0432524000000012,0.0574937999999999,0.0369464000000005,-0.0509633999999992,-0.0099487999999999,0,sub_16
-0.0253654000000002,0.0393884000000012,0.0571457999999999,0.0467970000000005,-0.0471465999999992,-0.0139441999999999,0,sub_16
-0.0263056000000002,0.0357780000000012,0.0576835999999999,0.0483884000000005,-0.0305131999999992,-0.019082,0,sub_16
-0.0284294000000002,0.0329812000000012,0.0601017999999999,0.0387028000000005,-0.0089315999999992,-0.0264411999999999,0,sub_16
-0.0318806000000002,0.0310268000000012,0.0633171999999999,0.0204716000000005,0.0090630000000007,-0.0351373999999999,0,sub_16
-0.0347408000000002,0.0305186000000012,0.0662225999999999,-0.0022835999999994,0.0168494000000007,-0.0444929999999999,0,sub_16
-0.0350996000000002,0.0308456000000012,0.0696761999999999,-0.0235863999999994,0.0161058000000007,-0.0531865999999999,0,sub_16
-0.0332690000000002,0.0318616000000012,0.0720557999999999,-0.0402093999999994,0.0153330000000007,-0.0586427999999999,0,sub_16
-0.0306628000000002,0.0328270000000012,0.0729313999999999,-0.0478669999999994,0.0192008000000007,-0.0601967999999999,0,sub_16
-0.0272528000000002,0.0336442000000012,0.0734245999999999,-0.0448375999999994,0.0306868000000007,-0.0580538,0,sub_16
-0.0243748000000002,0.0348368000000012,0.0746631999999999,-0.0349551999999994,0.0508712000000007,-0.0526696,0,sub_16
-0.0245096000000002,0.0350298000000012,0.0740297999999999,-0.0254737999999994,0.0778706000000007,-0.0462285999999999,0,sub_16
-0.0262624000000002,0.0350702000000012,0.0722929999999999,-0.0164151999999994,0.1042382000000007,-0.0412852,0,sub_16
-0.0278884000000002,0.0352902000000012,0.0710759999999999,-0.0084425999999994,0.1252876000000007,-0.0374108,0,sub_16
-0.0285508000000002,0.0346898000000012,0.0694747999999999,-0.0022221999999994,0.1350562000000007,-0.0348161999999999,0,sub_16
-0.0277732000000002,0.0336334000000012,0.0679733999999999,0.0065116000000005,0.1348006000000007,-0.0317637999999999,0,sub_16
-0.0255556000000002,0.0327052000000012,0.0659965999999999,0.0188354000000005,0.1274966000000007,-0.0273953999999999,0,sub_16
-0.0221452000000002,0.0335454000000012,0.0637107999999999,0.0326490000000005,0.1203960000000007,-0.0219487999999999,0,sub_16
-0.0184708000000002,0.0342886000000012,0.0602069999999999,0.0445546000000005,0.1179816000000007,-0.0145985999999999,0,sub_16
-0.0159006000000002,0.0331044000000012,0.0575427999999999,0.0568986000000005,0.1196078000000007,-0.0057549999999999,0,sub_16
-0.0141282000000002,0.0323994000000012,0.0549731999999999,0.0705228000000005,0.1205930000000007,0.0024573999999999,0,sub_16
-0.0089376000000002,0.0334492000000012,0.0524911999999999,0.0854340000000005,0.1228528000000007,0.0104634,0,sub_16
-0.0039688000000002,0.0328290000000012,0.0510357999999999,0.1003192000000005,0.1210580000000007,0.0201838,0,sub_16
0.0004577999999997,0.0313736000000012,0.0507887999999999,0.1147452000000005,0.1122330000000007,0.0301234,0,sub_16
0.0049369999999997,0.0304406000000012,0.0518575999999999,0.1253238000000005,0.1012934000000007,0.039398,0,sub_16
0.0072097999999997,0.0285520000000012,0.0531625999999999,0.1275846000000005,0.0901740000000007,0.0475464,0,sub_16
0.0046021999999998,0.0253848000000012,0.0555671999999999,0.1210924000000005,0.0765346000000007,0.0541415999999999,0,sub_16
-0.0014168000000001,0.0215940000000012,0.0575853999999999,0.1101502000000005,0.0624808000000007,0.0570699999999999,0,sub_16
-0.0081006000000001,0.0188870000000012,0.0605887999999999,0.0975164000000005,0.0486588000000007,0.0567817999999999,0,sub_16
-0.0146516000000001,0.0189250000000012,0.0616107999999999,0.0816924000000005,0.0348574000000007,0.0541209999999999,0,sub_16
-0.0185724000000001,0.0193832000000012,0.0613121999999999,0.0648190000000005,0.0242582000000007,0.0508079999999999,0,sub_16
-0.0210786000000002,0.0205542000000012,0.0597211999999999,0.0494612000000005,0.0174930000000007,0.0464321999999999,0,sub_16
-0.0203414000000002,0.0223978000000012,0.0579213999999999,0.0358160000000005,0.0143672000000007,0.040786,0,sub_16
-0.0160232000000002,0.0248222000000012,0.0546565999999999,0.0255654000000005,0.0123286000000007,0.0345056,0,sub_16
-0.0107256000000002,0.0277166000000012,0.0513063999999999,0.0174420000000005,0.0092156000000007,0.0286687999999999,0,sub_16
-0.0062276000000002,0.0309690000000012,0.0483235999999999,0.0101528000000005,0.0018386000000007,0.0228433999999999,0,sub_16
-0.0013200000000002,0.0350512000000012,0.0455319999999999,0.0032634000000005,-0.0102323999999992,0.0183087999999999,0,sub_16
0.0025427999999997,0.0387430000000012,0.0431377999999999,-0.0027943999999994,-0.0244479999999992,0.0165599999999999,0,sub_16
0.0020519999999997,0.0402716000000012,0.0415851999999999,-0.0105321999999994,-0.0363545999999992,0.0171621999999999,0,sub_16
-0.0005200000000002,0.0399468000000012,0.0404571999999999,-0.0172051999999994,-0.0467813999999992,0.0196927999999999,0,sub_16
-0.0027892000000002,0.0402112000000012,0.0410237999999999,-0.0225215999999994,-0.0553405999999992,0.0245536,0,sub_16
-0.0065890000000002,0.0390936000000012,0.0439403999999999,-0.0248573999999994,-0.0641281999999992,0.0307172,0,sub_16
-0.0108614000000002,0.0364206000000012,0.0480775999999999,-0.0244357999999994,-0.0763351999999992,0.0371182,0,sub_16
-0.0142718000000002,0.0342082000000012,0.0528517999999999,-0.0218833999999994,-0.0908865999999992,0.041828,0,sub_16
-0.0166426000000002,0.0321456000000012,0.0567251999999999,-0.0201633999999994,-0.1030819999999992,0.0441788,0,sub_16
-0.0192034000000002,0.0303258000000012,0.0590141999999999,-0.0182851999999994,-0.1126751999999992,0.0439904,0,sub_16
-0.0213312000000002,0.0291470000000012,0.0590629999999999,-0.0163839999999994,-0.1190649999999992,0.0418753999999999,0,sub_16
-0.0235148000000002,0.0303432000000012,0.0586905999999999,-0.0150921999999994,-0.1203323999999992,0.0380406,0,sub_16
-0.0251234000000002,0.0322234000000012,0.0576969999999999,-0.0146405999999994,-0.1177651999999992,0.0350494,0,sub_16
-0.0264972000000002,0.0333964000000012,0.0572061999999999,-0.0153463999999994,-0.1131809999999992,0.033384,0,sub_16
-0.0272690000000002,0.0338604000000012,0.0573933999999999,-0.0177555999999994,-0.1068899999999992,0.0325591999999999,0,sub_16
-0.0269680000000002,0.0346104000000012,0.0581231999999999,-0.0225117999999994,-0.1003785999999992,0.0319312,0,sub_16
-0.0255328000000002,0.0347158000000012,0.0584505999999999,-0.0279129999999994,-0.0947179999999992,0.0315134,0,sub_16
-0.0241734000000002,0.0349414000000012,0.0588733999999999,-0.0333121999999994,-0.0901167999999992,0.0296016,0,sub_16
-0.0225058000000002,0.0359788000000012,0.0585281999999999,-0.0369079999999994,-0.0858319999999992,0.0267936,0,sub_16
-0.0218414000000002,0.0367010000000012,0.0577157999999999,-0.0377287999999994,-0.0815559999999992,0.0237912,0,sub_16
-0.0220478000000002,0.0364022000000012,0.0569521999999999,-0.0366263999999994,-0.0766475999999992,0.0208016,0,sub_16
-0.0229690000000002,0.0355384000000012,0.0564253999999999,-0.0359995999999994,-0.0720509999999992,0.018234,0,sub_16
-0.0232186000000002,0.0340090000000012,0.0562179999999999,-0.0345277999999994,-0.0683137999999992,0.0167416,0,sub_16
-0.0238056000000002,0.0328568000000012,0.0570149999999999,-0.0326321999999994,-0.0650049999999992,0.0154664,0,sub_16
-0.0245576000000002,0.0322596000000012,0.0574449999999999,-0.0307327999999994,-0.0606317999999992,0.0144035999999999,0,sub_16
-0.0246048000000002,0.0333478000000012,0.0571949999999999,-0.0290391999999994,-0.0543411999999992,0.0135505999999999,0,sub_16
-0.0240032000000002,0.0351248000000012,0.0568089999999999,-0.0272861999999994,-0.0451815999999992,0.0124829999999999,0,sub_16
-0.0236568000000002,0.0369806000000012,0.0555155999999999,-0.0263781999999994,-0.0341015999999992,0.0114069999999999,0,sub_16
-0.0232268000000002,0.0382016000000012,0.0540555999999999,-0.0253647999999994,-0.0233127999999992,0.0106615999999999,0,sub_16
-0.0223972000000002,0.0384518000000012,0.0531243999999999,-0.0249933999999994,-0.0133721999999992,0.0094853999999999,0,sub_16
-0.0215600000000002,0.0368242000000012,0.0536491999999999,-0.0237733999999994,-0.0042875999999992,0.0085299999999999,0,sub_16
-0.0208700000000002,0.0348886000000012,0.0532735999999999,-0.0219207999999994,0.0035148000000007,0.0080077999999999,0,sub_16
-0.0201464000000002,0.0327930000000012,0.0542725999999999,-0.0202863999999994,0.0098284000000007,0.0070588,0,sub_16
-0.0195938000000002,0.0312308000000012,0.0550287999999999,-0.0181267999999994,0.0143002000000007,0.0057862,0,sub_16
-0.0187140000000002,0.0304790000000012,0.0556083999999999,-0.0149069999999994,0.0172770000000007,0.0045232,0,sub_16
-0.0182406000000002,0.0305968000000012,0.0552091999999999,-0.0121187999999994,0.0196142000000007,0.003685,0,sub_16
-0.0181258000000002,0.0312602000000012,0.0549715999999999,-0.0084679999999994,0.0218254000000007,0.0035856,0,sub_16
-0.0176960000000002,0.0319714000000012,0.0533331999999999,-0.0037511999999994,0.0253052000000007,0.0049874,0,sub_16
-0.0168482000000002,0.0332438000000012,0.0514375999999999,0.0009734000000005,0.0313382000000007,0.0072407999999999,0,sub_16
-0.0157438000000002,0.0346010000000012,0.0502577999999999,0.0059054000000005,0.0373652000000007,0.0107773999999999,0,sub_16
-0.0151478000000002,0.0342882000000012,0.0501649999999999,0.0106176000000005,0.0419018000000007,0.0143143999999999,0,sub_16
-0.0141968000000002,0.0328690000000012,0.0511185999999999,0.0123276000000005,0.0448692000000007,0.0166725999999999,0,sub_16
-0.0141112000000002,0.0319982000000012,0.0524711999999999,0.0101902000000005,0.0442366000000007,0.0168721999999999,0,sub_16
-0.0144076000000002,0.0309698000000012,0.0537087999999999,0.0056996000000005,0.0397876000000007,0.0144964,0,sub_16
-0.0151906000000002,0.0294926000000012,0.0546387999999999,-6.339999999948782e-05,0.0342890000000007,0.0093356,0,sub_16
-0.0157118000000002,0.0299648000000012,0.0551565999999999,-0.0056989999999994,0.0289456000000007,0.0029422,0,sub_16
-0.0173714000000002,0.0306614000000012,0.0550145999999999,-0.0091949999999994,0.0238120000000007,-0.0045047999999999,0,sub_16
-0.0192046000000002,0.0315904000000012,0.0551969999999999,-0.0092723999999994,0.0197318000000007,-0.0119291999999999,0,sub_16
-0.0202794000000002,0.0326202000000012,0.0563547999999999,-0.0078559999999994,0.0171318000000007,-0.0178495999999999,0,sub_16
-0.0209568000000002,0.0335926000000012,0.0574421999999999,-0.0072921999999994,0.0170820000000007,-0.0214289999999999,0,sub_16
-0.0212340000000002,0.0338236000000012,0.0574759999999999,-0.0074911999999994,0.0187932000000007,-0.0229282,0,sub_16
-0.0205636000000002,0.0347962000000012,0.0575981999999999,-0.0068367999999994,0.0221990000000007,-0.0227142,0,sub_16
-0.0189738000000002,0.0359430000000012,0.0579967999999999,-0.0059697999999994,0.0260276000000007,-0.0218586,0,sub_16
-0.0174140000000002,0.0358376000000012,0.0578157999999999,-0.0042559999999994,0.0283618000000007,-0.020995,0,sub_16
-0.0169600000000002,0.0349346000000012,0.0577877999999999,-0.0019079999999994,0.0281422000000007,-0.0214056,0,sub_16
-0.0168650000000002,0.0344644000000012,0.0585973999999999,-0.0008449999999994,0.0253764000000007,-0.0233174,0,sub_16
-0.0161818000000002,0.0340448000000012,0.0598099999999999,-0.0017127999999994,0.0196372000000007,-0.0258799999999999,0,sub_16
-0.0164772000000002,0.0326566000000012,0.0603085999999999,-0.0040643999999994,0.0128780000000007,-0.0279532,0,sub_16
-0.0171210000000002,0.0315492000000012,0.0609045999999999,-0.0076885999999994,0.0084644000000007,-0.0293974,0,sub_16
-0.0168750000000002,0.0314750000000012,0.0611923999999999,-0.0102331999999994,0.0080900000000007,-0.0295574,0,sub_16
-0.0164044000000002,0.0307932000000012,0.0610829999999999,-0.0106393999999994,0.0098344000000007,-0.0286368,0,sub_16
-0.0158926000000002,0.0295948000000012,0.0605535999999999,-0.0108341999999994,0.0120006000000007,-0.0268607999999999,0,sub_16
-0.0147124000000002,0.0291164000000012,0.0598379999999999,-0.0108245999999994,0.0154044000000007,-0.0255832,0,sub_16
-0.0142636000000002,0.0285598000000012,0.0596737999999999,-0.0112417999999994,0.0177486000000007,-0.0253754,0,sub_16
-0.0136314000000002,0.0277348000000012,0.0601441999999999,-0.0133841999999994,0.0156262000000007,-0.0256013999999999,0,sub_16
-0.0133228000000002,0.0272628000000012,0.0606821999999999,-0.0176679999999994,0.0111704000000007,-0.0264801999999999,0,sub_16
-0.0132428000000002,0.0273960000000012,0.0607321999999999,-0.0208857999999994,0.0069222000000007,-0.0269243999999999,0,sub_16
-0.0131548000000002,0.0269882000000012,0.0617717999999999,-0.0234333999999994,0.0035752000000007,-0.0261101999999999,0,sub_16
-0.0130394000000002,0.0274862000000012,0.0620829999999999,-0.0242767999999994,0.0012806000000007,-0.0235763999999999,0,sub_16
-0.0128654000000002,0.0282152000000012,0.0603211999999999,-0.0236219999999994,0.0008950000000007,-0.0201797999999999,0,sub_16
-0.0125250000000002,0.0293050000000012,0.0587971999999999,-0.0216771999999994,0.0028476000000007,-0.0165637999999999,0,sub_16
-0.0118414000000002,0.0295530000000012,0.0573291999999999,-0.0190885999999994,0.0054380000000007,-0.0131577999999999,0,sub_16
-0.0109510000000002,0.0292986000000012,0.0556649999999999,-0.0156831999999994,0.0069038000000007,-0.0097175999999999,0,sub_16
-0.0093706000000002,0.0298354000000012,0.0547095999999999,-0.0131333999999994,0.0073100000000007,-0.0069229999999999,0,sub_16
-0.0079004000000002,0.0305766000000012,0.0551947999999999,-0.0114407999999994,0.0064424000000007,-0.0045599999999999,0,sub_16
-0.0073242000000002,0.0302946000000012,0.0550917999999999,-0.0094815999999994,0.0041564000000007,-0.0025079999999999,0,sub_16
-0.0077966000000002,0.0298796000000012,0.0550245999999999,-0.0075069999999994,0.0029452000000006,-0.0028071999999999,0,sub_16
-0.0094836000000002,0.0302934000000012,0.0544949999999999,-0.0053075999999994,0.0021678000000007,-0.0052419999999999,0,sub_16
-0.0121924000000002,0.0293836000000012,0.0540815999999999,-0.0031089999999994,0.0001162000000007,-0.0087434,0,sub_16
-0.0145484000000002,0.0281734000000012,0.0546185999999999,-0.0011285999999994,-0.0032119999999992,-0.0124583999999999,0,sub_16
-0.0158286000000002,0.0279028000000012,0.0551319999999999,-6.179999999948778e-05,-0.0055499999999992,-0.0147979999999999,0,sub_16
-0.0162632000000002,0.0280198000000012,0.0563737999999999,0.0003496000000005,-0.0085359999999992,-0.0143639999999999,0,sub_16
-0.0160260000000002,0.0284920000000012,0.0568089999999999,0.0003284000000005,-0.0102523999999992,-0.0113709999999999,0,sub_16
-0.0148684000000002,0.0282004000000012,0.0576437999999999,0.0007910000000005,-0.0096367999999992,-0.0071371999999999,0,sub_16
-0.0141494000000001,0.0280376000000012,0.0568819999999999,0.0023282000000005,-0.0066839999999992,-0.0022579999999999,0,sub_16
-0.0133546000000002,0.0282970000000012,0.0563719999999999,0.0051496000000005,-0.0041565999999992,0.0013488,0,sub_16
-0.0122576000000002,0.0290542000000012,0.0555493999999999,0.0083966000000005,-0.0020559999999992,0.0047454,0,sub_16
-0.0108920000000002,0.0285594000000012,0.0554035999999999,0.0109950000000005,-0.0016583999999992,0.0083534,0,sub_16
-0.0093416000000002,0.0287162000000012,0.0543313999999999,0.0122580000000005,-0.0016781999999992,0.0122077999999999,0,sub_16
-0.0075306000000002,0.0291472000000012,0.0531647999999999,0.0124494000000004,-0.0025471999999992,0.0162693999999999,0,sub_16
-0.0059208000000002,0.0289482000000012,0.0523545999999999,0.0124148000000004,-0.0055485999999992,0.0209731999999999,0,sub_16
-0.0051786000000002,0.0277194000000012,0.0509879999999999,0.0115646000000004,-0.0105109999999992,0.0257021999999999,0,sub_16
-0.0044302000000002,0.0268468000000012,0.0506849999999999,0.0102838000000005,-0.0165363999999992,0.0302159999999999,0,sub_16
-0.0047474000000002,0.0264306000000012,0.0507025999999999,0.0104870000000004,-0.0234243999999992,0.0360229999999999,0,sub_16
-0.0055352000000002,0.0258558000000012,0.0511491999999999,0.0117560000000005,-0.0298925999999992,0.0424779999999999,0,sub_16
-0.0065576000000002,0.0252622000000012,0.0514037999999999,0.0132452000000005,-0.0340211999999992,0.0497859999999999,0,sub_16
-0.0074282000000002,0.0253874000000012,0.0513317999999999,0.0138460000000005,-0.0363925999999992,0.0562025999999999,0,sub_16
-0.0079144000000002,0.0269590000000012,0.0505639999999999,0.0133846000000005,-0.0387559999999992,0.0615433999999999,0,sub_16
-0.0079444000000002,0.0284566000000012,0.0496533999999999,0.0114316000000005,-0.0428099999999992,0.0647396,0,sub_16
-0.0079342000000002,0.0298710000000012,0.0487805999999999,0.0078298000000005,-0.0503131999999992,0.0656551999999999,0,sub_16
-0.0078250000000002,0.0301722000000012,0.0481729999999999,0.0020914000000005,-0.0614191999999992,0.0635695999999999,0,sub_16
-0.0075626000000002,0.0300138000000012,0.0487703999999999,-0.0036517999999994,-0.0748635999999992,0.0602049999999999,0,sub_16
-0.0084598000000002,0.0282546000000012,0.0496359999999999,-0.0100283999999994,-0.0882997999999992,0.0553405999999999,0,sub_16
-0.0096562000000002,0.0264964000000012,0.0510223999999999,-0.0176765999999994,-0.1010871999999992,0.0491845999999999,0,sub_16
-0.0108690000000002,0.0252484000000012,0.0527047999999999,-0.0260191999999994,-0.1125357999999992,0.0423043999999999,0,sub_16
-0.0127628000000002,0.0255706000000012,0.0537217999999999,-0.0341399999999994,-0.1220673999999992,0.0354231999999999,0,sub_16
-0.0145752000000002,0.0262252000000012,0.0542187999999999,-0.0417505999999994,-0.1288827999999992,0.0296885999999999,0,sub_16
-0.0156476000000002,0.0276888000000012,0.0540409999999999,-0.0470111999999994,-0.1335817999999992,0.0254629999999999,0,sub_16
-0.0162154000000002,0.0291982000000012,0.0526467999999999,-0.0494921999999994,-0.1355267999999992,0.0227488,0,sub_16
-0.0166758000000002,0.0299908000000012,0.0514871999999999,-0.0491927999999994,-0.1345045999999992,0.0215458,0,sub_16
-0.0160118000000002,0.0304152000000012,0.0508563999999999,-0.0473995999999994,-0.1313657999999992,0.022487,0,sub_16
-0.0151784000000002,0.0306642000000012,0.0506485999999999,-0.0454667999999994,-0.1269051999999992,0.0242038,0,sub_16
-0.0140316000000002,0.0309284000000012,0.0514783999999999,-0.0435397999999994,-0.1226617999999992,0.0269892,0,sub_16
-0.0131536000000002,0.0307876000000012,0.0530339999999999,-0.0422605999999994,-0.1199083999999992,0.0299858,0,sub_16
-0.0123808000000002,0.0310384000000012,0.0531289999999999,-0.0422135999999994,-0.1184529999999992,0.0330478,0,sub_16
-0.0118486000000002,0.0312558000000012,0.0534863999999999,-0.0423779999999994,-0.1180559999999992,0.034614,0,sub_16
-0.0117562000000002,0.0317512000000012,0.0530631999999999,-0.0419013999999994,-0.1185091999999992,0.0351175999999999,0,sub_16
-0.0129786000000002,0.0309916000000012,0.0520213999999999,-0.0414151999999994,-0.1189539999999992,0.0334847999999999,0,sub_16
-0.0142282000000002,0.0305796000000012,0.0518333999999999,-0.0409155999999994,-0.1174769999999992,0.0307813999999999,0,sub_16
-0.0155636000000002,0.0301486000000012,0.0525607999999999,-0.0404629999999994,-0.1151211999999992,0.0273631999999999,0,sub_16
-0.0170026000000002,0.0293732000000012,0.0528187999999999,-0.0397931999999994,-0.1110651999999992,0.0247989999999999,0,sub_16
-0.0185754000000002,0.0281276000000012,0.0533099999999999,-0.0386957999999994,-0.1061609999999992,0.0228775999999999,0,sub_16
-0.0193368000000002,0.0281126000000012,0.0544383999999999,-0.0371655999999994,-0.0991311999999992,0.0218111999999999,0,sub_16
-0.0194320000000002,0.0286502000000012,0.0537233999999999,-0.0345495999999994,-0.0904025999999992,0.0211973999999999,0,sub_16
-0.0195980000000002,0.0295038000000012,0.0530585999999999,-0.0306417999999994,-0.0793339999999992,0.0203759999999999,0,sub_16
