userAcceleration.x,userAcceleration.y,userAcceleration.z,rotationRate.x,rotationRate.y,rotationRate.z,label,subject
-0.0049922000000002,-0.0057963999999987,0.0575311999999999,0.0320390000000004,0.0896218000000006,-0.0577696,0,sub_15
-0.0038924000000002,-0.0093103999999986,0.0494361999999999,0.0282338000000004,0.1002768000000006,-0.0550324,0,sub_15
-0.0035248000000002,-0.0114351999999986,0.0410555999999999,0.0306154000000004,0.1106970000000006,-0.0522518,0,sub_15
-0.0044104000000002,-0.0116219999999986,0.0352507999999999,0.0356150000000004,0.1345280000000006,-0.048829,0,sub_15
-0.0060886000000002,-0.0113677999999986,0.0303985999999999,0.0414890000000004,0.1638920000000006,-0.0445526,0,sub_15
-0.0077566000000002,-0.0098363999999987,0.0282145999999999,0.0470980000000004,0.1828130000000006,-0.0391966,0,sub_15
-0.0079752000000002,-0.0071303999999987,0.0315693999999999,0.0486118000000004,0.1949212000000006,-0.0315104,0,sub_15
-0.0121858000000002,-0.0055241999999987,0.0352623999999999,0.0445788000000004,0.2100204000000006,-0.0210894,0,sub_15
-0.0187450000000002,-0.0049887999999987,0.0368459999999999,0.0396780000000004,0.2215024000000006,-0.0110972000000001,0,sub_15
-0.0241852000000002,-0.0036077999999987,0.0376831999999999,0.0364880000000004,0.2312842000000006,-0.0036544000000001,0,sub_15
-0.0317000000000002,-0.0025393999999987,0.0357085999999999,0.0358844000000004,0.2451118000000006,0.0020921999999998,0,sub_15
-0.0415370000000002,-0.0016797999999987,0.0329245999999999,0.0389308000000004,0.2576748000000006,0.0014559999999998,0,sub_15
-0.0483612000000002,-0.0001295999999987,0.0291765999999999,0.0451732000000004,0.2636442000000006,-0.0047042000000001,0,sub_15
-0.0510136000000002,0.0018684000000012,0.0295377999999999,0.0531148000000004,0.2649324000000006,-0.0138374000000001,0,sub_15
-0.0518356000000002,0.0032658000000012,0.0308117999999999,0.0574206000000004,0.2636792000000006,-0.0236340000000001,0,sub_15
-0.0500630000000002,0.0040704000000012,0.0322843999999999,0.0561316000000004,0.2528546000000006,-0.0326028,0,sub_15
-0.0457088000000002,0.0033400000000012,0.0269779999999999,0.0494490000000004,0.2330824000000006,-0.0373244,0,sub_15
-0.0419938000000002,0.0030578000000012,0.0215711999999999,0.0388864000000004,0.2088326000000006,-0.0377944,0,sub_15
-0.0400314000000002,0.0031586000000012,0.0142339999999999,0.0250964000000004,0.1807504000000006,-0.0361456,0,sub_15
-0.0388724000000002,0.0042580000000012,0.0039475999999999,0.0131998000000004,0.1483938000000006,-0.0327688,0,sub_15
-0.0387540000000002,0.0043016000000012,-0.005546,0.0053716000000004,0.1185822000000006,-0.0300078,0,sub_15
-0.0384156000000002,0.0062152000000012,-0.0073722,0.0039860000000004,0.0976974000000006,-0.027427,0,sub_15
-0.0383106000000002,0.0068734000000012,-0.0065946,0.0086082000000004,0.0833996000000006,-0.0256672,0,sub_15
-0.0380678000000002,0.0074294000000012,-0.0052488,0.0168644000000004,0.0705806000000006,-0.023884,0,sub_15
-0.0379466000000002,0.0071384000000012,-0.0006126,0.0261980000000004,0.0590404000000006,-0.0231632,0,sub_15
-0.0362976000000001,0.0077992000000012,0.0045411999999999,0.0351146000000004,0.0502688000000006,-0.0218078,0,sub_15
-0.0311086000000002,0.0072662000000012,0.0071345999999999,0.0406124000000004,0.0400194000000006,-0.0209016,0,sub_15
-0.0246622000000002,0.0066798000000012,0.0078211999999999,0.0426780000000004,0.0270072000000006,-0.018734,0,sub_15
-0.0193508000000002,0.0064832000000012,0.0097561999999999,0.0421872000000004,0.0163416000000006,-0.0150918,0,sub_15
-0.0163668000000002,0.0036430000000012,0.0121745999999999,0.0404342000000004,0.0112138000000006,-0.00997,0,sub_15
-0.0155642000000002,-0.0005969999999987,0.0148227999999999,0.0372078000000004,0.0095044000000006,-0.0059312,0,sub_15
-0.0177556000000002,-0.0070327999999987,0.0218495999999999,0.0365906000000004,0.0150444000000006,-0.0055154,0,sub_15
-0.0186042000000002,-0.0099667999999987,0.0341991999999999,0.0403234000000004,0.0350724000000006,-0.0089334,0,sub_15
-0.0188102000000002,-0.0122319999999987,0.0451935999999999,0.0457956000000004,0.0602160000000006,-0.0144822,0,sub_15
-0.0177210000000002,-0.0114221999999987,0.0524857999999999,0.0480378000000004,0.0781296000000006,-0.0206852,0,sub_15
-0.0163072000000002,-0.0084383999999987,0.0527691999999999,0.0433858000000004,0.0824274000000006,-0.0258506,0,sub_15
-0.0153874000000002,-0.0032405999999987,0.0476653999999999,0.0288152000000004,0.0675694000000006,-0.0272152,0,sub_15
-0.0157082000000002,-0.0020933999999987,0.0353929999999999,0.0060424000000004,0.0348314000000006,-0.025623,0,sub_15
-0.0141920000000002,-0.0020331999999987,0.0227119999999999,-0.0167589999999995,-0.0034491999999993,-0.0231694,0,sub_15
-0.0130068000000002,-0.0028659999999987,0.0128987999999999,-0.0339725999999995,-0.0323765999999993,-0.0202614,0,sub_15
-0.0118640000000002,-0.0023775999999987,0.0093027999999999,-0.0419181999999995,-0.0398211999999993,-0.0164618,0,sub_15
-0.0115038000000002,-0.0004777999999987,0.0074893999999999,-0.0395481999999995,-0.0313207999999993,-0.0130378,0,sub_15
-0.0125564000000002,0.0022132000000012,0.0076789999999999,-0.0301145999999995,-0.0181571999999993,-0.0097842,0,sub_15
-0.0135242000000002,0.0051690000000012,0.0076817999999999,-0.0179093999999995,-0.0069147999999993,-0.0080042,0,sub_15
-0.0132624000000002,0.0081898000000011,0.0074029999999999,-0.0069861999999995,0.0022084000000006,-0.0079396,0,sub_15
-0.0116642000000002,0.0079022000000012,0.0080005999999999,0.0043464000000004,0.0064342000000006,-0.008934,0,sub_15
-0.0083230000000002,0.0049058000000012,0.0101511999999999,0.0148296000000004,0.0108784000000006,-0.0105756,0,sub_15
-0.0032986000000002,0.0012126000000012,0.0134759999999999,0.0240458000000004,0.0178856000000006,-0.0126566,0,sub_15
-2.277691923957548e-16,-0.0025517999999987,0.0174201999999999,0.0298558000000004,0.0287312000000006,-0.01263,0,sub_15
0.0023203999999997,-0.0052873999999987,0.0218683999999999,0.0341538000000004,0.0376560000000006,-0.010475,0,sub_15
0.0043587999999997,-0.0066189999999987,0.0259325999999999,0.0332946000000004,0.0408368000000006,-0.0059986,0,sub_15
0.0049449999999997,-0.0061561999999987,0.0287991999999999,0.0294116000000004,0.0389030000000006,0.0014543999999999,0,sub_15
0.0017217999999997,-0.0047679999999987,0.0300931999999999,0.0229432000000004,0.0327120000000006,0.0101765999999999,0,sub_15
-0.0011184000000002,-0.0032725999999986,0.0312601999999999,0.0147402000000004,0.0201362000000006,0.0186811999999999,0,sub_15
-0.0035970000000002,-0.0025569999999986,0.0321325999999999,0.0071840000000004,0.0077762000000006,0.0259081999999999,0,sub_15
-0.0070230000000002,-0.0011845999999986,0.0325823999999999,0.0041584000000004,0.0032964000000006,0.0299519999999999,0,sub_15
-0.0119510000000002,-0.0003615999999987,0.0330435999999999,0.0033174000000004,0.0062812000000006,0.0301557999999999,0,sub_15
-0.0142890000000002,-0.0001385999999987,0.0339817999999999,0.0044438000000004,0.0167282000000006,0.0273727999999999,0,sub_15
-0.0176544000000002,0.0004220000000012,0.0341137999999999,0.0073134000000004,0.0327188000000006,0.0220311999999999,0,sub_15
-0.0207242000000002,0.0013402000000012,0.0341289999999999,0.0099708000000004,0.0468012000000006,0.0145541999999999,0,sub_15
-0.0217042000000002,0.0012142000000012,0.0346643999999999,0.0106724000000004,0.0519464000000006,0.0060067999999999,0,sub_15
-0.0195068000000002,0.0021194000000012,0.0352761999999999,0.0096296000000004,0.0502740000000006,-0.0010486,0,sub_15
-0.0171944000000001,0.0026630000000012,0.0351321999999999,0.0059888000000004,0.0426354000000006,-0.0057644,0,sub_15
-0.0154218000000001,0.0013486000000012,0.0344123999999999,0.0006152000000004,0.0311610000000006,-0.008565,0,sub_15
-0.0128490000000001,-0.0006621999999987,0.0322743999999999,-0.0049825999999995,0.0192536000000006,-0.009444,0,sub_15
-0.0111802000000001,-0.0015263999999987,0.0300127999999999,-0.0099373999999995,0.0101050000000006,-0.0081856,0,sub_15
-0.0113792000000001,-0.0030337999999987,0.0280041999999999,-0.0140261999999995,0.0045720000000006,-0.006071,0,sub_15
-0.0117504000000001,-0.0031637999999987,0.0262653999999999,-0.0163905999999995,0.0028680000000006,-0.0039494,0,sub_15
-0.0106468000000002,-0.0014291999999987,0.0256875999999999,-0.0168077999999995,0.0064854000000006,-0.0024614,0,sub_15
-0.0096272000000002,0.0014938000000012,0.0255157999999999,-0.0161513999999995,0.0113782000000006,-0.0011812,0,sub_15
-0.0089348000000002,0.0040806000000012,0.0248653999999999,-0.0140031999999995,0.0158398000000006,0.0001099999999999,0,sub_15
-0.0078764000000002,0.0058226000000012,0.0233445999999999,-0.0095107999999995,0.0190172000000006,0.0007781999999999,0,sub_15
-0.0065762000000002,0.0059218000000012,0.0215819999999999,-0.0037469999999995,0.0198484000000006,0.0010311999999998,0,sub_15
-0.0061932000000002,0.0043104000000012,0.0204511999999999,0.0028646000000004,0.0200348000000006,0.0019315999999998,0,sub_15
-0.0071362000000002,0.0016196000000012,0.0205593999999999,0.0092696000000004,0.0219258000000006,0.0030421999999998,0,sub_15
-0.0087138000000002,-0.0013485999999987,0.0213295999999999,0.0139704000000004,0.0246740000000006,0.0043533999999998,0,sub_15
-0.0101060000000002,-0.0027057999999987,0.0233315999999999,0.0165308000000004,0.0257262000000006,0.0054381999999998,0,sub_15
-0.0117040000000002,-0.0023239999999987,0.0277375999999999,0.0173854000000004,0.0265730000000006,0.0060839999999999,0,sub_15
-0.0121344000000001,-0.0008767999999987,0.0317199999999999,0.0165348000000004,0.0272152000000006,0.0060771999999998,0,sub_15
-0.0116342000000001,-0.0003849999999987,0.0343581999999999,0.0141850000000004,0.0265842000000006,0.0060615999999998,0,sub_15
-0.0105026000000001,-0.0003793999999987,0.0361139999999999,0.0103262000000004,0.0221252000000006,0.0056131999999998,0,sub_15
-0.0096526000000002,-0.0016751999999987,0.0360911999999999,0.0056060000000004,0.0159648000000006,0.0051607999999998,0,sub_15
-0.0104076000000002,-0.0026587999999987,0.0334679999999999,0.0006716000000004,0.0095920000000006,0.0047071999999998,0,sub_15
-0.0118774000000002,-0.0027537999999987,0.0298387999999999,-0.0040579999999995,0.0010888000000006,0.0040441999999998,0,sub_15
-0.0133370000000002,-0.0013517999999987,0.0264739999999999,-0.0070865999999995,-0.0082741999999993,0.0038213999999998,0,sub_15
-0.0142484000000002,0.0004346000000012,0.0236685999999999,-0.0077555999999995,-0.0153001999999993,0.0031847999999999,0,sub_15
-0.0147228000000002,0.0025160000000012,0.0219451999999999,-0.0062781999999995,-0.0202005999999993,0.0019195999999999,0,sub_15
-0.0133272000000002,0.0034876000000012,0.0215245999999999,-0.0024443999999995,-0.0229785999999993,0.0006679999999999,0,sub_15
-0.0116466000000002,0.0031122000000012,0.0223663999999999,0.0020334000000004,-0.0246943999999993,-0.0003668,0,sub_15
-0.0105532000000002,0.0026378000000012,0.0230043999999999,0.0062942000000004,-0.0278983999999993,-0.0020422,0,sub_15
-0.0088646000000002,0.0019268000000012,0.0238369999999999,0.0103272000000004,-0.0340851999999993,-0.0035018,0,sub_15
-0.0062024000000002,0.0005538000000012,0.0259115999999999,0.0135000000000004,-0.0411237999999993,-0.0043252,0,sub_15
-0.0037058000000002,-0.0006167999999987,0.0276393999999999,0.0145286000000004,-0.0494373999999993,-0.0040938,0,sub_15
-0.0012378000000002,-0.0008313999999987,0.0290371999999999,0.0146932000000004,-0.0583939999999993,-0.0021582,0,sub_15
0.0009459999999997,-0.0011087999999987,0.0317825999999999,0.0142194000000004,-0.0656489999999993,0.0010523999999999,0,sub_15
0.0017047999999997,-0.0014451999999987,0.0340231999999999,0.0133362000000004,-0.0680065999999993,0.0053221999999998,0,sub_15
4.359999999979242e-05,-0.0010997999999987,0.0354107999999999,0.0122560000000004,-0.0665293999999993,0.0097991999999998,0,sub_15
-0.0028682000000002,-0.0008897999999987,0.0373043999999999,0.0122580000000004,-0.0620715999999993,0.0138527999999998,0,sub_15
-0.0059158000000002,-0.0013859999999987,0.0391133999999999,0.0137718000000004,-0.0554805999999993,0.0159911999999999,0,sub_15
-0.0088740000000002,-0.0023103999999987,0.0402787999999999,0.0157306000000004,-0.0463285999999993,0.0166341999999999,0,sub_15
-0.0120436000000002,-0.0028607999999987,0.0409933999999999,0.0176932000000004,-0.0369893999999993,0.0153577999999999,0,sub_15
-0.0133632000000002,-0.0033023999999987,0.0412885999999999,0.0194298000000004,-0.0321165999999993,0.0123763999999999,0,sub_15
-0.0124248000000002,-0.0019211999999987,0.0402583999999999,0.0202994000000004,-0.0319211999999993,0.0076857999999999,0,sub_15
-0.0117342000000002,-0.0004203999999987,0.0390655999999999,0.0194478000000004,-0.0340669999999993,0.0038407999999999,0,sub_15
-0.0116602000000002,0.0011978000000012,0.0379661999999999,0.0177292000000004,-0.0385559999999992,0.0006333999999999,0,sub_15
-0.0123984000000002,0.0026450000000012,0.0372243999999999,0.0153446000000004,-0.0485543999999993,-0.0010796000000001,0,sub_15
-0.0140626000000002,0.0033328000000012,0.0371655999999999,0.0133820000000004,-0.0589829999999993,-0.0021482000000001,0,sub_15
-0.0162014000000002,0.0021344000000012,0.0374937999999999,0.0118462000000004,-0.0685641999999993,-0.0023604000000001,0,sub_15
-0.0170794000000002,0.0008134000000012,0.0360465999999999,0.0102746000000004,-0.0737101999999993,-0.0023482000000001,0,sub_15
-0.0181738000000002,-0.0002367999999987,0.0340057999999999,0.0091462000000004,-0.0748113999999993,-0.0019106000000001,0,sub_15
-0.0174084000000002,-0.0008709999999987,0.0316757999999999,0.0093268000000004,-0.0710109999999993,-0.0029658,0,sub_15
-0.0164768000000002,-0.0002759999999987,0.0286597999999999,0.0097216000000004,-0.0667859999999993,-0.0038064,0,sub_15
-0.0160322000000001,-0.0005345999999987,0.0253557999999999,0.0101088000000004,-0.0632045999999993,-0.003578,0,sub_15
-0.0174440000000001,-0.0005455999999987,0.0242083999999999,0.0105356000000004,-0.0629939999999993,-0.0033618,0,sub_15
-0.0177590000000001,-0.0008245999999987,0.0233175999999999,0.0113862000000004,-0.0636359999999993,-0.0033552,0,sub_15
-0.0194664000000001,-0.0010855999999987,0.0240667999999999,0.0126548000000004,-0.0651359999999993,-0.0022762,0,sub_15
-0.0218698000000001,-0.0018879999999987,0.0249753999999999,0.0136640000000004,-0.0666117999999993,-0.0005564000000001,0,sub_15
-0.0235962000000002,-0.0025123999999987,0.0266511999999999,0.0131796000000004,-0.0680821999999993,0.0011529999999998,0,sub_15
-0.0238032000000002,-0.0032895999999987,0.0278147999999999,0.0118396000000004,-0.0695513999999993,0.0032837999999998,0,sub_15
-0.0235124000000002,-0.0034327999999987,0.0285623999999999,0.0094234000000004,-0.0729351999999993,0.0056231999999998,0,sub_15
-0.0227476000000002,-0.0036159999999987,0.0283825999999999,0.0048696000000004,-0.0763149999999993,0.0088019999999998,0,sub_15
-0.0215860000000002,-0.0031721999999987,0.0276923999999999,-0.0007077999999995,-0.0792927999999993,0.0123987999999999,0,sub_15
-0.0205400000000002,-0.0015857999999987,0.0266989999999999,-0.0056459999999995,-0.0829103999999993,0.0155735999999999,0,sub_15
-0.0200376000000002,0.0004306000000012,0.0253739999999999,-0.0095133999999995,-0.0865281999999993,0.0179011999999999,0,sub_15
-0.0194612000000002,0.0022960000000012,0.0238181999999999,-0.0119257999999995,-0.0895577999999993,0.0196001999999999,0,sub_15
-0.0192242000000002,0.0038346000000012,0.0218493999999999,-0.0119745999999995,-0.0910955999999992,0.0191773999999999,0,sub_15
-0.0186058000000002,0.0054646000000012,0.0216681999999999,-0.0083711999999995,-0.0888043999999992,0.0170659999999999,0,sub_15
-0.0186294000000002,0.0072250000000012,0.0216165999999999,-0.0015423999999995,-0.0831067999999992,0.0128363999999999,0,sub_15
-0.0183350000000002,0.0081860000000012,0.0233077999999999,0.0072336000000004,-0.0737847999999992,0.0062657999999999,0,sub_15
-0.0178882000000002,0.0088124000000012,0.0261087999999999,0.0171428000000004,-0.0616401999999992,-0.00244,0,sub_15
-0.0147036000000002,0.0077934000000012,0.0305877999999999,0.0255620000000004,-0.0490623999999992,-0.011584,0,sub_15
-0.0089118000000002,0.0058118000000012,0.0333197999999999,0.0305454000000004,-0.0413729999999992,-0.0207458,0,sub_15
-0.0023224000000002,0.0033980000000012,0.0355329999999999,0.0316468000000004,-0.0409217999999993,-0.0280026,0,sub_15
0.0045533999999997,0.0020584000000012,0.0358877999999999,0.0284136000000004,-0.0515495999999993,-0.03143,0,sub_15
0.0101129999999997,0.0003256000000012,0.0352831999999999,0.0212822000000004,-0.0704907999999993,-0.0303872,0,sub_15
0.0130989999999997,1.700000000125733e-05,0.0334869999999999,0.0130408000000004,-0.0951961999999993,-0.0254992,0,sub_15
0.0129147999999997,-0.0013205999999987,0.0319649999999999,0.0060758000000004,-0.1177873999999992,-0.017614,0,sub_15
0.0118119999999997,-0.0024373999999987,0.0315465999999999,0.0017212000000004,-0.1278233999999993,-0.0082312,0,sub_15
0.0091391999999997,-0.0035797999999987,0.0318007999999999,0.0012936000000004,-0.1189101999999993,0.0009411999999998,0,sub_15
0.0059199999999997,-0.0034047999999987,0.0317155999999999,0.0045430000000004,-0.1004165999999993,0.0086311999999998,0,sub_15
0.0016755999999997,-0.0030639999999987,0.0316875999999999,0.0088786000000004,-0.0787265999999993,0.0152565999999998,0,sub_15
-0.0031980000000002,-0.0020727999999987,0.0324039999999999,0.0125796000000004,-0.0572413999999993,0.0203823999999998,0,sub_15
-0.0071396000000002,-0.0005587999999987,0.0322193999999999,0.0136944000000004,-0.0434093999999993,0.0235769999999998,0,sub_15
-0.0108884000000002,0.0013944000000012,0.0308471999999999,0.0106908000000004,-0.0442623999999993,0.0263343999999998,0,sub_15
-0.0145696000000002,0.0022980000000012,0.0308895999999999,0.0036150000000004,-0.0487245999999993,0.0294953999999999,0,sub_15
-0.0200556000000002,0.0040118000000012,0.0316117999999999,-0.0047075999999995,-0.0469987999999993,0.0313577999999999,0,sub_15
-0.0234296000000002,0.0068142000000012,0.0320903999999999,-0.0112951999999995,-0.0407979999999993,0.0315173999999998,0,sub_15
-0.0288066000000002,0.0088994000000012,0.0344941999999999,-0.0108023999999995,-0.0260989999999993,0.0315019999999998,0,sub_15
-0.0362862000000002,0.0077246000000012,0.0368839999999999,-0.0046955999999995,0.0013716000000006,0.0295865999999998,0,sub_15
-0.0423238000000002,0.0050046000000012,0.0383501999999999,0.0065628000000004,0.0337322000000006,0.0257781999999998,0,sub_15
-0.0455674000000001,0.0005586000000012,0.0391731999999999,0.0199368000000004,0.0616130000000006,0.0215629999999998,0,sub_15
-0.0479776000000001,-0.0046789999999987,0.0399587999999999,0.0356414000000004,0.0850148000000006,0.0165151999999998,0,sub_15
-0.0487458000000001,-0.0098011999999987,0.0386765999999999,0.0455620000000004,0.1043846000000006,0.0125005999999998,0,sub_15
-0.0467720000000001,-0.0135673999999987,0.0395519999999999,0.0533230000000004,0.1190704000000006,0.0095449999999998,0,sub_15
-0.0444960000000002,-0.0136143999999987,0.0399135999999999,0.0563744000000004,0.1318490000000006,0.0080543999999998,0,sub_15
-0.0426836000000002,-0.0097139999999987,0.0391733999999999,0.0551402000000004,0.1442020000000006,0.0101663999999998,0,sub_15
-0.0426796000000002,-0.0057805999999987,0.0371913999999999,0.0451050000000004,0.1510216000000006,0.0184197999999998,0,sub_15
-0.0426104000000002,-0.0004209999999987,0.0350655999999999,0.0313898000000004,0.1482578000000006,0.0287959999999999,0,sub_15
-0.0403254000000002,0.0033050000000012,0.0318251999999999,0.0150516000000004,0.1329278000000006,0.0404519999999999,0,sub_15
-0.0392486000000002,0.0042364000000012,0.0296349999999999,0.0001794000000004,0.1105652000000006,0.0512725999999999,0,sub_15
-0.0352854000000002,0.0009294000000013,0.0288001999999999,-0.0133983999999995,0.0888476000000006,0.0595377999999999,0,sub_15
-0.0313808000000001,-0.0021473999999986,0.0290739999999999,-0.0226635999999995,0.0737332000000006,0.0644061999999998,0,sub_15
-0.0281258000000001,-0.0065837999999986,0.0297159999999999,-0.0286821999999995,0.0658636000000006,0.0662969999999998,0,sub_15
-0.0279560000000001,-0.0072629999999986,0.0305737999999999,-0.0333849999999995,0.0650236000000006,0.0673333999999998,0,sub_15
-0.0283090000000001,-0.0066791999999986,0.0307501999999999,-0.0368431999999995,0.0638298000000006,0.0675099999999998,0,sub_15
-0.0310340000000002,-0.0047983999999987,0.0302609999999999,-0.0371043999999995,0.0602870000000006,0.0662161999999998,0,sub_15
-0.0329614000000002,-0.0008927999999987,0.0294937999999999,-0.0358777999999995,0.0543998000000006,0.0638677999999999,0,sub_15
-0.0344414000000002,0.0038456000000012,0.0281069999999999,-0.0338369999999995,0.0401988000000006,0.0619629999999999,0,sub_15
-0.0349572000000002,0.0082380000000012,0.0257637999999999,-0.0324861999999995,0.0153456000000006,0.0604943999999999,0,sub_15
-0.0342654000000002,0.0098984000000012,0.0242193999999999,-0.0313305999999995,-0.0115069999999993,0.0613913999999999,0,sub_15
-0.0324626000000002,0.0107060000000012,0.0237641999999999,-0.0310247999999995,-0.0358067999999993,0.0639883999999999,0,sub_15
-0.0308230000000002,0.0098424000000012,0.0232953999999999,-0.0324095999999995,-0.0549931999999993,0.0680625999999999,0,sub_15
-0.0293174000000002,0.0082824000000012,0.0250659999999999,-0.0320759999999995,-0.0705679999999993,0.0732123999999999,0,sub_15
-0.0269878000000002,0.0055666000000012,0.0305241999999999,-0.0314847999999995,-0.0754941999999993,0.0792047999999999,0,sub_15
-0.0254780000000002,0.0062962000000012,0.0355073999999999,-0.0325889999999995,-0.0789187999999993,0.0841153999999999,0,sub_15
-0.0291198000000002,0.0045208000000012,0.0404147999999999,-0.0347771999999995,-0.0832037999999993,0.0920105999999999,0,sub_15
-0.0317602000000002,-0.0002745999999987,0.0458049999999999,-0.0346021999999995,-0.0876947999999993,0.0960767999999999,0,sub_15
-0.0343798000000002,-0.0054657999999987,0.0500121999999999,-0.0358737999999995,-0.0832263999999993,0.0986257999999999,0,sub_15
-0.0335042000000002,-0.0089635999999987,0.0528795999999999,-0.0366927999999995,-0.0727949999999993,0.1013841999999999,0,sub_15
-0.0323868000000002,-0.0132907999999987,0.0544125999999999,-0.0348735999999995,-0.0480859999999993,0.1011515999999999,0,sub_15
-0.0277694000000002,-0.0128945999999987,0.0546769999999999,-0.0349921999999995,-0.0269929999999993,0.1011235999999999,0,sub_15
-0.0210258000000002,-0.0084369999999987,0.0553079999999999,-0.0377725999999995,-0.0265649999999992,0.1030263999999999,0,sub_15
-0.0152296000000002,-0.0055795999999987,0.0523681999999999,-0.0430027999999995,-0.0425593999999992,0.1113425999999999,0,sub_15
-0.0146206000000002,-0.0066367999999987,0.0483649999999999,-0.0416825999999995,-0.0813393999999993,0.1111877999999999,0,sub_15
-0.0044426000000002,-0.0035983999999987,0.0424387999999999,-0.0378893999999995,-0.1316647999999993,0.1189699999999999,0,sub_15
0.0049669999999997,-0.0012307999999987,0.0391107999999999,-0.0335829999999995,-0.1649389999999993,0.1245975999999998,0,sub_15
0.0127449999999997,-0.0003917999999987,0.0337129999999999,-0.0264731999999995,-0.1861007999999993,0.1357837999999999,0,sub_15
0.0244687999999997,-0.0001999999999987,0.0338453999999999,-0.0172831999999995,-0.2202621999999993,0.1459329999999999,0,sub_15
0.0371531999999997,0.0040260000000012,0.0338791999999999,-0.0136065999999995,-0.2407925999999993,0.1620081999999999,0,sub_15
0.0403699999999997,0.0027454000000012,0.0390857999999999,-0.0137243999999995,-0.2580855999999993,0.1710025999999999,0,sub_15
0.0435601999999997,0.0019194000000012,0.0404921999999999,-0.0079253999999995,-0.2934875999999993,0.1747203999999999,0,sub_15
0.0442077999999997,0.0003404000000012,0.0442245999999999,0.0048688000000004,-0.3459313999999993,0.1716723999999999,0,sub_15
0.0389885999999997,6.000000000125662e-05,0.0480783999999999,0.0413762000000004,-0.4079811999999993,0.1527789999999999,0,sub_15
0.0451863999999997,0.0040112000000012,0.0554819999999999,0.0591020000000004,-0.4754869999999993,0.1292747999999998,0,sub_15
0.0473769999999997,0.0060578000000012,0.0608779999999999,0.0695548000000004,-0.5344955999999993,0.1183137999999998,0,sub_15
0.0528977999999997,0.0051020000000012,0.0707643999999999,0.0869464000000004,-0.6118693999999995,0.1119113999999998,0,sub_15
0.0462177999999997,0.0029726000000012,0.0801325999999999,0.1032476000000004,-0.6568153999999994,0.0956321999999998,0,sub_15
0.0416391999999997,0.0003618000000012,0.0871957999999999,0.0981612000000004,-0.6678013999999994,0.0768099999999999,0,sub_15
0.0305533999999997,-0.0054653999999987,0.0907461999999999,0.1166302000000004,-0.6711549999999994,0.0470331999999998,0,sub_15
0.0259935999999997,-0.0058039999999987,0.0953155999999999,0.1411388000000004,-0.6759569999999993,0.0012769999999999,0,sub_15
