userAcceleration.x,userAcceleration.y,userAcceleration.z,rotationRate.x,rotationRate.y,rotationRate.z,label,subject
-0.0293768000000001,-0.0097485999999987,0.0376075999999999,0.0363676000000005,-0.1230457999999991,-0.0039701999999999,0,sub_17
-0.0364512000000001,-0.0148495999999987,0.0415067999999999,0.0410754000000005,-0.1243233999999991,-0.0082085999999999,0,sub_17
-0.0417762000000001,-0.0184699999999987,0.0446645999999999,0.0412832000000005,-0.1148897999999991,-0.0120585999999999,0,sub_17
-0.0457554000000001,-0.0210867999999987,0.0478207999999999,0.0372658000000005,-0.0954301999999991,-0.0153101999999999,0,sub_17
-0.0458532000000001,-0.0210749999999987,0.0488361999999999,0.0309110000000005,-0.0717097999999991,-0.0164471999999999,0,sub_17
-0.0447260000000001,-0.0199273999999987,0.0482623999999999,0.0243446000000005,-0.0450161999999991,-0.0150255999999999,0,sub_17
-0.0445494000000001,-0.0185609999999987,0.0455331999999999,0.0188470000000004,-0.0151415999999991,-0.0108233999999999,0,sub_17
-0.0433848000000001,-0.0166247999999987,0.0424193999999999,0.0138528000000004,0.0168190000000008,-0.0070537999999999,0,sub_17
-0.0420154000000001,-0.0140257999999987,0.0390627999999999,0.0126838000000004,0.0432352000000008,-0.0053865999999999,0,sub_17
-0.0391738000000001,-0.0114493999999987,0.0354879999999999,0.0124648000000004,0.0651512000000008,-0.0047445999999999,0,sub_17
-0.0353310000000001,-0.0092047999999987,0.0328851999999999,0.0126438000000004,0.0796132000000008,-0.0051585999999999,0,sub_17
-0.0316996000000001,-0.0063551999999987,0.0320243999999999,0.0123624000000004,0.0859832000000008,-0.0062063999999999,0,sub_17
-0.0288426000000001,-0.0048653999999987,0.0313741999999999,0.0124884000000004,0.0891516000000008,-0.0061789999999999,0,sub_17
-0.0239810000000002,-0.0039733999999987,0.0304377999999999,0.0106828000000004,0.0923166000000008,-0.0036013999999999,0,sub_17
-0.0207868000000002,-0.0032837999999987,0.0294685999999999,0.0093786000000005,0.0906022000000008,2.3600000000022908e-05,0,sub_17
-0.0200238000000002,-0.0022071999999987,0.0280103999999999,0.0082704000000005,0.0848398000000008,0.0034414,0,sub_17
-0.0194090000000001,-0.0029645999999987,0.0252493999999999,0.0075880000000005,0.0773774000000008,0.005369,0,sub_17
-0.0195708000000001,-0.0031063999999987,0.0229419999999999,0.0090434000000004,0.0696988000000008,0.0062435999999999,0,sub_17
-0.0219112000000001,-0.0039897999999987,0.0217159999999999,0.0122814000000004,0.0663910000000008,0.0065443999999999,0,sub_17
-0.0235348000000001,-0.0047371999999987,0.0231791999999999,0.0146804000000004,0.0650088000000008,0.0055549999999999,0,sub_17
-0.0223196000000001,-0.0060669999999987,0.0245145999999999,0.0158098000000004,0.0657624000000008,0.0043403999999999,0,sub_17
-0.0204050000000001,-0.0068333999999987,0.0270155999999999,0.0152208000000004,0.0643898000000008,0.003544,0,sub_17
-0.0194762000000001,-0.0076161999999987,0.0283531999999999,0.0126960000000004,0.0594030000000008,0.002525,0,sub_17
-0.0186538000000001,-0.0071999999999986,0.0281871999999999,0.0085970000000004,0.0466450000000008,-0.0002645999999999,0,sub_17
-0.0176736000000002,-0.0067159999999986,0.0257233999999999,0.0047132000000004,0.0336758000000008,-0.0036933999999999,0,sub_17
-0.0169610000000002,-0.0063825999999986,0.0229689999999999,0.0016828000000004,0.0213402000000008,-0.0064759999999999,0,sub_17
-0.0162836000000002,-0.0054345999999987,0.0205629999999999,-0.0002691999999995,0.0134674000000008,-0.0073341999999999,0,sub_17
-0.0161828000000002,-0.0040143999999987,0.0185273999999999,-0.0022125999999994,0.0065358000000008,-0.0064001999999999,0,sub_17
-0.0163326000000002,-0.0030085999999987,0.0179809999999999,-0.0037225999999994,0.0021552000000008,-0.0043981999999999,0,sub_17
-0.0167114000000002,-0.0027207999999987,0.0178465999999999,-0.0050095999999994,0.0005410000000008,-0.0017571999999999,0,sub_17
-0.0180822000000002,-0.0033315999999987,0.0194933999999999,-0.0067175999999994,-0.0002175999999991,0.0004524,0,sub_17
-0.0197740000000002,-0.0040783999999987,0.0214337999999999,-0.0090475999999994,0.0020128000000008,0.0015856,0,sub_17
-0.0212038000000002,-0.0053155999999987,0.0242741999999999,-0.0120099999999994,0.0071382000000008,0.001131,0,sub_17
-0.0201860000000002,-0.0070173999999987,0.0262469999999999,-0.0169629999999994,0.0094682000000008,0.0013832,0,sub_17
-0.0173842000000002,-0.0074699999999987,0.0276167999999999,-0.0221475999999994,0.0090242000000008,0.0029192,0,sub_17
-0.0154000000000001,-0.0061639999999987,0.0270269999999999,-0.0258509999999994,0.0066540000000008,0.0053226,0,sub_17
-0.0163370000000001,-0.0052577999999987,0.0252757999999999,-0.0293581999999994,0.0004482000000008,0.0077324,0,sub_17
-0.0181952000000001,-0.0046813999999987,0.0236623999999999,-0.0318205999999994,-0.0110859999999991,0.009729,0,sub_17
-0.0217692000000001,-0.0032883999999987,0.0208873999999999,-0.0305901999999994,-0.0211081999999991,0.0108188,0,sub_17
-0.0258930000000001,-0.0028673999999987,0.0193009999999999,-0.0284717999999994,-0.0249489999999991,0.0104114,0,sub_17
-0.0278974000000002,-0.0033945999999986,0.0194859999999999,-0.0263177999999994,-0.0209067999999991,0.009994,0,sub_17
-0.0265520000000002,-0.0043337999999986,0.0229601999999999,-0.0237189999999994,-0.0121813999999991,0.0102146,0,sub_17
-0.0243712000000002,-0.0049907999999986,0.0267285999999999,-0.0224951999999994,-0.0047097999999991,0.0124198,0,sub_17
-0.0235746000000002,-0.0064077999999986,0.0323377999999999,-0.0251263999999994,0.0006402000000008,0.0156688,0,sub_17
-0.0237752000000002,-0.0074935999999987,0.0354611999999999,-0.0294915999999994,0.0002430000000008,0.0191266,0,sub_17
-0.0239276000000002,-0.0087529999999987,0.0375117999999999,-0.0338731999999994,-0.0050493999999991,0.021309,0,sub_17
-0.0252852000000001,-0.0086685999999987,0.0383167999999999,-0.0358931999999994,-0.0077907999999991,0.0228635999999999,0,sub_17
-0.0268344000000001,-0.0100421999999987,0.0380431999999999,-0.0365103999999994,-0.0028875999999991,0.0226391999999999,0,sub_17
-0.0270268000000001,-0.0109283999999987,0.0369753999999999,-0.0358491999999994,0.0003120000000008,0.0211441999999999,0,sub_17
-0.0259844000000001,-0.0102413999999987,0.0375353999999999,-0.0341981999999995,0.0030672000000008,0.0190579999999999,0,sub_17
-0.0268226000000001,-0.0089327999999987,0.0386109999999999,-0.0316889999999994,0.0075214000000008,0.0176163999999999,0,sub_17
-0.0270780000000001,-0.0091353999999987,0.0374851999999999,-0.0315403999999995,0.0085766000000008,0.0157354,0,sub_17
-0.0267038000000002,-0.0082327999999987,0.0370519999999999,-0.0333331999999994,0.0053758000000008,0.0142736,0,sub_17
-0.0262814000000001,-0.0074555999999987,0.0365263999999999,-0.0340399999999994,0.0070688000000008,0.013454,0,sub_17
-0.0278250000000001,-0.0082537999999987,0.0356467999999999,-0.0329521999999995,0.0113278000000008,0.0130288,0,sub_17
-0.0283860000000001,-0.0084987999999986,0.0348993999999999,-0.0329347999999995,0.0136774000000008,0.0115304,0,sub_17
-0.0286650000000001,-0.0077073999999987,0.0343101999999999,-0.0327117999999995,0.0149584000000008,0.0106758,0,sub_17
-0.0281604000000001,-0.0068265999999987,0.0326365999999999,-0.0291401999999994,0.0156982000000008,0.0090186,0,sub_17
-0.0281504000000002,-0.0051383999999986,0.0320399999999999,-0.0242749999999994,0.0194164000000008,0.0073668,0,sub_17
-0.0277406000000002,-0.0043951999999986,0.0324211999999999,-0.0200449999999994,0.0237778000000008,0.0052824,0,sub_17
-0.0261852000000002,-0.0054783999999987,0.0333855999999999,-0.0139091999999994,0.0249366000000008,0.0032152,0,sub_17
-0.0232608000000002,-0.0069913999999987,0.0354707999999999,-0.0086265999999994,0.0256740000000008,0.0007154,0,sub_17
-0.0208572000000002,-0.0068727999999987,0.0387399999999999,-0.0058325999999994,0.0297142000000008,0.0003026,0,sub_17
-0.0186452000000002,-0.0076375999999987,0.0411157999999999,-0.0056153999999994,0.0303536000000008,8.960000000004216e-05,0,sub_17
-0.0174858000000002,-0.0082687999999987,0.0427165999999999,-0.0066935999999994,0.0278006000000008,8.520000000004219e-05,0,sub_17
-0.0167014000000002,-0.0078127999999987,0.0420309999999999,-0.0105361999999994,0.0278122000000008,0.0004858,0,sub_17
-0.0170668000000002,-0.0062647999999987,0.0403941999999999,-0.0129067999999994,0.0266644000000008,0.0007,0,sub_17
-0.0167716000000002,-0.0057633999999987,0.0390401999999999,-0.0129177999999994,0.0267926000000008,-0.0005665999999999,0,sub_17
-0.0145702000000002,-0.0057123999999987,0.0386585999999999,-0.0110053999999994,0.0277654000000008,-0.0016071999999999,0,sub_17
-0.0103360000000002,-0.0048367999999987,0.0386389999999999,-0.0095361999999994,0.0261790000000008,-0.0015791999999999,0,sub_17
-0.0082720000000002,-0.0039691999999987,0.0402907999999999,-0.0068067999999994,0.0211750000000008,-0.0004699999999999,0,sub_17
-0.0082504000000002,-0.0038383999999987,0.0423889999999999,-0.0047047999999994,0.0156222000000008,0.0010472,0,sub_17
-0.0084928000000001,-0.0043235999999987,0.0426937999999999,-0.0043355999999994,0.0043228000000008,0.0025598,0,sub_17
-0.0112706000000001,-0.0047041999999987,0.0416567999999999,-0.0041731999999994,-0.0056965999999991,0.0038558,0,sub_17
-0.0144628000000001,-0.0049421999999987,0.0407965999999999,-0.0037149999999994,-0.0091493999999991,0.0042766,0,sub_17
-0.0151562000000001,-0.0046053999999987,0.0385629999999999,-0.0027983999999994,-0.0066339999999991,0.0036248,0,sub_17
-0.0141454000000001,-0.0043615999999987,0.0367709999999999,-0.0010357999999994,-0.0058259999999991,0.0029812,0,sub_17
-0.0131224000000001,-0.0037877999999987,0.0365933999999999,0.0024404000000005,-0.0033201999999991,0.002561,0,sub_17
-0.0122086000000001,-0.0034413999999987,0.0376923999999999,0.0050526000000005,-0.0029427999999991,0.002351,0,sub_17
-0.0115734000000001,-0.0036401999999987,0.0382393999999999,0.0076026000000004,-0.0057197999999991,0.0019452,0,sub_17
-0.0121538000000002,-0.0045607999999987,0.0397639999999999,0.0092876000000005,-0.0106259999999991,0.0019632,0,sub_17
-0.0132958000000002,-0.0050969999999987,0.0407159999999999,0.0108830000000005,-0.0117213999999991,0.0017102,0,sub_17
-0.0155972000000002,-0.0053481999999987,0.0408615999999999,0.0114184000000004,-0.0113217999999991,0.0014478,0,sub_17
-0.0176794000000002,-0.0053377999999987,0.0393793999999999,0.0128130000000004,-0.010707999999999,0.000123,0,sub_17
-0.0178658000000001,-0.0051497999999987,0.0378003999999999,0.0146362000000004,-0.010093799999999,-0.0016261999999999,0,sub_17
-0.0176014000000001,-0.0049091999999987,0.0363591999999999,0.0169052000000004,-0.0050077999999991,-0.0031641999999999,0,sub_17
-0.0172650000000001,-0.0039487999999987,0.0350821999999999,0.0192752000000004,-0.0005393999999991,-0.0037943999999999,0,sub_17
-0.0179476000000001,-0.0039039999999987,0.0336439999999999,0.0227036000000005,0.0013712000000008,-0.0050545999999999,0,sub_17
-0.0175108000000001,-0.0039109999999987,0.0334983999999999,0.0256966000000005,0.0015782000000008,-0.0061021999999999,0,sub_17
-0.0177976000000002,-0.0039295999999987,0.0335673999999999,0.0289028000000005,0.0028454000000008,-0.0060813999999999,0,sub_17
-0.0178598000000002,-0.0040339999999987,0.0338007999999999,0.0324380000000005,-0.0006201999999991,-0.0063255999999999,0,sub_17
-0.0184552000000002,-0.0049933999999987,0.0345487999999999,0.0355446000000005,-0.0049347999999991,-0.0069987999999999,0,sub_17
-0.0176460000000002,-0.0056455999999987,0.0346503999999999,0.0375802000000005,-0.0098857999999991,-0.0074651999999999,0,sub_17
-0.0165212000000002,-0.0065623999999987,0.0340711999999999,0.0404618000000004,-0.0171807999999991,-0.0085635999999999,0,sub_17
-0.0164066000000002,-0.0072025999999987,0.0335571999999999,0.0450504000000004,-0.0249061999999991,-0.0100767999999999,0,sub_17
-0.0178752000000001,-0.0075177999999986,0.0327925999999999,0.0488594000000004,-0.0334357999999991,-0.0115345999999999,0,sub_17
-0.0189282000000001,-0.0072543999999986,0.0302251999999999,0.0524398000000004,-0.0455857999999991,-0.0132031999999999,0,sub_17
-0.0209810000000001,-0.0053989999999987,0.0286495999999999,0.0558154000000004,-0.0545441999999991,-0.0135953999999999,0,sub_17
-0.0248964000000001,-0.0031889999999987,0.0257871999999999,0.0584828000000005,-0.0561323999999991,-0.0134039999999999,0,sub_17
-0.0280840000000001,-0.0026819999999986,0.0224385999999999,0.0592366000000005,-0.0560103999999991,-0.0130145999999999,0,sub_17
-0.0289766000000002,-0.0030069999999986,0.0208115999999999,0.0585362000000005,-0.0471479999999991,-0.0126465999999999,0,sub_17
-0.0281760000000002,-0.0050313999999986,0.0224741999999999,0.0568100000000005,-0.0286961999999991,-0.0118707999999999,0,sub_17
-0.0256874000000002,-0.0077631999999986,0.0259169999999999,0.0544400000000005,-0.0110941999999991,-0.0110983999999999,0,sub_17
-0.0222738000000002,-0.0100983999999986,0.0303431999999999,0.0495612000000005,-0.0034121999999991,-0.0098603999999999,0,sub_17
-0.0192480000000002,-0.0106591999999987,0.0350469999999999,0.0423018000000005,-0.0021177999999991,-0.0075625999999999,0,sub_17
-0.0187310000000002,-0.0105003999999987,0.0369861999999999,0.0357542000000005,-0.0038939999999991,-0.0044327999999999,0,sub_17
-0.0202886000000002,-0.0093263999999987,0.0365107999999999,0.0296190000000005,-0.0088673999999991,-0.0012959999999999,0,sub_17
-0.0237730000000002,-0.0085911999999987,0.0342921999999999,0.0249774000000005,-0.0151193999999991,0.000571,0,sub_17
-0.0275616000000002,-0.0081505999999987,0.0321843999999999,0.0237890000000005,-0.0130725999999991,0.0020242,0,sub_17
-0.0309766000000002,-0.0080319999999987,0.0291493999999999,0.0245402000000004,-0.0080445999999991,0.0022052,0,sub_17
-0.0330810000000002,-0.0070759999999987,0.0278469999999999,0.0262576000000004,-0.0063435999999991,0.0015742,0,sub_17
-0.0337626000000002,-0.0063557999999986,0.0268697999999999,0.0284076000000004,-0.0035779999999991,0.0007312,0,sub_17
-0.0319834000000002,-0.0062929999999986,0.0259549999999999,0.0309900000000004,0.0013132000000008,0.000743,0,sub_17
-0.0288384000000002,-0.0068551999999986,0.0262621999999999,0.0326940000000004,0.0006682000000008,0.0007558,0,sub_17
-0.0269488000000002,-0.0075611999999986,0.0273885999999999,0.0337814000000005,-0.0040607999999991,0.0009596,0,sub_17
-0.0248738000000002,-0.0081567999999986,0.0280663999999999,0.0342222000000005,-0.0107033999999991,0.0007338,0,sub_17
-0.0232584000000002,-0.0086239999999987,0.0288751999999999,0.0348676000000005,-0.0194761999999991,0.0002986,0,sub_17
-0.0221752000000002,-0.0084571999999987,0.0294123999999999,0.0340110000000004,-0.0295247999999991,0.0004954,0,sub_17
-0.0225018000000001,-0.0074153999999987,0.0273797999999999,0.0331390000000004,-0.0421335999999991,0.0015499999999999,0,sub_17
-0.0230008000000001,-0.0059155999999987,0.0262111999999999,0.0346058000000004,-0.0483163999999991,0.0013544,0,sub_17
-0.0276354000000001,-0.0066713999999987,0.0286859999999999,0.0384810000000004,-0.0417207999999991,0.0003048,0,sub_17
-0.0295568000000001,-0.0086587999999987,0.0338625999999999,0.0389662000000004,-0.0304237999999991,-0.0014153999999999,0,sub_17
-0.0284558000000001,-0.0106195999999987,0.0391753999999999,0.0324238000000004,-0.0105959999999991,-0.0034141999999999,0,sub_17
-0.0230594000000002,-0.0114399999999987,0.0445817999999999,0.0229248000000004,0.0183942000000008,-0.0030953999999999,0,sub_17
-0.0206382000000002,-0.0109727999999987,0.0477849999999999,0.0133636000000005,0.0352334000000008,-0.0010521999999999,0,sub_17
-0.0149850000000002,-0.0087907999999987,0.0463917999999999,0.0020014000000005,0.0303506000000008,0.0001516,0,sub_17
-0.0098898000000002,-0.0049747999999987,0.0397695999999999,-0.0053151999999994,0.0224752000000008,0.0003192,0,sub_17
-0.0067816000000002,-0.0014691999999987,0.0337255999999999,-0.0046933999999994,0.0184250000000008,0.0003288,0,sub_17
-0.0053770000000002,0.0005794000000012,0.0315799999999999,-0.0014907999999994,0.0173544000000008,-0.0011429999999999,0,sub_17
-0.0047518000000002,-0.0008087999999987,0.0332073999999999,0.0009568000000005,0.0178432000000008,-0.0032409999999999,0,sub_17
-0.0037986000000002,-0.0023663999999987,0.0330339999999999,0.0016620000000005,0.0108794000000008,-0.0049141999999999,0,sub_17
-0.0052336000000002,-0.0035185999999987,0.0339939999999999,0.0010274000000005,-0.0082281999999991,-0.0055129999999999,0,sub_17
-0.0084052000000002,-0.0038581999999987,0.0331009999999999,0.0005832000000005,-0.0326621999999991,-0.0063171999999999,0,sub_17
-0.0133890000000002,-0.0040191999999987,0.0314589999999999,0.0025138000000005,-0.0524109999999991,-0.0086063999999999,0,sub_17
-0.0142872000000001,-0.0022971999999987,0.0284695999999999,0.0037768000000005,-0.0577359999999991,-0.0100861999999999,0,sub_17
-0.0155678000000001,-0.0016949999999987,0.0282629999999999,0.0063516000000005,-0.0541247999999991,-0.0096455999999999,0,sub_17
-0.0179816000000001,-0.0023375999999987,0.0297181999999999,0.0093732000000005,-0.0458287999999991,-0.0089941999999999,0,sub_17
-0.0197642000000001,-0.0038323999999987,0.0316331999999999,0.0108688000000005,-0.0451955999999991,-0.0087709999999999,0,sub_17
-0.0216320000000001,-0.0049615999999986,0.0327483999999999,0.0104290000000005,-0.0547009999999991,-0.0085155999999999,0,sub_17
-0.0232114000000001,-0.0058727999999986,0.0326841999999999,0.0101890000000005,-0.0671897999999991,-0.0082549999999999,0,sub_17
-0.0243906000000001,-0.0057831999999986,0.0315651999999999,0.0106236000000005,-0.0720109999999991,-0.0079993999999999,0,sub_17
-0.0251952000000001,-0.0054299999999986,0.0306141999999999,0.0110784000000005,-0.0721459999999991,-0.0075359999999999,0,sub_17
-0.0255844000000001,-0.0052845999999987,0.0296295999999999,0.0117542000000005,-0.0710015999999991,-0.0075001999999999,0,sub_17
-0.0247324000000001,-0.0051069999999987,0.0278875999999999,0.0128228000000005,-0.0705793999999991,-0.0074931999999999,0,sub_17
-0.0232770000000001,-0.0048675999999987,0.0283177999999999,0.0141144000000005,-0.0682393999999991,-0.0077007999999999,0,sub_17
-0.0213236000000001,-0.0054269999999987,0.0299299999999999,0.0141356000000005,-0.0637643999999991,-0.0079199999999999,0,sub_17
-0.0184926000000001,-0.0055259999999987,0.0314607999999999,0.0131020000000005,-0.0617723999999991,-0.0076949999999999,0,sub_17
-0.0167838000000001,-0.0055171999999987,0.0334605999999999,0.0118454000000005,-0.0610613999999991,-0.0066151999999999,0,sub_17
-0.0169746000000002,-0.0050831999999987,0.0356263999999999,0.0097288000000005,-0.0616265999999991,-0.0053261999999999,0,sub_17
-0.0183096000000002,-0.0051101999999987,0.0362545999999999,0.0073930000000005,-0.0638937999999991,-0.0044637999999999,0,sub_17
-0.0193656000000002,-0.0047419999999987,0.0364709999999999,0.0050580000000004,-0.0659479999999991,-0.0036017999999999,0,sub_17
-0.0197676000000002,-0.0047783999999987,0.0355693999999999,0.0042132000000004,-0.0633907999999991,-0.0029699999999999,0,sub_17
-0.0194956000000001,-0.0042571999999987,0.0356761999999999,0.0040248000000004,-0.0570019999999991,-0.0021249999999999,0,sub_17
-0.0193216000000001,-0.0048389999999987,0.0365039999999999,0.0025996000000004,-0.0456159999999991,-0.0017073999999999,0,sub_17
-0.0182570000000001,-0.0049705999999987,0.0373179999999999,-0.0009725999999995,-0.0372053999999991,-0.0013009999999999,0,sub_17
-0.0169972000000001,-0.0045827999999987,0.0394285999999999,-0.0047571999999994,-0.0277321999999991,-4.279999999997775e-05,0,sub_17
-0.0162080000000001,-0.0050511999999987,0.0438235999999999,-0.0070365999999994,-0.0144343999999991,0.0025028,0,sub_17
-0.0171388000000001,-0.0064781999999987,0.0459995999999999,-0.0095467999999994,-0.0056071999999991,0.0044118,0,sub_17
-0.0184776000000001,-0.0074567999999987,0.0461851999999999,-0.0131941999999994,-0.0092197999999991,0.0052456,0,sub_17
-0.0207940000000001,-0.0087391999999987,0.0453419999999999,-0.0153461999999994,-0.0136847999999991,0.004809,0,sub_17
-0.0230484000000001,-0.0093889999999987,0.0421997999999999,-0.0146945999999994,-0.0132523999999991,0.0026766,0,sub_17
-0.0249612000000001,-0.0084585999999987,0.0376535999999999,-0.0140459999999994,-0.0143079999999991,-0.0003083999999999,0,sub_17
-0.0256758000000001,-0.0063787999999987,0.0348833999999999,-0.0124499999999994,-0.0106433999999991,-0.0022105999999999,0,sub_17
-0.0254550000000001,-0.0040383999999987,0.0329857999999999,-0.0074151999999995,-0.0014511999999991,-0.0040957999999999,0,sub_17
-0.0262038000000001,-0.0027047999999986,0.0312969999999999,-0.0030319999999995,0.0066720000000008,-0.0044885999999999,0,sub_17
-0.0251582000000001,-0.0028281999999986,0.0313565999999999,5.8600000000485175e-05,0.0122422000000008,-0.0046735999999999,0,sub_17
-0.0236870000000001,-0.0037131999999986,0.0320963999999999,0.0018670000000004,0.0173906000000008,-0.0048669999999999,0,sub_17
-0.0219454000000001,-0.0047735999999987,0.0332543999999999,0.0020870000000004,0.0180324000000008,-0.0057207999999999,0,sub_17
-0.0204354000000001,-0.0061065999999987,0.0337095999999999,0.0003580000000004,0.0141990000000008,-0.0046597999999999,0,sub_17
-0.0175366000000002,-0.0060273999999987,0.0355229999999999,-8.779999999951465e-05,0.0118492000000008,-0.0027369999999999,0,sub_17
-0.0171150000000002,-0.0060715999999987,0.0373087999999999,0.0014972000000004,0.0113118000000008,0.0011474,0,sub_17
-0.0184892000000002,-0.0058449999999987,0.0383179999999999,0.0036956000000004,0.0041702000000008,0.0044036,0,sub_17
-0.0207672000000002,-0.0063499999999987,0.0391947999999999,0.0062978000000004,-0.0089349999999991,0.0068158,0,sub_17
-0.0241898000000002,-0.0070599999999987,0.0403949999999999,0.0089488000000004,-0.0118111999999991,0.0085742,0,sub_17
-0.0283744000000002,-0.0086637999999987,0.0401891999999999,0.0116362000000004,-0.0082889999999991,0.0086154,0,sub_17
-0.0297988000000002,-0.0087367999999987,0.0393981999999999,0.0125252000000004,-0.0027431999999991,0.0062646,0,sub_17
-0.0289858000000002,-0.0085905999999987,0.0393219999999999,0.0123732000000005,0.0102564000000008,0.0056059999999999,0,sub_17
-0.0283708000000002,-0.0077413999999987,0.0380773999999999,0.0125734000000005,0.0275250000000008,0.0056195999999999,0,sub_17
-0.0266560000000002,-0.0070285999999987,0.0373337999999999,0.0144452000000005,0.0360560000000008,0.0048015999999999,0,sub_17
-0.0221080000000001,-0.0063059999999986,0.0371729999999999,0.0169378000000005,0.0396870000000008,0.0033533999999999,0,sub_17
-0.0195710000000001,-0.0053601999999986,0.0345817999999999,0.0183166000000005,0.0343674000000008,0.0034041999999999,0,sub_17
-0.0177774000000001,-0.0043879999999986,0.0306923999999999,0.0202876000000005,0.0177564000000008,0.0028326,0,sub_17
-0.0160048000000001,-0.0032665999999986,0.0272501999999999,0.0242870000000005,0.0053860000000008,0.0026628,0,sub_17
-0.0141580000000001,-0.0009841999999987,0.0240115999999999,0.0298010000000005,-0.0018779999999991,0.0029242,0,sub_17
-0.0135824000000002,0.0018230000000012,0.0206603999999999,0.0372164000000005,-0.0131975999999991,0.0034176,0,sub_17
-0.0139254000000002,0.0030936000000012,0.0196605999999999,0.0456900000000005,-0.0274993999999991,0.0028542,0,sub_17
-0.0143244000000002,0.0023572000000012,0.0206093999999999,0.0545750000000005,-0.0317341999999991,0.0010282,0,sub_17
-0.0137170000000002,0.0001108000000012,0.0229065999999999,0.0607072000000005,-0.0314843999999991,-0.0010365999999999,0,sub_17
-0.0138100000000001,-0.0029085999999987,0.0270671999999999,0.0617080000000005,-0.0335603999999991,-0.0031341999999999,0,sub_17
-0.0130494000000001,-0.0062471999999987,0.0324681999999999,0.0575936000000005,-0.0334911999999991,-0.0044155999999999,0,sub_17
-0.0109322000000001,-0.0091479999999987,0.0381665999999999,0.0496518000000004,-0.0295769999999991,-0.0048741999999999,0,sub_17
-0.0098060000000001,-0.0105215999999987,0.0435693999999999,0.0372724000000004,-0.0291127999999991,-0.0036793999999999,0,sub_17
-0.0107792000000001,-0.0110931999999987,0.0472109999999999,0.0223134000000005,-0.0326885999999991,-0.0022837999999999,0,sub_17
-0.0125210000000002,-0.0112135999999987,0.0480135999999999,0.0082146000000005,-0.0343513999999991,-0.0004571999999999,0,sub_17
-0.0166686000000002,-0.0104291999999987,0.0457265999999999,-0.0044007999999994,-0.0334755999999991,0.0016064,0,sub_17
-0.0217242000000001,-0.0095427999999987,0.0418477999999999,-0.0150745999999994,-0.0289803999999991,0.0026106,0,sub_17
-0.0253996000000001,-0.0087889999999987,0.0370289999999999,-0.0229401999999994,-0.0176735999999991,0.002771,0,sub_17
-0.0269190000000001,-0.0069591999999987,0.0340535999999999,-0.0275821999999994,-0.0019011999999991,0.0023074,0,sub_17
-0.0264044000000001,-0.0058007999999987,0.0330265999999999,-0.0307181999999994,0.0166354000000008,0.0018506,0,sub_17
-0.0238004000000001,-0.0052795999999986,0.0334919999999999,-0.0334287999999994,0.0287968000000008,-0.0001067999999999,0,sub_17
