userAcceleration.x,userAcceleration.y,userAcceleration.z,rotationRate.x,rotationRate.y,rotationRate.z,label,subject
0.0253137999999996,-0.0086587999999987,0.0116778,0.0534854000000005,0.0137228000000008,0.0240999999999999,0,sub_15
0.0237121999999996,-0.0039389999999986,0.0130943999999999,0.0668242000000005,-0.0014825999999991,0.0321175999999999,0,sub_15
0.0134587999999996,-0.0001959999999986,0.0107049999999999,0.0714646000000005,-0.0045175999999991,0.0411269999999999,0,sub_15
0.0081035999999996,-0.0024435999999986,0.0161075999999999,0.0618236000000005,-0.0023969999999991,0.0519527999999999,0,sub_15
0.0135931999999996,-0.0093779999999986,0.0215235999999999,0.0466684000000005,0.0001972000000008,0.0556891999999999,0,sub_15
0.0195207999999996,-0.0134887999999986,0.0256005999999999,0.0395936000000005,-0.0242109999999991,0.0385795999999999,0,sub_15
0.0125841999999996,-0.0090419999999986,0.0268277999999999,0.0271164000000005,-0.0656371999999991,0.0195311999999999,0,sub_15
0.0107499999999996,-0.0029191999999987,0.0320479999999999,-0.0009791999999994,-0.1102293999999991,0.0065733999999999,0,sub_15
0.0108643999999996,7.920000000128692e-05,0.0336775999999999,-0.0309595999999994,-0.1431123999999991,-0.002567,0,sub_15
0.0058437999999996,0.0021382000000012,0.0317892,-0.0563187999999994,-0.1883841999999991,-0.0078136,0,sub_15
0.0059401999999996,0.0090328000000012,0.032364,-0.0793059999999994,-0.2190001999999991,-0.0038756,0,sub_15
0.0126557999999996,0.0046660000000012,0.0311158,-0.0874793999999994,-0.2228493999999991,0.0067543999999999,0,sub_15
0.0178255999999996,-0.0037717999999986,0.0298515999999999,-0.0766261999999994,-0.2212153999999991,0.0149465999999999,0,sub_15
0.0148401999999996,3.940000000128702e-05,0.0294345999999999,-0.0582503999999994,-0.2123439999999991,0.0182683999999999,0,sub_15
0.0142005999999996,-0.0005641999999987,0.0295977999999999,-0.0426011999999994,-0.200874799999999,0.0136627999999999,0,sub_15
0.0167467999999996,-0.0169623999999987,0.0275923999999999,-0.0285191999999994,-0.1748455999999991,-0.0076368,0,sub_15
0.0126617999999996,-0.0123493999999987,0.0312279999999999,-0.0160213999999994,-0.1344839999999991,-0.041998,0,sub_15
-0.0002312000000003,-0.0023895999999987,0.0318364,-0.0089785999999994,-0.1020625999999991,-0.0573728,0,sub_15
-0.0047954000000003,0.0008734000000012,0.0315682,-0.0143669999999994,-0.0713449999999991,-0.06215,0,sub_15
-0.0158394000000003,0.0181852000000012,0.03724,-0.0221305999999994,-0.0313069999999991,-0.0513596,0,sub_15
-0.0288482000000003,0.0356854000000012,0.0449156,-0.0227821999999994,-0.0047899999999991,-0.0221288,0,sub_15
-0.0366878000000003,0.0343012000000012,0.0491714,-0.0175263999999994,0.0112488000000008,0.0116431999999999,0,sub_15
-0.0312152000000003,0.0254912000000012,0.0537031999999999,-0.0086775999999994,0.0461086000000008,0.0242653999999999,0,sub_15
-0.0214338000000003,0.0168546000000012,0.0587155999999999,0.0121728000000005,0.0754564000000008,0.0196731999999999,0,sub_15
-0.0092178000000003,0.0022136000000012,0.0593927999999999,0.0391834000000005,0.0903282000000008,0.0068105999999999,0,sub_15
-0.0002918000000003,-0.0070341999999987,0.0568314,0.0542316000000005,0.1031078000000008,-0.0052784,0,sub_15
0.0086429999999996,-0.0109439999999987,0.0536083999999999,0.0556804000000005,0.1109894000000008,-0.0142264,0,sub_15
0.0153185999999996,-0.0092273999999987,0.0508592,0.0521392000000005,0.1043852000000008,-0.0193452,0,sub_15
0.0170095999999996,-0.0067867999999987,0.0468216,0.0440838000000005,0.0945838000000008,-0.0202186,0,sub_15
0.0170021999999996,-0.0006855999999987,0.0407077999999999,0.0315830000000005,0.0969250000000008,-0.0168657999999999,0,sub_15
0.0168885999999996,0.0079478000000012,0.0358865999999999,0.0225076000000005,0.1030842000000008,-0.0122117999999999,0,sub_15
0.0172289999999996,0.0103660000000012,0.0325833999999999,0.0177722000000005,0.0992444000000008,-0.006899,0,sub_15
0.0149731999999996,0.0100730000000012,0.0335455999999999,0.0157972000000005,0.0915634000000008,-0.0024164,0,sub_15
0.0125665999999996,0.0092854000000012,0.0363717999999999,0.0146736000000005,0.0819678000000008,0.0005791999999999,0,sub_15
0.0115433999999996,0.0067454000000012,0.0426813999999999,0.0125112000000005,0.0671218000000008,-0.0002694,0,sub_15
0.0104189999999996,0.0015664000000012,0.0484587999999999,0.0073550000000005,0.0480362000000008,-0.003911,0,sub_15
0.0078623999999996,0.0001790000000012,0.0524467999999999,-0.0024905999999994,0.0279102000000008,-0.0097204,0,sub_15
0.0063097999999996,-0.0003601999999986,0.051479,-0.0161939999999994,0.0045994000000008,-0.0149118,0,sub_15
0.0070023999999996,-0.0030947999999986,0.046388,-0.0305461999999993,-0.0193533999999991,-0.018825,0,sub_15
0.0091387999999996,-0.0067307999999986,0.0387043999999999,-0.0449475999999993,-0.0442245999999991,-0.0203894,0,sub_15
0.0113423999999996,-0.0039741999999986,0.0308521999999999,-0.0571681999999993,-0.0578149999999991,-0.0210984,0,sub_15
0.0131053999999996,2.040000000130687e-05,0.0225741999999999,-0.0639565999999993,-0.0539077999999991,-0.0190538,0,sub_15
0.0136719999999996,0.0037862000000012,0.0148505999999999,-0.0651311999999994,-0.0334095999999991,-0.0150684,0,sub_15
0.0131509999999996,0.0088990000000012,0.0106718,-0.0605341999999994,-0.0088903999999991,-0.0093388,0,sub_15
0.0116603999999996,0.0145048000000012,0.0068964,-0.0480087999999994,0.0205116000000008,-0.0061236,0,sub_15
0.0097195999999996,0.0140934000000012,0.00366,-0.0318945999999994,0.0422278000000008,-0.002019,0,sub_15
0.0082551999999996,0.0131020000000012,0.0037514,-0.0156495999999994,0.0517456000000008,0.0012869999999999,0,sub_15
0.0084855999999996,0.0110640000000012,0.0078018,0.0001398000000005,0.0521148000000008,0.0018239999999999,0,sub_15
0.0092159999999996,0.0080446000000012,0.0124616,0.0131574000000005,0.0499490000000008,-0.000646,0,sub_15
0.0107873999999996,0.0039850000000013,0.0185392,0.0217008000000005,0.0459398000000008,-0.0031422,0,sub_15
0.0132469999999996,0.0010072000000013,0.0238946,0.0268362000000005,0.0425842000000008,-0.006304,0,sub_15
0.0156175999999996,-0.0010669999999986,0.0281874,0.0315620000000005,0.0426408000000008,-0.0099002,0,sub_15
0.0183311999999996,-0.0011899999999986,0.0296844,0.0358650000000005,0.0443996000000008,-0.012647,0,sub_15
0.0208161999999996,-0.0002215999999986,0.0309058,0.0386954000000005,0.0529730000000008,-0.0132764,0,sub_15
0.0202817999999996,0.0014522000000012,0.0348896,0.0393980000000005,0.0680924000000008,-0.012009,0,sub_15
0.0195583999999996,0.0049434000000012,0.0419642,0.0405232000000005,0.0815092000000008,-0.011591,0,sub_15
0.0182403999999996,0.0050518000000012,0.0476324,0.0398956000000005,0.0855542000000008,-0.0103188,0,sub_15
0.0154197999999996,0.0027888000000012,0.0515812,0.0341038000000005,0.0800300000000008,-0.0090702,0,sub_15
0.0112035999999996,0.0013392000000012,0.0533162,0.0233884000000005,0.0611490000000008,-0.0090996,0,sub_15
0.0095113999999996,-0.0005421999999987,0.0487844,0.0121868000000005,0.0267260000000009,-0.0114626,0,sub_15
0.0090191999999995,-0.0049411999999987,0.0385278,-9.779999999942336e-05,-0.011315199999999,-0.0138286,0,sub_15
0.0085573999999995,-0.0051673999999987,0.0274838,-0.0140483999999994,-0.039764599999999,-0.0157912,0,sub_15
0.0089181999999996,-0.0019933999999987,0.018614,-0.0255969999999994,-0.054168599999999,-0.0158322,0,sub_15
0.0103399999999995,0.0017990000000012,0.0115772,-0.0313743999999994,-0.055011799999999,-0.0130942,0,sub_15
0.0089577999999996,0.0057476000000012,0.0075968,-0.0339061999999994,-0.0413965999999991,-0.0058654,0,sub_15
0.0053479999999996,0.0097190000000012,0.0081324,-0.0321711999999994,-0.0216355999999991,0.0024891999999999,0,sub_15
0.0018545999999996,0.0117968000000012,0.0105116,-0.0251121999999994,-0.0076321999999991,0.0074699999999999,0,sub_15
-0.0006614000000003,0.0122830000000012,0.0145338,-0.0131669999999994,-0.0032135999999991,0.0075833999999999,0,sub_15
-0.0031750000000003,0.0122694000000012,0.0187674,-0.0003681999999994,-0.0009199999999991,0.0055689999999999,0,sub_15
-0.0033658000000003,0.0110640000000012,0.0231632,0.0115780000000005,0.0001044000000008,0.0020547999999999,0,sub_15
-0.0028880000000003,0.0087764000000012,0.0288517999999999,0.0207742000000005,0.0013642000000008,-0.001301,0,sub_15
0.0004507999999996,0.0061388000000012,0.0358569999999999,0.0274088000000005,0.0036932000000008,-0.003394,0,sub_15
0.0031129999999996,0.0030798000000012,0.0414783999999999,0.0310746000000005,0.0117782000000008,-0.0038062,0,sub_15
0.0071375999999996,-0.0002191999999987,0.0468575999999999,0.0318236000000005,0.0213764000000008,-0.005041,0,sub_15
0.0098863999999996,-0.0007683999999987,0.0507187999999999,0.0308724000000005,0.0324718000000008,-0.0062898,0,sub_15
0.0119835999999996,-0.0003133999999987,0.0521537999999999,0.0273576000000005,0.0437860000000008,-0.006702,0,sub_15
0.0112947999999996,0.0004652000000012,0.0511201999999999,0.0206270000000005,0.0525514000000008,-0.006279,0,sub_15
0.0105375999999996,0.0012922000000012,0.0480173999999999,0.0114984000000005,0.0506698000000008,-0.0052179999999999,0,sub_15
0.0081231999999996,0.0017586000000012,0.0445525999999999,0.0009924000000005,0.0413244000000008,-0.0033566,0,sub_15
0.0069395999999996,0.0015720000000012,0.0404045999999999,-0.0101671999999994,0.0281498000000008,-0.0023494,0,sub_15
0.0078183999999996,0.0017396000000012,0.0354838,-0.0194073999999994,0.0128454000000008,-0.003249,0,sub_15
0.0084647999999996,0.0022126000000012,0.0310164,-0.0258583999999994,0.0013646000000008,-0.0037066,0,sub_15
0.0091919999999996,0.0023744000000012,0.02775,-0.0298873999999994,-0.0048729999999991,-0.0032522,0,sub_15
0.0101793999999996,0.0036644000000012,0.0238782,-0.0298499999999993,-0.0075061999999991,-0.0019196,0,sub_15
0.0103841999999996,0.0043664000000012,0.0210666,-0.0270281999999994,-0.0067445999999991,0.0004963999999999,0,sub_15
0.0091375999999996,0.0053068000000012,0.0194588,-0.0214083999999994,-2.9599999999128933e-05,0.0035653999999999,0,sub_15
0.0089489999999996,0.0063786000000012,0.0182512,-0.0151283999999994,0.0098838000000008,0.0053527999999999,0,sub_15
0.0091641999999996,0.0075934000000012,0.0180952,-0.0073971999999994,0.0215722000000008,0.0060325999999999,0,sub_15
0.0095183999999996,0.0067894000000012,0.0188726,0.0009636000000005,0.0294294000000008,0.0052263999999999,0,sub_15
0.0111961999999996,0.0055830000000012,0.0211713999999999,0.0092792000000005,0.0311574000000008,0.0017055999999999,0,sub_15
0.0127521999999996,0.0049446000000012,0.0226517999999999,0.0145798000000005,0.0267172000000008,-0.0018284,0,sub_15
0.0135265999999996,0.0039884000000012,0.0248641999999999,0.0177322000000005,0.0207864000000008,-0.0036662,0,sub_15
0.0138597999999996,0.0028762000000012,0.0272969999999999,0.0172516000000005,0.0159242000000008,-0.0031808,0,sub_15
0.0142105999999996,0.0022324000000012,0.0295897999999999,0.0135628000000005,0.0108542000000008,-0.001222,0,sub_15
0.0134769999999996,0.0030068000000012,0.0304222,0.0096694000000005,0.0023328000000008,0.0019663999999999,0,sub_15
0.0137721999999996,0.0021414000000012,0.0316346,0.0066122000000005,-0.0106631999999991,0.0045253999999999,0,sub_15
0.0135941999999996,0.0019922000000012,0.031997,0.0059078000000005,-0.0247231999999991,0.0047519999999999,0,sub_15
0.0131945999999996,0.0027704000000012,0.0320484,0.0075718000000005,-0.0392839999999991,0.0024831999999999,0,sub_15
0.0125969999999996,0.0047830000000012,0.0321406,0.0100912000000005,-0.0540583999999991,-0.0004204,0,sub_15
0.0121731999999996,0.0038300000000012,0.0340302,0.0126298000000005,-0.0637229999999991,-0.0024758,0,sub_15
0.0107931999999996,0.0037936000000012,0.0367156,0.0158564000000005,-0.0637979999999991,-0.0056068,0,sub_15
0.0097687999999996,0.0036644000000012,0.0392732,0.0167368000000005,-0.0630151999999991,-0.0081142,0,sub_15
0.0094759999999996,0.0038526000000012,0.0417114,0.0150316000000005,-0.0627953999999991,-0.00834,0,sub_15
0.0080847999999996,0.0023106000000012,0.0444058,0.0116348000000005,-0.0578875999999991,-0.0073018,0,sub_15
0.0068503999999996,0.0021144000000012,0.0459266,0.0073894000000005,-0.0540333999999991,-0.0084046,0,sub_15
0.0055979999999996,0.0029232000000012,0.0454103999999999,0.0022254000000005,-0.0572901999999991,-0.0081864,0,sub_15
0.0048745999999996,0.0020446000000012,0.0439829999999999,-0.0033651999999994,-0.0586357999999991,-0.0060508,0,sub_15
0.0033703999999996,0.0009098000000012,0.0425865999999999,-0.0080677999999994,-0.0537995999999991,-0.0054124,0,sub_15
0.0024459999999996,0.0008730000000012,0.0414631999999999,-0.0108451999999994,-0.0491781999999991,-0.006042,0,sub_15
0.0017365999999996,0.0015732000000012,0.0397039999999999,-0.0121329999999994,-0.0445653999999991,-0.0058066,0,sub_15
0.0015257999999996,0.0018452000000012,0.0383906,-0.0131537999999994,-0.033486199999999,-0.0049732,0,sub_15
0.0011119999999996,0.0040962000000012,0.0375124,-0.0126779999999994,-0.021985199999999,-0.0043436,0,sub_15
0.0011983999999996,0.0058030000000012,0.0372846,-0.0107277999999994,-0.0153873999999991,-0.0043383999999999,0,sub_15
0.0021747999999996,0.0067710000000012,0.0374754,-0.0075087999999994,-0.0105921999999991,-0.0053592,0,sub_15
0.0039551999999996,0.0064020000000012,0.0375568,-0.0040705999999994,-0.0040951999999991,-0.0059534,0,sub_15
0.0056821999999996,0.0051050000000012,0.0384762,-0.0010553999999994,0.0030432000000008,-0.006765,0,sub_15
0.0071643999999996,0.0033328000000012,0.0410602,-0.0003863999999994,0.0106152000000008,-0.00738,0,sub_15
0.0090035999999996,0.0011182000000012,0.0424101999999999,-0.0005871999999994,0.0152050000000008,-0.007356,0,sub_15
0.0107675999999996,-0.0005183999999987,0.0417919999999999,-0.0020817999999994,0.0149972000000008,-0.0073662,0,sub_15
0.0115579999999996,-2.699999999871347e-05,0.0398999999999999,-0.0061397999999994,0.0152202000000008,-0.0063266,0,sub_15
0.0128099999999996,0.0010706000000012,0.0378419999999999,-0.0108425999999994,0.0154412000000008,-0.0042232,0,sub_15
0.0146479999999996,0.0025914000000012,0.0343925999999999,-0.0134155999999994,0.0137414000000008,-0.0031706,0,sub_15
0.0149035999999996,0.0042240000000012,0.0309483999999999,-0.0149019999999994,0.0151358000000008,-0.0014578,0,sub_15
0.0145767999999996,0.0057658000000012,0.0281757999999999,-0.0157213999999994,0.0237666000000008,0.0015323999999999,0,sub_15
0.0146897999999996,0.0055464000000012,0.0269781999999999,-0.0148385999999994,0.0309018000000008,0.0041089999999999,0,sub_15
0.0145175999999996,0.0055584000000012,0.0258484,-0.0122565999999994,0.0339926000000008,0.0043525999999999,0,sub_15
0.0141039999999996,0.0048418000000012,0.0249049999999999,-0.0088305999999994,0.0345254000000007,0.0041779999999999,0,sub_15
0.0141053999999996,0.0050906000000012,0.0238693999999999,-0.0056299999999994,0.0340898000000008,0.0037735999999999,0,sub_15
0.0146831999999996,0.0049946000000012,0.0230101999999999,-0.0026551999999994,0.0302488000000007,0.0027309999999999,0,sub_15
0.0150725999999996,0.0056956000000012,0.0226043999999999,-0.0007719999999994,0.0253152000000008,0.0019045999999999,0,sub_15
0.0160651999999996,0.0051762000000012,0.0222447999999999,0.0002530000000005,0.0195314000000008,0.0012867999999999,0,sub_15
0.0165605999999996,0.0048184000000012,0.0234693999999999,-0.0014757999999994,0.0197168000000008,0.0021375999999999,0,sub_15
0.0171461999999996,0.0038038000000012,0.0252374,-0.0036227999999994,0.0218212000000008,0.0029831999999999,0,sub_15
0.0177325999999996,0.0034818000000012,0.0269404,-0.0059889999999993,0.0226480000000008,0.0038287999999999,0,sub_15
0.0181161999999996,0.0030114000000012,0.0282176,-0.0079103999999993,0.0220172000000008,0.0033887999999999,0,sub_15
0.0173895999999996,0.0039976000000012,0.0291666,-0.0085525999999994,0.0215934000000008,0.0033847999999999,0,sub_15
0.0170359999999996,0.0047382000000012,0.0282546,-0.0062149999999994,0.0177572000000008,0.0016969999999999,0,sub_15
0.0168219999999996,0.0060214000000012,0.0265874,-0.0034833999999994,0.0127482000000008,-0.0003936,0,sub_15
0.0164069999999996,0.0061988000000012,0.0251736,-0.0005249999999994,0.0109334000000008,-0.002273,0,sub_15
0.0154469999999996,0.0058860000000012,0.0248041999999999,0.0024478000000005,0.0129510000000008,-0.0035162,0,sub_15
0.0146251999999996,0.0048094000000012,0.0246667999999999,0.0041364000000005,0.0139086000000008,-0.0049808,0,sub_15
0.0141301999999996,0.0041712000000012,0.0251409999999999,0.0034558000000005,0.0108230000000008,-0.0056022,0,sub_15
0.0135875999999996,0.0025644000000012,0.0262753999999999,0.0015134000000005,0.0059296000000009,-0.0056096,0,sub_15
0.0129677999999996,0.0028152000000012,0.0269093999999999,-0.0015025999999994,-0.000875999999999,-0.0060492,0,sub_15
0.0131899999999996,0.0030714000000012,0.0263742,-0.0045243999999994,-0.008535399999999,-0.0060606,0,sub_15
0.0125463999999996,0.0048750000000012,0.0255826,-0.0073309999999994,-0.013939199999999,-0.0049804,0,sub_15
0.0120969999999996,0.0051268000000012,0.0250818,-0.0084191999999994,-0.016792399999999,-0.0038916,0,sub_15
0.0120337999999996,0.0060858000000012,0.0243162,-0.0082117999999994,-0.0173021999999991,-0.0038648,0,sub_15
0.0117591999999996,0.0057658000000012,0.0253872,-0.0067117999999994,-0.0150467999999991,-0.0038326,0,sub_15
0.0110385999999996,0.0059120000000012,0.0276916,-0.0049935999999994,-0.0123633999999991,-0.0044404,0,sub_15
0.0107463999999996,0.0052742000000012,0.0299292,-0.0045563999999994,-0.0102335999999991,-0.0046538,0,sub_15
0.0093775999999996,0.0038768000000012,0.032444,-0.0051897999999994,-0.0089521999999991,-0.0048734,0,sub_15
0.0088231999999996,0.0030180000000012,0.0348805999999999,-0.0060539999999994,-0.0119293999999991,-0.0055166,0,sub_15
0.0083773999999996,0.0020702000000012,0.0355311999999999,-0.0075619999999994,-0.0159685999999991,-0.0063766,0,sub_15
0.0088319999999996,0.0018360000000012,0.0343061999999999,-0.0092611999999994,-0.0173949999999991,-0.0063604,0,sub_15
0.0094417999999996,0.0008366000000012,0.0325853999999999,-0.0094523999999994,-0.0158427999999991,-0.0065512,0,sub_15
0.0107263999999996,0.0022610000000012,0.0295447999999999,-0.0098445999999994,-0.0108837999999991,-0.006107,0,sub_15
0.0102477999999996,0.0029898000000012,0.0280637999999999,-0.0110813999999994,-0.0023065999999991,-0.0039642,0,sub_15
0.0102593999999996,0.0032526000000012,0.0272235999999999,-0.0123317999999994,0.0039244000000008,-0.0011774,0,sub_15
0.0095621999999996,0.0035020000000012,0.0280343999999999,-0.0138407999999994,0.0026428000000008,0.0009499999999999,0,sub_15
0.0091865999999996,0.0036340000000012,0.0290897999999999,-0.0147267999999994,-0.0041737999999991,0.0013797999999999,0,sub_15
0.0082531999999996,0.0041540000000012,0.0307491999999999,-0.0147371999999994,-0.0129269999999991,0.0007615999999999,0,sub_15
0.0087771999999996,0.0038982000000012,0.0314216,-0.0136769999999994,-0.0214683999999991,-0.0004902,0,sub_15
0.0084837999999996,0.0047100000000012,0.0322996,-0.0123955999999994,-0.0285183999999991,-0.0019562,0,sub_15
0.0089351999999996,0.0047732000000012,0.0329872,-0.0104559999999994,-0.0317347999999991,-0.003636,0,sub_15
0.0095123999999996,0.0045054000000012,0.034351,-0.0093487999999994,-0.0294119999999991,-0.0044742,0,sub_15
0.0107275999999996,0.0035572000000012,0.0357896,-0.0084733999999994,-0.0245147999999991,-0.0044744,0,sub_15
0.0117583999999996,0.0032494000000012,0.0371807999999999,-0.0086713999999994,-0.0206807999999991,-0.0040534,0,sub_15
0.0125203999999996,0.0031432000000012,0.0381665999999999,-0.0093087999999994,-0.0196149999999991,-0.0036318,0,sub_15
0.0124697999999996,0.0025848000000012,0.0377825999999999,-0.0099535999999994,-0.0198291999999991,-0.0027814,0,sub_15
0.0120417999999996,0.0029804000000012,0.0376245999999999,-0.0109993999999994,-0.0203113999999991,-0.0019282,0,sub_15
0.0120755999999996,0.0032016000000012,0.0370681999999999,-0.0109763999999993,-0.0214319999999991,-0.0021348,0,sub_15
0.0114935999999996,0.0032674000000012,0.0363771999999999,-0.0103047999999994,-0.0208497999999991,-0.0025528,0,sub_15
0.0115995999999996,0.0033512000000012,0.0356825999999999,-0.0091909999999994,-0.0168601999999991,-0.0029722,0,sub_15
0.0117757999999996,0.0037126000000012,0.0359837999999999,-0.0080665999999994,-0.0107389999999991,-0.0036078,0,sub_15
0.0124353999999996,0.0033788000000012,0.0360863999999999,-0.0069767999999994,-0.0062659999999991,-0.0042468,0,sub_15
0.0116237999999996,0.0033234000000012,0.0361839999999999,-0.0067517999999994,-0.0039223999999991,-0.0044618,0,sub_15
0.0117241999999996,0.0027402000000012,0.0357795999999999,-0.0069369999999994,-0.0028909999999991,-0.004664,0,sub_15
0.0116443999999996,0.0027710000000012,0.0353771999999999,-0.0079775999999994,-0.0018583999999991,-0.0044448,0,sub_15
0.0112603999999996,0.0025790000000012,0.0350413999999999,-0.0094517999999994,-0.0016791999999991,-0.0035868,0,sub_15
0.0103037999999996,0.0033842000000012,0.0341128,-0.0102867999999994,-0.0019273999999991,-0.0029374,0,sub_15
0.0106373999999996,0.0035960000000012,0.033456,-0.0102663999999994,-0.0017523999999991,-0.0022826,0,sub_15
0.0103509999999996,0.0046522000000012,0.0330946,-0.0096187999999994,0.0001620000000008,-0.002067,0,sub_15
0.0099719999999996,0.0043892000000012,0.0331196,-0.0083241999999994,0.0033534000000008,-0.002062,0,sub_15
0.0099423999999996,0.0041200000000012,0.033834,-0.0068057999999994,0.0080388000000008,-0.002912,0,sub_15
0.0101373999999996,0.0035194000000012,0.0345644,-0.0059041999999994,0.0114538000000008,-0.0039594,0,sub_15
0.0099821999999996,0.0026124000000012,0.0349434,-0.0060725999999994,0.0144456000000008,-0.0048002,0,sub_15
0.0104117999999996,0.0023326000000012,0.0348568,-0.0066809999999994,0.0148804000000008,-0.0052134,0,sub_15
0.0112809999999996,0.0027712000000012,0.0340187999999999,-0.0075065999999994,0.0146760000000008,-0.0054138,0,sub_15
0.0117883999999996,0.0036836000000012,0.0323981999999999,-0.0085521999999994,0.0136176000000008,-0.0049736,0,sub_15
0.0120309999999996,0.0039778000000012,0.0311429999999999,-0.0085541999999994,0.0144646000000008,-0.0036928,0,sub_15
0.0122891999999996,0.0056942000000012,0.0305881999999999,-0.0076939999999994,0.0172262000000008,-0.0024084,0,sub_15
0.0118001999999996,0.0056028000000012,0.0307747999999999,-0.0055477999999994,0.0208374000000008,-0.0015434,0,sub_15
0.0108059999999996,0.0045038000000012,0.0313735999999999,-0.0025031999999994,0.0240462000000008,-0.001296,0,sub_15
0.0100273999999996,0.0033282000000012,0.0320706,0.0003260000000005,0.0268296000000008,-0.0010494,0,sub_15
0.0093989999999996,0.0031300000000012,0.032713,0.0022980000000005,0.0283394000000008,-0.0012346,0,sub_15
0.0083769999999996,0.0023612000000012,0.0335663999999999,0.0029832000000005,0.0277256000000008,-0.002067,0,sub_15
0.0070561999999996,0.0017986000000012,0.0338139999999999,0.0013202000000005,0.0277558000000008,-0.0020622,0,sub_15
0.0058813999999996,0.0022170000000012,0.0335261999999999,-0.0018871999999994,0.0271244000000008,-0.0012292,0,sub_15
0.0051089999999996,0.0029384000000012,0.0322787999999999,-0.0048819999999993,0.0262792000000008,-0.0003946,0,sub_15
