userAcceleration.x,userAcceleration.y,userAcceleration.z,rotationRate.x,rotationRate.y,rotationRate.z,label,subject
0.0199559999999998,-0.0383997999999987,0.1072685999999999,0.0127794000000005,0.0241368000000005,0.0101879999999999,0,sub_14
0.0192639999999998,-0.0367121999999987,0.1091037999999999,0.0151416000000005,0.0279744000000005,0.0095961999999999,0,sub_14
0.0192539999999998,-0.0346755999999987,0.1107369999999999,0.0162198000000005,0.0311762000000005,0.0092099999999999,0,sub_14
0.0179619999999998,-0.0356773999999987,0.1093989999999999,0.0149424000000005,0.0331054000000005,0.0094497999999999,0,sub_14
0.0163335999999998,-0.0370441999999987,0.1081219999999999,0.0130124000000005,0.0329038000000005,0.0103287999999999,0,sub_14
0.0145625999999997,-0.0380573999999987,0.1072449999999999,0.0125614000000005,0.0295012000000005,0.0112219999999999,0,sub_14
0.0150199999999998,-0.0389807999999987,0.1058305999999999,0.0131814000000005,0.0258736000000005,0.0120855999999999,0,sub_14
0.0152387999999998,-0.0403829999999987,0.1047596,0.0144558000000005,0.0248030000000005,0.0123093999999999,0,sub_14
0.0172311999999998,-0.0389201999999987,0.1056723999999999,0.0168162000000005,0.0269288000000005,0.0114685999999999,0,sub_14
0.0206721999999998,-0.0376139999999987,0.1052191999999999,0.0194438000000005,0.0318980000000005,0.0093669999999999,0,sub_14
0.0241197999999998,-0.0363459999999987,0.1042873999999999,0.0201616000000005,0.0390054000000005,0.0070357999999999,0,sub_14
0.0255083999999997,-0.0364161999999987,0.1028568,0.0187486000000005,0.0465472000000005,0.0044753999999999,0,sub_14
0.0265193999999997,-0.0368549999999987,0.1010478,0.0160438000000005,0.0521734000000005,0.0025493999999999,0,sub_14
0.0256689999999997,-0.0381777999999987,0.0986919999999999,0.0126644000000005,0.0516174000000005,0.0021221999999999,0,sub_14
0.0232173999999997,-0.0389835999999987,0.0973135999999999,0.0070678000000005,0.0418322000000005,0.0031637999999999,0,sub_14
0.0217271999999998,-0.0371749999999987,0.0987702,0.0014282000000005,0.0220350000000005,0.0037907999999999,0,sub_14
0.0212939999999998,-0.0353529999999987,0.1028795999999999,-0.0028883999999994,-0.0031837999999994,0.0025283999999999,0,sub_14
0.0217649999999998,-0.0331515999999987,0.1079068,-0.0061515999999994,-0.0330863999999993,-0.0004298,0,sub_14
0.0253285999999998,-0.0285187999999987,0.1135786,-0.0087737999999994,-0.0640515999999993,-0.0046642,0,sub_14
0.0297179999999998,-0.0243943999999987,0.1189965999999999,-0.0100821999999994,-0.0873521999999994,-0.0086854,0,sub_14
0.0331055999999998,-0.0251953999999987,0.1202751999999999,-0.0098499999999994,-0.0983085999999993,-0.010789,0,sub_14
0.0349723999999998,-0.0291051999999987,0.1176231999999999,-0.0068839999999994,-0.1027939999999993,-0.010549,0,sub_14
0.0346091999999998,-0.0346615999999987,0.1128393999999999,-0.0007057999999994,-0.1034607999999994,-0.0090094,0,sub_14
0.0326259999999998,-0.0417853999999987,0.1074933999999999,0.0084760000000005,-0.1005159999999994,-0.0074534,0,sub_14
0.0286237999999998,-0.0482921999999987,0.1009077999999999,0.0190280000000005,-0.0948919999999994,-0.0082282,0,sub_14
0.0239217999999998,-0.0518093999999987,0.0954737999999999,0.0281074000000005,-0.0862731999999994,-0.0107262,0,sub_14
0.0196013999999998,-0.0521095999999987,0.0921605999999999,0.0331644000000005,-0.0710337999999994,-0.013688,0,sub_14
0.0183877999999997,-0.0513799999999987,0.0905705999999999,0.0331340000000005,-0.0466221999999994,-0.0149882,0,sub_14
0.0178293999999998,-0.0514581999999987,0.0892387999999999,0.0277962000000005,-0.0143167999999994,-0.0144126000000001,0,sub_14
0.0191947999999998,-0.0519263999999987,0.0892818,0.0196098000000005,0.0199968000000005,-0.0102408000000001,0,sub_14
0.0210369999999998,-0.0515575999999987,0.0897077999999999,0.0103384000000005,0.0521760000000005,-0.0041512000000001,0,sub_14
0.0228303999999998,-0.0502063999999987,0.0909821999999999,0.0029692000000005,0.0807246000000005,0.0023835999999998,0,sub_14
0.0223171999999998,-0.0483921999999987,0.0915685999999999,-0.0001449999999994,0.1047912000000006,0.0072449999999998,0,sub_14
0.0215281999999998,-0.0448745999999987,0.0913411999999999,0.0012332000000005,0.1220758000000005,0.0097893999999998,0,sub_14
0.0211745999999998,-0.0409005999999987,0.0926047999999999,0.0055872000000005,0.1344590000000005,0.0100107999999998,0,sub_14
0.0212611999999998,-0.0387111999999987,0.0937841999999999,0.0114176000000005,0.1417288000000006,0.0089673999999998,0,sub_14
0.0235865999999998,-0.0366399999999987,0.0982899999999999,0.0163676000000005,0.1434606000000005,0.0083521999999998,0,sub_14
0.0269947999999998,-0.0343527999999987,0.1037885999999999,0.0180854000000005,0.1392338000000006,0.0087899999999998,0,sub_14
0.0308879999999998,-0.0332339999999987,0.1100885999999999,0.0182566000000005,0.1317686000000005,0.0107235999999998,0,sub_14
0.0350079999999998,-0.0333813999999987,0.1156677999999999,0.0177656000000005,0.1196176000000005,0.0128721999999998,0,sub_14
0.0373267999999998,-0.0327243999999987,0.1233795999999999,0.0174654000000005,0.1048690000000005,0.0147849999999998,0,sub_14
0.0368725999999998,-0.0319173999999986,0.1277219999999999,0.0175890000000005,0.0886310000000005,0.0158479999999999,0,sub_14
0.0355735999999998,-0.0307123999999986,0.1315291999999999,0.0174888000000005,0.0685646000000005,0.0154189999999999,0,sub_14
0.0317117999999998,-0.0287015999999987,0.1351212,0.0165140000000005,0.0421164000000005,0.0132827999999999,0,sub_14
0.0261505999999998,-0.0267427999999987,0.137033,0.0155382000000005,0.0133332000000005,0.0090131999999999,0,sub_14
0.0203335999999998,-0.0286991999999987,0.1355612,0.0147908000000005,-0.0173169999999994,0.0022105999999999,0,sub_14
0.0146453999999998,-0.0326249999999987,0.1310362,0.0144730000000004,-0.0500879999999994,-0.0073636,0,sub_14
0.0087127999999998,-0.0375195999999987,0.1259368,0.0150200000000004,-0.0822151999999994,-0.0188554000000001,0,sub_14
0.0028343999999998,-0.0430461999999987,0.1190222,0.0138870000000004,-0.1094319999999994,-0.0314334000000001,0,sub_14
-0.0019984000000001,-0.0473245999999987,0.1117619999999999,0.0091140000000005,-0.1326569999999994,-0.042356,0,sub_14
-0.0044838000000001,-0.0483253999999987,0.1045687999999999,-0.0016249999999994,-0.1516091999999994,-0.0509756000000001,0,sub_14
-0.0046092000000001,-0.0498927999999987,0.0971555999999999,-0.0189667999999994,-0.1652231999999994,-0.0568708,0,sub_14
-0.0017122000000001,-0.0522233999999987,0.0893252,-0.0403387999999994,-0.1715867999999994,-0.0608806000000001,0,sub_14
0.0038009999999998,-0.0546407999999987,0.08406,-0.0601911999999994,-0.1711421999999994,-0.0638204000000001,0,sub_14
0.0100865999999998,-0.0573749999999987,0.0818546,-0.0744545999999994,-0.1663947999999994,-0.0664898000000001,0,sub_14
0.0157413999999998,-0.0586589999999987,0.0820955999999999,-0.0803877999999994,-0.1593347999999994,-0.0686768000000001,0,sub_14
0.0198753999999998,-0.0577675999999987,0.0845787999999999,-0.0779879999999994,-0.1505959999999994,-0.0716622,0,sub_14
0.0248941999999998,-0.0546237999999987,0.0887915999999999,-0.0692091999999994,-0.1396135999999994,-0.0741754000000001,0,sub_14
0.0313875999999998,-0.0497417999999987,0.0932093999999999,-0.0595933999999994,-0.1297095999999994,-0.0741176000000001,0,sub_14
0.0395975999999998,-0.0427477999999987,0.0961795999999999,-0.0523503999999994,-0.1225789999999994,-0.0710818000000001,0,sub_14
0.0486961999999998,-0.0359555999999987,0.0990829999999999,-0.0496053999999994,-0.1169335999999993,-0.0657254000000001,0,sub_14
0.0564951999999998,-0.0313529999999987,0.1020897999999999,-0.0515575999999994,-0.1104253999999993,-0.0589074,0,sub_14
0.0607519999999997,-0.0289517999999986,0.1037103999999999,-0.0581835999999994,-0.1065929999999994,-0.0525492000000001,0,sub_14
0.0613977999999997,-0.0278369999999986,0.1017753999999999,-0.0643961999999994,-0.1078667999999993,-0.0483180000000001,0,sub_14
0.0580487999999997,-0.0307261999999987,0.0977427999999999,-0.0725407999999994,-0.1140247999999994,-0.0464442000000001,0,sub_14
0.0531615999999997,-0.0347385999999987,0.0918923999999999,-0.0828989999999994,-0.1280469999999994,-0.0460630000000001,0,sub_14
0.0475507999999997,-0.0356947999999987,0.0856831999999999,-0.0922487999999994,-0.1533717999999994,-0.0439512,0,sub_14
0.0434229999999997,-0.0359325999999987,0.0809683999999999,-0.0992877999999994,-0.1831931999999994,-0.0381854,0,sub_14
0.0434435999999998,-0.0340209999999987,0.0812056,-0.1039701999999994,-0.2064359999999994,-0.0279252,0,sub_14
0.0460677999999997,-0.0296715999999987,0.0849254,-0.0987979999999994,-0.2182193999999993,-0.0148334,0,sub_14
0.0470923999999998,-0.0295743999999987,0.0896889999999999,-0.0806985999999994,-0.2132231999999994,-0.0012538,0,sub_14
0.0456089999999998,-0.0346443999999987,0.093023,-0.0537713999999994,-0.1931205999999993,0.0098043999999998,0,sub_14
0.0407071999999998,-0.0391267999999987,0.0937059999999999,-0.0221107999999994,-0.1689675999999993,0.0161901999999998,0,sub_14
0.0306619999999998,-0.0447719999999987,0.0906837999999999,0.0092700000000005,-0.1493027999999994,0.0182883999999999,0,sub_14
0.0171665999999998,-0.0507471999999987,0.0859384,0.0333892000000005,-0.1342867999999994,0.0171371999999998,0,sub_14
0.0017751999999998,-0.0518745999999987,0.0791975999999999,0.0457500000000005,-0.1258285999999994,0.0144165999999998,0,sub_14
-0.0072010000000001,-0.0499223999999987,0.0730981999999999,0.0463370000000005,-0.1245781999999993,0.0129049999999998,0,sub_14
-0.0140956000000001,-0.0481007999999987,0.0689061999999999,0.0385880000000005,-0.1241603999999994,0.0136861999999998,0,sub_14
-0.0121562000000001,-0.0445229999999987,0.0727947999999999,0.0275088000000005,-0.1190141999999994,0.0150977999999998,0,sub_14
-0.0060160000000001,-0.0405121999999987,0.0780035999999999,0.0203032000000005,-0.1072743999999994,0.0158869999999999,0,sub_14
0.0057423999999998,-0.0388753999999987,0.0851599999999999,0.0216764000000005,-0.0870371999999994,0.0154433999999998,0,sub_14
0.0152305999999997,-0.0394475999999987,0.0901535999999999,0.0328344000000005,-0.0602907999999994,0.0129371999999998,0,sub_14
0.0258371999999997,-0.0392587999999987,0.094414,0.0508318000000005,-0.0318603999999994,0.0096221999999998,0,sub_14
0.0328341999999998,-0.0393903999999987,0.093832,0.0707276000000005,-0.0064271999999994,0.0082469999999998,0,sub_14
0.0404899999999997,-0.0393013999999987,0.0945585999999999,0.0848286000000005,0.0160256000000005,0.0113217999999998,0,sub_14
0.0487841999999997,-0.0381277999999987,0.0978141999999999,0.0895192000000004,0.0374306000000005,0.0181777999999998,0,sub_14
0.0569309999999998,-0.0340641999999987,0.1043317999999999,0.0857476000000004,0.0623330000000005,0.0277335999999998,0,sub_14
0.0643615999999998,-0.0329353999999987,0.1104684,0.0783698000000004,0.0921474000000005,0.0374715999999998,0,sub_14
0.0659963999999998,-0.0351673999999987,0.113231,0.0704370000000004,0.1241736000000005,0.0449987999999998,0,sub_14
0.0636617999999998,-0.0382699999999987,0.1138738,0.0646342000000004,0.1519450000000005,0.0491279999999998,0,sub_14
0.0546551999999998,-0.0395967999999987,0.1125451999999999,0.0632730000000005,0.1696924000000005,0.0520191999999998,0,sub_14
0.0449865999999998,-0.0407441999999987,0.1112699999999999,0.0657034000000005,0.1752874000000005,0.0536705999999998,0,sub_14
0.0355255999999998,-0.0399709999999987,0.1117421999999999,0.0702274000000005,0.1712900000000005,0.0547079999999999,0,sub_14
0.0290375999999998,-0.0382415999999987,0.1158615999999999,0.0757386000000005,0.1633868000000005,0.0549703999999998,0,sub_14
0.0239267999999998,-0.0364649999999987,0.1197799999999999,0.0823272000000005,0.1561258000000005,0.0535301999999998,0,sub_14
0.0232793999999998,-0.0366459999999987,0.1226295999999999,0.0872376000000005,0.1535648000000005,0.0503631999999998,0,sub_14
0.0231757999999997,-0.0376747999999987,0.1242407999999999,0.0898258000000005,0.1561270000000005,0.0467461999999998,0,sub_14
0.0216509999999998,-0.0383169999999987,0.1249221999999999,0.0881514000000005,0.1601938000000005,0.0435245999999998,0,sub_14
0.0191595999999997,-0.0391969999999987,0.1234719999999999,0.0822020000000005,0.1627832000000006,0.0404885999999998,0,sub_14
0.0157121999999997,-0.0397725999999987,0.1225711999999999,0.0728204000000005,0.1615488000000005,0.0376471999999998,0,sub_14
0.0127385999999997,-0.0398565999999987,0.1218897999999999,0.0638492000000005,0.1562666000000006,0.0343865999999999,0,sub_14
0.0104755999999998,-0.0398319999999987,0.1226322,0.0565754000000005,0.1477868000000005,0.0300735999999999,0,sub_14
0.0093261999999998,-0.0386241999999987,0.1240688,0.0533556000000005,0.1386564000000005,0.0251489999999999,0,sub_14
0.0103401999999998,-0.0371679999999987,0.1258086,0.0531432000000005,0.1329286000000005,0.0191727999999999,0,sub_14
0.0130781999999998,-0.0359213999999987,0.1263021999999999,0.0540284000000005,0.1333782000000005,0.0125553999999998,0,sub_14
0.0173701999999998,-0.0367153999999987,0.1262965999999999,0.0544992000000005,0.1363868000000005,0.0057181999999999,0,sub_14
0.0222729999999998,-0.0376393999999987,0.1246995999999999,0.0543270000000005,0.1398194000000005,-5.580000000009987e-05,0,sub_14
0.0270903999999998,-0.0399793999999987,0.1225829999999999,0.0526592000000005,0.1438920000000005,-0.0047728,0,sub_14
0.0299613999999998,-0.0410327999999987,0.1198906,0.0499084000000005,0.1464686000000005,-0.0073590000000001,0,sub_14
0.0319443999999998,-0.0424283999999987,0.1168448,0.0479986000000005,0.1477578000000005,-0.0084422000000001,0,sub_14
0.0331267999999998,-0.0415379999999987,0.1141341999999999,0.0482120000000005,0.1479692000000005,-0.0082272000000001,0,sub_14
0.0342771999999998,-0.0399421999999987,0.1107093999999999,0.0490608000000004,0.1481742000000005,-0.0069396,0,sub_14
0.0339543999999997,-0.0384729999999987,0.1062761999999999,0.0490522000000005,0.1481666000000006,-0.005017,0,sub_14
0.0327731999999997,-0.0387297999999987,0.1014015999999999,0.0479670000000005,0.1458200000000005,-0.0033124000000001,0,sub_14
0.0297091999999998,-0.0393345999999987,0.0972355999999999,0.0455786000000005,0.1379402000000005,-0.002037,0,sub_14
0.0264859999999998,-0.0398203999999987,0.0939837999999999,0.0417976000000005,0.1251308000000006,-0.0014542000000001,0,sub_14
0.0229823999999998,-0.0405411999999987,0.0927385999999999,0.0373734000000005,0.1095624000000005,-0.0030086000000001,0,sub_14
0.0212021999999997,-0.0405041999999987,0.0923389999999999,0.0321064000000005,0.0944308000000005,-0.0064922000000001,0,sub_14
0.0223783999999998,-0.0395933999999987,0.0928061999999999,0.0266328000000005,0.0805790000000005,-0.0101928,0,sub_14
0.0261749999999998,-0.0375881999999987,0.0935558,0.0209466000000005,0.0682142000000005,-0.0126148000000001,0,sub_14
0.0282013999999998,-0.0352545999999987,0.0943089999999999,0.0147078000000005,0.0560952000000005,-0.0134974,0,sub_14
0.0296315999999997,-0.0330659999999987,0.0948057999999999,0.0093104000000005,0.0437500000000005,-0.0118102,0,sub_14
0.0305369999999998,-0.0321903999999987,0.0947591999999999,0.0071096000000005,0.0316024000000005,-0.0090326,0,sub_14
0.0288175999999998,-0.0324935999999987,0.0941089999999999,0.0088364000000005,0.0192110000000005,-0.0075582,0,sub_14
0.0240735999999998,-0.0312239999999987,0.0924181999999999,0.0124884000000005,0.0044828000000005,-0.0094858,0,sub_14
0.0196239999999997,-0.0297887999999987,0.0893123999999999,0.0127342000000005,-0.0142585999999994,-0.0172004,0,sub_14
0.0148827999999997,-0.0308239999999987,0.0808591999999999,0.0012730000000005,-0.0348431999999994,-0.0333266000000001,0,sub_14
0.0145669999999997,-0.0340207999999987,0.0701635999999999,-0.0270463999999994,-0.0613121999999994,-0.0551178000000001,0,sub_14
0.0201491999999997,-0.0352167999999987,0.0612555999999999,-0.0704243999999994,-0.0970789999999993,-0.0773804,0,sub_14
0.0360127999999998,-0.0337933999999987,0.0603321999999999,-0.1178927999999994,-0.1364713999999994,-0.0951804,0,sub_14
0.0535791999999998,-0.0350951999999987,0.0674885999999999,-0.1561985999999994,-0.1689041999999994,-0.1030976,0,sub_14
0.0684173999999998,-0.0369391999999987,0.0789417999999999,-0.1768165999999994,-0.1933549999999994,-0.0978692,0,sub_14
0.0730737999999998,-0.0438167999999987,0.0916889999999999,-0.1709783999999994,-0.2068653999999993,-0.0809332,0,sub_14
0.0713167999999998,-0.0529625999999987,0.1024387999999999,-0.1435979999999994,-0.2153661999999994,-0.0568028000000001,0,sub_14
0.0618167999999998,-0.0640153999999987,0.1056301999999999,-0.1029587999999994,-0.2153985999999994,-0.0306678000000001,0,sub_14
0.0555637999999998,-0.0696605999999987,0.1069215999999999,-0.0547749999999994,-0.2018081999999994,-0.0079160000000001,0,sub_14
0.0480145999999998,-0.0724849999999987,0.1123409999999999,-0.0026733999999994,-0.1705371999999994,0.0107693999999998,0,sub_14
0.0425907999999998,-0.0676125999999987,0.1194109999999999,0.0424598000000005,-0.1262327999999994,0.0261845999999998,0,sub_14
0.0306903999999998,-0.0568543999999987,0.1254559999999999,0.0757342000000004,-0.0667401999999993,0.0365837999999998,0,sub_14
0.0174665999999998,-0.0476295999999987,0.1316053999999999,0.0904834000000004,-0.0037533999999993,0.0417215999999998,0,sub_14
-0.0004594000000001,-0.0402977999999987,0.1323585999999999,0.0813042000000004,0.0478308000000006,0.0420065999999998,0,sub_14
-0.0145484000000001,-0.0279701999999987,0.1312451999999999,0.0530868000000005,0.0779934000000005,0.0360023999999998,0,sub_14
-0.0235664000000001,-0.0145897999999987,0.1315071999999999,0.0190594000000005,0.0905202000000005,0.0231437999999998,0,sub_14
-0.0234962000000001,-0.0070495999999987,0.1337759999999999,-0.0083861999999994,0.0930214000000006,0.0075663999999999,0,sub_14
-0.0217214000000001,-0.0056861999999987,0.1346133999999999,-0.0226399999999994,0.0880160000000006,-0.0070546000000001,0,sub_14
-0.0187904000000001,-0.0077627999999987,0.1332127999999999,-0.0211501999999994,0.0765486000000005,-0.0177116,0,sub_14
-0.0150156000000001,-0.0146239999999987,0.1297516,-0.0103257999999994,0.0586346000000005,-0.0227404,0,sub_14
-0.0119326000000001,-0.0225115999999987,0.121555,-0.0008457999999994,0.0323920000000005,-0.0217860000000001,0,sub_14
-0.0090060000000001,-0.0287299999999987,0.1120029999999999,0.0009078000000005,-0.0002295999999993,-0.0172454,0,sub_14
-0.0072426000000001,-0.0293741999999987,0.1043146,-0.0052409999999994,-0.0336793999999993,-0.0119044000000001,0,sub_14
-0.0050310000000001,-0.0274333999999987,0.0992169999999999,-0.0173461999999994,-0.0636969999999993,-0.0072504,0,sub_14
-0.0025412000000001,-0.0254155999999987,0.0961664,-0.0291957999999994,-0.0870993999999993,-0.0053804,0,sub_14
-0.0004818000000002,-0.0232585999999987,0.0962465999999999,-0.0371547999999994,-0.1026195999999993,-0.006698,0,sub_14
0.0026089999999997,-0.0237121999999987,0.0966002,-0.0397421999999994,-0.1119713999999993,-0.0101224,0,sub_14
0.0079865999999997,-0.0257079999999987,0.0965129999999999,-0.0395471999999994,-0.1185663999999993,-0.0126764,0,sub_14
0.0127197999999997,-0.0289349999999987,0.0954899999999999,-0.0382985999999994,-0.1262381999999993,-0.0132988000000001,0,sub_14
0.0152913999999997,-0.0326543999999987,0.0938899999999999,-0.0385647999999994,-0.1349845999999994,-0.0102984000000001,0,sub_14
0.0187447999999997,-0.0353931999999987,0.0919375999999999,-0.0392615999999994,-0.1428839999999994,-0.0055930000000001,0,sub_14
0.0222273999999997,-0.0368129999999987,0.0911425999999999,-0.0405685999999994,-0.1448131999999993,-0.0015404000000001,0,sub_14
0.0253403999999998,-0.0379197999999987,0.0907519999999999,-0.0401331999999994,-0.1403507999999993,0.0010207999999999,0,sub_14
0.0289269999999998,-0.0379855999999987,0.0919034,-0.0375343999999994,-0.1303521999999993,0.0025217999999999,0,sub_14
0.0338747999999998,-0.0369949999999987,0.0924195999999999,-0.0336283999999994,-0.1158779999999993,0.0025303999999998,0,sub_14
0.0373007999999998,-0.0385891999999987,0.0917661999999999,-0.0297109999999994,-0.0988471999999993,0.0025359999999999,0,sub_14
0.0387277999999998,-0.0399999999999987,0.0909662,-0.0253965999999994,-0.0850273999999994,0.0059667999999999,0,sub_14
0.0389087999999998,-0.0402325999999987,0.0905605999999999,-0.0206841999999994,-0.0763273999999994,0.0106885999999999,0,sub_14
0.0379103999999998,-0.0403585999999987,0.0891983999999999,-0.0166193999999994,-0.0699661999999994,0.0147679999999999,0,sub_14
0.0373429999999998,-0.0409955999999987,0.0894604,-0.0127747999999994,-0.0657321999999994,0.0182077999999999,0,sub_14
0.0371933999999997,-0.0399041999999987,0.0914281999999999,-0.0087177999999994,-0.0631973999999994,0.0201555999999999,0,sub_14
0.0355869999999998,-0.0381511999999987,0.0943251999999999,-0.0040063999999994,-0.0602275999999994,0.0193299999999999,0,sub_14
0.0352985999999997,-0.0379769999999987,0.0972037999999999,-0.0016247999999995,-0.0542635999999994,0.0176299999999999,0,sub_14
0.0348935999999997,-0.0377281999999987,0.1002905999999999,-0.0022265999999994,-0.0472245999999994,0.0161211999999998,0,sub_14
0.0341525999999998,-0.0373315999999987,0.1017419999999999,-0.0045381999999994,-0.0406067999999994,0.0148145999999999,0,sub_14
0.0327187999999998,-0.0378635999999987,0.1031299999999999,-0.0079253999999994,-0.0346293999999994,0.0147831999999999,0,sub_14
0.0329215999999997,-0.0389091999999987,0.1034245999999999,-0.0113161999999994,-0.0297163999999994,0.0145395999999998,0,sub_14
0.0318555999999998,-0.0389453999999987,0.1029557999999999,-0.0125571999999994,-0.0265141999999994,0.0145379999999999,0,sub_14
0.0310597999999997,-0.0396039999999987,0.1018371999999999,-0.0106043999999994,-0.0254511999999994,0.0139205999999999,0,sub_14
0.0299147999999997,-0.0399639999999987,0.1008257999999999,-0.0069503999999994,-0.0258845999999993,0.0131033999999998,0,sub_14
0.0298515999999998,-0.0392555999999987,0.1003572,-0.0030895999999994,-0.0284467999999993,0.0116493999999998,0,sub_14
0.0304021999999997,-0.0378577999999987,0.1001163999999999,-0.0013761999999994,-0.0329231999999993,0.0112509999999998,0,sub_14
0.0308723999999997,-0.0371525999999987,0.1012883999999999,-0.0013885999999994,-0.0373903999999993,0.0095473999999998,0,sub_14
0.0325901999999997,-0.0375809999999987,0.1014229999999999,-0.0022373999999994,-0.0386563999999993,0.0071929999999998,0,sub_14
0.0341187999999997,-0.0385577999999987,0.1011629999999999,-0.0034901999999994,-0.0367225999999993,0.0055351999999999,0,sub_14
0.0348135999999997,-0.0395425999999987,0.1003077999999999,-0.0049571999999994,-0.0337279999999993,0.0051563999999998,0,sub_14
0.0344771999999998,-0.0406333999999987,0.0995279999999999,-0.0059935999999994,-0.0300949999999993,0.0045661999999998,0,sub_14
0.0341943999999997,-0.0414581999999987,0.0983983999999999,-0.0059757999999994,-0.0275377999999993,0.0056937999999998,0,sub_14
0.0325103999999997,-0.0415083999999987,0.0983667999999999,-0.0057569999999994,-0.0271141999999993,0.0074663999999998,0,sub_14
0.0314605999999997,-0.0411337999999987,0.0989697999999999,-0.0053369999999994,-0.0277583999999993,0.0083245999999998,0,sub_14
0.0309695999999997,-0.0394035999999987,0.1001459999999999,-0.0051179999999994,-0.0273295999999993,0.0074709999999999,0,sub_14
0.0305427999999997,-0.0385687999999987,0.1014001999999999,-0.0040347999999994,-0.0254089999999993,0.0057667999999999,0,sub_14
0.0300357999999997,-0.0386441999999987,0.1011467999999999,-0.0033667999999994,-0.0213545999999993,0.0036297999999999,0,sub_14
0.0310573999999997,-0.0385311999999987,0.0999815999999999,-0.0030469999999994,-0.0181053999999994,0.0017625999999999,0,sub_14
0.0321217999999998,-0.0382931999999987,0.0985949999999999,-0.0044437999999994,-0.0169805999999994,-0.0001138,0,sub_14
0.0326671999999998,-0.0389829999999987,0.0978124,-0.0058521999999994,-0.0175637999999994,-0.0011336,0,sub_14
0.0337747999999998,-0.0393955999999987,0.0970043999999999,-0.0072703999999994,-0.0190041999999994,-0.0008704,0,sub_14
0.0346387999999998,-0.0392599999999987,0.0970261999999999,-0.0078435999999994,-0.0221529999999994,-0.0003854,0,sub_14
0.0348671999999998,-0.0393447999999987,0.097963,-0.0082875999999994,-0.0249253999999994,0.0006833999999999,0,sub_14
0.0351421999999998,-0.0395469999999987,0.0994308,-0.0061605999999994,-0.0253631999999994,0.0017669999999999,0,sub_14
0.0363351999999998,-0.0402861999999987,0.1001163999999999,-0.0017679999999994,-0.0207423999999994,0.0028799999999999,0,sub_14
0.0368937999999998,-0.0417461999999987,0.1006127999999999,0.0045700000000005,-0.0110133999999994,0.0035727999999999,0,sub_14
0.0370015999999998,-0.0423197999999987,0.1010083999999999,0.0111346000000005,0.0023342000000005,0.0049033999999999,0,sub_14
