userAcceleration.x,userAcceleration.y,userAcceleration.z,rotationRate.x,rotationRate.y,rotationRate.z,label,subject
-0.0058974000000003,0.0069418000000013,-0.0074065999999999,0.0135050000000005,-0.0018567999999992,0.0001929999999999,0,sub_6
-0.0049460000000003,0.0054222000000013,-0.0047677999999999,0.0150140000000005,0.0006980000000007,-0.0006542,0,sub_6
-0.0037534000000003,0.0045284000000013,-0.0027289999999999,0.0124660000000005,0.0024158000000007,-0.0017424,0,sub_6
-0.0029656000000003,0.0030910000000013,-0.0037805999999999,0.0060668000000005,0.0018034000000007,-0.0028544,0,sub_6
-0.0012212000000003,0.0034588000000013,-0.0073255999999999,-0.0024575999999994,0.0005816000000007,-0.0033478,0,sub_6
1.9399999999614712e-05,0.0035860000000013,-0.0113887999999999,-0.0114067999999994,0.0008486000000007,-0.002778,0,sub_6
0.0001357999999996,0.0044756000000013,-0.0163761999999999,-0.0180041999999994,0.0028092000000007,-0.0015532,0,sub_6
0.0001641999999996,0.0063990000000013,-0.0196079999999999,-0.0201187999999994,0.0047558000000007,-0.0007242,0,sub_6
-0.0004104000000003,0.0083704000000012,-0.0224199999999999,-0.0175459999999994,0.0049824000000007,-7.40000000000884e-05,0,sub_6
-0.0006924000000003,0.0084810000000012,-0.0225615999999999,-0.0122135999999994,0.0039012000000007,-0.0006764,0,sub_6
-0.0006296000000004,0.0085776000000012,-0.0197951999999999,-0.0041081999999994,0.0028092000000008,-0.0010456,0,sub_6
-0.0016600000000004,0.0088996000000012,-0.0156549999999999,0.0048532000000005,0.0034274000000008,-0.0007806,0,sub_6
-0.0025322000000004,0.0076176000000012,-0.0124887999999999,0.0110400000000005,0.0042666000000008,-0.000108,0,sub_6
-0.0017558000000004,0.0058178000000012,-0.0097747999999999,0.0142394000000005,0.0046918000000008,0.0001169999999999,0,sub_6
-0.0006886000000004,0.0035824000000012,-0.0059751999999999,0.0140258000000005,0.0055542000000007,0.0005311999999999,0,sub_6
-2.3200000000405188e-05,0.0025230000000012,-0.0038241999999999,0.0097618000000005,0.0072830000000007,0.0009157999999998,0,sub_6
0.0007841999999995,0.0027894000000013,-0.0050545999999999,0.0031416000000005,0.0060278000000007,0.0008711999999998,0,sub_6
0.0014717999999995,0.0034828000000013,-0.0083091999999999,-0.0032681999999994,0.0039204000000007,0.0006153999999998,0,sub_6
0.0013015999999995,0.0039840000000013,-0.0112201999999999,-0.0079651999999994,0.0035098000000007,0.0007965999999998,0,sub_6
-0.0006274000000003,0.0063676000000013,-0.0145613999999999,-0.0099043999999994,0.0033158000000007,0.0016311999999998,0,sub_6
-0.0021656000000003,0.0076282000000013,-0.0178389999999999,-0.0090705999999994,0.0016260000000007,0.0012053999999999,0,sub_6
-0.0018982000000003,0.0069848000000013,-0.0194121999999999,-0.0054591999999994,0.0005664000000007,0.0005843999999999,0,sub_6
-0.0011594000000003,0.0063090000000013,-0.0180777999999999,-0.0005629999999994,0.0007798000000007,0.0001843999999999,0,sub_6
-0.0019398000000003,0.0066330000000013,-0.0162545999999999,0.0030532000000005,0.0012100000000007,-1.1000000000088405e-05,0,sub_6
-0.0017110000000003,0.0057134000000013,-0.0144911999999999,0.0049726000000005,-0.0002829999999992,-0.0012776,0,sub_6
0.0002685999999996,0.0044666000000013,-0.0132869999999999,0.0053964000000005,-0.0013479999999992,-0.0017006,0,sub_6
0.0011669999999996,0.0044870000000013,-0.0114101999999999,0.0032578000000005,-0.0019813999999992,-0.0012874,0,sub_6
0.0012801999999996,0.0043962000000013,-0.0111693999999999,-0.0005923999999994,-0.0032495999999992,-0.000458,0,sub_6
0.0013907999999996,0.0048974000000013,-0.0114165999999999,-0.0046695999999994,-0.0068395999999992,0.0001581999999999,0,sub_6
0.0018921999999996,0.0052598000000013,-0.0113549999999999,-0.0066081999999994,-0.0095837999999992,0.0005745999999999,0,sub_6
0.0006953999999996,0.0064856000000013,-0.0110315999999999,-0.0066197999999994,-0.0112679999999991,0.0005757999999999,0,sub_6
-0.0007782000000003,0.0069016000000013,-0.0106055999999999,-0.0055587999999994,-0.0121019999999991,0.0001559999999999,0,sub_6
-0.0023274000000003,0.0078424000000013,-0.0104047999999999,-0.0036423999999994,-0.0127249999999991,-0.0004716,0,sub_6
-0.0023312000000003,0.0077886000000013,-0.0097703999999999,-0.0017163999999994,-0.0118777999999992,-0.0008866,0,sub_6
-0.0032474000000003,0.0075660000000013,-0.0092527999999999,-0.0002141999999994,-0.0095411999999992,-0.0004518,0,sub_6
-0.0040172000000003,0.0071248000000013,-0.0092779999999999,0.0004298000000005,-0.0076301999999992,0.0006185999999999,0,sub_6
-0.0040302000000003,0.0070476000000013,-0.0099201999999999,0.0012750000000006,-0.0061289999999992,0.0014783999999999,0,sub_6
-0.0035288000000003,0.0067288000000012,-0.0091863999999999,0.0012638000000006,-0.0052639999999992,0.0023327999999999,0,sub_6
-0.0034514000000003,0.0060762000000012,-0.0098719999999999,0.0025310000000006,-0.0050417999999992,0.0029833999999999,0,sub_6
-0.0028624000000003,0.0054136000000012,-0.0107057999999999,0.0038010000000005,-0.0048169999999992,0.0029931999999998,0,sub_6
-0.0022520000000003,0.0057720000000012,-0.0106047999999999,0.0052920000000005,-0.0035251999999992,0.0023619999999999,0,sub_6
-0.0017618000000003,0.0059206000000012,-0.0105215999999999,0.0055084000000005,-0.0035233999999992,0.0017225999999999,0,sub_6
-0.0014080000000003,0.0052698000000012,-0.0117639999999999,0.0046570000000005,-0.0037309999999992,0.0010759999999999,0,sub_6
-0.0007258000000003,0.0050202000000012,-0.0125307999999999,0.0031682000000005,-0.0035093999999992,0.0002107999999999,0,sub_6
-0.0001718000000004,0.0054272000000012,-0.0119105999999999,0.0027502000000005,-0.0028635999999992,-0.0004314,0,sub_6
0.0002231999999995,0.0053738000000012,-0.0111191999999999,0.0021142000000005,-0.0028577999999992,-0.0006468,0,sub_6
-0.0004338000000004,0.0052666000000012,-0.0105583999999999,0.0008456000000005,-0.0013575999999992,-0.0010824,0,sub_6
-0.0019236000000004,0.0053458000000012,-0.0104577999999999,0.0010754000000005,0.0016272000000007,-0.001082,0,sub_6
-0.0031048000000004,0.0056026000000012,-0.0104865999999999,0.0027978000000005,0.0041814000000007,-0.0012844,0,sub_6
-0.0014194000000003,0.0047840000000013,-0.0117459999999999,0.0043164000000005,0.0092912000000007,-0.0017076,0,sub_6
-0.0006348000000003,0.0043482000000013,-0.0136075999999999,0.0060472000000005,0.0146116000000007,-0.0017024,0,sub_6
0.0012755999999996,0.0048364000000013,-0.0147271999999999,0.0069074000000005,0.0171610000000007,-0.0006314,0,sub_6
0.0029839999999996,0.0052338000000013,-0.0157769999999999,0.0071192000000005,0.0158758000000007,-0.000842,0,sub_6
0.0043305999999996,0.0044102000000013,-0.0154355999999999,0.0079732000000005,0.0150146000000007,-0.0010486,0,sub_6
0.0027719999999996,0.0044734000000013,-0.0146005999999999,0.0088232000000005,0.0141498000000007,-0.0004008,0,sub_6
0.0012665999999996,0.0053382000000013,-0.0143465999999999,0.0085988000000005,0.0111600000000007,-0.000185,0,sub_6
0.0003323999999996,0.0046146000000013,-0.0134155999999999,0.0081628000000005,0.0073238000000007,-0.0012516,0,sub_6
0.0009849999999996,0.0038906000000013,-0.0130029999999999,0.0075178000000005,0.0058362000000007,-0.0016816,0,sub_6
0.0001229999999996,0.0046848000000012,-0.0125555999999999,0.0051706000000005,0.0060566000000007,-0.0014846,0,sub_6
-0.0009912000000003,0.0060144000000012,-0.0134183999999999,0.0021786000000005,0.0045774000000007,-0.0019308,0,sub_6
-0.0011932000000003,0.0053470000000012,-0.0134681999999999,-0.0003835999999994,0.0026718000000007,-0.0025876,0,sub_6
-0.0007190000000003,0.0057218000000012,-0.0140921999999999,-0.0012341999999994,0.0022500000000007,-0.0028068,0,sub_6
-0.0008836000000003,0.0064206000000012,-0.0138455999999999,-0.0012311999999994,0.0018252000000007,-0.0030202,0,sub_6
-0.0002266000000003,0.0065600000000013,-0.0143587999999999,-0.0008109999999994,-0.0003071999999992,-0.0028014,0,sub_6
0.0003665999999996,0.0061484000000013,-0.0136343999999999,-0.0006099999999994,-0.0032927999999991,-0.0021556,0,sub_6
0.0009223999999995,0.0058972000000013,-0.0132353999999999,-0.0010453999999994,-0.0052087999999991,-0.0021562,0,sub_6
0.0008195999999995,0.0048974000000012,-0.0128545999999999,-0.0012615999999994,-0.0056349999999991,-0.0019436,0,sub_6
-3.040000000040558e-05,0.0053102000000012,-0.0120225999999999,-0.0014703999999994,-0.0058301999999992,-0.0015178,0,sub_6
-0.0003696000000003,0.0055860000000012,-0.0117215999999999,-0.0021031999999994,-0.0060215999999992,-0.0017358,0,sub_6
-0.0002142000000003,0.0057274000000012,-0.0120597999999999,-0.0027367999999994,-0.0066381999999992,-0.002167,0,sub_6
-0.0006598000000003,0.0064866000000012,-0.0119429999999999,-0.0029427999999994,-0.0061943999999992,-0.0017418,0,sub_6
-0.0015752000000003,0.0071482000000013,-0.0122265999999999,-0.0033687999999994,-0.0070289999999992,-0.001103,0,sub_6
-0.0019504000000003,0.0064904000000013,-0.0127341999999999,-0.0031601999999994,-0.0080951999999992,-0.0011,0,sub_6
-0.0028986000000003,0.0062060000000013,-0.0119921999999999,-0.0023065999999994,-0.0078859999999992,-0.0008806,0,sub_6
-0.0030988000000003,0.0066020000000013,-0.0119957999999999,-0.0012349999999994,-0.0066121999999992,-0.000661,0,sub_6
-0.0028904000000003,0.0068212000000013,-0.0120703999999999,-0.0010207999999994,-0.0061875999999992,-0.0004464,0,sub_6
-0.0019272000000003,0.0067312000000013,-0.0128161999999999,-0.0012369999999994,-0.0059525999999992,-0.0002378,0,sub_6
-0.0016284000000003,0.0076586000000013,-0.0133469999999999,-0.0016733999999994,-0.0065713999999992,0.0006113999999999,0,sub_6
-0.0008988000000003,0.0083792000000013,-0.0134529999999999,-0.0025421999999994,-0.0086793999999992,0.0012457999999998,0,sub_6
-0.0015420000000003,0.0071906000000013,-0.0116101999999999,-0.0042587999999993,-0.0099303999999992,0.0014457999999998,0,sub_6
-0.0020160000000003,0.0064696000000013,-0.0104067999999999,-0.0057569999999993,-0.0101169999999992,0.0016459999999998,0,sub_6
-0.0032494000000003,0.0065874000000013,-0.0085047999999999,-0.0057483999999993,-0.0086237999999992,0.0012169999999999,0,sub_6
-0.0034726000000003,0.0066090000000013,-0.0081189999999999,-0.0053091999999993,-0.0060677999999992,0.0010029999999999,0,sub_6
-0.0038968000000003,0.0070998000000013,-0.0077869999999999,-0.0044585999999993,-0.0041557999999992,0.0010055999999999,0,sub_6
-0.0041614000000003,0.0084770000000013,-0.0089219999999999,-0.0038231999999994,-0.0020327999999992,0.0016473999999999,0,sub_6
-0.0042980000000003,0.0077636000000012,-0.0088533999999999,-0.0016885999999994,0.0011512000000007,0.0020845999999999,0,sub_6
-0.0026150000000003,0.0070038000000012,-0.0096081999999999,-0.0008341999999994,0.0043396000000007,0.0025127999999998,0,sub_6
-0.0006600000000003,0.0053566000000012,-0.0085761999999999,0.0004480000000005,0.0077396000000007,0.0029437999999998,0,sub_6
0.0003671999999996,0.0047026000000012,-0.0102735999999999,0.0004634000000005,0.0119972000000007,0.0037929999999998,0,sub_6
0.0018605999999996,0.0040134000000012,-0.0114079999999999,0.0013188000000005,0.0122082000000007,0.0035851999999998,0,sub_6
0.0029631999999996,0.0045876000000013,-0.0129619999999999,0.0019542000000005,0.0109286000000007,0.0033775999999998,0,sub_6
0.0020405999999996,0.0044342000000013,-0.0130449999999999,0.0025828000000005,0.0083698000000007,0.0033853999999998,0,sub_6
0.0005863999999996,0.0052562000000013,-0.0140497999999999,0.0017014000000005,0.0060126000000007,0.0029575999999998,0,sub_6
0.0001249999999996,0.0048264000000013,-0.0136087999999999,0.0003912000000005,0.0032306000000007,0.0025273999999998,0,sub_6
0.0002801999999995,0.0048314000000013,-0.0131147999999999,-0.0002729999999994,0.0027858000000007,0.0031665999999998,0,sub_6
-0.0004314000000004,0.0052118000000013,-0.0122193999999999,-0.0005143999999994,0.0014872000000007,0.0038101999999998,0,sub_6
-0.0009900000000004,0.0062608000000013,-0.0122151999999999,-0.0011727999999994,0.0014718000000007,0.0035943999999998,0,sub_6
-0.0003382000000004,0.0054220000000013,-0.0116021999999999,-0.0016033999999994,-0.0004399999999992,0.0025255999999999,0,sub_6
0.0005325999999995,0.0047626000000013,-0.0106247999999999,-0.0009621999999994,-0.0012901999999992,0.0014627999999999,0,sub_6
0.0001525999999996,0.0050226000000013,-0.0099747999999999,-0.0018287999999994,-0.0027805999999992,0.0006115999999999,0,sub_6
-0.0002012000000003,0.0052892000000013,-0.0106585999999999,-0.0039755999999994,-0.0042663999999992,-0.0002486,0,sub_6
-0.0003036000000003,0.0056490000000012,-0.0108107999999999,-0.0046403999999994,-0.0074651999999992,-0.0002416,0,sub_6
-0.0014862000000003,0.0059956000000012,-0.0105017999999999,-0.0050859999999993,-0.0089619999999992,0.0001919999999998,0,sub_6
-0.0018652000000003,0.0062698000000012,-0.0096677999999999,-0.0055211999999993,-0.0089639999999992,-0.0002308000000001,0,sub_6
-0.0019214000000003,0.0059152000000012,-0.0100167999999999,-0.0046581999999993,-0.0072607999999992,-0.0006542,0,sub_6
-0.0009590000000003,0.0057370000000012,-0.0084945999999999,-0.0035855999999993,-0.0059861999999992,-0.0006484,0,sub_6
-8.800000000038549e-05,0.0052962000000013,-0.0085473999999999,-0.0044303999999993,-0.0042779999999992,-0.0008702,0,sub_6
0.0006865999999996,0.0057988000000013,-0.0097339999999999,-0.0042121999999994,-0.0025769999999992,-0.00023,0,sub_6
0.0008781999999996,0.0062084000000013,-0.0107773999999999,-0.0020779999999994,-0.0015091999999992,0.0004317999999999,0,sub_6
0.0003889999999996,0.0069796000000013,-0.0113569999999999,-0.0003743999999994,-0.0015041999999992,0.0008783999999999,0,sub_6
-0.0003314000000003,0.0068668000000013,-0.0116931999999999,0.0015436000000005,-0.0017113999999992,0.0008993999999999,0,sub_6
-0.0008386000000003,0.0062608000000013,-0.0107047999999999,0.0036786000000005,-0.0008547999999992,0.0011341999999999,0,sub_6
-0.0014228000000003,0.0058994000000012,-0.0093079999999999,0.0051726000000005,-0.0006335999999992,0.0009381999999999,0,sub_6
-0.0021848000000003,0.0062480000000012,-0.0087995999999999,0.0041018000000005,-0.0012697999999992,0.0011451999999999,0,sub_6
-0.0018410000000003,0.0064548000000012,-0.0083143999999999,0.0021728000000005,-0.0029683999999992,0.0013475999999999,0,sub_6
-0.0017958000000003,0.0060428000000012,-0.0098809999999999,0.0006810000000005,-0.0027491999999992,0.0011231999999999,0,sub_6
-0.0017324000000003,0.0069304000000012,-0.0106527999999999,0.0015404000000005,-0.0031569999999992,0.0011319999999999,0,sub_6
-0.0015838000000003,0.0079882000000013,-0.0107871999999999,0.0011292000000005,-0.0016417999999992,0.0009157999999999,0,sub_6
-0.0012746000000003,0.0069924000000013,-0.0110593999999999,0.0015618000000005,-0.0026847999999992,0.0002813999999999,0,sub_6
-0.0012722000000003,0.0058918000000013,-0.0106793999999999,0.0034900000000005,-0.0033067999999992,-0.0003432,0,sub_6
-0.0008826000000003,0.0062284000000013,-0.0096459999999999,0.0060592000000005,-0.0026569999999992,0.0001035999999999,0,sub_6
-0.0019608000000003,0.0062038000000012,-0.0083915999999999,0.0062870000000005,0.0013868000000007,0.0009545999999999,0,sub_6
-0.0019876000000003,0.0059872000000012,-0.0098363999999999,0.0065080000000005,0.0035148000000007,0.0013805999999999,0,sub_6
-0.0018022000000003,0.0059508000000012,-0.0099671999999999,0.0067244000000005,0.0043654000000007,0.0015947999999999,0,sub_6
-0.0009732000000003,0.0059246000000012,-0.0107931999999999,0.0067448000000005,0.0079850000000007,0.0017979999999999,0,sub_6
-0.0005210000000003,0.0058828000000012,-0.0107901999999999,0.0065452000000005,0.0101138000000007,0.0020013999999999,0,sub_6
0.0009033999999996,0.0059712000000013,-0.0123677999999999,0.0069780000000005,0.0101116000000007,0.0017847999999998,0,sub_6
0.0010189999999996,0.0055450000000013,-0.0130641999999999,0.0078270000000005,0.0079766000000007,0.0017873999999998,0,sub_6
0.0014277999999996,0.0056802000000013,-0.0138369999999999,0.0088952000000005,0.0069070000000007,0.0015765999999998,0,sub_6
0.0013835999999996,0.0053406000000012,-0.0138025999999999,0.0088810000000005,0.0032868000000008,0.0011537999999998,0,sub_6
0.0009757999999996,0.0053162000000012,-0.0136323999999999,0.0071634000000005,0.0011614000000008,0.0013581999999998,0,sub_6
-0.0001278000000003,0.0052446000000012,-0.0133391999999999,0.0056606000000005,-0.0028819999999991,0.0011313999999999,0,sub_6
-0.0007602000000003,0.0055480000000012,-0.0116815999999999,0.0050104000000005,-0.0073537999999991,0.0006975999999999,0,sub_6
-0.0021514000000003,0.0061232000000012,-0.0108475999999999,0.0037372000000005,-0.0075639999999992,0.0006809999999999,0,sub_6
-0.0033046000000003,0.0065906000000012,-0.0102817999999999,0.0033232000000005,-0.0062867999999992,0.0008823999999999,0,sub_6
-0.0036970000000003,0.0066692000000012,-0.0098909999999999,0.0037628000000005,-0.0056489999999992,0.0004493999999999,0,sub_6
-0.0031812000000003,0.0065870000000012,-0.0107295999999999,0.0037628000000005,-0.0060733999999992,2.259999999991108e-05,0,sub_6
-0.0023928000000003,0.0061340000000012,-0.0108541999999999,0.0026988000000005,-0.0054305999999991,1.4199999999911085e-05,0,sub_6
-0.0014118000000004,0.0056706000000012,-0.0116425999999999,0.0020568000000005,-0.0054299999999991,0.0004369999999999,0,sub_6
-0.0008632000000004,0.0055380000000012,-0.0117279999999999,0.0016282000000005,-0.0056423999999992,0.0006477999999999,0,sub_6
-0.0006076000000003,0.0053696000000012,-0.0124823999999999,0.0007832000000005,-0.0066959999999992,0.0006387999999999,0,sub_6
-0.0007344000000003,0.0052848000000012,-0.0119321999999999,0.0005792000000005,-0.0075389999999992,0.0006337999999999,0,sub_6
-0.0007018000000004,0.0053808000000012,-0.0113751999999999,0.0016574000000005,-0.0079601999999992,0.0006373999999999,0,sub_6
-0.0012908000000003,0.0056718000000012,-0.0101661999999999,0.0033852000000005,-0.0058287999999992,0.0010693999999999,0,sub_6
-0.0019002000000003,0.0060044000000012,-0.0104701999999999,0.0044700000000005,-0.0043341999999992,0.0014977999999999,0,sub_6
-0.0023056000000003,0.0060636000000013,-0.0098627999999999,0.0059636000000005,-0.0041271999999992,0.0017215999999999,0,sub_6
-0.0022876000000003,0.0056436000000013,-0.0089295999999999,0.0076726000000005,-0.0037069999999992,0.0017329999999998,0,sub_6
-0.0028352000000003,0.0048158000000013,-0.0087787999999999,0.0087538000000005,-0.0009391999999992,0.0013095999999998,0,sub_6
-0.0023202000000003,0.0036738000000013,-0.0092859999999999,0.0079136000000005,-0.0004943999999992,-0.0001966000000001,0,sub_6
-0.0008318000000003,0.0035202000000013,-0.0098399999999998,0.0057874000000005,-0.0008989999999992,-0.0012834,0,sub_6
0.0011229999999996,0.0038728000000013,-0.0115309999999998,0.0019504000000005,-0.0017255999999992,-0.0019544,0,sub_6
0.0026267999999996,0.0042820000000013,-0.0144807999999999,-0.0025259999999994,-0.0017001999999992,-0.00199,0,sub_6
0.0028559999999996,0.0056766000000012,-0.0172911999999999,-0.0053057999999994,-0.0025389999999992,-0.0005172,0,sub_6
0.0013787999999996,0.0076256000000012,-0.0191895999999999,-0.0053211999999994,-0.0044623999999991,0.0009805999999999,0,sub_6
0.0001223999999996,0.0077870000000012,-0.0195637999999999,-0.0027665999999994,-0.0051129999999991,0.0016401999999999,0,sub_6
-0.0013362000000003,0.0077808000000012,-0.0184713999999999,0.0027868000000005,-0.0038539999999992,0.0016773999999999,0,sub_6
-0.0018954000000003,0.0084278000000012,-0.0145877999999999,0.0091912000000005,-0.0015277999999992,0.0015013999999999,0,sub_6
-0.0037518000000003,0.0083834000000012,-0.0098017999999999,0.0132494000000005,0.0008074000000007,0.0010953999999999,0,sub_6
-0.0042080000000003,0.0081476000000012,-0.0059021999999999,0.0164492000000005,0.0025046000000007,0.0011115999999999,0,sub_6
-0.0049812000000003,0.0078120000000012,-0.0031659999999999,0.0192262000000005,0.0048432000000007,0.0009101999999999,0,sub_6
-0.0048900000000003,0.0058706000000012,-0.0009989999999999,0.0198780000000005,0.0086824000000007,0.0002647999999999,0,sub_6
-0.0047528000000003,0.0045604000000012,-0.0013377999999999,0.0171204000000005,0.0116774000000007,-0.0003992,0,sub_6
-0.0021014000000003,0.0031726000000013,-0.0027809999999999,0.0122194000000005,0.0114882000000007,-0.0021422,0,sub_6
0.0007383999999996,0.0024256000000013,-0.0060289999999999,0.0043314000000005,0.0119462000000007,-0.0032662,0,sub_6
0.0026839999999996,0.0023110000000013,-0.0091613999999999,-0.0046495999999994,0.0117624000000007,-0.0035488,0,sub_6
0.0029609999999996,0.0045094000000013,-0.0139699999999999,-0.0117225999999994,0.0100754000000007,-0.0025344,0,sub_6
0.0023287999999996,0.0062782000000013,-0.0187395999999999,-0.0149577999999993,0.0077358000000007,-0.0014922,0,sub_6
0.0019289999999995,0.0078580000000013,-0.0223175999999999,-0.0132757999999993,0.0070852000000007,-0.0008452,0,sub_6
0.0007917999999995,0.0089964000000013,-0.0221559999999999,-0.0068977999999993,0.0057834000000007,-0.0012328,0,sub_6
4.059999999957453e-05,0.0086704000000013,-0.0203303999999999,0.0014276000000005,0.0055456000000007,-0.0022426,0,sub_6
0.0006297999999995,0.0072050000000013,-0.0166427999999999,0.0086880000000005,0.0053132000000007,-0.003687,0,sub_6
0.0017805999999995,0.0047902000000013,-0.0118111999999999,0.0129622000000005,0.0050920000000007,-0.005366,0,sub_6
0.0019297999999995,0.0036408000000013,-0.0079909999999999,0.0123014000000005,0.0040416000000007,-0.0060152,0,sub_6
0.0019497999999995,0.0024384000000013,-0.0062519999999999,0.0075818000000005,0.0021522000000007,-0.006478,0,sub_6
0.0018145999999996,0.0035850000000013,-0.0062819999999999,-0.0005613999999994,-0.0010069999999992,-0.0061086,0,sub_6
0.0006545999999996,0.0045706000000012,-0.0074399999999999,-0.0089179999999994,-0.0039531999999992,-0.0055274,0,sub_6
-0.0010968000000003,0.0064726000000012,-0.0095901999999999,-0.0155637999999994,-0.0054165999999992,-0.0042952,0,sub_6
-0.0022240000000003,0.0075462000000012,-0.0119577999999999,-0.0179099999999994,-0.0043463999999992,-0.0034584,0,sub_6
-0.0036520000000003,0.0089120000000012,-0.0139693999999999,-0.0157715999999994,-0.0028641999999992,-0.003018,0,sub_6
-0.0035356000000003,0.0086750000000012,-0.0146391999999999,-0.0108767999999994,-0.0015841999999992,-0.004058,0,sub_6
-0.0027742000000003,0.0086294000000013,-0.0149537999999999,-0.0053457999999994,-0.0009463999999992,-0.004879,0,sub_6
-0.0018096000000003,0.0076214000000013,-0.0137349999999999,-0.0006701999999994,-0.0003071999999992,-0.0052788,0,sub_6
-0.0014514000000003,0.0070318000000013,-0.0117595999999999,0.0007972000000005,-0.0007247999999992,-0.0050588,0,sub_6
-0.0009058000000003,0.0057478000000012,-0.0099603999999999,-0.0011473999999994,-0.0002799999999992,-0.0044364,0,sub_6
-0.0017130000000003,0.0056794000000012,-0.0090361999999999,-0.0037165999999994,-0.0002785999999992,-0.0025316,0,sub_6
-0.0028446000000003,0.0059334000000012,-0.0083545999999999,-0.0064971999999994,-0.0006991999999992,-0.0014822,0,sub_6
-0.0040858000000003,0.0063234000000012,-0.0084625999999999,-0.0084271999999994,-0.0021865999999992,-0.0008528000000001,0,sub_6
-0.0042434000000003,0.0067466000000012,-0.0099757999999999,-0.0086627999999994,-0.0023847999999992,-0.0006434000000001,0,sub_6
-0.0043730000000003,0.0068996000000013,-0.0111941999999998,-0.0071903999999994,-0.0021635999999992,-0.0002090000000001,0,sub_6
-0.0049072000000003,0.0070860000000012,-0.0121909999999998,-0.0046453999999994,-0.0008801999999992,1.7999999999851187e-05,0,sub_6
-0.0041644000000003,0.0069418000000012,-0.0118535999999998,-0.0027385999999994,0.0006194000000007,2.639999999985115e-05,0,sub_6
-0.0038956000000003,0.0071666000000012,-0.0116855999999999,-0.0016841999999994,0.0025474000000007,0.0002421999999998,0,sub_6
-0.0038782000000003,0.0067656000000012,-0.0111447999999999,-0.0008363999999994,0.0016904000000007,0.0006765999999998,0,sub_6
-0.0035128000000003,0.0069048000000012,-0.0094451999999999,-0.0004077999999994,0.0023272000000007,0.0008925999999998,0,sub_6
-0.0040574000000003,0.0065634000000013,-0.0081041999999999,-0.0018993999999994,0.0031830000000007,0.0013083999999998,0,sub_6
-0.0054650000000003,0.0064024000000013,-0.0077391999999999,-0.0033937999999994,0.0033996000000007,0.0017249999999998,0,sub_6
-0.0040622000000004,0.0062964000000013,-0.0085565999999999,-0.0032107999999994,0.0036060000000007,0.0015127999999998,0,sub_6
-0.0029080000000004,0.0066352000000013,-0.0084363999999999,-0.0028019999999994,0.0067936000000007,0.0015121999999999,0,sub_6
-0.0015536000000004,0.0068656000000012,-0.0100373999999999,-0.0039019999999993,0.0080630000000007,0.0029987999999999,0,sub_6
-6.620000000040552e-05,0.0076646000000012,-0.0110791999999999,-0.0043723999999993,0.0061378000000007,0.0036393999999999,0,sub_6
