userAcceleration.x,userAcceleration.y,userAcceleration.z,rotationRate.x,rotationRate.y,rotationRate.z,label,subject
-0.0260142000000002,0.0033248000000012,-0.0064688,0.0007402000000006,0.0311900000000007,-0.0053871999999999,0,sub_21
-0.0246332000000002,0.0024808000000012,-0.006652,0.0009794000000006,0.0365172000000006,-0.0058195999999999,0,sub_21
-0.0225696000000002,0.0030964000000012,-0.009434,-0.0011409999999993,0.0392952000000007,-0.0060515999999999,0,sub_21
-0.0208000000000002,0.0048548000000012,-0.0122388,-0.0014271999999993,0.0375926000000007,-0.0053955999999999,0,sub_21
-0.0184912000000002,0.0061724000000012,-0.0136266,-0.0012797999999993,0.0378042000000007,-0.0043117999999999,0,sub_21
-0.0173706000000002,0.0065844000000012,-0.014379,0.0018556000000006,0.0390672000000007,-0.0023539999999999,0,sub_21
-0.0172468000000002,0.0060368000000012,-0.014562,0.0024384000000006,0.0416192000000007,-0.0008427999999999,0,sub_21
-0.0176036000000002,0.0048598000000012,-0.0131074,0.0017264000000006,0.0411922000000007,0.0008768,0,sub_21
-0.0169012000000002,0.0037190000000012,-0.0135066,0.0012766000000006,0.0367170000000007,0.0015202,0,sub_21
-0.0171088000000002,0.0038884000000012,-0.014403,0.0006096000000006,0.0313902000000007,0.0021632,0,sub_21
-0.0179536000000002,0.0040638000000012,-0.0138452,-0.0020049999999993,0.0270872000000007,0.0029884,0,sub_21
-0.0190356000000002,0.0045070000000012,-0.012093,-0.0022763999999993,0.0219238000000007,0.003831,0,sub_21
-0.0194480000000002,0.0050760000000012,-0.0114394,-0.0016921999999993,0.0167590000000007,0.0042522,0,sub_21
-0.0192910000000002,0.0043170000000012,-0.0082034,-0.0023997999999993,0.0094666000000007,0.0050946,0,sub_21
-0.0199474000000002,0.0025856000000012,-0.005232,-0.0052401999999993,0.0021826000000007,0.0057084,0,sub_21
-0.0200334000000002,0.0024838000000012,-0.0051212,-0.0063357999999993,-0.0042051999999992,0.005709,0,sub_21
-0.0206402000000002,0.0025484000000012,-0.0046684,-0.0048689999999993,-0.0106003999999992,0.0053,0,sub_21
-0.0205636000000002,0.0024038000000012,-0.0045556,-0.0017039999999993,-0.0193431999999992,0.0044788,0,sub_21
-0.0208862000000002,0.0025108000000012,-0.0038918,0.0016682000000006,-0.0264067999999992,0.0038376,0,sub_21
-0.0205444000000002,0.0033618000000012,-0.0045644,0.0061082000000006,-0.0328365999999992,0.0036304,0,sub_21
-0.0207498000000002,0.0036860000000012,-0.0049536,0.0101244000000006,-0.0377769999999992,0.0042728,0,sub_21
-0.0216114000000002,0.0029574000000012,-0.005545,0.0102980000000006,-0.0433421999999992,0.0046758,0,sub_21
-0.0219074000000002,0.0030488000000012,-0.007586,0.0094144000000005,-0.0467731999999992,0.0050684,0,sub_21
-0.0213598000000002,0.0033942000000012,-0.0091202,0.0100488000000005,-0.0476291999999992,0.0055012,0,sub_21
-0.0208126000000002,0.0035100000000012,-0.0089066,0.0123940000000006,-0.0470025999999992,0.006585,0,sub_21
-0.0212664000000002,0.0033534000000012,-0.0074376,0.0132342000000006,-0.0495637999999992,0.0070214,0,sub_21
-0.0207248000000002,0.0035394000000012,-0.0074996,0.0151498000000006,-0.0506357999999992,0.0070362,0,sub_21
-0.0213618000000002,0.0039700000000012,-0.0068262,0.0177570000000006,-0.0476413999999992,0.0063768,0,sub_21
-0.0219086000000002,0.0040504000000012,-0.0088226,0.0203644000000006,-0.0440105999999992,0.0063574,0,sub_21
-0.0220148000000002,0.0036608000000012,-0.0080826,0.0204006000000006,-0.0439873999999992,0.0050428,0,sub_21
-0.0211682000000002,0.0037122000000012,-0.0078396,0.0191556000000006,-0.0437483999999992,0.0041464,0,sub_21
-0.0213540000000002,0.0036072000000012,-0.0083164,0.0183488000000006,-0.0398931999999992,0.0043164,0,sub_21
-0.0225362000000002,0.0036488000000012,-0.0092968,0.0204902000000006,-0.0375597999999992,0.0049692,0,sub_21
-0.0221500000000002,0.0038740000000012,-0.00976,0.0221962000000006,-0.0394763999999992,0.0032744,0,sub_21
-0.0218308000000002,0.0042822000000012,-0.0105828,0.0228440000000006,-0.0386229999999992,0.0024232,0,sub_21
-0.0221542000000002,0.0040280000000012,-0.0104116,0.0248124000000006,-0.0344123999999992,0.002844,0,sub_21
-0.0237692000000002,0.0036586000000012,-0.010553,0.0269780000000006,-0.0340365999999992,0.0030574,0,sub_21
-0.0232354000000002,0.0027576000000012,-0.0105908,0.0244380000000006,-0.0372619999999992,0.0021744,0,sub_21
-0.0223680000000002,0.0028500000000012,-0.009613,0.0204166000000006,-0.0364391999999992,0.0025578,0,sub_21
-0.0236772000000002,0.0022482000000012,-0.0085346,0.0155716000000006,-0.0285845999999992,0.0033538,0,sub_21
-0.0237968000000002,0.0026246000000012,-0.0101154,0.0108794000000006,-0.0283543999999992,0.003107,0,sub_21
-0.0225024000000002,0.0036226000000012,-0.011508,0.0061910000000006,-0.0264229999999992,0.0037128,0,sub_21
-0.0225564000000002,0.0036862000000012,-0.0106976,0.0040706000000006,-0.0221595999999992,0.0049744,0,sub_21
-0.0249514000000002,0.0026496000000012,-0.009917,0.0021952000000006,-0.0158631999999992,0.006009,0,sub_21
-0.0245118000000002,0.0027734000000012,-0.0098368,0.0011426000000006,-0.0170237999999992,0.006418,0,sub_21
-0.0248770000000002,0.0021944000000012,-0.0084902,0.0005320000000006,-0.0149893999999992,0.0066124,0,sub_21
-0.0241058000000002,0.0025006000000012,-0.007191,0.0003480000000006,-0.0140175999999992,0.005743,0,sub_21
-0.0235408000000002,0.0025140000000012,-0.0072182,-0.0008883999999993,-0.0092095999999992,0.0055021999999999,0,sub_21
-0.0238570000000002,0.0031608000000012,-0.0073566,-0.0004539999999993,-0.0068699999999992,0.0061431999999999,0,sub_21
-0.0245342000000002,0.0033732000000012,-0.0080118,-0.0008693999999993,-0.0034631999999992,0.0069905999999999,0,sub_21
-0.0234952000000002,0.0034228000000012,-0.0089982,-0.0025439999999993,0.0005466000000007,0.0073831999999999,0,sub_21
-0.0225644000000002,0.0024850000000012,-0.009225,-0.0057119999999993,0.0051982000000007,0.0084053999999999,0,sub_21
-0.0231102000000002,0.0030232000000012,-0.0085154,-0.0071921999999993,0.0055828000000007,0.0094449999999999,0,sub_21
-0.0225156000000002,0.0038196000000012,-0.0092022,-0.0071749999999993,0.0057534000000007,0.0094269999999999,0,sub_21
-0.0220822000000002,0.0037010000000012,-0.010495,-0.0054489999999993,0.0059198000000007,0.0089935999999999,0,sub_21
-0.0219244000000002,0.0035338000000012,-0.0092882,-0.0037293999999993,0.0080470000000007,0.0083619999999999,0,sub_21
-0.0219096000000002,0.0042238000000012,-0.0080982,-0.0018051999999993,0.0080438000000007,0.0075207999999999,0,sub_21
-0.0206610000000002,0.0045540000000012,-0.0088148,0.0001190000000006,0.0088894000000007,0.007533,0,sub_21
-0.0204870000000002,0.0035378000000012,-0.0068956,-0.0003207999999993,0.0104498000000007,0.007932,0,sub_21
-0.0206846000000002,0.0027582000000012,-0.0052078,-0.0026749999999993,0.0132952000000007,0.008316,0,sub_21
-0.0221722000000002,0.0020494000000013,-0.0053296,-0.0052513999999993,0.0140118000000007,0.0084874,0,sub_21
-0.0232412000000002,0.0024300000000013,-0.0069382,-0.0056949999999993,0.0145078000000007,0.008674,0,sub_21
-0.0241644000000002,0.0023986000000013,-0.0083876,-0.0044487999999993,0.0101020000000007,0.0078106,0,sub_21
-0.0234352000000002,0.0034130000000012,-0.0110694,-0.0044717999999993,0.0047766000000007,0.0076036,0,sub_21
-0.0240102000000002,0.0040796000000012,-0.011207,-0.0040669999999993,0.0002994000000007,0.0080394,0,sub_21
-0.0238778000000002,0.0052328000000012,-0.011339,-0.0023751999999993,-0.0031153999999992,0.0080556,0,sub_21
-0.0248302000000002,0.0052972000000012,-0.0102642,-0.0002529999999993,-0.0061039999999992,0.0076469999999999,0,sub_21
-0.0236916000000002,0.0043322000000012,-0.0090822,-0.0007331999999993,-0.0055373999999992,0.0069779999999999,0,sub_21
-0.0227072000000002,0.0033570000000012,-0.006836,-0.0018475999999993,-0.0034779999999992,0.0065163999999999,0,sub_21
-0.0210566000000002,0.0032658000000012,-0.0059228,-0.0014819999999993,-0.0037697999999992,0.0067089999999999,0,sub_21
-0.0228696000000002,0.0038770000000012,-0.0068516,0.0022908000000006,-0.0045039999999992,0.0079941999999999,0,sub_21
-0.0230410000000002,0.0032044000000012,-0.0070998,0.0060466000000006,-0.0103461999999992,0.0080039999999999,0,sub_21
-0.0227150000000002,0.0029764000000012,-0.0034024,0.0107352000000006,-0.0131261999999992,0.0065448,0,sub_21
-0.0234484000000002,0.0029710000000012,-0.0003552,0.0177794000000006,-0.0137847999999992,0.005313,0,sub_21
-0.0232612000000002,0.0032904000000012,0.0047679999999999,0.0265354000000006,-0.0146573999999992,0.0028116,0,sub_21
-0.0224652000000002,9.50000000012944e-05,0.0103103999999999,0.0326578000000006,-0.0189821999999992,-0.0016489999999999,0,sub_21
-0.0208642000000002,-0.0010711999999987,0.0159597999999999,0.0355776000000006,-0.0245705999999992,-0.0069849999999999,0,sub_21
-0.0210872000000002,-0.0006133999999987,0.0161315999999999,0.0367886000000006,-0.0301547999999992,-0.0119055999999999,0,sub_21
-0.0226770000000002,-0.0003369999999987,0.0104719999999999,0.0373470000000006,-0.0410527999999992,-0.0193877999999999,0,sub_21
-0.0222868000000002,-0.0010507999999987,-0.0006604,0.0312650000000006,-0.0585289999999992,-0.0277623999999999,0,sub_21
-0.0180374000000002,0.0006584000000012,-0.0102232,0.0190682000000006,-0.0697637999999992,-0.0314651999999999,0,sub_21
-0.0208962000000002,0.0014532000000012,-0.0204004,0.0071328000000006,-0.0650417999999992,-0.0298453999999999,0,sub_21
-0.0234500000000002,0.0033082000000012,-0.030192,-0.0029467999999993,-0.0648981999999992,-0.0275955999999999,0,sub_21
-0.0229052000000002,0.0054976000000012,-0.0363528,-0.0087579999999993,-0.0634955999999992,-0.0242491999999999,0,sub_21
-0.0245654000000002,0.0076016000000012,-0.0396996,-0.0072415999999993,-0.0421065999999992,-0.0170317999999999,0,sub_21
-0.0263374000000002,0.0092052000000012,-0.0377028,-0.0010269999999993,-0.0203061999999992,-0.0102091999999999,0,sub_21
-0.0236538000000002,0.0097520000000012,-0.0342598,0.0040890000000006,-0.0072303999999992,-0.0050923999999999,0,sub_21
-0.0231894000000002,0.0072424000000012,-0.0293082,0.0047684000000006,0.0082928000000007,0.0017292,0,sub_21
-0.0234694000000002,0.0045028000000012,-0.0230652,-0.0009609999999993,0.0229830000000007,0.0093614,0,sub_21
-0.0227042000000002,0.0024726000000012,-0.0138496,-0.0071697999999993,0.0227736000000007,0.0138048,0,sub_21
-0.0236296000000002,0.0022066000000012,-0.0107476,-0.0119039999999993,0.0204958000000007,0.016086,0,sub_21
-0.0241882000000002,0.0013232000000012,-0.0079834,-0.0136497999999993,0.0169352000000007,0.0168944,0,sub_21
-0.0245456000000002,0.0017798000000012,-0.0035684,-0.0132407999999993,0.0167812000000007,0.0164315999999999,0,sub_21
-0.0250312000000002,0.0021766000000012,-0.0007528,-0.0102665999999993,0.0168346000000007,0.0151317999999999,0,sub_21
-0.0271830000000002,0.0019896000000012,-0.0022676,-0.0079191999999993,0.0200852000000007,0.0140371999999999,0,sub_21
-0.0280826000000002,0.0007736000000012,-0.0017128,-0.0057777999999993,0.0194480000000007,0.0117029999999999,0,sub_21
-0.0287326000000002,0.0009134000000012,-0.0010552,-0.0053433999999993,0.0183924000000007,0.0089299999999999,0,sub_21
-0.0280804000000002,0.0018794000000012,-0.0019182,-0.0042909999999993,0.0128586000000007,0.0065941999999999,0,sub_21
-0.0278124000000002,0.0028070000000012,-0.0015716,-0.0023791999999993,0.0092368000000007,0.0049031999999999,0,sub_21
-0.0269902000000002,0.0028138000000012,-0.0018306,-0.0011231999999993,0.0033056000000007,0.0031681999999999,0,sub_21
-0.0263910000000002,0.0020176000000012,8.039999999995776e-05,-0.0026177999999993,0.0031340000000007,0.0020473999999999,0,sub_21
-0.0257986000000002,0.0011312000000012,0.0012061999999999,-0.0062511999999993,0.0027532000000007,0.0017666,0,sub_21
-0.0264544000000002,0.0012566000000012,0.0007055999999999,-0.0056121999999993,0.0025742000000007,0.0006608,0,sub_21
-0.0274280000000002,0.0005506000000012,-0.0024128,-0.0043341999999993,0.0021798000000007,-0.0004403999999999,0,sub_21
-0.0281232000000002,0.0008432000000012,-0.003602,-0.0030567999999993,0.0006874000000007,-0.0012841999999999,0,sub_21
-0.0269324000000002,0.0009852000000012,-0.0052574,-0.0021957999999993,0.0023888000000007,-0.0012803999999999,0,sub_21
-0.0278446000000002,0.0023248000000012,-0.0070402,-7.59999999993554e-05,0.0064758000000007,-0.0013077999999999,0,sub_21
-0.0276370000000002,0.0015912000000012,-0.0082996,-0.0009673999999993,0.0052466000000007,-0.0013491999999999,0,sub_21
-0.0259992000000002,0.0018720000000012,-0.008616,-0.0029207999999993,0.0050866000000007,-0.0013993999999999,0,sub_21
-0.0243216000000002,0.0020652000000012,-0.0080176,-0.0044321999999993,0.0093948000000007,-0.0003841999999999,0,sub_21
-0.0253068000000002,0.0027858000000012,-0.0095034,-0.0048949999999993,0.0098636000000007,0.000857,0,sub_21
-0.0247232000000002,0.0032770000000012,-0.010095,-0.0040481999999993,0.0090058000000007,0.0015049999999999,0,sub_21
-0.0244144000000002,0.0036104000000012,-0.0101102,-0.0010485999999993,0.0119774000000007,0.0017357999999999,0,sub_21
-0.0252252000000002,0.0034274000000012,-0.009458,0.0038598000000006,0.0125976000000007,0.0021965999999999,0,sub_21
-0.0260900000000002,0.0031262000000012,-0.0093552,0.0072226000000006,0.0142112000000007,0.0022389999999999,0,sub_21
-0.0256942000000002,0.0031784000000012,-0.0091332,0.0109960000000006,0.0117768000000007,0.0018621999999999,0,sub_21
-0.0247578000000002,0.0021704000000012,-0.0074648,0.0124250000000006,0.0108386000000007,0.0023216,0,sub_21
-0.0251098000000002,0.0017250000000012,-0.0074942,0.0106546000000006,0.0103368000000007,0.0029715999999999,0,sub_21
-0.0256280000000002,0.0014850000000012,-0.0074708,0.0075982000000006,0.0079246000000007,0.0029741999999999,0,sub_21
-0.0251244000000002,0.0021172000000012,-0.0066008,0.0065074000000006,0.0023898000000007,0.0027599999999999,0,sub_21
-0.0265422000000002,0.0017608000000012,-0.0063392,0.0060634000000006,-0.0020801999999992,0.0021215999999999,0,sub_21
-0.0271320000000002,0.0015648000000012,-0.0078844,0.0068824000000006,-0.0110263999999992,0.0008569999999999,0,sub_21
-0.0272968000000002,0.0017990000000012,-0.0087236,0.0076900000000006,-0.0156287999999992,0.0002344,0,sub_21
-0.0274794000000002,0.0021096000000012,-0.0094122,0.0078632000000006,-0.0183137999999992,0.0002458,0,sub_21
-0.0266880000000002,0.0017792000000012,-0.0081884,0.0073906000000006,-0.0229115999999992,-0.0003857999999999,0,sub_21
-0.0256474000000002,0.0017276000000012,-0.0060108,0.0037232000000006,-0.0255833999999992,-0.0004011999999999,0,sub_21
-0.0268764000000002,0.0019126000000012,-0.0065622,0.0030478000000006,-0.0274123999999992,-0.0006105999999999,0,sub_21
-0.0277892000000002,0.0018980000000012,-0.0073184,0.0045318000000006,-0.0301845999999992,-0.0012375999999999,0,sub_21
-0.0284472000000002,0.0022420000000012,-0.0081776,0.0075152000000006,-0.0316839999999992,-0.0018557999999999,0,sub_21
-0.0292830000000002,0.0012492000000012,-0.0112716,0.0068962000000006,-0.0274189999999992,-0.0022927999999999,0,sub_21
-0.0294982000000002,0.0022690000000012,-0.0145012,0.0101262000000006,-0.0197331999999992,-0.0022957999999999,0,sub_21
-0.0299970000000002,0.0035658000000012,-0.0159966,0.0144432000000006,-0.0063037999999992,-0.0010165999999999,0,sub_21
-0.0308000000000002,0.0034092000000012,-0.0159924,0.0221674000000006,0.0049856000000007,-0.0003517999999999,0,sub_21
-0.0291382000000002,0.0017048000000012,-0.0142768,0.0256118000000006,0.0124594000000007,-0.0007801999999999,0,sub_21
-0.0280774000000002,0.0024196000000012,-0.0127832,0.0296866000000006,0.0184370000000007,-0.0005613999999999,0,sub_21
-0.0278996000000002,0.0008274000000012,-0.0096764,0.0294962000000006,0.0243998000000007,0.0002842,0,sub_21
-0.0274378000000002,-0.0012349999999987,-0.0055314,0.0239322000000006,0.0201608000000007,-0.0003901999999999,0,sub_21
-0.0253716000000002,-0.0008051999999987,-0.0049974,0.0147246000000006,0.0129492000000007,-0.0004453999999999,0,sub_21
-0.0260590000000002,0.0008394000000012,-0.0053828,0.0100598000000006,0.0193632000000007,0.0001444,0,sub_21
-0.0262566000000002,0.0005484000000012,-0.004258,0.0087918000000006,0.0206570000000007,-0.0005175999999999,0,sub_21
-0.0259614000000002,0.0010250000000012,-0.007058,0.0102650000000006,0.0136366000000007,-0.0022177999999999,0,sub_21
-0.0246748000000002,0.0012608000000013,-0.010777,0.0126194000000006,0.0138526000000007,-0.0028529999999999,0,sub_21
-0.0241140000000002,0.0008584000000013,-0.0112064,0.0156370000000006,0.0185430000000007,-0.0041299999999999,0,sub_21
-0.0232778000000002,0.0004918000000012,-0.01143,0.0158426000000006,0.0157770000000007,-0.0051933999999999,0,sub_21
-0.0233292000000002,0.0006276000000012,-0.0143342,0.0154034000000006,0.0127966000000007,-0.0054061999999999,0,sub_21
-0.0237488000000002,0.0009442000000012,-0.0151372,0.0145546000000006,0.0145014000000007,-0.0047733999999999,0,sub_21
-0.0233320000000002,0.0015964000000012,-0.0151832,0.0134946000000006,0.0162086000000007,-0.0045693999999999,0,sub_21
-0.0234728000000002,0.0022434000000012,-0.0167594,0.0113564000000006,0.0166168000000007,-0.0033131999999999,0,sub_21
-0.0233198000000002,0.0023310000000012,-0.0187886,0.0096452000000006,0.0168112000000007,-0.0022671999999999,0,sub_21
-0.0234746000000002,0.0022112000000012,-0.0185268,0.0038856000000006,0.0191470000000007,-0.0003977999999999,0,sub_21
-0.0226134000000002,0.0022578000000012,-0.014832,-0.0050735999999993,0.0210704000000007,0.000809,0,sub_21
-0.0242636000000002,0.0023922000000012,-0.0140798,-0.0121211999999993,0.0206452000000007,0.0016048,0,sub_21
-0.0244030000000002,0.0015786000000012,-0.014688,-0.0170353999999993,0.0198076000000007,0.0022124,0,sub_21
-0.0236956000000002,0.0012566000000012,-0.01599,-0.0193959999999993,0.0174696000000007,0.0028398,0,sub_21
-0.0228934000000002,0.0016044000000012,-0.0165472,-0.0194155999999993,0.0168246000000007,0.0030442,0,sub_21
-0.0232574000000002,0.0014568000000012,-0.0199798,-0.0160423999999993,0.0116928000000007,0.0034916,0,sub_21
-0.0216360000000002,0.0016618000000012,-0.0201292,-0.0164955999999993,0.0110434000000007,0.0051886,0,sub_21
-0.0216698000000002,0.0018822000000012,-0.017102,-0.0222799999999993,0.0108396000000007,0.006634,0,sub_21
-0.0226182000000002,0.0016202000000012,-0.01247,-0.0299925999999993,0.0087258000000007,0.0078548,0,sub_21
-0.0246054000000002,0.0020090000000012,-0.011322,-0.0342879999999993,0.0034110000000007,0.0086862,0,sub_21
-0.0243502000000002,0.0025004000000012,-0.0106862,-0.0396163999999993,0.0053444000000007,0.0092874,0,sub_21
-0.0243832000000002,0.0020016000000012,-0.0089536,-0.0425919999999993,0.0085480000000007,0.0099034,0,sub_21
-0.0245926000000002,0.0018958000000012,-0.007086,-0.0434731999999993,0.0100756000000007,0.010745,0,sub_21
-0.0271762000000002,0.0033898000000012,-0.009124,-0.0388017999999993,0.0122250000000007,0.0111972,0,sub_21
-0.0272226000000002,0.0036790000000012,-0.0089482,-0.0336883999999993,0.0162962000000007,0.0101543999999999,0,sub_21
-0.0269896000000002,0.0026802000000012,-0.0036584,-0.0296293999999993,0.0237776000000007,0.0097407999999999,0,sub_21
-0.0287646000000002,0.0014616000000012,0.0024285999999999,-0.0309037999999993,0.0312784000000007,0.0090763999999999,0,sub_21
-0.0304130000000002,0.0018688000000012,0.0043031999999999,-0.0334499999999993,0.0329978000000007,0.0075607999999999,0,sub_21
-0.0303464000000002,0.0024436000000012,0.0043367999999999,-0.0357999999999993,0.0302448000000007,0.0054114,0,sub_21
-0.0307316000000002,0.0024034000000012,0.0017719999999999,-0.0347243999999993,0.0298244000000007,0.0030694,0,sub_21
-0.0309392000000002,0.0033474000000012,-0.0041376,-0.0300215999999993,0.0283302000000007,-0.0003139999999999,0,sub_21
-0.0299982000000002,0.0044770000000012,-0.0078812,-0.0219827999999993,0.0236170000000007,-0.0030305999999999,0,sub_21
-0.0292494000000002,0.0044422000000012,-0.010447,-0.0111671999999993,0.0210186000000007,-0.0042349999999999,0,sub_21
-0.0285714000000002,0.0029994000000012,-0.0095988,-0.0033243999999993,0.0224752000000007,-0.0046107999999999,0,sub_21
-0.0279520000000002,0.0029038000000012,-0.0077354,-0.0001797999999993,0.0235204000000007,-0.0045915999999999,0,sub_21
-0.0286482000000002,0.0033428000000012,-0.0084172,0.0031590000000006,0.0198794000000007,-0.0049923999999999,0,sub_21
-0.0273370000000002,0.0037690000000012,-0.0125706,0.0086914000000006,0.0158146000000007,-0.0055895999999999,0,sub_21
-0.0270826000000002,0.0032372000000012,-0.0138574,0.0121072000000006,0.0155922000000007,-0.0062063999999999,0,sub_21
-0.0266642000000002,0.0034518000000012,-0.014664,0.0137334000000006,0.0117118000000007,-0.0068235999999999,0,sub_21
-0.0266496000000002,0.0033848000000012,-0.0153402,0.0149166000000006,0.0052720000000007,-0.0063721999999999,0,sub_21
-0.0275198000000002,0.0028128000000012,-0.0160006,0.0163122000000006,-0.0007449999999992,-0.0052789999999999,0,sub_21
-0.0295978000000002,0.0036648000000012,-0.018164,0.0196184000000006,-0.0097481999999992,-0.0050231999999999,0,sub_21
-0.0284358000000002,0.0022386000000012,-0.0182512,0.0263348000000006,-0.0206763999999992,-0.0058093999999999,0,sub_21
-0.0263702000000002,0.0030186000000012,-0.0188244,0.0312182000000006,-0.0268687999999992,-0.0066217999999999,0,sub_21
-0.0255494000000002,0.0015162000000012,-0.0176232,0.0367466000000006,-0.0317857999999992,-0.0072177999999999,0,sub_21
-0.0249342000000002,0.0019360000000012,-0.017593,0.0382142000000006,-0.0366947999999992,-0.0063467999999999,0,sub_21
-0.0241132000000002,0.0007138000000012,-0.01434,0.0364910000000006,-0.0405229999999992,-0.0065675999999999,0,sub_21
-0.0239982000000002,0.0018432000000012,-0.0140052,0.0287738000000006,-0.0431229999999992,-0.0055491999999999,0,sub_21
-0.0251250000000002,0.0004690000000012,-0.0128708,0.0202098000000006,-0.0427431999999992,-0.0030451999999999,0,sub_21
-0.0266098000000002,0.0014952000000012,-0.01323,0.0103676000000006,-0.0417207999999992,-0.0003371999999999,0,sub_21
-0.0266842000000002,0.0009980000000012,-0.0128392,0.0062912000000006,-0.0424115999999992,-0.0003639999999999,0,sub_21
-0.0269504000000002,0.0010818000000012,-0.0149042,0.0037246000000006,-0.0386369999999992,0.0004686,0,sub_21
-0.0270200000000002,0.0005120000000012,-0.0143408,0.0018274000000006,-0.0322437999999992,0.001729,0,sub_21
-0.0283342000000002,0.0003650000000012,-0.0127418,-0.0020007999999993,-0.0281873999999992,0.002979,0,sub_21
-0.0295568000000002,0.0005866000000012,-0.0113482,-0.0041239999999993,-0.0258361999999992,0.002961,0,sub_21
-0.0308412000000002,0.0012756000000012,-0.011071,-0.0063899999999993,-0.0209927999999992,0.0029208,0,sub_21
-0.0311010000000002,0.0010314000000012,-0.0119246,-0.0071727999999993,-0.0178615999999992,0.003534,0,sub_21
-0.0310326000000002,0.0012060000000012,-0.0114426,-0.0073155999999993,-0.0140959999999992,0.004792,0,sub_21
-0.0313926000000002,0.0004872000000012,-0.0112674,-0.0082887999999993,-0.0050019999999992,0.006251,0,sub_21
-0.0304280000000002,0.0007174000000012,-0.0136568,-0.0094899999999993,4.820000000075372e-05,0.006859,0,sub_21
