userAcceleration.x,userAcceleration.y,userAcceleration.z,rotationRate.x,rotationRate.y,rotationRate.z,label,subject
-0.0060252000000002,-0.0006775999999987,0.0250437999999999,0.0099996000000004,-0.0153195999999993,-0.0013574,0,sub_12
-0.0075346000000002,-0.0010577999999987,0.024037,0.0072296000000004,-0.0116989999999993,0.0013959999999999,0,sub_12
-0.0091136000000002,-0.0011339999999987,0.0235354,0.0055246000000004,-0.0099937999999993,0.0026637999999999,0,sub_12
-0.0095076000000002,-0.0007403999999987,0.0221904,0.0053228000000004,-0.0072241999999993,0.0028725999999999,0,sub_12
-0.0097094000000002,-0.0008865999999987,0.0222382,0.0054458000000004,-0.0067351999999993,0.0024975999999999,0,sub_12
-0.0121128000000002,-0.0007115999999987,0.0210182,0.0063840000000004,-0.0158321999999993,0.0010721999999999,0,sub_12
-0.0100266000000002,0.0003792000000012,0.0223596,0.0092780000000004,-0.0170529999999993,-0.0003494,0,sub_12
-0.0088104000000002,0.0008434000000012,0.0232107999999999,0.0104670000000004,-0.0165685999999993,-0.0005034,0,sub_12
-0.0087774000000001,-6.5999999987674005e-06,0.0260168,0.0101624000000004,-0.0154423999999993,-2.7800000000082533e-05,0,sub_12
-0.0103004000000001,-0.0003273999999987,0.0270042,0.0090888000000004,-0.0165057999999993,0.0003933999999999,0,sub_12
-0.0085690000000001,-0.0004811999999987,0.0280156,0.0074002000000004,-0.0126639999999993,0.0001629999999998,0,sub_12
-0.0106216000000002,-0.0011545999999987,0.0271662,0.0037082000000004,-0.0115719999999993,0.0008387999999999,0,sub_12
-0.0128280000000002,-0.0015797999999987,0.0260798,0.0010848000000005,-0.0113305999999993,0.0002413999999999,0,sub_12
-0.0133006000000002,-0.0001083999999987,0.0230632,0.0001714000000005,-0.0108805999999993,-0.0007716,0,sub_12
-0.0127312000000002,0.0003518000000012,0.0217057999999999,0.0018396000000005,-0.0042667999999993,-0.000279,0,sub_12
-0.0156408000000001,-0.0004857999999987,0.0217607999999999,0.0034924000000005,-9.99999999336254e-07,0.0012847999999999,0,sub_12
-0.0143656000000002,-0.0015377999999987,0.0229831999999999,0.0067190000000005,0.0051036000000006,0.0006597999999999,0,sub_12
-0.0099738000000002,-0.0018603999999987,0.0236607999999999,0.0097254000000004,0.0093542000000006,0.0006751999999999,0,sub_12
-0.0052894000000002,-0.0027329999999987,0.0241517999999999,0.0114286000000004,0.0095570000000006,0.0017549999999999,0,sub_12
-0.0013140000000002,-0.0027559999999987,0.0231899999999999,0.0104982000000004,0.0014784000000006,0.0020367999999999,0,sub_12
0.0017505999999997,-0.0023131999999987,0.0208929999999999,0.0082606000000004,-0.0138345999999993,0.0010369999999999,0,sub_12
0.0024421999999997,-0.0001547999999987,0.0175573999999999,0.0055838000000004,-0.0310667999999992,0.0008911999999998,0,sub_12
0.0008221999999997,0.0007476000000012,0.015189,0.0040152000000004,-0.0378683999999992,0.0020215999999998,0,sub_12
-0.0046432000000002,0.0010434000000011,0.0131586,0.0017986000000005,-0.0474329999999992,0.0020827999999998,0,sub_12
-0.0096014000000002,0.0014018000000011,0.0120796,0.0011288000000005,-0.0542475999999993,0.0018731999999998,0,sub_12
-0.0135050000000002,0.0021560000000011,0.0121566,0.0032520000000005,-0.0565985999999993,0.0018909999999998,0,sub_12
-0.0158110000000001,0.0016418000000011,0.0132404,0.0060296000000005,-0.0557559999999993,0.0019093999999999,0,sub_12
-0.0182992000000002,0.0011994000000012,0.0148031999999999,0.0087938000000005,-0.0585327999999993,0.0012913999999999,0,sub_12
-0.0191300000000001,0.0005778000000012,0.0173332,0.0126364000000004,-0.0533985999999993,0.0005119999999999,0,sub_12
-0.0184448000000002,5.40000000012527e-05,0.0206772,0.0149996000000004,-0.0454879999999993,-0.0007086,0,sub_12
-0.0170492000000002,-0.0008287999999987,0.024625,0.0150234000000004,-0.0350157999999993,-0.0010942,0,sub_12
-0.0138726000000002,-0.0016737999999987,0.0277436,0.0131192000000004,-0.0264535999999993,-0.0017046,0,sub_12
-0.0106798000000002,-0.0015155999999987,0.0285188,0.0084230000000004,-0.0219295999999993,-0.0023292,0,sub_12
-0.0078920000000002,-0.0010583999999987,0.0282702,0.0035306000000004,-0.0182913999999993,-0.0021544,0,sub_12
-0.0071462000000002,-0.0009813999999987,0.026633,-0.0009473999999995,-0.0165753999999993,-0.0011196,0,sub_12
-0.0063896000000002,-0.0004661999999987,0.0225156,-0.0041859999999995,-0.0173697999999993,-0.0002506,0,sub_12
-0.0077142000000002,0.0009252000000012,0.0195312,-0.0046449999999995,-0.0158347999999993,0.0017031999999999,0,sub_12
-0.0100374000000002,0.0015104000000012,0.0195328,-0.0023225999999995,-0.0126049999999993,0.0036741999999999,0,sub_12
-0.0112144000000002,0.0019070000000012,0.0192844,-9.999999995069508e-07,-0.0098005999999993,0.0054321999999999,0,sub_12
-0.0125388000000002,0.0022916000000011,0.0191745999999999,0.0025416000000004,-0.0050801999999993,0.0074027999999999,0,sub_12
-0.0140822000000002,0.0015362000000011,0.0203962,0.0051260000000004,0.0010858000000006,0.0082675999999999,0,sub_12
-0.0148320000000002,-7.219999999880742e-05,0.0210568,0.0051518000000004,0.0059896000000006,0.0074069999999999,0,sub_12
-0.0139342000000001,-0.0007553999999987,0.0200972,0.0036658000000005,0.0066382000000006,0.0063275999999999,0,sub_12
-0.0130050000000002,-0.0006989999999987,0.0185615999999999,0.0017358000000005,0.0032412000000006,0.0050365999999999,0,sub_12
-0.0118370000000001,-0.0001897999999987,0.0161504,0.0001908000000005,-0.0020133999999993,0.0039877999999999,0,sub_12
-0.0112856000000002,0.0010628000000012,0.014138,-0.0007093999999994,-0.0062047999999993,0.0029421999999999,0,sub_12
-0.0131758000000002,0.0007204000000012,0.0162524,0.0009634000000005,-0.0072111999999993,0.0023375999999999,0,sub_12
-0.0150856000000002,-0.0010185999999987,0.0193626,0.0041548000000004,-0.0026833999999993,0.0017365999999999,0,sub_12
-0.0160106000000002,-0.0036025999999987,0.0241306,0.0060812000000004,0.0056822000000006,0.0015491999999998,0,sub_12
-0.0137588000000002,-0.0053077999999987,0.028773,0.0061242000000004,0.0150574000000006,0.0013237999999998,0,sub_12
-0.0097098000000002,-0.0075591999999987,0.0323128,0.0038012000000004,0.0206042000000006,0.0015139999999998,0,sub_12
-0.0021866000000002,-0.0081319999999987,0.031892,-0.0009043999999995,0.0189128000000006,0.0023377999999998,0,sub_12
0.0037269999999997,-0.0055657999999987,0.0284217999999999,-0.0065339999999995,0.0106668000000006,0.0044595999999998,0,sub_12
0.0074707999999997,-0.0024499999999987,0.0219896,-0.0096365999999995,-0.0054695999999993,0.0061817999999998,0,sub_12
0.0083359999999997,-0.0001231999999987,0.0158472,-0.0093491999999995,-0.0265197999999993,0.0083613999999999,0,sub_12
0.0033987999999997,0.0026888000000012,0.0124344,-0.0045733999999995,-0.0448201999999993,0.0116369999999999,0,sub_12
-0.0053842000000002,0.0052238000000012,0.0112994,0.0032356000000004,-0.0556631999999993,0.0121469999999998,0,sub_12
-0.0137650000000001,0.0042748000000012,0.0134314,0.0104674000000004,-0.0641971999999993,0.0087901999999998,0,sub_12
-0.0205758000000001,0.0018782000000012,0.0192622,0.0145206000000004,-0.0682439999999993,0.0049781999999998,0,sub_12
-0.0275336000000001,-0.0013993999999987,0.0250804,0.0153676000000004,-0.0659655999999993,0.0002879999999998,0,sub_12
-0.0302110000000002,-0.0046557999999987,0.0292382,0.0126016000000004,-0.0621765999999993,-0.0061386000000001,0,sub_12
-0.0279948000000001,-0.0065591999999987,0.0314938,0.0057720000000004,-0.0583817999999993,-0.0104572,0,sub_12
-0.0222888000000002,-0.0061433999999987,0.0313504,-0.0014767999999995,-0.0490613999999993,-0.0109404,0,sub_12
-0.0156634000000002,-0.0030771999999988,0.027769,-0.0063727999999995,-0.0369855999999993,-0.009915,0,sub_12
-0.0077620000000002,0.0003352000000011,0.0241099999999999,-0.0080271999999995,-0.0216543999999993,-0.0063144,0,sub_12
-0.0035232000000002,0.0040128000000011,0.0197355999999999,-0.0069353999999995,-0.0120869999999993,-0.0022598000000001,0,sub_12
-0.0010304000000002,0.0064074000000011,0.0158933999999999,-0.0011657999999995,-0.0061577999999993,0.0018321999999998,0,sub_12
-0.0007138000000002,0.0059484000000011,0.0140903999999999,0.0069074000000004,-0.0032875999999993,0.0048799999999998,0,sub_12
-0.0029162000000002,0.0042440000000012,0.0161057999999999,0.0147606000000004,-0.0027565999999993,0.0070745999999998,0,sub_12
-0.0070674000000002,0.0016558000000012,0.0194063999999999,0.0211048000000004,-0.0094489999999993,0.0054223999999998,0,sub_12
-0.0080388000000001,-0.0008829999999987,0.0246255999999999,0.0234206000000004,-0.0099501999999993,0.0041613999999999,0,sub_12
-0.0106986000000002,-0.0034103999999987,0.0296993999999999,0.0197698000000004,-0.0078775999999993,0.0037097999999999,0,sub_12
-0.0127554000000002,-0.0035801999999987,0.0322114,0.0131716000000004,-0.0055057999999993,0.0023787999999999,0,sub_12
-0.0148412000000001,-0.0039633999999987,0.0314491999999999,0.0068020000000004,0.0004862000000006,0.0012583999999998,0,sub_12
-0.0163382000000002,-0.0028551999999987,0.0300873999999999,-9.999999995071244e-07,0.0052006000000006,0.0003501999999999,0,sub_12
-0.0154836000000002,-0.0015347999999987,0.0260001999999999,-0.0046863999999994,0.0064978000000006,-0.0003252,0,sub_12
-0.0132746000000002,0.0002330000000012,0.0212657999999999,-0.0049125999999994,0.0087322000000006,-0.0011948,0,sub_12
-0.0118204000000002,0.0008060000000012,0.0185297999999999,-0.0030061999999994,0.0113826000000006,-0.001409,0,sub_12
-0.0100346000000002,0.0010186000000012,0.0177003999999999,-0.0008977999999994,0.0116878000000006,-0.0014052,0,sub_12
-0.0090914000000002,0.0011080000000012,0.0177535999999999,0.0020718000000005,0.0151798000000006,9.599999999991752e-05,0,sub_12
-0.0105126000000002,0.0004302000000012,0.0194327999999999,0.0044050000000004,0.0197384000000006,0.0018049999999998,0,sub_12
-0.0124458000000002,-0.0004847999999987,0.0210424,0.0056968000000004,0.0227148000000006,0.0022375999999998,0,sub_12
-0.0136370000000002,-0.0012673999999987,0.0223636,0.0059198000000004,0.0250568000000006,0.0024497999999998,0,sub_12
-0.0134356000000002,-0.0019579999999987,0.0228261999999999,0.0050730000000004,0.0267634000000006,0.0026551999999998,0,sub_12
-0.0123102000000002,-0.0019353999999987,0.022314,0.0033514000000004,0.0278878000000006,0.0030555999999998,0,sub_12
-0.0112816000000002,-0.0019295999999987,0.0213414,0.0018442000000004,0.0283758000000006,0.0026035999999998,0,sub_12
-0.0106744000000001,-0.0020851999999987,0.0198882,0.0007530000000004,0.0267308000000006,0.0023707999999998,0,sub_12
-0.0108136000000001,-0.0015419999999987,0.0189172,0.0002972000000004,0.0242304000000006,0.0023571999999998,0,sub_12
-0.0111478000000001,-0.0007845999999987,0.0193168,0.0015580000000004,0.0234302000000006,0.0019261999999999,0,sub_12
-0.0118126000000002,-0.0017315999999987,0.0207411999999999,0.0024096000000004,0.0221524000000006,0.0010791999999998,0,sub_12
-0.0122986000000002,-0.0026373999999987,0.0226397999999999,0.0028268000000004,0.0195958000000006,0.0006581999999998,0,sub_12
-0.0119442000000002,-0.0024795999999987,0.0241126,0.0030288000000004,0.0168262000000006,0.0004495999999998,0,sub_12
-0.0111238000000002,-0.0036417999999987,0.0251074,0.0027806000000004,0.0131326000000006,-0.0002082000000001,0,sub_12
-0.0109492000000002,-0.0042685999999987,0.0250044,0.0012522000000004,0.0090190000000006,-0.0013016,0,sub_12
-0.0112792000000002,-0.0034275999999987,0.0244838,0.0007992000000004,0.0068190000000006,-0.00239,0,sub_12
-0.0118026000000002,-0.0023675999999987,0.0239876,0.0012034000000004,0.0056806000000006,-0.0032602,0,sub_12
-0.0121582000000002,-0.0030629999999987,0.0241481999999999,0.0020440000000004,0.0073078000000006,-0.0034898,0,sub_12
-0.0130272000000002,-0.0025211999999987,0.0247157999999999,0.0026976000000004,0.0113492000000006,-0.0024222,0,sub_12
-0.0134916000000002,-0.0014339999999987,0.0263569999999999,0.0024976000000004,0.0153936000000006,-0.0013606,0,sub_12
-0.0128082000000002,-0.0009415999999987,0.0273961999999999,0.0014402000000004,0.0181644000000006,-0.0007306,0,sub_12
-0.0108358000000002,-0.0002323999999987,0.0269625999999999,-6.459999999952719e-05,0.0215026000000006,0.0003149999999998,0,sub_12
-0.0101622000000002,0.0004924000000012,0.0261717999999999,-0.0011531999999995,0.0224958000000006,0.0013663999999998,0,sub_12
-0.0100428000000002,0.0009386000000012,0.025014,-0.0016073999999995,0.0209354000000006,0.0011437999999998,0,sub_12
-0.0095068000000002,0.0001034000000012,0.0232773999999999,-0.0009985999999995,0.0189434000000006,0.0013563999999998,0,sub_12
-0.0093990000000002,-0.0005863999999987,0.0214996,-0.0003933999999995,0.0160992000000006,0.0015699999999998,0,sub_12
-0.0101814000000002,-0.0017251999999987,0.0212623999999999,-0.0001991999999995,0.0114130000000006,0.0011499999999999,0,sub_12
-0.0094684000000002,-0.0013797999999987,0.0213561999999999,-0.0017081999999995,0.0077972000000006,0.0009303999999999,0,sub_12
-0.0091954000000002,-0.0011159999999987,0.0204869999999999,-0.0030245999999995,0.0068272000000006,0.0013411999999999,0,sub_12
-0.0087038000000002,-3.839999999878784e-05,0.0194373999999999,-0.0036931999999995,0.0077716000000006,0.0019677999999999,0,sub_12
-0.0100036000000002,0.0004078000000012,0.0189147999999999,-0.0032939999999995,0.0087132000000006,0.0023881999999999,0,sub_12
-0.0104166000000002,0.0006666000000012,0.0175044,-0.0018229999999995,0.0102920000000006,0.0023879999999999,0,sub_12
-0.0114878000000002,0.0005734000000012,0.01652,0.0002842000000004,0.0101674000000006,0.0015397999999999,0,sub_12
-0.0112704000000002,0.0006218000000012,0.0168723999999999,0.0019834000000004,0.0080326000000006,0.0011271999999999,0,sub_12
-0.0115652000000002,0.0003864000000012,0.0167063999999999,0.0028216000000004,0.0041964000000006,0.0007105999999999,0,sub_12
-0.0106022000000002,0.0008578000000012,0.0164471999999999,0.0030234000000004,0.0018512000000006,0.0009285999999998,0,sub_12
-0.0108532000000002,0.0017090000000012,0.0164913999999999,0.0027742000000004,0.0001620000000006,0.0015613999999998,0,sub_12
-0.0112566000000002,0.0015314000000012,0.0159509999999999,0.0033824000000004,-0.0002535999999993,0.0026257999999998,0,sub_12
-0.0119570000000002,0.0015456000000012,0.0159236,0.0042098000000004,-0.0002403999999993,0.0028365999999998,0,sub_12
-0.0131478000000002,0.0007046000000012,0.0164384,0.0054658000000004,0.0001974000000006,0.0030499999999998,0,sub_12
-0.0136394000000002,1.8600000001212245e-05,0.0176586,0.0067228000000004,0.0006360000000006,0.0030495999999998,0,sub_12
-0.0134046000000002,-0.0006891999999987,0.0193108,0.0075812000000004,0.0012738000000006,0.0026275999999998,0,sub_12
-0.0121698000000002,-0.0009733999999987,0.0218927999999999,0.0077984000000004,0.0014888000000006,0.0019879999999998,0,sub_12
-0.0114784000000001,-0.0014829999999987,0.0235128,0.0073784000000004,0.0023450000000006,0.0013429999999999,0,sub_12
-0.0102532000000001,-0.0017319999999987,0.0255424,0.0063068000000004,0.0008590000000006,0.0009099999999999,0,sub_12
-0.0090826000000001,-0.0017643999999987,0.0250869999999999,0.0052054000000004,-0.0027921999999993,0.0002575999999999,0,sub_12
-0.0080302000000001,-0.0020133999999987,0.0246304,0.0041038000000004,-0.0070797999999993,-0.001035,0,sub_12
-0.0075260000000001,-0.0019649999999987,0.0234926,0.0015164000000004,-0.0105067999999993,-0.0031936,0,sub_12
-0.0073780000000002,-0.0021823999999987,0.0219889999999999,-0.0023597999999995,-0.0147855999999993,-0.0042918,0,sub_12
-0.0081342000000002,-0.0012497999999987,0.0187936,-0.0068723999999994,-0.0175733999999993,-0.0047554,0,sub_12
-0.0099432000000002,-0.0012491999999987,0.0161991999999999,-0.0111341999999994,-0.0158555999999993,-0.00436,0,sub_12
-0.0121542000000002,-0.0002241999999987,0.0125392,-0.0141049999999994,-0.0101013999999993,-0.0022516,0,sub_12
-0.0145476000000002,0.0012606000000012,0.0100132,-0.0147449999999994,-0.0031367999999993,0.0009367999999999,0,sub_12
-0.0161742000000002,0.0031020000000012,0.0079176,-0.0125939999999994,0.0070164000000006,0.0034995999999999,0,sub_12
-0.0161516000000002,0.0035570000000012,0.007743,-0.0083005999999995,0.0186552000000006,0.0056481999999998,0,sub_12
-0.0152434000000002,0.0041944000000012,0.0097392,-0.0044481999999995,0.0270996000000006,0.0077977999999998,0,sub_12
-0.0133378000000002,0.0035572000000012,0.0131296,-0.0010465999999995,0.0297950000000006,0.0095241999999998,0,sub_12
-0.0123336000000002,0.0020220000000012,0.0168585999999999,0.0025712000000004,0.0293494000000006,0.0112591999999998,0,sub_12
-0.0121890000000002,0.0002072000000012,0.0217623999999999,0.0051010000000004,0.0235836000000006,0.0123523999999998,0,sub_12
-0.0132332000000002,-0.0009411999999987,0.0256391999999999,0.0074194000000004,0.0169716000000006,0.0121633999999999,0,sub_12
-0.0133418000000001,-0.0031305999999987,0.0296525999999999,0.0101740000000004,0.0103666000000006,0.0098409999999999,0,sub_12
-0.0127642000000001,-0.0047205999999987,0.0343519999999999,0.0120702000000004,0.0036994000000006,0.0066535999999999,0,sub_12
-0.0112904000000001,-0.0054297999999987,0.0376389999999999,0.0120346000000004,-0.0055175999999993,0.0034559999999999,0,sub_12
-0.0085100000000002,-0.0056927999999987,0.0397639999999999,0.0107236000000004,-0.0136647999999993,0.0002481999999999,0,sub_12
-0.0065096000000001,-0.0061313999999987,0.0400577999999999,0.0074806000000004,-0.0241497999999993,-0.0027566,0,sub_12
-0.0056416000000002,-0.0053569999999987,0.0383871999999999,0.0031564000000004,-0.0369779999999993,-0.0049112,0,sub_12
-0.0055844000000002,-0.0041197999999987,0.0338501999999999,-0.0007255999999995,-0.0478233999999993,-0.0066336,0,sub_12
-0.0065064000000002,-0.0030151999999987,0.0277037999999999,-0.0041587999999995,-0.0537701999999993,-0.0083592,0,sub_12
-0.0078992000000002,-0.0020111999999987,0.0216174,-0.0065135999999995,-0.0567395999999993,-0.0096538,0,sub_12
-0.0077412000000002,-0.0005411999999987,0.0169368,-0.0075949999999995,-0.0582831999999993,-0.0098798,0,sub_12
-0.0071444000000002,0.0005210000000012,0.0120101999999999,-0.0080305999999995,-0.0570651999999993,-0.0086094,0,sub_12
-0.0073532000000001,0.0011332000000012,0.009183,-0.0088929999999995,-0.0552091999999993,-0.0067018,0,sub_12
-0.0071242000000002,0.0018678000000012,0.0080666,-0.0091161999999995,-0.0529317999999993,-0.0041494,0,sub_12
-0.0070636000000002,0.0026316000000012,0.00698,-0.0080639999999995,-0.0508753999999993,-0.0007332,0,sub_12
-0.0082512000000001,0.0026958000000012,0.0064839999999999,-0.0065675999999995,-0.0472705999999993,0.0022635999999999,0,sub_12
-0.0106508000000001,0.0027922000000012,0.0074661999999999,-0.0046327999999995,-0.0417473999999993,0.0046199999999999,0,sub_12
-0.0130360000000002,0.0026844000000011,0.0086345999999999,-0.0022831999999995,-0.0351937999999993,0.0065433999999999,0,sub_12
-0.0142670000000002,0.0021644000000011,0.0102439999999999,-0.0007929999999995,-0.0309765999999993,0.0073955999999999,0,sub_12
-0.0147416000000001,0.0008178000000011,0.0121583999999999,-0.0010193999999995,-0.0295205999999993,0.0075983999999999,0,sub_12
-0.0145160000000002,0.0003534000000011,0.0147115999999999,-0.0018915999999995,-0.0293405999999993,0.0077983999999999,0,sub_12
-0.0128052000000002,0.0008626000000011,0.0168655999999999,-0.0029915999999995,-0.0319311999999993,0.0084275999999999,0,sub_12
-0.0099876000000002,0.0020266000000012,0.0184189999999999,-0.0036469999999995,-0.0340645999999993,0.0097075999999999,0,sub_12
-0.0102156000000002,0.0022508000000012,0.0190218,-0.0026077999999995,-0.0385491999999993,0.0114297999999999,0,sub_12
-0.0114450000000002,0.0029464000000012,0.019622,0.0018492000000004,-0.0434667999999993,0.0118945999999999,0,sub_12
-0.0106516000000002,0.0025350000000012,0.0215998,0.0088844000000004,-0.0456317999999993,0.0113017999999999,0,sub_12
-0.0103380000000002,0.0009456000000012,0.0244488,0.0163520000000004,-0.0469443999999993,0.0102837999999998,0,sub_12
-0.0111922000000001,-0.0012025999999987,0.027255,0.0203874000000004,-0.0533539999999993,0.0081799999999998,0,sub_12
-0.0098324000000002,-0.0023855999999987,0.0300268,0.0201410000000004,-0.0637931999999993,0.0051967999999998,0,sub_12
-0.0074564000000001,-0.0046233999999987,0.0329632,0.0169228000000004,-0.0701763999999993,0.0028285999999998,0,sub_12
-0.0068434000000001,-0.0055211999999987,0.034171,0.0083534000000004,-0.0790895999999993,0.0014983999999998,0,sub_12
-0.0062070000000001,-0.0059081999999987,0.0328421999999999,-0.0038565999999994,-0.0907605999999993,0.0003597999999998,0,sub_12
-0.0068824000000001,-0.0052565999999987,0.0299587999999999,-0.0130525999999994,-0.0954155999999993,0.0003015999999998,0,sub_12
-0.0075980000000001,-0.0046283999999987,0.0274077999999999,-0.0185743999999994,-0.0887949999999993,0.0011091999999998,0,sub_12
-0.0103256000000002,-0.0013913999999987,0.0223435999999999,-0.0228273999999994,-0.0822223999999993,0.0031865999999998,0,sub_12
-0.0138162000000002,0.0005810000000012,0.0174797999999999,-0.0208617999999994,-0.0694903999999993,0.0046585999999998,0,sub_12
-0.0172490000000002,0.0024448000000012,0.0142958,-0.0130949999999995,-0.0486789999999993,0.0053061999999999,0,sub_12
-0.0182646000000002,0.0025748000000012,0.014053,-0.0038365999999995,-0.0291477999999993,0.0051113999999999,0,sub_12
-0.0181374000000002,0.0020746000000012,0.0151023999999999,0.0045492000000004,-0.0140867999999993,0.0047023999999999,0,sub_12
-0.0161686000000002,0.0004238000000012,0.0182864,0.0108022000000004,-0.0013185999999993,0.0030205999999999,0,sub_12
-0.0137486000000002,-0.0007079999999987,0.0216369999999999,0.0121026000000004,0.0027268000000006,0.0025971999999999,0,sub_12
-0.0117956000000002,-0.0019267999999987,0.0249179999999999,0.0103826000000004,2.4400000000624616e-05,0.0017291999999999,0,sub_12
-0.0114684000000002,-0.0023455999999987,0.0254351999999999,0.0058850000000004,-0.0043693999999993,-1.0800000000062496e-05,0,sub_12
-0.0129760000000002,-0.0023003999999987,0.0248117999999999,0.0018160000000004,-0.0079141999999993,-0.0013214,0,sub_12
-0.0139484000000002,-0.0024099999999987,0.0232243999999999,-0.0020453999999995,-0.0127377999999993,-0.002629,0,sub_12
-0.0151388000000002,-0.0022537999999987,0.0204495999999999,-0.0033205999999995,-0.0120303999999993,-0.0041394,0,sub_12
-0.0156008000000002,-0.0021963999999987,0.0183563999999999,-0.0041443999999995,-0.0054227999999993,-0.0041538,0,sub_12
-0.0160646000000002,-0.0017775999999987,0.0182387999999999,-0.0041195999999995,0.0018142000000006,-0.0024536,0,sub_12
-0.0155420000000002,-0.0014697999999987,0.0184323999999999,-0.0043041999999995,0.0099042000000006,-0.0007562,0,sub_12
-0.0165868000000002,-0.0009323999999987,0.0190079999999999,-0.0034123999999995,0.0205452000000006,0.0013727999999999,0,sub_12
-0.0180216000000002,-0.0009241999999987,0.019879,-0.0020885999999995,0.0291970000000006,0.0022203999999999,0,sub_12
-0.0191416000000002,-0.0008503999999987,0.0204768,-0.0003535999999995,0.0335896000000006,0.0022217999999999,0,sub_12
-0.0191698000000002,-0.0012801999999987,0.0210017999999999,0.0013788000000004,0.0367064000000006,0.0015835999999999,0,sub_12
-0.0194628000000002,-0.0016063999999987,0.0219646,0.0022498000000004,0.0376974000000006,0.0005149999999999,0,sub_12
-0.0183708000000001,-0.0023139999999987,0.0231066,0.0022616000000004,0.0369888000000006,-0.0009848,0,sub_12
-0.0166486000000001,-0.0026671999999987,0.0241383999999999,0.0003326000000004,0.0344414000000006,-0.001636,0,sub_12
-0.0154166000000001,-0.0029369999999987,0.0247168,-0.0020277999999995,0.0308302000000006,-0.0022888,0,sub_12
-0.0148520000000001,-0.0028995999999987,0.0238926,-0.0043845999999995,0.0276470000000006,-0.0033694,0,sub_12
-0.0139654000000002,-0.0023821999999987,0.0225231999999999,-0.0063133999999995,0.0250996000000006,-0.0040204,0,sub_12
-0.0136776000000002,-0.0014941999999987,0.0212019999999999,-0.0071783999999995,0.0229702000000006,-0.0035964,0,sub_12
-0.0135376000000002,-0.0008657999999987,0.0197829999999999,-0.0073945999999995,0.0225440000000006,-0.0033836,0,sub_12
-0.0132622000000002,-0.0002365999999987,0.0183025999999999,-0.0071763999999995,0.0240328000000006,-0.0029568,0,sub_12
