userAcceleration.x,userAcceleration.y,userAcceleration.z,rotationRate.x,rotationRate.y,rotationRate.z,label,subject
-0.0084586000000003,0.0065320000000012,0.0024452,-0.0059429999999993,0.0270370000000006,-0.0238216,0,sub_24
-0.0107874000000003,0.0056194000000012,0.0011984,-0.0063689999999993,0.0270394000000006,-0.0240396,0,sub_24
-0.0138814000000003,0.0045082000000012,-0.0007001999999999,-0.0059067999999993,0.0298514000000006,-0.0255134,0,sub_24
-0.0129048000000003,0.0044106000000012,-0.0030703999999999,-0.0050085999999993,0.0337306000000006,-0.02784,0,sub_24
-0.0111394000000003,0.0048194000000012,-0.0031653999999999,-0.0049945999999993,0.0322808000000006,-0.0286702,0,sub_24
-0.0100760000000003,0.0050778000000012,-0.0022035999999999,-0.0051911999999993,0.0323198000000006,-0.028649,0,sub_24
-0.0083172000000003,0.0055688000000012,-0.0033867999999999,-0.0053829999999993,0.0344848000000006,-0.027562,0,sub_24
-0.0060054000000003,0.0061438000000012,-0.0040669999999999,-0.0064447999999993,0.0370394000000006,-0.0260776,0,sub_24
-0.0067680000000003,0.0064390000000012,-0.0026833999999999,-0.0081543999999993,0.0381040000000006,-0.024382,0,sub_24
-0.0080830000000003,0.0076958000000012,-0.0017735999999999,-0.0098639999999993,0.0385318000000006,-0.0233268,0,sub_24
-0.0079002000000003,0.0076864000000012,-0.0028913999999999,-0.0128251999999993,0.0396448000000006,-0.023537,0,sub_24
-0.0089514000000003,0.0077334000000012,-0.0026691999999999,-0.0177009999999993,0.0416186000000006,-0.0241892,0,sub_24
-0.0096938000000003,0.0071686000000012,-0.0029057999999999,-0.0204371999999993,0.0450754000000006,-0.0246148,0,sub_24
-0.0081868000000003,0.0072606000000012,-0.0040339999999999,-0.0221219999999993,0.0453318000000006,-0.0248152,0,sub_24
-0.0064790000000003,0.0048710000000012,-0.0045285999999999,-0.0223189999999993,0.0460024000000006,-0.0232964,0,sub_24
-0.0059582000000003,0.0034144000000012,-0.0051987999999999,-0.0204087999999993,0.0464108000000006,-0.0205068,0,sub_24
-0.0051918000000003,0.0029826000000012,-0.0058393999999999,-0.0161543999999993,0.0459598000000006,-0.017913,0,sub_24
-0.0035646000000003,0.0039580000000013,-0.0054273999999999,-0.0127715999999993,0.0418882000000006,-0.0148934,0,sub_24
-0.0022176000000003,0.0043306000000013,-0.0046015999999999,-0.0102289999999993,0.0378540000000006,-0.011003,0,sub_24
-0.0017436000000003,0.0052800000000012,-0.0038069999999999,-0.0093769999999993,0.0368110000000006,-0.007769,0,sub_24
-0.0013096000000003,0.0060928000000012,-0.0016705999999999,-0.0091413999999993,0.0402478000000006,-0.0053994,0,sub_24
-0.0015526000000003,0.0077454000000012,-6.279999999999216e-05,-0.0112635999999993,0.0407124000000006,-0.0036836,0,sub_24
-0.0036914000000003,0.0090106000000012,0.0009186,-0.0146575999999993,0.0420378000000006,-0.0030462,0,sub_24
-0.0055336000000003,0.0087916000000012,0.0007276,-0.0174065999999993,0.0471626000000006,-0.0034996,0,sub_24
-0.0062704000000003,0.0090672000000012,-0.0003441999999999,-0.0193175999999993,0.0484510000000006,-0.0043696,0,sub_24
-0.0072232000000003,0.0091792000000012,-0.0015159999999999,-0.0210437999999993,0.0439838000000006,-0.00459,0,sub_24
-0.0070036000000003,0.0074508000000012,-0.0013281999999999,-0.0203973999999993,0.0423168000000006,-0.0052092,0,sub_24
-0.0053714000000003,0.0067344000000012,-0.0004219999999999,-0.0186679999999993,0.0429950000000006,-0.0071054,0,sub_24
-0.0022696000000003,0.0083240000000012,0.000663,-0.0195089999999993,0.0424002000000006,-0.0081628,0,sub_24
-0.0011214000000003,0.0088874000000012,0.0016896,-0.0207765999999993,0.0424436000000006,-0.008583,0,sub_24
-0.0018122000000003,0.0085624000000012,0.002203,-0.0220453999999993,0.0416372000000006,-0.0096432,0,sub_24
-0.0027968000000003,0.0081606000000012,0.0023064,-0.0246007999999993,0.0412270000000006,-0.0113694,0,sub_24
-0.0025438000000003,0.0065588000000012,0.001146,-0.0263111999999993,0.0399572000000006,-0.0120206,0,sub_24
-0.0042528000000003,0.0046932000000012,0.000269,-0.0252721999999993,0.0327140000000006,-0.0130726,0,sub_24
-0.0060762000000003,0.0034980000000012,0.0003258,-0.0240165999999993,0.0248700000000006,-0.0136804,0,sub_24
-0.0053638000000003,0.0019078000000013,0.0001918,-0.0220919999999993,0.0236276000000006,-0.0140784,0,sub_24
-0.0044074000000003,0.0022416000000013,-0.0007671999999999,-0.0195375999999993,0.0213126000000006,-0.0131886,0,sub_24
-0.0072000000000003,0.0036768000000013,-0.0014131999999999,-0.0187015999999993,0.0189934000000006,-0.0097472,0,sub_24
-0.0101280000000003,0.0048836000000013,-7.259999999995222e-05,-0.0197401999999993,0.0271194000000006,-0.006119,0,sub_24
-0.0103386000000003,0.0068368000000013,0.0012934,-0.0192973999999993,0.0337106000000006,-0.0031342,0,sub_24
-0.0114086000000003,0.0088068000000012,0.0023432,-0.0180385999999993,0.0328386000000006,0.0007203999999999,0,sub_24
-0.0141372000000003,0.0094148000000012,0.0033416,-0.0180535999999993,0.0343110000000006,0.0054173999999999,0,sub_24
-0.0148458000000003,0.0092386000000012,0.0058522,-0.0180723999999993,0.0319870000000006,0.0082087999999999,0,sub_24
-0.0150474000000003,0.0085306000000012,0.0066202,-0.0174971999999993,0.0179490000000006,0.0095237999999999,0,sub_24
-0.0162184000000003,0.0075346000000012,0.0064962,-0.0164625999999993,0.0094556000000006,0.0091255999999999,0,sub_24
-0.0167738000000003,0.0081994000000012,0.0071114,-0.0168899999999993,0.0060882000000006,0.0067877999999999,0,sub_24
-0.0154684000000003,0.0086974000000012,0.0086074,-0.0179711999999993,-0.0008961999999993,0.0038091999999999,0,sub_24
-0.0125486000000003,0.0076662000000012,0.0074574,-0.0181915999999993,-0.0049327999999993,0.0010341999999999,0,sub_24
-0.0086004000000003,0.0059656000000012,0.0064286,-0.0168931999999993,-0.0032229999999993,-0.0015236,0,sub_24
-0.0047540000000003,0.0054774000000012,0.0049824,-0.0154157999999993,-0.0083349999999993,-0.0032164,0,sub_24
-0.0014846000000003,0.0041688000000012,0.0024416,-0.0122577999999993,-0.0187747999999993,-0.0031672,0,sub_24
0.0022277999999996,0.0031780000000012,-0.0008331999999999,-0.0065187999999993,-0.0234761999999993,-0.001825,0,sub_24
0.0045631999999996,0.0034980000000012,-0.0028427999999999,0.0002818000000006,-0.0269129999999993,0.0020869999999999,0,sub_24
0.0070923999999996,0.0037230000000012,-0.0054683999999999,0.0070558000000006,-0.0337687999999993,0.0085673999999999,0,sub_24
0.0093085999999996,0.0028182000000012,-0.0072345999999999,0.0134194000000006,-0.0353035999999993,0.0167469999999999,0,sub_24
0.0125565999999996,0.0023764000000012,-0.0056587999999999,0.0191598000000006,-0.0315223999999992,0.0253291999999998,0,sub_24
0.0119477999999995,0.0040816000000012,-0.0047649999999999,0.0246474000000006,-0.0377487999999992,0.0326405999999998,0,sub_24
0.0107197999999995,0.0055042000000012,-0.0036631999999999,0.0284432000000006,-0.0448045999999992,0.0356683999999998,0,sub_24
0.0084297999999995,0.0068594000000012,-0.0008421999999999,0.0308180000000006,-0.0392565999999992,0.0363345999999999,0,sub_24
0.0086923999999996,0.0072712000000012,0.0022334,0.0314752000000006,-0.0364705999999992,0.0365653999999999,0,sub_24
0.0055997999999995,0.0087928000000012,0.0024636,0.0314386000000006,-0.0462501999999993,0.0361663999999998,0,sub_24
0.0012595999999996,0.0076696000000012,0.002771,0.0301620000000006,-0.0494111999999993,0.0333995999999998,0,sub_24
0.0006417999999996,0.0061376000000012,0.0024848,0.0299762000000006,-0.0476739999999993,0.0302065999999998,0,sub_24
0.0016441999999996,0.0052708000000012,0.000783,0.0318810000000006,-0.0536357999999992,0.0276639999999998,0,sub_24
0.0011413999999996,0.0057380000000012,8.820000000002766e-05,0.0342088000000006,-0.0583293999999992,0.0272591999999998,0,sub_24
0.0010467999999996,0.0056600000000012,-0.0004463999999999,0.0350918000000006,-0.0502421999999992,0.0287505999999998,0,sub_24
0.0035843999999996,0.0058136000000012,-0.0015357999999999,0.0368180000000006,-0.0419551999999992,0.0328115999999999,0,sub_24
0.0026479999999996,0.0062338000000012,-0.0018115999999999,0.0396134000000006,-0.0347273999999992,0.0373265999999999,0,sub_24
0.0017527999999996,0.0073742000000012,-0.0001757999999999,0.0411390000000006,-0.0255759999999993,0.0414031999999999,0,sub_24
5.7599999999639365e-05,0.0085632000000012,0.0020636,0.0407460000000006,-0.0189625999999993,0.0424783999999999,0,sub_24
-0.0001024000000003,0.0092574000000012,0.004001,0.0393068000000006,-0.0112657999999993,0.0399129999999999,0,sub_24
-5.860000000036062e-05,0.0108134000000012,0.0064144,0.0355500000000006,-0.0003513999999993,0.0339089999999999,0,sub_24
-0.0011746000000003,0.0121450000000012,0.008977,0.0290206000000006,0.0097218000000006,0.0246641999999999,0,sub_24
-0.0042632000000003,0.0112254000000012,0.0103564,0.0197440000000006,0.0219504000000006,0.0115511999999999,0,sub_24
-0.0075928000000003,0.0121336000000012,0.0093418,0.0079410000000006,0.0367582000000006,-0.0045668,0,sub_24
-0.0092804000000003,0.0126468000000012,0.0085086,-0.0047151999999993,0.0509324000000007,-0.0213314,0,sub_24
-0.0088944000000003,0.0099346000000012,0.0072576,-0.0163005999999993,0.0672282000000007,-0.0368094,0,sub_24
-0.0063816000000003,0.0074590000000012,0.0050942,-0.0264257999999993,0.0800938000000006,-0.0482134,0,sub_24
-0.0033596000000004,0.0077006000000012,0.0017618,-0.0329883999999993,0.0856740000000007,-0.0523188,0,sub_24
0.0015095999999995,0.0055638000000012,-0.0006885999999999,-0.0352943999999993,0.0967534000000006,-0.0504262,0,sub_24
0.0058081999999995,0.0039478000000012,-0.0031533999999999,-0.0335613999999993,0.1105636000000006,-0.0423128,0,sub_24
0.0086323999999996,0.0048130000000012,-0.0035117999999999,-0.0295157999999993,0.1211520000000006,-0.0296922,0,sub_24
0.0075205999999996,0.0058480000000012,-0.0058283999999999,-0.0254537999999993,0.1340752000000007,-0.0153492000000001,0,sub_24
0.0041489999999996,0.0055812000000012,-0.0068431999999999,-0.0241435999999993,0.1502108000000007,-0.0027390000000001,0,sub_24
-0.0010268000000003,0.0050680000000012,-0.0075123999999999,-0.0213385999999993,0.1637954000000006,0.0071067999999998,0,sub_24
-0.0061040000000003,0.0059104000000012,-0.0071469999999999,-0.0183239999999993,0.1714342000000007,0.0118339999999998,0,sub_24
-0.0106186000000003,0.0054408000000012,-0.0076239999999999,-0.0176535999999993,0.1763252000000006,0.0131293999999998,0,sub_24
-0.0120142000000003,0.0061326000000012,-0.0050833999999999,-0.0195523999999993,0.1799580000000006,0.0120421999999998,0,sub_24
-0.0103544000000003,0.0073488000000012,-0.0023201999999999,-0.0208141999999993,0.1814640000000006,0.0094667999999998,0,sub_24
-0.0088556000000003,0.0077982000000012,-0.0010231999999999,-0.0231699999999993,0.1765840000000006,0.0064649999999998,0,sub_24
-0.0075490000000003,0.0066020000000012,-0.0013565999999999,-0.0278461999999993,0.1742662000000006,0.0030303999999998,0,sub_24
-0.0041544000000004,0.0065136000000012,-0.0004455999999999,-0.0318929999999993,0.1700268000000007,3.0399999999912614e-05,0,sub_24
1.0999999999599872e-05,0.0060656000000012,-0.0007493999999999,-0.0336165999999993,0.1608776000000006,-0.0025198,0,sub_24
0.0024591999999996,0.0041740000000012,-0.0028435999999999,-0.0342653999999993,0.1523680000000006,-0.0061312,0,sub_24
0.0052475999999996,0.0051148000000012,-0.0037933999999999,-0.0340249999999993,0.1508896000000006,-0.0105996,0,sub_24
0.0075387999999996,0.0065872000000012,-0.0041057999999999,-0.0321003999999993,0.1487646000000007,-0.0135736,0,sub_24
0.0069837999999996,0.0074712000000012,-0.0057799999999999,-0.0325311999999993,0.1462158000000006,-0.0150678,0,sub_24
0.0041373999999996,0.0072170000000012,-0.0070299999999999,-0.0344459999999993,0.1472882000000007,-0.0150816,0,sub_24
0.0028177999999996,0.0088516000000012,-0.0071059999999999,-0.0367859999999993,0.1479286000000007,-0.0135928,0,sub_24
0.0013687999999996,0.0083064000000012,-0.0081709999999999,-0.0385279999999993,0.1408900000000006,-0.010381,0,sub_24
-0.0003216000000003,0.0064780000000012,-0.0092131999999999,-0.0396441999999993,0.1302290000000006,-0.0075878,0,sub_24
-0.0005870000000003,0.0060070000000012,-0.0091977999999999,-0.0358287999999993,0.1229674000000006,-0.0066876,0,sub_24
0.0005643999999996,0.0059644000000012,-0.0081791999999999,-0.0313799999999993,0.1142120000000006,-0.0057808,0,sub_24
0.0005221999999996,0.0057706000000012,-0.0069725999999999,-0.0273807999999993,0.1024778000000006,-0.0050968,0,sub_24
0.0008657999999996,0.0064888000000012,-0.0046405999999999,-0.0255069999999993,0.0933050000000006,-0.00379,0,sub_24
0.0014873999999996,0.0066032000000012,-0.0034785999999999,-0.0246933999999993,0.0862638000000007,-0.0018522000000001,0,sub_24
0.0013105999999995,0.0060074000000012,-0.0030037999999999,-0.0245361999999993,0.0764466000000006,0.0022259999999998,0,sub_24
0.0013409999999995,0.0049898000000012,-0.0045915999999999,-0.0209677999999993,0.0657662000000006,0.0061151999999998,0,sub_24
0.0007943999999996,0.0050248000000012,-0.0060571999999999,-0.0154759999999993,0.0569914000000006,0.0112973999999998,0,sub_24
-8.380000000038027e-05,0.0040942000000012,-0.0065919999999999,-0.0087019999999993,0.0486382000000006,0.0164879999999998,0,sub_24
0.0005035999999996,0.0036866000000012,-0.0054907999999999,-0.0006421999999993,0.0409222000000006,0.0210457999999999,0,sub_24
0.0015013999999996,0.0033204000000012,-0.0043585999999999,0.0067840000000005,0.0361904000000006,0.0258039999999999,0,sub_24
0.0012265999999996,0.0047516000000012,-0.0012757999999999,0.0107912000000005,0.0308296000000006,0.0309665999999999,0,sub_24
-0.0007814000000003,0.0047530000000012,0.0010938,0.0137352000000005,0.0235660000000006,0.0333465999999999,0,sub_24
-0.0035464000000003,0.0054226000000012,0.0024717999999999,0.0162734000000005,0.0182326000000006,0.0329437999999999,0,sub_24
-0.0049038000000003,0.0062912000000012,0.0038007999999999,0.0173288000000005,0.0139626000000006,0.0325339999999999,0,sub_24
-0.0076930000000003,0.0085100000000012,0.0060881999999999,0.0166500000000005,0.0016110000000006,0.0299859999999999,0,sub_24
-0.0111758000000003,0.0081234000000012,0.0069839999999999,0.0159838000000005,-0.0105173999999993,0.0248737999999999,0,sub_24
-0.0132532000000003,0.0079512000000012,0.0070794,0.0149290000000005,-0.0145465999999993,0.0193209999999999,0,sub_24
-0.0106804000000003,0.0081874000000012,0.0080472,0.0123652000000005,-0.0217673999999992,0.0139753999999999,0,sub_24
-0.0105524000000003,0.0079632000000012,0.0082578,0.0104124000000006,-0.0340967999999992,0.0086357999999999,0,sub_24
-0.0110398000000003,0.0062624000000012,0.0064694,0.0099794000000006,-0.0398301999999992,0.0041527999999999,0,sub_24
-0.0094184000000003,0.0058596000000012,0.0045902,0.0101988000000006,-0.0410983999999992,0.0013777999999999,0,sub_24
-0.0060562000000003,0.0057128000000012,0.0046078,0.0103868000000006,-0.0479117999999992,0.0001055999999999,0,sub_24
-0.0061440000000003,0.0057522000000012,0.0029656,0.0120588000000006,-0.0545267999999992,0.0011935999999999,0,sub_24
-0.0064594000000003,0.0055670000000012,0.0012664,0.0131052000000006,-0.0568825999999993,0.0033397999999999,0,sub_24
-0.0042578000000003,0.0054724000000012,0.0002012,0.0147918000000006,-0.0603015999999993,0.0044237999999998,0,sub_24
-0.0023070000000003,0.0055428000000012,0.0003476,0.0168918000000006,-0.0664925999999993,0.0057281999999998,0,sub_24
-0.0012708000000003,0.0057100000000012,6.30000000000278e-05,0.0196406000000006,-0.0705561999999993,0.0072479999999998,0,sub_24
-0.0010358000000003,0.0054884000000012,-0.0005237999999999,0.0215542000000006,-0.0714175999999993,0.0079033999999998,0,sub_24
-0.0022906000000003,0.0061730000000012,-0.0006823999999999,0.0219934000000006,-0.0694979999999993,0.0070491999999998,0,sub_24
-0.0023668000000003,0.0067878000000012,-5.639999999999226e-05,0.0209628000000006,-0.0626713999999993,0.0057511999999999,0,sub_24
-0.0018974000000003,0.0075500000000012,8.500000000000773e-05,0.0184320000000006,-0.0577553999999993,0.0040177999999999,0,sub_24
-0.0025954000000003,0.0052872000000012,-0.0014571999999999,0.0160982000000006,-0.0564619999999993,0.0022903999999999,0,sub_24
-0.0038460000000003,0.0032684000000012,-0.0027875999999999,0.0146172000000006,-0.0555967999999993,0.0003557999999999,0,sub_24
-0.0034858000000003,0.0033944000000012,-0.0042305999999999,0.0137734000000006,-0.0555851999999992,-0.0017866,0,sub_24
-0.0021380000000003,0.0052826000000012,-0.0051911999999999,0.0126878000000006,-0.0600543999999992,-0.0020022,0,sub_24
-0.0012624000000003,0.0062772000000012,-0.0058125999999999,0.0133080000000006,-0.0626207999999992,-7.180000000010615e-05,0,sub_24
-0.0009688000000003,0.0073574000000012,-0.0063919999999999,0.0135218000000006,-0.0583773999999992,0.0041971999999998,0,sub_24
0.0007511999999996,0.0079878000000012,-0.0064375999999999,0.0135204000000006,-0.0537103999999992,0.0093187999999998,0,sub_24
0.0016065999999996,0.0079934000000012,-0.0046975999999999,0.0156230000000006,-0.0543823999999992,0.0157437999999998,0,sub_24
-7.68000000003803e-05,0.0050554000000012,-0.0038593999999999,0.0203002000000006,-0.0531407999999992,0.0209023999999998,0,sub_24
-0.0008980000000003,0.0032900000000012,-0.0030407999999999,0.0245758000000006,-0.0480557999999993,0.0243439999999998,0,sub_24
0.0008537999999996,0.0048756000000012,-0.0003357999999999,0.0284080000000006,-0.0480765999999993,0.0262937999999998,0,sub_24
0.0017571999999996,0.0063326000000012,0.0018204,0.0313778000000006,-0.0502241999999993,0.0280267999999998,0,sub_24
0.0030163999999996,0.0074340000000012,0.0020859999999999,0.0337168000000006,-0.0510877999999992,0.0288993999999998,0,sub_24
0.0038699999999996,0.0087988000000012,0.0021415999999999,0.0333008000000006,-0.0498377999999992,0.0299699999999998,0,sub_24
0.0042313999999995,0.0083098000000012,0.0033255999999999,0.0326846000000006,-0.0477263999999992,0.0289017999999998,0,sub_24
0.0036643999999995,0.0075212000000012,0.0040545999999999,0.0327180000000006,-0.0451841999999992,0.0261281999999998,0,sub_24
0.0016545999999995,0.0078918000000012,0.0039362,0.0314798000000006,-0.0405079999999992,0.0235563999999998,0,sub_24
-6.100000000038037e-05,0.0080028000000012,0.00458,0.0274862000000006,-0.0311373999999992,0.0216001999999999,0,sub_24
-0.0003226000000003,0.0088438000000012,0.0061064,0.0234782000000006,-0.0221689999999992,0.0200653999999999,0,sub_24
-0.0021008000000003,0.0106274000000012,0.005415,0.0198656000000005,-0.0176863999999992,0.0211027999999999,0,sub_24
-0.0043710000000003,0.0111470000000012,0.0046814,0.0164540000000006,-0.0144889999999992,0.0236385999999999,0,sub_24
-0.0045012000000003,0.0102268000000012,0.0056248,0.0145498000000006,-0.0113189999999992,0.0246905999999999,0,sub_24
-0.0028732000000003,0.0082822000000012,0.0063428,0.0149934000000006,-0.0094297999999993,0.0242651999999999,0,sub_24
-0.0016990000000003,0.0078598000000012,0.0060206,0.0152230000000005,-0.0086015999999993,0.0229851999999999,0,sub_24
0.0003385999999996,0.0078364000000012,0.0066425999999999,0.0139790000000006,-0.0047793999999993,0.0201955999999999,0,sub_24
0.0016833999999996,0.0083182000000012,0.0073677999999999,0.0110586000000005,0.0037444000000006,0.0152519999999998,0,sub_24
0.0018993999999996,0.0090064000000012,0.006147,0.0074994000000006,0.0133674000000006,0.0094467999999998,0,sub_24
0.0002731999999996,0.0092644000000012,0.0050134,0.0026584000000006,0.0212956000000006,0.0023527999999998,0,sub_24
-0.0018960000000003,0.0089418000000012,0.002226,-0.0028187999999993,0.0277440000000006,-0.0070940000000001,0,sub_24
-0.0037424000000003,0.0077160000000012,-0.0010873999999999,-0.0087235999999993,0.0309874000000006,-0.0180360000000001,0,sub_24
-0.0044980000000003,0.0060620000000012,-0.0043063999999999,-0.0146471999999993,0.0299698000000006,-0.0289728,0,sub_24
-0.0045914000000003,0.0051362000000012,-0.0065387999999999,-0.0203807999999993,0.0246862000000006,-0.0388348,0,sub_24
-0.0047174000000003,0.0056704000000012,-0.0094933999999999,-0.0252895999999993,0.0164034000000006,-0.0452688,0,sub_24
-0.0053620000000003,0.0054386000000012,-0.0101231999999999,-0.0246409999999993,0.0134148000000006,-0.0484662,0,sub_24
2.8799999999619406e-05,0.0036624000000012,-0.0110979999999999,-0.0188737999999993,0.0148848000000006,-0.0480004,0,sub_24
0.0056999999999996,0.0030824000000012,-0.0113507999999999,-0.0129275999999993,0.0129284000000006,-0.0432556,0,sub_24
0.0101997999999996,0.0029902000000012,-0.0105329999999999,-0.0089279999999993,0.0094702000000006,-0.0342492,0,sub_24
0.0095985999999996,0.0056808000000012,-0.0088369999999999,-0.0053101999999993,0.0170534000000006,-0.0231256,0,sub_24
0.0096579999999996,0.0064176000000012,-0.0080521999999999,-0.0055687999999993,0.0186768000000006,-0.0100986,0,sub_24
0.0014289999999996,0.0064368000000012,-0.0062457999999999,-0.0075749999999993,0.0128432000000006,0.0044203999999999,0,sub_24
-0.0079536000000003,0.0040584000000012,-0.0049359999999999,-0.0039991999999993,0.0129622000000006,0.0172609999999999,0,sub_24
-0.0154428000000003,0.0002156000000012,-0.0040965999999999,0.0062162000000006,0.0149900000000006,0.0265129999999999,0,sub_24
-0.0155026000000003,-0.0035839999999987,-0.0026009999999999,0.0187354000000006,0.0049102000000006,0.0321665999999998,0,sub_24
-0.0151232000000003,-0.0043577999999987,0.0001162,0.0301972000000006,-0.0055815999999993,0.0352495999999998,0,sub_24
-0.0125564000000003,-0.0023229999999987,0.0035464,0.0370094000000006,-0.0107121999999993,0.0335933999999999,0,sub_24
-0.0087122000000003,0.0029066000000012,0.0061372,0.0357170000000005,-0.0179549999999993,0.0291013999999998,0,sub_24
-0.0066940000000003,0.0077024000000012,0.0066406,0.0293120000000005,-0.0238989999999993,0.0239313999999998,0,sub_24
-0.0076030000000003,0.0088040000000012,0.005316,0.0199276000000005,-0.0287645999999993,0.0180983999999999,0,sub_24
-0.0111848000000003,0.0096926000000012,0.0026516,0.0105262000000006,-0.0385263999999993,0.0112029999999999,0,sub_24
-0.0155806000000003,0.0105126000000012,0.0008362,0.0036682000000006,-0.0529807999999993,0.0034761999999999,0,sub_24
-0.0191104000000003,0.0091796000000012,-0.0010499999999999,-0.0002137999999993,-0.0691315999999993,-0.0035826,0,sub_24
-0.0196920000000003,0.0080588000000012,-1.4599999999971754e-05,-0.0023965999999993,-0.0850829999999993,-0.0087072,0,sub_24
-0.0179814000000003,0.0069556000000012,0.001987,-0.0028637999999993,-0.0953033999999992,-0.0099814,0,sub_24
-0.0132972000000003,0.0051358000000012,0.0043236,-0.0012069999999993,-0.1030065999999992,-0.0071898,0,sub_24
-0.0110630000000003,0.0036450000000012,0.0036498,0.0014860000000006,-0.1124383999999992,0.0007389999999999,0,sub_24
-0.0105866000000003,0.0015584000000012,0.0031334,0.0071912000000006,-0.1144313999999992,0.0106021999999998,0,sub_24
-0.0091782000000003,0.0008360000000012,0.0025636,0.0167468000000006,-0.1143071999999992,0.0204895999999998,0,sub_24
-0.0080982000000003,0.0004566000000012,0.0033494,0.0285842000000006,-0.1280421999999992,0.0310517999999998,0,sub_24
-0.0108622000000003,0.0005888000000012,0.0052858,0.0376312000000006,-0.1477103999999993,0.0398981999999999,0,sub_24
-0.0140172000000003,0.0019388000000012,0.0075538,0.0445718000000006,-0.1622535999999993,0.0476547999999999,0,sub_24
-0.0173708000000003,0.0040346000000012,0.0093972,0.0523608000000006,-0.1778651999999993,0.0554183999999999,0,sub_24
-0.0192170000000003,0.0041284000000012,0.0094352,0.0607714000000006,-0.1951993999999993,0.0644599999999999,0,sub_24
-0.0205564000000003,0.0037716000000012,0.0079612,0.0683756000000006,-0.2018787999999993,0.0736959999999999,0,sub_24
-0.0161326000000003,0.0037658000000012,0.0060222,0.0770614000000006,-0.2064267999999993,0.0818689999999999,0,sub_24
-0.0107206000000003,0.0047460000000012,0.0051374,0.0865674000000006,-0.2218297999999993,0.0866439999999999,0,sub_24
-0.0063024000000003,0.0069020000000012,0.0049494,0.0912082000000006,-0.2333583999999993,0.0858261999999999,0,sub_24
-0.0018148000000003,0.0082510000000012,0.0063452,0.0880628000000006,-0.2282049999999993,0.0785339999999999,0,sub_24
