userAcceleration.x,userAcceleration.y,userAcceleration.z,rotationRate.x,rotationRate.y,rotationRate.z,label,subject
-0.0227976000000003,0.0047476000000012,-0.019289,-0.0278259999999994,0.2888616000000008,0.0189747999999999,0,sub_5
-0.0281606000000003,0.0029712000000012,-0.0207202,-0.0333497999999994,0.2905998000000008,0.0153019999999999,0,sub_5
-0.0317642000000003,0.0032480000000012,-0.019527,-0.0352643999999994,0.2899750000000008,0.0133665999999999,0,sub_5
-0.0354760000000003,0.0031588000000012,-0.0184116,-0.0350661999999994,0.2850800000000008,0.0118785999999999,0,sub_5
-0.0372200000000003,0.0037760000000012,-0.0178872,-0.0376555999999994,0.2763632000000008,0.0095215999999999,0,sub_5
-0.0360062000000003,0.0031946000000012,-0.017991,-0.0381167999999994,0.2636020000000008,0.0044071999999999,0,sub_5
-0.0325144000000003,0.0044066000000012,-0.0171346,-0.0377493999999994,0.2457228000000008,-0.0002674,0,sub_5
-0.0282042000000003,0.0069256000000012,-0.0165806,-0.0397433999999994,0.2248684000000008,-0.004741,0,sub_5
-0.0202248000000003,0.0088410000000012,-0.0174918,-0.0455705999999994,0.2063684000000007,-0.0086036,0,sub_5
-0.0091244000000003,0.0127526000000012,-0.0191442,-0.0530893999999994,0.1923440000000008,-0.0114156,0,sub_5
0.0049881999999996,0.0173492000000012,-0.0203312,-0.0642345999999994,0.1759990000000008,-0.0168136,0,sub_5
0.0196399999999996,0.0229688000000012,-0.0253576,-0.0815245999999994,0.1650190000000007,-0.0265344,0,sub_5
0.0338949999999996,0.0270700000000012,-0.0322022,-0.1068037999999994,0.1743320000000008,-0.0425326,0,sub_5
0.0423399999999996,0.0294062000000012,-0.0416524,-0.1415505999999994,0.2098986000000008,-0.0622624,0,sub_5
0.0419643999999996,0.0250932000000012,-0.0523696,-0.1794623999999994,0.2559058000000008,-0.079464,0,sub_5
0.0345319999999996,0.0170248000000012,-0.0618954,-0.2088297999999994,0.3156846000000007,-0.0848732,0,sub_5
0.0193847999999996,0.0048278000000012,-0.0626634,-0.2143549999999994,0.3768160000000008,-0.0762306,0,sub_5
-0.0006102000000003,-0.0096345999999987,-0.0563604,-0.1890811999999994,0.4245584000000008,-0.0494098,0,sub_5
-0.0231654000000003,-0.0205915999999987,-0.0479912,-0.1364749999999994,0.4421130000000007,-0.0095406,0,sub_5
-0.0416212000000003,-0.0269543999999987,-0.037203,-0.0664949999999994,0.4329722000000008,0.0311249999999999,0,sub_5
-0.0552032000000003,-0.0281341999999987,-0.0275552,0.0072442000000005,0.3970084000000008,0.0630919999999999,0,sub_5
-0.0583848000000003,-0.0217105999999987,-0.0228452,0.0658196000000005,0.3451696000000008,0.0821545999999999,0,sub_5
-0.0535708000000003,-0.0085403999999987,-0.0216566,0.0966910000000005,0.2873046000000008,0.0871445999999999,0,sub_5
-0.0421880000000003,0.0046472000000012,-0.0178766,0.0994932000000005,0.2387478000000008,0.0797487999999999,0,sub_5
-0.0272458000000003,0.0157254000000012,-0.0127208,0.0827620000000005,0.2060488000000007,0.0664277999999999,0,sub_5
-0.0148880000000003,0.0229846000000012,-0.0061038,0.0492760000000005,0.1951434000000008,0.0521071999999999,0,sub_5
-0.0081892000000003,0.0240116000000012,0.0007625999999999,0.0062410000000005,0.1985360000000007,0.0402653999999999,0,sub_5
-0.0062824000000003,0.0176192000000012,0.0077451999999999,-0.0329215999999994,0.2104312000000007,0.0299353999999999,0,sub_5
-0.0098380000000003,0.0055840000000012,0.0122811999999999,-0.0571559999999994,0.2226918000000008,0.0218455999999999,0,sub_5
-0.0187826000000003,-0.0032449999999987,0.0142613999999999,-0.0662735999999994,0.2302020000000007,0.0164311999999999,0,sub_5
-0.0246940000000003,-0.0050963999999987,0.0130875999999999,-0.0626457999999994,0.2242776000000007,0.0141283999999999,0,sub_5
-0.0252814000000003,-0.0047487999999987,0.0076399999999999,-0.0518197999999994,0.2068188000000008,0.0129589999999999,0,sub_5
-0.0247524000000003,0.0002812000000012,0.0042837999999998,-0.0350865999999993,0.1776084000000008,0.0150503999999999,0,sub_5
-0.0177990000000003,0.0084932000000012,0.0007231999999999,-0.0266699999999993,0.1503412000000007,0.0179357999999999,0,sub_5
-0.0065126000000003,0.0128642000000012,-0.0082646,-0.0284557999999993,0.1280254000000008,0.0168979999999999,0,sub_5
0.0035769999999996,0.0125660000000012,-0.017049,-0.0388927999999993,0.1236220000000007,0.0082849999999999,0,sub_5
0.0072383999999996,0.0099706000000012,-0.0217962,-0.0454219999999994,0.1328456000000007,-0.0016002,0,sub_5
0.0071699999999996,0.0075174000000012,-0.0269834,-0.0510505999999994,0.1512326000000007,-0.0127726,0,sub_5
0.0013367999999996,0.0053252000000012,-0.0300962,-0.0497099999999994,0.1591332000000008,-0.0183282,0,sub_5
-0.0084282000000003,0.0042562000000012,-0.0264768,-0.0407949999999994,0.1608302000000008,-0.0152592,0,sub_5
-0.0188612000000003,0.0042630000000012,-0.0215732,-0.0238665999999994,0.1490458000000007,-0.0044258,0,sub_5
-0.0257482000000003,0.0035666000000012,-0.0193984,-0.0082655999999994,0.1280996000000008,0.0076919999999999,0,sub_5
-0.0276876000000003,0.0041098000000012,-0.0198566,0.0038918000000005,0.1005608000000008,0.0197941999999999,0,sub_5
-0.0253286000000003,0.0059560000000012,-0.018691,0.0064878000000005,0.0760622000000008,0.0258435999999999,0,sub_5
-0.0196546000000003,0.0081012000000012,-0.0199096,-0.0002063999999994,0.0596752000000007,0.0270997999999999,0,sub_5
-0.0163202000000003,0.0078190000000012,-0.0222722,-0.0083403999999994,0.0537390000000007,0.0268369999999999,0,sub_5
-0.0161208000000003,0.0106004000000012,-0.023588,-0.0179133999999994,0.0578298000000007,0.0244147999999999,0,sub_5
-0.0171152000000003,0.0116492000000012,-0.0257886,-0.0297941999999994,0.0674810000000007,0.0187645999999999,0,sub_5
-0.0173690000000003,0.0111386000000012,-0.0307312,-0.0382455999999994,0.0803170000000007,0.0129207999999999,0,sub_5
-0.0171360000000003,0.0105910000000012,-0.0339436,-0.0441643999999994,0.0873898000000007,0.0075291999999999,0,sub_5
-0.0138386000000003,0.0113774000000012,-0.0352638,-0.0526455999999994,0.0914992000000007,-0.0004402,0,sub_5
-0.0066264000000003,0.0102388000000012,-0.035012,-0.0664523999999994,0.0947862000000007,-0.011223,0,sub_5
0.0012331999999996,0.0082202000000012,-0.0327144,-0.0813289999999994,0.0980742000000008,-0.0213724,0,sub_5
0.0078791999999996,0.0069862000000012,-0.0304764,-0.0895575999999994,0.1102814000000007,-0.0299912,0,sub_5
0.0075507999999996,0.0073884000000012,-0.0236772,-0.0928305999999994,0.1343974000000008,-0.0373088,0,sub_5
0.0012959999999996,0.0088984000000012,-0.0224738,-0.0976077999999994,0.1629652000000008,-0.037806,0,sub_5
-0.0083800000000003,0.0132092000000012,-0.0262854,-0.1012217999999994,0.1776316000000008,-0.0260996,0,sub_5
-0.0167206000000003,0.0139042000000012,-0.0331676,-0.1126081999999994,0.1733582000000008,-0.0131414,0,sub_5
-0.0253392000000003,0.0142408000000012,-0.0405436,-0.1336721999999994,0.1482552000000008,-0.0042834,0,sub_5
-0.0308016000000003,0.0164898000000012,-0.0510502,-0.1654017999999994,0.1159772000000008,-0.0033954,0,sub_5
-0.0301920000000003,0.0150888000000012,-0.0567576,-0.2073695999999993,0.0784336000000008,-0.008768,0,sub_5
-0.0294254000000003,0.0091564000000012,-0.0588074,-0.2444277999999994,0.0385402000000007,-0.0168806,0,sub_5
-0.0312574000000003,0.0107450000000012,-0.0587234,-0.2620633999999994,0.0051622000000007,-0.0195246,0,sub_5
-0.0333552000000003,0.0124092000000012,-0.0561522,-0.2647291999999994,-0.0210233999999992,-0.022287,0,sub_5
-0.0305852000000003,0.0075326000000012,-0.0518548,-0.2524839999999994,-0.0479197999999991,-0.0200306,0,sub_5
-0.0275560000000003,0.0051090000000012,-0.0460046,-0.2210333999999994,-0.0729719999999991,-0.0161468,0,sub_5
-0.0212854000000003,0.0035652000000012,-0.03542,-0.1856249999999994,-0.0779865999999991,-0.0182432,0,sub_5
-0.0172036000000003,0.0019868000000012,-0.0236102,-0.1538065999999994,-0.0795599999999991,-0.025283,0,sub_5
-0.0123678000000003,0.0043764000000012,-0.0156406,-0.1302991999999994,-0.0808827999999991,-0.0345174,0,sub_5
-0.0018596000000003,0.0090684000000012,-0.0168818,-0.1174891999999994,-0.0921673999999992,-0.0474458,0,sub_5
0.0094689999999996,0.0153348000000012,-0.0172608,-0.1120209999999994,-0.1189947999999991,-0.05656,0,sub_5
0.0187725999999996,0.0153764000000012,-0.02023,-0.1116977999999994,-0.1439157999999991,-0.0584486,0,sub_5
0.0287173999999996,0.0085314000000012,-0.0256366,-0.1127991999999994,-0.1462769999999991,-0.053112,0,sub_5
0.0320403999999996,-0.0008299999999987,-0.0233768,-0.1092169999999994,-0.1414489999999991,-0.0381382,0,sub_5
0.0255251999999996,-0.0101655999999987,-0.0173592,-0.1059953999999994,-0.1185237999999991,-0.0197716,0,sub_5
0.0221825999999996,-0.0187087999999987,-0.0138998,-0.0980037999999993,-0.0849375999999991,-0.007581,0,sub_5
0.0125621999999996,-0.0153691999999987,-0.0124992,-0.0876333999999993,-0.0536657999999991,-0.0047712,0,sub_5
0.0058721999999996,-0.0046371999999987,-0.0113602,-0.0774725999999994,-0.0300289999999992,-0.010499,0,sub_5
0.0040943999999996,0.0074798000000012,-0.0144818,-0.0747625999999994,-0.0042287999999992,-0.0179906,0,sub_5
-6.460000000031787e-05,0.0155444000000012,-0.0144016,-0.0704059999999994,0.0125994000000007,-0.0209728,0,sub_5
-0.0103292000000003,0.0157386000000012,-0.0167514,-0.0699159999999994,0.0272960000000007,-0.0203474,0,sub_5
-0.0139800000000003,0.0123854000000012,-0.016707,-0.0690999999999994,0.0230158000000007,-0.016277,0,sub_5
-0.0171564000000003,0.0100080000000012,-0.0150562,-0.0683519999999994,0.0023356000000007,-0.013468,0,sub_5
-0.0202928000000002,0.0060068000000012,-0.0136258,-0.0659017999999994,-0.0245085999999992,-0.0157666,0,sub_5
-0.0189374000000003,0.0075298000000012,-0.0126228,-0.0670317999999994,-0.0453567999999992,-0.0225844,0,sub_5
-0.0161044000000003,0.0103644000000012,-0.0117874,-0.0675159999999994,-0.0621701999999992,-0.0266254,0,sub_5
-0.0126192000000003,0.0140254000000012,-0.010937,-0.0698543999999994,-0.0632151999999992,-0.0296314,0,sub_5
-0.0110156000000003,0.0128294000000012,-0.0095308,-0.0747215999999994,-0.0542497999999992,-0.0296768,0,sub_5
-0.0112592000000003,0.0109718000000012,-0.009835,-0.0778511999999994,-0.0376239999999992,-0.0288654,0,sub_5
-0.0112348000000003,0.0077360000000012,-0.0139918,-0.0748141999999994,-0.0248579999999992,-0.0271514,0,sub_5
-0.0087204000000003,0.0061282000000012,-0.0141538,-0.0678877999999994,-0.0137957999999992,-0.0286036,0,sub_5
-0.0083082000000003,0.0057994000000012,-0.0141252,-0.0607767999999994,-0.0076405999999991,-0.0285528,0,sub_5
-0.0086092000000003,0.0060622000000012,-0.0139556,-0.0555735999999994,0.0027764000000008,-0.0270252,0,sub_5
-0.0065608000000003,0.0023490000000012,-0.0139764,-0.0493293999999994,0.0095594000000007,-0.0233492,0,sub_5
-0.0053080000000003,0.0017000000000012,-0.0097138,-0.0409667999999994,0.0150480000000008,-0.0175204,0,sub_5
-0.0061768000000003,0.0032258000000012,-0.0075528,-0.0366705999999994,0.0263052000000008,-0.012591,0,sub_5
-0.0064488000000003,-0.0001117999999987,-0.008863,-0.0308681999999994,0.0379926000000007,-0.0100016,0,sub_5
-0.0069440000000003,-0.0021463999999987,-0.0088166,-0.0233877999999994,0.0420094000000007,-0.0086726,0,sub_5
-0.0079546000000003,0.0024968000000012,-0.0075102,-0.0191021999999994,0.0462546000000008,-0.0084344,0,sub_5
-0.0088340000000003,0.0026476000000012,-0.009873,-0.0175941999999994,0.0483840000000008,-0.0094948,0,sub_5
-0.0093300000000003,0.0021640000000012,-0.0100248,-0.0152785999999994,0.0417694000000007,-0.0090428,0,sub_5
-0.0075874000000003,0.0050422000000012,-0.008389,-0.0138109999999994,0.0353752000000007,-0.0096654,0,sub_5
-0.0048818000000003,0.0050334000000012,-0.0086256,-0.0110467999999994,0.0334472000000007,-0.00943,0,sub_5
-0.0017536000000003,0.0020026000000012,-0.009735,-0.0046655999999994,0.0327704000000007,-0.005539,0,sub_5
0.0010353999999996,0.0014546000000012,-0.0064206,0.0021412000000005,0.0323034000000007,-0.001218,0,sub_5
0.0060599999999996,-0.0002917999999987,-0.0100102,0.0040730000000005,0.0382486000000008,0.0022061999999999,0,sub_5
0.0066539999999996,0.0001002000000012,-0.0122454,0.0008686000000005,0.0414394000000008,0.0062389999999999,0,sub_5
0.0049587999999996,0.0013008000000012,-0.0157108,-0.0050893999999994,0.0444456000000008,0.0055525999999999,0,sub_5
0.0043495999999996,0.0010606000000012,-0.0214248,-0.0153351999999994,0.0389606000000008,0.0007877999999999,0,sub_5
0.0034241999999996,0.0044396000000012,-0.0247348,-0.0245389999999994,0.0272962000000008,-0.0046026,0,sub_5
8.279999999968253e-05,0.0119402000000012,-0.0226976,-0.0277779999999994,0.0139046000000007,-0.009522,0,sub_5
-0.0024450000000003,0.0091690000000012,-0.0227534,-0.0222627999999994,0.0053682000000008,-0.0107544,0,sub_5
-0.0042930000000003,0.0071158000000012,-0.0228148,-0.0101811999999994,-0.0059925999999991,-0.0040324,0,sub_5
-0.0080338000000003,0.0085084000000012,-0.0192896,0.0057250000000005,-0.0163201999999991,0.0074151999999999,0,sub_5
-0.0119346000000003,0.0056412000000012,-0.019321,0.0201682000000005,-0.0202493999999991,0.0184169999999999,0,sub_5
-0.0168084000000003,-0.0004777999999987,-0.0214662,0.0358840000000005,-0.0256751999999991,0.0296431999999999,0,sub_5
-0.0216294000000003,0.0021952000000012,-0.0219336,0.0494506000000005,-0.0361999999999991,0.0391517999999999,0,sub_5
-0.0256726000000003,0.0038200000000012,-0.0216898,0.0551340000000005,-0.0492333999999991,0.0434809999999999,0,sub_5
-0.0280970000000003,0.0022190000000012,-0.0212496,0.0572168000000005,-0.0618057999999991,0.0422297999999999,0,sub_5
-0.0297456000000003,0.0017076000000012,-0.0211398,0.0558924000000005,-0.0762701999999991,0.0375389999999999,0,sub_5
-0.0310624000000003,0.0026694000000012,-0.0205364,0.0501036000000005,-0.0915531999999992,0.0283315999999999,0,sub_5
-0.0301586000000003,0.0037250000000012,-0.0203838,0.0381586000000005,-0.1027545999999992,0.0160847999999999,0,sub_5
-0.0260068000000003,0.0060998000000012,-0.0193818,0.0279560000000005,-0.1060789999999991,0.0038399999999999,0,sub_5
-0.0220132000000003,0.0095626000000012,-0.0204192,0.0188348000000005,-0.1034527999999991,-0.0056274,0,sub_5
-0.0193904000000003,0.0102918000000012,-0.024281,0.0122644000000005,-0.0965999999999992,-0.0086732,0,sub_5
-0.0153916000000003,0.0098024000000012,-0.0266534,0.0099508000000005,-0.0870129999999992,-0.0065652,0,sub_5
-0.0132466000000003,0.0100882000000012,-0.028437,0.0123112000000005,-0.0795823999999991,-0.0020716,0,sub_5
-0.0135476000000003,0.0083462000000012,-0.03197,0.0161318000000005,-0.0777039999999991,0.0043621999999999,0,sub_5
-0.0151634000000003,0.0056828000000012,-0.0328902,0.0243784000000005,-0.0850143999999991,0.0138293999999999,0,sub_5
-0.0160810000000003,0.0056390000000012,-0.0293634,0.0370896000000005,-0.0965989999999991,0.0226923999999999,0,sub_5
-0.0186780000000003,0.0053888000000012,-0.027347,0.0470328000000005,-0.1075319999999991,0.0308941999999999,0,sub_5
-0.0203178000000003,0.0001398000000013,-0.0277464,0.0559236000000005,-0.1171753999999991,0.0371641999999999,0,sub_5
-0.0216016000000003,-0.0002993999999986,-0.0224844,0.0658744000000005,-0.1291627999999991,0.0425899999999999,0,sub_5
-0.0227860000000003,0.0099220000000013,-0.0209868,0.0681966000000005,-0.1347103999999991,0.0426133999999999,0,sub_5
-0.0224250000000003,0.0135690000000013,-0.0230258,0.0656670000000005,-0.1329765999999991,0.0374661999999999,0,sub_5
-0.0180158000000003,0.0122402000000012,-0.0257104,0.0676016000000005,-0.1325461999999992,0.0347017999999999,0,sub_5
-0.0123718000000003,0.0161360000000012,-0.0261834,0.0736038000000005,-0.1263883999999991,0.0347359999999999,0,sub_5
-0.0054292000000003,0.0176346000000012,-0.0308698,0.0771042000000005,-0.1074375999999991,0.0345225999999999,0,sub_5
0.0050965999999996,0.0100466000000012,-0.0346494,0.0827728000000005,-0.0787023999999991,0.0364481999999999,0,sub_5
0.0136409999999996,0.0074210000000012,-0.035642,0.0854636000000005,-0.0437943999999991,0.0424041999999999,0,sub_5
0.0200685999999996,0.0132014000000012,-0.0348908,0.0768956000000005,0.0007464000000007,0.0467737999999999,0,sub_5
0.0235213999999996,0.0149398000000012,-0.034007,0.0626118000000005,0.0440422000000007,0.0485485999999999,0,sub_5
0.0219933999999996,0.0137020000000012,-0.0328182,0.0476668000000005,0.0822286000000007,0.0498981999999999,0,sub_5
0.0131777999999996,0.0113336000000012,-0.0306452,0.0341568000000005,0.1105966000000007,0.0544749999999999,0,sub_5
0.0030337999999996,0.0090872000000012,-0.0297318,0.0267920000000005,0.1218818000000007,0.0601913999999999,0,sub_5
-0.0082930000000003,0.0056946000000012,-0.0291968,0.0276826000000005,0.1173762000000007,0.0649173999999999,0,sub_5
-0.0165838000000002,0.0041688000000012,-0.0296168,0.0319130000000005,0.1032760000000007,0.0677487999999999,0,sub_5
-0.0170180000000002,0.0059228000000012,-0.0316874,0.0363308000000005,0.0815128000000007,0.0686685999999999,0,sub_5
-0.0116340000000002,0.0086134000000012,-0.032172,0.0394714000000005,0.0569980000000007,0.0661645999999999,0,sub_5
-0.0042652000000003,0.0109508000000012,-0.0340182,0.0375126000000005,0.0444508000000008,0.0621077999999999,0,sub_5
0.0016369999999996,0.0108196000000012,-0.0345938,0.0338958000000005,0.0417144000000008,0.0569585999999999,0,sub_5
0.0030213999999996,0.0099612000000012,-0.0343276,0.0296658000000005,0.0470676000000008,0.0539311999999999,0,sub_5
0.0001101999999996,0.0080090000000012,-0.0318982,0.0273312000000005,0.0573260000000008,0.0524069999999999,0,sub_5
-0.0042092000000003,0.0058800000000012,-0.0317502,0.0252128000000005,0.0684350000000008,0.0510969999999999,0,sub_5
-0.0087974000000003,0.0050978000000012,-0.0307452,0.0268814000000005,0.0684484000000008,0.0506821999999999,0,sub_5
-0.0129128000000003,0.0054350000000012,-0.0292278,0.0302168000000005,0.0607806000000008,0.0515707999999999,0,sub_5
-0.0131840000000003,0.0061000000000012,-0.02927,0.0343740000000005,0.0467158000000007,0.0531141999999999,0,sub_5
-0.0128724000000003,0.0054922000000012,-0.0306976,0.0379074000000005,0.0285826000000008,0.0559395999999999,0,sub_5
-0.0126000000000003,0.0041014000000012,-0.0316582,0.0433506000000005,0.0083112000000008,0.0589945999999999,0,sub_5
-0.0111256000000003,0.0034436000000012,-0.0299092,0.0501558000000005,-0.0096183999999992,0.0607607999999999,0,sub_5
-0.0078600000000003,0.0044316000000012,-0.0290234,0.0533728000000005,-0.0207097999999991,0.0605705999999999,0,sub_5
-0.0058126000000003,0.0066874000000012,-0.028024,0.0538448000000005,-0.0273097999999991,0.0584325999999999,0,sub_5
-0.0033528000000003,0.0085258000000012,-0.0278254,0.0513536000000005,-0.0313315999999991,0.0534931999999999,0,sub_5
0.0021685999999996,0.0100374000000012,-0.027853,0.0463220000000005,-0.0317191999999991,0.0476767999999999,0,sub_5
0.0062523999999996,0.0116892000000012,-0.02957,0.0378302000000005,-0.0282557999999991,0.0414173999999999,0,sub_5
0.0097443999999996,0.0110518000000012,-0.0314724,0.0280572000000005,-0.0245765999999991,0.0355759999999999,0,sub_5
0.0140943999999996,0.0079682000000012,-0.0323022,0.0193280000000005,-0.0249533999999991,0.0308153999999999,0,sub_5
0.0164379999999996,0.0060386000000012,-0.0311424,0.0138196000000005,-0.0185331999999991,0.0284185999999999,0,sub_5
0.0148845999999996,0.0065710000000012,-0.029804,0.0076066000000005,-0.0044763999999991,0.0269915999999999,0,sub_5
0.0133063999999996,0.0074344000000012,-0.0280846,0.0035032000000005,0.0065808000000008,0.0279333999999999,0,sub_5
0.0096201999999996,0.0104310000000012,-0.0273362,0.0019374000000005,0.0133646000000008,0.0297527999999999,0,sub_5
0.0053521999999996,0.0116590000000012,-0.0275428,0.0003726000000005,0.0205736000000008,0.0317853999999999,0,sub_5
0.0015277999999996,0.0108686000000012,-0.0283624,-0.0018889999999994,0.0154270000000008,0.0340425999999999,0,sub_5
-0.0007092000000003,0.0083336000000012,-0.0276108,-0.0013285999999994,-0.0007731999999992,0.0355627999999999,0,sub_5
-0.0020070000000003,0.0047936000000012,-0.0280418,0.0005160000000005,-0.0188843999999992,0.0343169999999999,0,sub_5
-0.0030178000000003,0.0020190000000012,-0.0265448,0.0023616000000005,-0.0380555999999992,0.0317907999999999,0,sub_5
-0.0041908000000003,0.0015542000000012,-0.0236564,0.0010218000000005,-0.0542311999999991,0.0288111999999999,0,sub_5
-0.0034704000000002,0.0036468000000012,-0.0235108,0.0016014000000005,-0.0708387999999991,0.0256317999999999,0,sub_5
-0.0012412000000002,0.0085710000000012,-0.0243104,0.0043236000000005,-0.0865973999999991,0.0213981999999999,0,sub_5
0.0007673999999996,0.0113832000000012,-0.024539,0.0043140000000005,-0.0950937999999991,0.0149995999999999,0,sub_5
0.0034229999999996,0.0096848000000012,-0.0260476,0.0055980000000005,-0.1010365999999991,0.0081795999999999,0,sub_5
0.0076849999999996,0.0096900000000012,-0.028531,0.0094512000000004,-0.1054951999999991,0.0009481999999999,0,sub_5
0.0107971999999996,0.0094880000000012,-0.0281718,0.0101538000000004,-0.0995003999999991,-0.0069594,0,sub_5
0.0117037999999996,0.0081218000000012,-0.0273116,0.0066088000000004,-0.0866823999999991,-0.0125554,0,sub_5
0.0118981999999996,0.0077086000000012,-0.0260666,0.0019828000000005,-0.0732369999999991,-0.014314,0,sub_5
0.0126305999999996,0.0088662000000012,-0.0235036,-0.0058303999999994,-0.0550997999999992,-0.014392,0,sub_5
0.0122435999999996,0.0085128000000012,-0.022764,-0.0132311999999994,-0.0388867999999992,-0.0131826,0,sub_5
0.0122291999999996,0.0080618000000012,-0.021782,-0.0159447999999994,-0.0243937999999992,-0.012152,0,sub_5
0.0123081999999996,0.0058206000000012,-0.0217984,-0.0171759999999994,-0.0124625999999991,-0.0111076,0,sub_5
0.0131185999999996,0.0050928000000012,-0.0221482,-0.0154325999999994,-0.0022503999999991,-0.0089722,0,sub_5
0.0130151999999996,0.0058010000000012,-0.0227116,-0.0117727999999994,0.0081636000000008,-0.0057552,0,sub_5
0.0124657999999996,0.0064242000000012,-0.0229224,-0.0083233999999994,0.0202786000000008,-0.0014736,0,sub_5
0.0105209999999996,0.0063644000000012,-0.0243542,-0.0064643999999994,0.0299732000000008,0.0038051999999999,0,sub_5
0.0081959999999996,0.0076906000000012,-0.0249052,-0.0044017999999994,0.0369000000000007,0.0084479999999999,0,sub_5
0.0050435999999996,0.0079596000000012,-0.0250646,-0.0053225999999994,0.0423552000000007,0.0107217999999999,0,sub_5
0.0022271999999996,0.0068692000000012,-0.0256426,-0.0054145999999994,0.0409950000000007,0.0117281999999999,0,sub_5
-0.0015924000000003,0.0059982000000012,-0.0246806,-0.0037939999999994,0.0381486000000007,0.0099709999999999,0,sub_5
-0.0043024000000003,0.0057596000000012,-0.0232808,-0.0025425999999994,0.0302672000000007,0.0084943999999999,0,sub_5
-0.0057752000000003,0.0052228000000012,-0.023532,-0.0012929999999994,0.0219596000000008,0.0070181999999999,0,sub_5
-0.0051614000000003,0.0058296000000012,-0.0233014,0.0027276000000005,0.0127910000000008,0.0053487999999999,0,sub_5
