userAcceleration.x,userAcceleration.y,userAcceleration.z,rotationRate.x,rotationRate.y,rotationRate.z,label,subject
-0.0641304000000001,0.0107642000000012,0.1672383999999999,0.0182346000000004,0.0172458000000006,0.0299805999999999,0,sub_14
-0.0523950000000002,0.0132602000000012,0.1806387999999999,0.0373872000000004,0.0425538000000006,-0.0284566,0,sub_14
-0.0373848000000002,0.0129650000000012,0.1792048,0.0484010000000004,0.0697728000000006,-0.0781936,0,sub_14
-0.0173176000000002,0.0051028000000012,0.1332485999999999,0.0299728000000004,0.0744140000000006,-0.1039656,0,sub_14
-0.0051872000000002,0.0004820000000012,0.0957907999999999,-0.0176561999999995,0.0592602000000006,-0.1091926,0,sub_14
0.0125873999999997,-0.0045211999999987,0.0733373999999999,-0.0677871999999995,0.0689946000000006,-0.102505,0,sub_14
0.0397933999999997,-0.0074267999999986,0.0701763999999999,-0.1034035999999995,0.1302260000000006,-0.0927908,0,sub_14
0.0681931999999997,-0.0083205999999986,0.0684395999999999,-0.1317889999999995,0.2393466000000006,-0.0773192,0,sub_14
0.0878859999999997,-0.0089035999999986,0.0556011999999999,-0.1481555999999995,0.3711932000000006,-0.0545288,0,sub_14
0.0934225999999997,-0.0102325999999986,0.0320217999999999,-0.1429955999999995,0.5037920000000006,-0.0253934000000001,0,sub_14
0.0847419999999997,-0.0159463999999986,0.0058879999999999,-0.1258007999999995,0.6152272000000008,0.0111169999999998,0,sub_14
0.0623103999999997,-0.0178403999999987,-0.011872,-0.1069923999999995,0.6669668000000006,0.0562609999999998,0,sub_14
0.0263453999999997,-0.0140823999999987,-0.0089298,-0.0876439999999995,0.6511570000000007,0.1036317999999998,0,sub_14
-0.0153018000000002,-0.0030043999999987,0.0062111999999999,-0.0692199999999995,0.6091866000000007,0.1405609999999998,0,sub_14
-0.0528350000000002,0.0092670000000012,0.0240255999999999,-0.0563215999999995,0.5564328000000006,0.1616557999999999,0,sub_14
-0.0782678000000002,0.0231186000000012,0.0426781999999999,-0.0470265999999995,0.4926784000000007,0.1662889999999999,0,sub_14
-0.0897230000000002,0.0286886000000012,0.0598261999999999,-0.0346369999999995,0.4400436000000006,0.1581107999999998,0,sub_14
-0.0828630000000002,0.0273904000000012,0.0707603999999999,-0.0171633999999995,0.4174688000000007,0.1407427999999999,0,sub_14
-0.0618912000000002,0.0199144000000012,0.0761889999999999,0.0080606000000004,0.4042652000000006,0.1174351999999998,0,sub_14
-0.0330506000000002,0.0090446000000012,0.0811651999999999,0.0352102000000004,0.3908270000000006,0.0935159999999999,0,sub_14
-0.0102960000000002,-0.0030419999999987,0.0860157999999999,0.0583240000000004,0.3812390000000006,0.0693499999999999,0,sub_14
0.0017635999999997,-0.0112707999999987,0.0877189999999999,0.0699338000000004,0.3772244000000007,0.0465919999999999,0,sub_14
0.0041527999999997,-0.0143487999999987,0.0883401999999999,0.0689412000000004,0.3698468000000006,0.0233231999999999,0,sub_14
0.0029731999999997,-0.0142229999999987,0.0885101999999999,0.0496006000000004,0.3689010000000007,0.0058997999999999,0,sub_14
-0.0007922000000002,-0.0090369999999987,0.0850561999999999,0.0187412000000004,0.3712018000000007,-0.0099148,0,sub_14
-0.0005824000000002,-0.0005311999999987,0.0794279999999999,-0.0149139999999995,0.3734928000000006,-0.020835,0,sub_14
0.0035349999999997,0.0046822000000012,0.0717981999999999,-0.0400123999999995,0.3774712000000006,-0.0349022,0,sub_14
0.0057261999999997,0.0027766000000012,0.0633189999999999,-0.0572053999999995,0.3835532000000006,-0.0491306,0,sub_14
0.0044587999999997,-0.0009331999999987,0.0575755999999999,-0.0546381999999995,0.3744256000000007,-0.0597832,0,sub_14
-0.0025710000000002,-0.0037033999999987,0.0557153999999999,-0.0344357999999995,0.3545596000000006,-0.0643168,0,sub_14
-0.0119626000000002,-0.0063723999999987,0.0623229999999999,-0.0062021999999995,0.3263212000000006,-0.0600242,0,sub_14
-0.0233856000000002,-0.0078005999999987,0.0794239999999999,0.0283178000000004,0.2864994000000006,-0.0415722,0,sub_14
-0.0333674000000001,-0.0054227999999987,0.1034767999999999,0.0712288000000004,0.2293318000000007,-0.008298,0,sub_14
-0.0425920000000001,-0.0013965999999987,0.1256231999999999,0.1056984000000004,0.1580814000000006,0.0375403999999999,0,sub_14
-0.0447314000000001,0.0017524000000012,0.1458923999999999,0.1223402000000004,0.0721462000000006,0.0948097999999999,0,sub_14
-0.0430134000000001,0.0027380000000012,0.1567097999999999,0.1259634000000004,-0.0122605999999993,0.1541227999999999,0,sub_14
-0.0368218000000001,0.0030718000000012,0.1600973999999999,0.1138756000000004,-0.0833859999999993,0.2090359999999998,0,sub_14
-0.0191710000000001,-0.0037127999999987,0.1550497999999999,0.0932102000000004,-0.1316235999999993,0.2486911999999999,0,sub_14
-0.0009196000000001,-0.0159215999999987,0.1452545999999999,0.0723462000000004,-0.1524951999999993,0.2648091999999999,0,sub_14
0.0148667999999997,-0.0261427999999987,0.1367633999999999,0.0532030000000004,-0.1430373999999993,0.2606041999999999,0,sub_14
0.0346061999999997,-0.0306791999999987,0.1350473999999999,0.0422260000000004,-0.0928359999999993,0.2367487999999999,0,sub_14
0.0606425999999997,-0.0345343999999987,0.1346371999999999,0.0366086000000004,-0.0002121999999993,0.2021941999999999,0,sub_14
0.0820613999999997,-0.0308187999999987,0.1371833999999999,0.0247012000000004,0.1222408000000006,0.1726847999999999,0,sub_14
0.1050631999999997,-0.0215813999999987,0.1461799999999999,0.0058062000000004,0.2698060000000006,0.1563403999999999,0,sub_14
0.1245007999999997,-0.0175049999999987,0.1546861999999999,-0.0124553999999995,0.4271240000000006,0.1513109999999999,0,sub_14
0.1315351999999997,-0.0245051999999987,0.1580625999999999,-0.0326021999999995,0.5630696000000006,0.1646691999999999,0,sub_14
0.1231363999999997,-0.0367775999999987,0.1563551999999999,-0.0509267999999995,0.6533198000000007,0.2018131999999998,0,sub_14
0.0990173999999997,-0.0489921999999987,0.1401962,-0.0688091999999995,0.6716898000000007,0.2587077999999999,0,sub_14
0.0690147999999997,-0.0597129999999987,0.1254847999999999,-0.0897999999999995,0.6275972000000005,0.3276247999999999,0,sub_14
0.0374919999999998,-0.0628621999999987,0.1091121999999999,-0.1009723999999995,0.5363866000000007,0.3962435999999999,0,sub_14
0.0015921999999998,-0.0519461999999987,0.0943067999999999,-0.1034989999999995,0.4098290000000006,0.4523629999999999,0,sub_14
-0.0285052000000001,-0.0339493999999987,0.0835993999999999,-0.0903345999999995,0.2799240000000006,0.4795405999999999,0,sub_14
-0.0512132000000001,-0.0168691999999987,0.0885389999999999,-0.0565141999999995,0.1957016000000006,0.4666389999999999,0,sub_14
-0.0762482000000002,-0.0111237999999987,0.0904057999999999,-0.0020955999999995,0.1481984000000006,0.4175143999999999,0,sub_14
-0.0977284000000002,-0.0113625999999987,0.0943759999999999,0.0629748000000004,0.1267218000000006,0.3506983999999998,0,sub_14
-0.1088430000000002,-0.0150239999999987,0.0985593999999999,0.1386404000000004,0.1257044000000006,0.2732479999999998,0,sub_14
-0.1161592000000002,-0.0196503999999987,0.1010317999999999,0.2110844000000004,0.1204354000000006,0.1962079999999998,0,sub_14
-0.1160360000000001,-0.0241347999999987,0.1002523999999999,0.2724478000000004,0.0857444000000006,0.1338695999999998,0,sub_14
-0.1056150000000002,-0.0213939999999987,0.0995479999999999,0.3135672000000004,0.0288882000000006,0.0908597999999998,0,sub_14
-0.0883580000000001,-0.0203963999999987,0.0975243999999999,0.3266276000000004,-0.0383633999999993,0.0611269999999998,0,sub_14
-0.0667658000000002,-0.0261105999999987,0.0954945999999999,0.3111810000000004,-0.1145425999999993,0.0508617999999998,0,sub_14
-0.0446870000000001,-0.0294865999999987,0.0967883999999999,0.2791830000000004,-0.2001093999999993,0.0582253999999998,0,sub_14
-0.0248948000000002,-0.0268753999999987,0.0992975999999999,0.2467668000000004,-0.2809985999999993,0.0683573999999999,0,sub_14
-0.0079588000000002,-0.0225443999999987,0.1015837999999999,0.2244740000000004,-0.3480453999999994,0.0712787999999999,0,sub_14
0.0023091999999997,-0.0195471999999987,0.1039625999999999,0.2093874000000004,-0.3873839999999993,0.0652417999999999,0,sub_14
0.0081419999999997,-0.0170209999999987,0.1033725999999999,0.1981236000000004,-0.3943069999999993,0.0480803999999999,0,sub_14
0.0131253999999997,-0.0196573999999987,0.1001117999999999,0.1897948000000004,-0.3745715999999993,0.0217187999999999,0,sub_14
0.0166589999999997,-0.0282453999999987,0.0985087999999999,0.1862226000000004,-0.3420649999999993,-0.0056942,0,sub_14
0.0188385999999997,-0.0385285999999987,0.1002697999999999,0.1920206000000004,-0.3085463999999994,-0.0279158,0,sub_14
0.0225787999999997,-0.0457147999999987,0.1024313999999999,0.2105558000000004,-0.2844673999999993,-0.0449088,0,sub_14
0.0241357999999997,-0.0515269999999987,0.1049773999999999,0.2454744000000004,-0.2696291999999993,-0.0600522,0,sub_14
0.0241001999999997,-0.0547503999999987,0.1075781999999999,0.2961950000000005,-0.2531373999999994,-0.0761556,0,sub_14
0.0269733999999997,-0.0562057999999987,0.0969595999999999,0.3605446000000004,-0.2422343999999993,-0.0917294000000001,0,sub_14
0.0368319999999997,-0.0513715999999987,0.0794627999999999,0.4375892000000004,-0.2475987999999994,-0.0995024,0,sub_14
0.0501741999999997,-0.0425929999999987,0.0589131999999999,0.5216500000000004,-0.2547075999999993,-0.1033784,0,sub_14
0.0709523999999997,-0.0291295999999987,0.0446911999999999,0.6018368000000004,-0.2698785999999994,-0.1085672,0,sub_14
0.0984243999999997,-0.0096821999999987,0.0412433999999999,0.6598862000000005,-0.3158841999999994,-0.109171,0,sub_14
0.1192795999999997,0.0151952000000012,0.0623975999999999,0.6843392000000004,-0.3714079999999993,-0.0980332,0,sub_14
0.1173967999999997,0.0350162000000012,0.0962783999999999,0.6547902000000004,-0.3898585999999993,-0.0937294,0,sub_14
0.1006359999999997,0.0434460000000012,0.1443101999999999,0.5876490000000004,-0.3761919999999993,-0.096566,0,sub_14
0.0823199999999997,0.0446150000000012,0.1945505999999999,0.5158690000000004,-0.3403907999999993,-0.0896358,0,sub_14
0.0634083999999997,0.0408160000000012,0.2336791999999999,0.4521122000000004,-0.2542113999999993,-0.0607088,0,sub_14
0.0673651999999997,0.0415644000000012,0.2223063999999999,0.4098840000000003,-0.1575167999999993,-0.0160486,0,sub_14
0.0850523999999997,0.0510072000000012,0.1879683999999999,0.3858310000000004,-0.1376243999999993,0.0384507999999999,0,sub_14
0.0998237999999997,0.0633352000000012,0.1514102,0.3344140000000004,-0.1749555999999993,0.0945415999999998,0,sub_14
0.0583603999999997,0.0598508000000012,0.1551267999999999,0.2486380000000004,-0.1797271999999993,0.1366775999999999,0,sub_14
-0.0004272000000002,0.0579736000000012,0.1523071999999999,0.1955366000000004,-0.1199097999999993,0.1422121999999999,0,sub_14
-0.0699762000000002,0.0414062000000012,0.1413612,0.2050888000000004,-0.0203183999999993,0.1103181999999999,0,sub_14
-0.1225962000000001,0.0169176000000012,0.1146851999999999,0.2365708000000004,0.0952592000000006,0.0576199999999999,0,sub_14
-0.1636100000000002,0.0121034000000012,0.1035847999999999,0.2971972000000004,0.1330134000000006,-0.005671,0,sub_14
-0.1634784000000002,0.0427522000000012,0.1047337999999999,0.3196458000000004,0.1191598000000005,-0.0770674,0,sub_14
-0.1489320000000001,0.0654550000000012,0.1083413999999999,0.2712160000000004,0.0662840000000006,-0.132031,0,sub_14
-0.1270392000000001,0.0870312000000012,0.1353147999999999,0.1674946000000004,-0.0248103999999993,-0.1719492,0,sub_14
-0.1180692000000001,0.1006470000000012,0.1835375999999999,0.0478172000000004,-0.0924647999999993,-0.1989768,0,sub_14
-0.1090916000000002,0.0968488000000012,0.2026071999999999,-0.0586953999999995,-0.0675347999999993,-0.2138532000000001,0,sub_14
-0.0875686000000001,0.0667342000000012,0.1465215999999999,-0.0903147999999995,-0.0708553999999993,-0.2085150000000001,0,sub_14
-0.0687064000000002,0.0418220000000012,0.0963965999999999,-0.0853735999999995,-0.1454935999999993,-0.195566,0,sub_14
-0.0670284000000002,0.0253264000000012,0.0837135999999999,-0.1034507999999995,-0.2077205999999993,-0.176171,0,sub_14
-0.0711448000000002,0.0223504000000012,0.0888957999999999,-0.1152651999999995,-0.2471973999999993,-0.1505656,0,sub_14
-0.0732312000000002,0.0218356000000012,0.0978871999999999,-0.1170147999999995,-0.2745813999999993,-0.1208462000000001,0,sub_14
-0.0776156000000002,0.0431094000000012,0.1200433999999999,-0.1277543999999995,-0.2699387999999993,-0.1004174,0,sub_14
-0.0928352000000002,0.0661702000000012,0.1377889999999999,-0.1352421999999995,-0.2311193999999993,-0.1047924,0,sub_14
-0.1065720000000001,0.0845688000000012,0.1404667999999999,-0.1233833999999995,-0.1824787999999993,-0.1310502000000001,0,sub_14
-0.1131714000000001,0.0875422000000012,0.1302209999999999,-0.1065827999999995,-0.1348855999999993,-0.1660316,0,sub_14
-0.1204288000000001,0.0878998000000012,0.1189807999999999,-0.0935063999999995,-0.1047661999999993,-0.1969574,0,sub_14
-0.1248706000000001,0.0793096000000012,0.1114405999999999,-0.0808109999999995,-0.1008959999999993,-0.2167426,0,sub_14
-0.1185122000000001,0.0712112000000012,0.1090828,-0.0789903999999995,-0.1251821999999993,-0.2188352,0,sub_14
-0.1070684000000002,0.0619540000000012,0.1111793999999999,-0.0978327999999995,-0.1754447999999993,-0.2071518,0,sub_14
-0.0970254000000002,0.0576704000000012,0.1164669999999999,-0.1278519999999995,-0.2386851999999993,-0.1904024,0,sub_14
-0.0841942000000002,0.0546130000000012,0.1234333999999999,-0.1595281999999995,-0.2906285999999993,-0.1734654,0,sub_14
-0.0698648000000002,0.0503220000000012,0.1284127999999999,-0.1898149999999995,-0.3193493999999993,-0.1576168,0,sub_14
-0.0577942000000002,0.0435520000000012,0.1305321999999999,-0.2094015999999995,-0.3404401999999993,-0.1410624000000001,0,sub_14
-0.0519816000000002,0.0410908000000012,0.1259137999999999,-0.2167541999999995,-0.3447455999999993,-0.1235894,0,sub_14
-0.0461776000000002,0.0415262000000012,0.1176889999999999,-0.2141841999999995,-0.3271333999999993,-0.107998,0,sub_14
-0.0418540000000002,0.0419244000000012,0.1068535999999999,-0.2025825999999995,-0.2967583999999993,-0.0951372,0,sub_14
-0.0382182000000002,0.0396806000000012,0.0949503999999999,-0.1774953999999995,-0.2576915999999993,-0.0830480000000001,0,sub_14
-0.0320326000000002,0.0364034000000012,0.0855735999999999,-0.1461501999999995,-0.2041545999999993,-0.0720018,0,sub_14
-0.0247564000000002,0.0296928000000012,0.0798467999999999,-0.1105433999999995,-0.1514865999999993,-0.0604974,0,sub_14
-0.0170628000000002,0.0213486000000012,0.0789655999999999,-0.0694061999999995,-0.1009751999999993,-0.0472426,0,sub_14
-0.0084932000000002,0.0139002000000012,0.0819411999999999,-0.0276307999999995,-0.0494065999999993,-0.0324892,0,sub_14
-0.0033240000000002,0.0086164000000012,0.0859675999999999,0.0077128000000004,-0.0001771999999993,-0.013291,0,sub_14
-0.0001134000000002,0.0046594000000012,0.0881985999999999,0.0284530000000004,0.0326800000000006,0.0103125999999999,0,sub_14
-0.0037372000000002,0.0048566000000012,0.0803537999999999,0.0242710000000004,0.0325642000000006,0.0393521999999999,0,sub_14
-0.0111618000000002,0.0085366000000012,0.0668849999999999,-0.0144355999999995,-0.0062045999999993,0.0675593999999999,0,sub_14
-0.0082960000000002,0.0127310000000012,0.0613409999999999,-0.0616943999999995,-0.0551445999999993,0.0893105999999999,0,sub_14
-0.0030872000000002,0.0170034000000012,0.0624841999999999,-0.0968967999999995,-0.0915111999999993,0.0998065999999999,0,sub_14
0.0019555999999997,0.0206956000000012,0.0652705999999999,-0.1067687999999995,-0.1061857999999993,0.0982741999999999,0,sub_14
0.0090475999999997,0.0187694000000012,0.0773841999999999,-0.0919539999999995,-0.0955453999999993,0.0885363999999999,0,sub_14
0.0143827999999997,0.0158054000000012,0.0942877999999999,-0.0578167999999995,-0.0585535999999993,0.0788997999999999,0,sub_14
0.0051413999999997,0.0156116000000012,0.1028409999999999,-0.0297191999999995,-0.0298747999999993,0.0754273999999999,0,sub_14
-0.0083602000000002,0.0180828000000012,0.1050147999999999,-0.0288973999999995,-0.0324521999999993,0.0799229999999999,0,sub_14
-0.0258914000000002,0.0234900000000012,0.1062901999999999,-0.0649711999999995,-0.0696639999999993,0.0929645999999998,0,sub_14
-0.0408904000000002,0.0342762000000012,0.1069053999999999,-0.1224291999999995,-0.1189383999999993,0.1041631999999999,0,sub_14
-0.0499732000000002,0.0406060000000012,0.1094955999999999,-0.1648955999999995,-0.1635471999999993,0.1077693999999998,0,sub_14
-0.0510778000000002,0.0378900000000012,0.1102239999999999,-0.1861143999999995,-0.1852021999999993,0.1070079999999998,0,sub_14
-0.0456304000000002,0.0304300000000012,0.1112477999999999,-0.1865517999999995,-0.1860589999999993,0.1085015999999998,0,sub_14
-0.0333160000000002,0.0233354000000012,0.1143487999999999,-0.1638259999999995,-0.1584555999999993,0.1122569999999999,0,sub_14
-0.0195036000000002,0.0170642000000012,0.1172021999999999,-0.1246129999999995,-0.1106995999999993,0.1235791999999999,0,sub_14
-0.0094656000000002,0.0166290000000012,0.1155285999999999,-0.0922171999999995,-0.0523001999999993,0.1431721999999999,0,sub_14
-0.0103214000000002,0.0229852000000012,0.1069267999999999,-0.0692597999999995,-0.0007025999999993,0.1669807999999998,0,sub_14
-0.0175064000000002,0.0315124000000012,0.1005609999999999,-0.0441235999999995,0.0581424000000006,0.1880181999999998,0,sub_14
-0.0264280000000002,0.0382112000000012,0.0946987999999999,-0.0120559999999995,0.1329704000000006,0.2020331999999998,0,sub_14
-0.0350322000000002,0.0428038000000012,0.0881653999999999,0.0218346000000004,0.2204156000000006,0.2027987999999999,0,sub_14
-0.0398544000000002,0.0415176000000012,0.0798437999999999,0.0542670000000004,0.3030168000000007,0.1907417999999999,0,sub_14
-0.0382848000000002,0.0359082000000012,0.0788197999999999,0.0836644000000004,0.3669122000000006,0.1705691999999999,0,sub_14
-0.0332702000000002,0.0277292000000012,0.0769855999999999,0.0934714000000004,0.3935860000000006,0.1515891999999999,0,sub_14
-0.0236880000000002,0.0131268000000012,0.0830365999999999,0.0810766000000004,0.3834266000000007,0.1455335999999999,0,sub_14
-0.0136552000000002,-0.0002563999999987,0.0903357999999999,0.0555166000000004,0.3579012000000006,0.1573517999999999,0,sub_14
-0.0074466000000002,-0.0058703999999987,0.1005377999999999,0.0243840000000004,0.3393758000000006,0.1817271999999999,0,sub_14
-0.0084208000000002,0.0014386000000012,0.1001077999999999,-0.0152509999999995,0.3310948000000006,0.2090209999999999,0,sub_14
-0.0119616000000002,0.0122662000000012,0.0982803999999999,-0.0515683999999995,0.3407314000000007,0.2281965999999999,0,sub_14
-0.0212896000000002,0.0279608000000012,0.0863757999999999,-0.0708931999999995,0.3644354000000006,0.2312357999999998,0,sub_14
-0.0291046000000002,0.0299676000000012,0.0876681999999999,-0.0677323999999995,0.3930142000000006,0.2211799999999998,0,sub_14
-0.0358722000000002,0.0267022000000012,0.0908461999999999,-0.0500853999999995,0.4136702000000006,0.2084581999999998,0,sub_14
-0.0364168000000002,0.0143696000000012,0.1051721999999999,-0.0260611999999995,0.4338582000000007,0.2006953999999998,0,sub_14
-0.0346612000000002,0.0081506000000012,0.1190857999999999,-0.0018445999999995,0.4574220000000006,0.2010479999999999,0,sub_14
-0.0331726000000002,0.0051426000000012,0.1312131999999999,0.0082528000000004,0.4773952000000007,0.2057931999999999,0,sub_14
-0.0361100000000002,0.0150804000000012,0.1270395999999999,0.0010076000000004,0.4840072000000006,0.2102207999999999,0,sub_14
-0.0425360000000002,0.0262332000000012,0.1234211999999999,-0.0138669999999995,0.4953606000000006,0.2077521999999999,0,sub_14
-0.0477244000000002,0.0364468000000012,0.1181241999999999,-0.0218397999999995,0.5131218000000006,0.1952821999999999,0,sub_14
-0.0501780000000002,0.0340726000000012,0.1145121999999999,-0.0218805999999995,0.5289788000000006,0.1726151999999999,0,sub_14
-0.0488256000000002,0.0246734000000012,0.1112431999999999,-0.0116727999999995,0.5443816000000007,0.1480975999999999,0,sub_14
-0.0448754000000002,0.0113376000000012,0.1083197999999999,0.0037868000000004,0.5490824000000006,0.1313215999999999,0,sub_14
-0.0391092000000002,0.0040560000000012,0.1067579999999999,0.0191438000000004,0.5314110000000005,0.1150007999999999,0,sub_14
-0.0369134000000002,-0.0013603999999987,0.1087063999999999,0.0276134000000004,0.5028882000000007,0.1009959999999999,0,sub_14
-0.0394184000000002,-0.0007179999999987,0.1103181999999999,0.0337282000000004,0.4741546000000006,0.0884705999999999,0,sub_14
-0.0420154000000002,0.0071822000000012,0.1200541999999999,0.0371174000000004,0.4518394000000006,0.0716449999999999,0,sub_14
-0.0409130000000002,0.0178432000000012,0.1381651999999999,0.0363608000000004,0.4542628000000006,0.0524085999999999,0,sub_14
-0.0378768000000002,0.0223564000000012,0.1531481999999999,0.0273276000000004,0.4716092000000007,0.0380091999999999,0,sub_14
-0.0325714000000002,0.0211196000000012,0.1633931999999999,0.0149228000000004,0.5013128000000007,0.0265613999999999,0,sub_14
-0.0269398000000002,0.0163468000000012,0.1696739999999999,-9.999999999953658e-05,0.5224862000000007,0.0193789999999998,0,sub_14
-0.0239418000000002,0.0093490000000012,0.1678533999999999,-0.0134955999999995,0.5314874000000007,0.0177783999999998,0,sub_14
-0.0314912000000002,0.0028202000000012,0.1606295999999999,-0.0190241999999995,0.5270504000000006,0.0096403999999998,0,sub_14
-0.0383170000000001,-0.0009583999999987,0.1520477999999999,-0.0111399999999995,0.5174472000000007,0.0030981999999998,0,sub_14
-0.0449684000000001,0.0018390000000012,0.1446619999999999,-0.0016859999999995,0.4814032000000006,0.0006599999999998,0,sub_14
-0.0496406000000001,0.0099924000000012,0.1446809999999999,0.0103342000000004,0.4451432000000007,-0.0032554000000001,0,sub_14
-0.0550464000000001,0.0168546000000012,0.1445929999999999,0.0197740000000004,0.4020838000000006,-0.0095304000000001,0,sub_14
-0.0541784000000001,0.0206402000000012,0.1430343999999999,0.0244716000000004,0.3501030000000006,-0.0147722000000001,0,sub_14
-0.0535866000000001,0.0193808000000012,0.1404881999999999,0.0242272000000004,0.2874988000000006,-0.0230258,0,sub_14
-0.0500192000000001,0.0128882000000012,0.1388453999999999,0.0291756000000004,0.2385214000000006,-0.0336106,0,sub_14
-0.0450724000000002,0.0055446000000012,0.1331623999999999,0.0362644000000004,0.1920890000000006,-0.0431156,0,sub_14
-0.0362980000000002,0.0010092000000012,0.1304299999999999,0.0474600000000004,0.1601188000000006,-0.049833,0,sub_14
-0.0268450000000002,-0.0010077999999987,0.1315027999999999,0.0606268000000004,0.1441022000000006,-0.051857,0,sub_14
-0.0176308000000002,0.0009122000000012,0.1357825999999999,0.0730052000000004,0.1451224000000006,-0.0513446,0,sub_14
-0.0107406000000002,0.0058480000000012,0.1403727999999999,0.0794716000000004,0.1587388000000006,-0.0521716,0,sub_14
-0.0048582000000002,0.0061758000000012,0.1428486,0.0817060000000004,0.1817384000000007,-0.0515446,0,sub_14
-0.0023106000000002,0.0061472000000012,0.1397968,0.0776978000000004,0.1955866000000006,-0.0479584,0,sub_14
-0.0005836000000002,0.0073914000000012,0.1312007999999999,0.0667640000000004,0.1892126000000006,-0.042899,0,sub_14
0.0011915999999997,0.0064472000000012,0.1218321999999999,0.0480770000000004,0.1700696000000006,-0.034673,0,sub_14
0.0027123999999997,0.0047356000000012,0.1131549999999999,0.0257068000000004,0.1424018000000006,-0.022616,0,sub_14
0.0040337999999997,0.0063154000000012,0.1078033999999999,0.0014184000000004,0.1170766000000006,-0.0086526,0,sub_14
0.0081809999999997,0.0015868000000012,0.1082661999999999,-0.0199905999999995,0.1141164000000006,0.0042339999999999,0,sub_14
0.0128383999999997,-0.0028961999999987,0.1088445999999999,-0.0354803999999995,0.1426824000000006,0.0134893999999999,0,sub_14
0.0171067999999997,-0.0082147999999987,0.1083225999999999,-0.0401895999999995,0.1872258000000006,0.0138267999999999,0,sub_14
0.0134689999999997,-0.0143987999999987,0.1051781999999999,-0.0337973999999995,0.2245208000000006,0.0057051999999999,0,sub_14
0.0088931999999998,-0.0204583999999987,0.1008413999999999,-0.0232673999999995,0.2304924000000006,-0.0049112,0,sub_14
0.0003749999999997,-0.0150615999999987,0.0967089999999999,-0.0147709999999995,0.2123914000000006,-0.0144426,0,sub_14
-0.0078868000000001,-0.0127411999999987,0.0945671999999999,-0.0110337999999995,0.1842754000000006,-0.0195078,0,sub_14
-0.0158010000000001,-0.0093865999999987,0.0917699999999999,-0.0124615999999995,0.1561382000000006,-0.0147816,0,sub_14
-0.0154534000000001,-0.0044393999999987,0.0896409999999999,-0.0200561999999995,0.1401368000000006,-0.0026364,0,sub_14
