userAcceleration.x,userAcceleration.y,userAcceleration.z,rotationRate.x,rotationRate.y,rotationRate.z,label,subject
0.0081675999999997,0.0044722000000012,-0.0211068,0.0167850000000005,-0.3038665999999992,-0.0280593999999999,0,sub_21
-0.0039914000000002,0.0010424000000012,-0.0238966,0.0074720000000005,-0.3350047999999992,-0.0270255999999999,0,sub_21
-0.0111310000000002,0.0060032000000012,-0.020682,0.0120588000000005,-0.3516683999999992,-0.0197081999999999,0,sub_21
-0.0125354000000002,0.0093934000000012,-0.0114714,0.0199028000000005,-0.3564095999999992,-0.0130243999999999,0,sub_21
-0.0198964000000002,0.0051742000000012,-0.000801,0.0162390000000006,-0.3441019999999992,-0.0120675999999999,0,sub_21
-0.0302754000000002,-0.0070941999999987,0.0076923999999999,0.0098158000000006,-0.3304987999999992,-0.0130545999999999,0,sub_21
-0.0316734000000002,-0.0055793999999987,0.0143533999999999,0.0125648000000006,-0.3158691999999993,-0.0122695999999999,0,sub_21
-0.0326300000000002,0.0012322000000012,0.0164857999999999,0.0087492000000006,-0.2939571999999992,-0.0153853999999999,0,sub_21
-0.0447778000000002,0.0001746000000012,0.0193703999999999,0.0011158000000006,-0.2703137999999992,-0.0219483999999999,0,sub_21
-0.0447216000000002,0.0008824000000012,0.0200735999999999,0.0078244000000006,-0.2513675999999992,-0.0238485999999999,0,sub_21
-0.0430422000000002,0.0002900000000012,0.0194499999999999,0.0043582000000006,-0.2215035999999992,-0.0298929999999999,0,sub_21
-0.0439750000000002,-0.0001989999999987,0.0209903999999999,-0.0025335999999993,-0.1931231999999992,-0.0348913999999999,0,sub_21
-0.0476012000000002,-0.0065893999999987,0.0221871999999999,-0.0049799999999993,-0.1700951999999992,-0.0372881999999999,0,sub_21
-0.0437180000000002,-0.0066013999999987,0.0204125999999999,-0.0010797999999993,-0.1554139999999992,-0.0357841999999999,0,sub_21
-0.0430476000000002,-0.0055003999999987,0.0183835999999999,-0.0044285999999993,-0.1430363999999992,-0.0379599999999999,0,sub_21
-0.0467432000000002,-0.0003379999999987,0.0176817999999999,0.0020368000000006,-0.1275109999999992,-0.0366528,0,sub_21
-0.0487032000000002,0.0003534000000012,0.0142687999999999,0.0119230000000006,-0.1096573999999992,-0.0344699999999999,0,sub_21
-0.0503470000000002,-0.0009719999999987,0.0099073999999999,0.0177540000000006,-0.0941245999999992,-0.0344492,0,sub_21
-0.0465012000000002,-0.0004037999999987,0.0077459999999999,0.0204092000000006,-0.0743145999999992,-0.0357379999999999,0,sub_21
-0.0456464000000002,6.280000000123848e-05,0.0057121999999999,0.0177514000000006,-0.0478889999999992,-0.0351494,0,sub_21
-0.0435092000000002,-0.0007113999999987,0.0051323999999999,0.0141892000000006,-0.0312667999999992,-0.0330592,0,sub_21
-0.0403706000000002,-0.0001485999999987,0.0051747999999999,0.0086894000000006,-0.0193215999999992,-0.0318311999999999,0,sub_21
-0.0349244000000002,0.0008168000000012,0.0048001999999999,0.0023370000000006,-0.0073725999999992,-0.0308225999999999,0,sub_21
-0.0332848000000002,0.0013138000000012,0.0045681999999999,-0.0029415999999993,0.0067008000000007,-0.0291683999999999,0,sub_21
-0.0306928000000002,0.0026388000000012,0.0044873999999999,-0.0018585999999993,0.0118044000000007,-0.0276719999999999,0,sub_21
-0.0297878000000002,0.0033444000000012,0.0031365999999999,-0.0003525999999993,0.0162664000000007,-0.0259579999999999,0,sub_21
-0.0290868000000002,0.0033516000000012,0.0020891999999999,9.520000000062864e-05,0.0228618000000007,-0.0240403999999999,0,sub_21
-0.0319756000000002,0.0025464000000012,0.0026313999999999,-0.0004959999999993,0.0352152000000007,-0.0225647999999999,0,sub_21
-0.0319010000000002,0.0017556000000012,0.0045763999999998,-0.0010939999999993,0.0456528000000007,-0.0215139999999999,0,sub_21
-0.0326534000000002,0.0005832000000012,0.0060799999999999,-0.0039833999999993,0.0618874000000007,-0.0202941999999999,0,sub_21
-0.0313424000000002,-0.0002539999999987,0.0069377999999999,-0.0057963999999993,0.0796122000000007,-0.0197099999999999,0,sub_21
-0.0326188000000002,0.0010472000000012,0.0050839999999999,-0.0033275999999993,0.0994568000000007,-0.0201667999999999,0,sub_21
-0.0319384000000002,0.0018394000000012,0.0038001999999999,-0.0006683999999993,0.1141874000000007,-0.0206155999999999,0,sub_21
-0.0307186000000002,0.0013940000000012,0.0003951999999999,-0.0012347999999993,0.1236020000000007,-0.0208665999999999,0,sub_21
-0.0277810000000002,0.0012186000000012,6.259999999995956e-05,-0.0054677999999993,0.1325600000000007,-0.0196257999999999,0,sub_21
-0.0281494000000002,0.0031526000000012,-0.0012062,-0.0088759999999993,0.1349112000000007,-0.0185843999999999,0,sub_21
-0.0275998000000002,0.0034234000000012,-0.0035386,-0.0101859999999993,0.1291600000000007,-0.0177315999999999,0,sub_21
-0.0258066000000002,0.0033098000000012,-0.0058104,-0.0080705999999993,0.1259532000000007,-0.0168581999999999,0,sub_21
-0.0255962000000002,0.0039532000000012,-0.0063888,-0.0023047999999993,0.1284836000000007,-0.0153255999999999,0,sub_21
-0.0249338000000002,0.0029024000000012,-0.007452,2.8800000000628324e-05,0.1237950000000007,-0.0170125999999999,0,sub_21
-0.0207248000000002,0.0007778000000012,-0.0091848,-0.0089491999999993,0.1176582000000007,-0.0196311999999999,0,sub_21
-0.0166232000000002,-0.0003773999999987,-0.0107536,-0.0253959999999993,0.1130318000000007,-0.0205947999999999,0,sub_21
-0.0139368000000002,-0.0001941999999987,-0.0121834,-0.0423041999999993,0.1028592000000007,-0.0194179999999999,0,sub_21
-0.0126082000000002,0.0006436000000012,-0.0133678,-0.0579751999999993,0.0828824000000007,-0.0184335999999999,0,sub_21
-0.0130694000000002,0.0020558000000012,-0.017096,-0.0648893999999993,0.0675512000000007,-0.0146165999999999,0,sub_21
-0.0162226000000002,0.0033062000000012,-0.0195636,-0.0634561999999993,0.0579432000000007,-0.0107485999999999,0,sub_21
-0.0168784000000002,0.0035838000000012,-0.0189602,-0.0607197999999993,0.0498366000000007,-0.0105053999999999,0,sub_21
-0.0163920000000002,0.0019982000000012,-0.0167228,-0.0639385999999993,0.0449510000000007,-0.0113761999999999,0,sub_21
-0.0158528000000002,0.0026082000000012,-0.0151048,-0.0720437999999993,0.0473162000000007,-0.0097267999999999,0,sub_21
-0.0173682000000002,0.0059470000000012,-0.0152838,-0.0769895999999993,0.0411454000000007,-0.0074033999999999,0,sub_21
-0.0196544000000002,0.0091476000000012,-0.0160928,-0.0719135999999993,0.0345092000000007,-0.0039411999999999,0,sub_21
-0.0214228000000002,0.0100548000000012,-0.016869,-0.0565939999999993,0.0286878000000007,1.8799999999965546e-05,0,sub_21
-0.0218084000000002,0.0111404000000012,-0.0181776,-0.0325009999999993,0.0258286000000007,0.0014725999999999,0,sub_21
-0.0218418000000002,0.0088908000000012,-0.0151654,-0.0090195999999993,0.0278780000000007,0.0014203999999999,0,sub_21
-0.0209796000000002,0.0042374000000012,-0.0104332,0.0033694000000006,0.0301808000000007,0.0008631999999999,0,sub_21
-0.0194074000000002,0.0021490000000012,-0.0076042,0.0033550000000006,0.0271972000000006,0.0010805999999999,0,sub_21
-0.0199294000000002,0.0017560000000012,-0.0051206,-0.0032719999999993,0.0261482000000006,0.0027447999999999,0,sub_21
-0.0201524000000002,0.0022558000000012,-0.0041744,-0.0148237999999993,0.0219180000000006,0.0050195999999999,0,sub_21
-0.0200172000000002,0.0045912000000012,-0.0076106,-0.0197783999999993,0.0123444000000006,0.0058517999999999,0,sub_21
-0.0208184000000002,0.0061858000000012,-0.0115836,-0.0161711999999993,0.0093432000000006,0.0073761999999999,0,sub_21
-0.0189492000000002,0.0049892000000012,-0.0132544,-0.0091319999999993,0.0088924000000006,0.007426,0,sub_21
-0.0172226000000002,0.0047566000000012,-0.0123566,-0.0029585999999993,0.0058872000000007,0.0076868,0,sub_21
-0.0185934000000002,0.0033508000000012,-0.0066962,-0.0004249999999993,0.0013982000000007,0.0092058,0,sub_21
-0.0223026000000002,0.0018210000000012,-0.003119,-0.0036675999999993,-0.0056307999999992,0.0115422,0,sub_21
-0.0256822000000002,0.0023728000000012,-0.001213,-0.0071073999999993,-0.0111591999999992,0.011739,0,sub_21
-0.0290374000000002,0.0034256000000012,0.0012229999999999,-0.0060441999999993,-0.0130759999999992,0.0106806,0,sub_21
-0.0300660000000002,0.0026430000000012,0.0031975999999999,-0.0047409999999993,-0.0100891999999992,0.0085494,0,sub_21
-0.0294232000000002,0.0029514000000012,0.0017367999999999,-0.0049275999999993,-0.0051839999999992,0.0074736,0,sub_21
-0.0288828000000002,0.0028664000000012,0.0010931999999999,-0.0044443999999993,0.0078090000000007,0.0078876,0,sub_21
-0.0278466000000002,0.0023978000000012,0.0017869999999999,-0.0037639999999993,0.0163306000000007,0.0074542,0,sub_21
-0.0247472000000002,0.0018136000000012,0.0016249999999999,-0.0046021999999993,0.0188936000000007,0.0065906,0,sub_21
-0.0225854000000002,0.0017340000000012,0.0010595999999999,-0.0075863999999993,0.0206042000000007,0.0076358,0,sub_21
-0.0231020000000002,0.0016758000000012,-0.0001104,-0.0067213999999993,0.0244312000000007,0.0089188,0,sub_21
-0.0230630000000002,0.0019866000000012,-0.0022818,-0.0017619999999993,0.0207838000000007,0.0081204,0,sub_21
-0.0209622000000002,0.0021828000000012,-0.0034102,0.0017296000000006,0.0224696000000007,0.0068776,0,sub_21
-0.0216534000000002,0.0021056000000012,-0.0028126,0.0018236000000006,0.0288502000000007,0.0066732,0,sub_21
-0.0227194000000002,0.0029966000000012,-0.0033232,0.0023318000000005,0.0318230000000007,0.0058352,0,sub_21
-0.0219730000000002,0.0034672000000012,-0.004455,0.0032534000000005,0.0315994000000007,0.0047906,0,sub_21
-0.0218104000000002,0.0034152000000012,-0.0039854,0.0026506000000005,0.0394862000000007,0.004349,0,sub_21
-0.0223240000000002,0.0026728000000012,-0.0037434,0.0013770000000006,0.0403454000000007,0.003698,0,sub_21
-0.0213840000000002,0.0033528000000012,-0.0053452,0.0009482000000005,0.0390720000000007,0.002842,0,sub_21
-0.0193356000000002,0.0039636000000012,-0.0072534,0.0004650000000006,0.0392340000000007,0.0023255999999999,0,sub_21
-0.0186322000000002,0.0051984000000012,-0.009006,0.0021106000000006,0.0383232000000007,0.0018253999999999,0,sub_21
-0.0172666000000002,0.0056496000000012,-0.0100188,0.0041342000000006,0.0271818000000007,0.0019819999999999,0,sub_21
-0.0167118000000002,0.0061650000000012,-0.0122878,0.0051158000000006,0.0224324000000007,0.0029777999999999,0,sub_21
-0.0176664000000002,0.0057574000000012,-0.0113782,0.0052872000000006,0.0274854000000007,0.0041689999999999,0,sub_21
-0.0192188000000002,0.0049720000000012,-0.0107524,0.0112634000000005,0.0276784000000007,0.0039968,0,sub_21
-0.0176198000000002,0.0040188000000012,-0.0114938,0.0118950000000005,0.0236366000000007,0.00187,0,sub_21
-0.0149584000000002,0.0035148000000012,-0.0112556,0.0116672000000005,0.0181074000000007,-0.0004745999999999,0,sub_21
-0.0149748000000002,0.0027928000000012,-0.0105062,0.0129532000000005,0.0185324000000007,-0.0013207999999999,0,sub_21
-0.0150846000000002,0.0025666000000012,-0.0119232,0.0165612000000006,0.0134100000000007,-0.0021435999999999,0,sub_21
-0.0157230000000002,0.0025364000000012,-0.0119046,0.0139854000000006,0.0095856000000007,-0.0025839999999999,0,sub_21
-0.0176036000000002,0.0022802000000012,-0.0072126,0.0102272000000006,0.0114634000000007,-0.0008619999999999,0,sub_21
-0.0229756000000002,0.0018838000000012,-0.0053082,0.0022476000000006,0.0244314000000007,0.001671,0,sub_21
-0.0249528000000002,0.0028400000000012,-0.0061234,-0.0044747999999993,0.0301596000000007,0.0020856,0,sub_21
-0.0254486000000002,0.0033186000000012,-0.0068268,-0.0094795999999993,0.0373766000000007,0.0016556,0,sub_21
-0.0251258000000002,0.0026736000000012,-0.0079726,-0.0117123999999993,0.0437336000000007,0.000819,0,sub_21
-0.0249834000000002,0.0020050000000012,-0.0091568,-0.0119133999999993,0.0467162000000006,0.0010276,0,sub_21
-0.0244702000000002,0.0023762000000012,-0.0093126,-0.0101919999999993,0.0501182000000006,0.0012489999999999,0,sub_21
-0.0243834000000002,0.0032802000000012,-0.0080978,-0.0123227999999993,0.0501282000000006,0.0005931999999999,0,sub_21
-0.0238444000000002,0.0021790000000012,-0.0082224,-0.0168151999999993,0.0465262000000007,-0.0005018,0,sub_21
-0.0199328000000002,0.0029316000000012,-0.007534,-0.0224797999999993,0.0428664000000006,-0.0022224,0,sub_21
-0.0144420000000002,0.0030308000000012,-0.0065226,-0.0306911999999993,0.0430472000000006,-0.0031112,0,sub_21
-0.0113516000000002,0.0032818000000012,-0.0040108,-0.0406279999999993,0.0383372000000006,-0.0048603999999999,0,sub_21
-0.0104106000000002,0.0046762000000012,-0.003683,-0.0493151999999993,0.0291392000000006,-0.0042449999999999,0,sub_21
-0.0098184000000002,0.0064398000000012,0.0017009999999999,-0.0586433999999993,0.0203670000000006,-0.0029935999999999,0,sub_21
-0.0146456000000002,0.0047938000000012,0.0108699999999999,-0.0669639999999993,0.0214580000000007,-0.0021985999999999,0,sub_21
-0.0238074000000002,0.0041880000000012,0.0134315999999999,-0.0654483999999993,0.0223212000000007,-0.0062483999999999,0,sub_21
-0.0275058000000002,0.0051940000000012,0.0101439999999999,-0.0508085999999993,0.0283756000000007,-0.0129911999999999,0,sub_21
-0.0289208000000002,0.0039088000000012,0.0067025999999999,-0.0248111999999993,0.0424976000000007,-0.0224423999999999,0,sub_21
-0.0278674000000002,0.0033994000000012,-0.0007004,0.0054316000000006,0.0561608000000007,-0.0273767999999999,0,sub_21
-0.0246424000000002,0.0052704000000012,-0.0107856,0.0346056000000006,0.0730090000000007,-0.0286907999999999,0,sub_21
-0.0220290000000002,0.0070074000000012,-0.0166056,0.0599072000000006,0.0866594000000007,-0.0261821999999999,0,sub_21
-0.0199910000000002,0.0061794000000012,-0.0175222,0.0746154000000006,0.0861708000000007,-0.0233013999999999,0,sub_21
-0.0176982000000002,0.0053314000000012,-0.0209916,0.0767030000000006,0.0818786000000007,-0.0172993999999999,0,sub_21
-0.0172042000000002,0.0056296000000012,-0.0229636,0.0724106000000006,0.0793248000000007,-0.0143351999999999,0,sub_21
-0.0176894000000002,0.0059884000000012,-0.0267738,0.0648880000000006,0.0708142000000007,-0.0107449999999999,0,sub_21
-0.0156144000000002,0.0054288000000012,-0.0296716,0.0546226000000006,0.0608966000000007,-0.0071807999999999,0,sub_21
-0.0149276000000002,0.0049048000000012,-0.0326852,0.0411740000000006,0.0565228000000007,-0.0019367999999999,0,sub_21
-0.0136652000000002,0.0045360000000012,-0.0297914,0.0272948000000006,0.0496004000000007,0.0015983999999999,0,sub_21
-0.0138786000000002,0.0044150000000012,-0.0289226,0.0136126000000006,0.0384190000000007,0.0044995999999999,0,sub_21
-0.0127618000000002,0.0042006000000012,-0.0284216,0.0046034000000006,0.0208364000000007,0.0057323999999999,0,sub_21
-0.0117180000000002,0.0053202000000012,-0.02954,-0.0008037999999993,0.0055118000000007,0.0065687999999999,0,sub_21
-0.0100390000000002,0.0059628000000012,-0.0301558,0.0001872000000006,-0.0102621999999992,0.0076641999999999,0,sub_21
-0.0090370000000002,0.0050548000000012,-0.0289124,0.0024702000000006,-0.0238339999999992,0.0093997999999999,0,sub_21
-0.0080318000000002,0.0037752000000012,-0.026635,0.0030376000000006,-0.0393173999999992,0.0111257999999999,0,sub_21
-0.0092426000000002,0.0030642000000012,-0.0240896,0.0006418000000006,-0.0501005999999992,0.0121841999999999,0,sub_21
-0.0113672000000002,0.0033790000000012,-0.0219742,-0.0013253999999993,-0.0610957999999992,0.0126049999999999,0,sub_21
-0.0117940000000002,0.0037738000000012,-0.0199568,-0.0069197999999993,-0.0710171999999992,0.0140671999999999,0,sub_21
-0.0125644000000002,0.0044906000000012,-0.0164348,-0.0142157999999993,-0.0771821999999992,0.0170151999999999,0,sub_21
-0.0154280000000002,0.0046590000000012,-0.0119424,-0.0195759999999993,-0.0801573999999992,0.0197589999999999,0,sub_21
-0.0177000000000002,0.0055894000000012,-0.0085076,-0.0247295999999993,-0.0861099999999992,0.0210126,0,sub_21
-0.0195690000000002,0.0048358000000012,-0.0066098,-0.0345223999999993,-0.0871141999999992,0.0220096,0,sub_21
-0.0203642000000002,0.0032398000000012,-0.0009608,-0.0464221999999993,-0.0829943999999992,0.0221308,0,sub_21
-0.0215230000000002,0.0014126000000012,0.0012913999999999,-0.0542765999999993,-0.0829281999999992,0.020149,0,sub_21
-0.0228176000000002,0.0028832000000012,-0.001541,-0.0578663999999993,-0.0839401999999992,0.017771,0,sub_21
-0.0238470000000002,0.0038236000000012,-0.0042796,-0.0543917999999993,-0.0800759999999992,0.0152224,0,sub_21
-0.0251646000000002,0.0044422000000012,-0.0059564,-0.0445325999999993,-0.0734927999999992,0.0120782,0,sub_21
-0.0270640000000002,0.0055726000000012,-0.0108096,-0.0291055999999993,-0.0622425999999992,0.0091804,0,sub_21
-0.0274204000000002,0.0049890000000012,-0.0086166,-0.0179199999999993,-0.0433153999999992,0.008166,0,sub_21
-0.0279542000000002,0.0042828000000012,-0.0030914,-0.0090979999999993,-0.0286385999999992,0.0064998,0,sub_21
-0.0293488000000002,0.0024636000000012,-0.0020944,-0.0038301999999993,-0.0201115999999992,0.0054756,0,sub_21
-0.0297644000000002,0.0008308000000012,-0.000483,0.0012242000000006,-0.0113715999999992,0.0046632,0,sub_21
-0.0299480000000002,-0.0003555999999987,0.0021603999999999,0.0054262000000006,-0.0028399999999992,0.003418,0,sub_21
-0.0297494000000002,0.0021102000000012,-2.460000000005947e-05,0.0113084000000006,-0.0015529999999992,0.0009118,0,sub_21
-0.0294906000000002,0.0022830000000012,-0.0029986,0.0163486000000006,0.0039912000000007,0.0001034,0,sub_21
-0.0285558000000002,0.0023632000000012,-0.0034124,0.0180882000000006,0.0112292000000007,0.0001062,0,sub_21
-0.0281614000000002,0.0028536000000012,-0.0039872,0.0170568000000006,0.0189038000000007,-0.0001243999999999,0,sub_21
-0.0277188000000002,0.0039994000000012,-0.0070334,0.0168270000000006,0.0220370000000007,-0.0007213999999999,0,sub_21
-0.0272184000000002,0.0046840000000012,-0.0107148,0.0178764000000006,0.0253770000000007,-0.0008821999999999,0,sub_21
-0.0243826000000002,0.0036758000000012,-0.013193,0.0178438000000006,0.0253120000000007,-0.0010463999999999,0,sub_21
-0.0215694000000002,0.0036182000000012,-0.0128578,0.0152536000000006,0.0275924000000007,0.0004778,0,sub_21
-0.0206798000000002,0.0035258000000012,-0.0133066,0.0132804000000005,0.0253940000000007,0.0026529999999999,0,sub_21
-0.0205238000000002,0.0032008000000012,-0.0126778,0.0113322000000005,0.0204952000000007,0.0039275999999999,0,sub_21
-0.0194464000000002,0.0028850000000012,-0.013164,0.0096070000000006,0.0166654000000007,0.0041339999999999,0,sub_21
-0.0178342000000002,0.0040532000000012,-0.0135522,0.0085200000000006,0.0130438000000007,0.0049855999999999,0,sub_21
-0.0184414000000002,0.0037834000000012,-0.0120164,0.0084578000000006,0.0100754000000007,0.0054389999999999,0,sub_21
-0.0179698000000002,0.0034782000000012,-0.0115352,0.0077346000000006,0.0015730000000007,0.0050402,0,sub_21
-0.0179698000000002,0.0024652000000012,-0.0130614,0.0070152000000006,-0.0065013999999992,0.0042136,0,sub_21
-0.0179114000000002,0.0038448000000012,-0.0132382,0.0064986000000006,-0.0167079999999992,0.0036048,0,sub_21
-0.0185958000000002,0.0026914000000012,-0.009207,0.0079272000000006,-0.0215941999999992,0.0027892,0,sub_21
-0.0181972000000002,0.0038182000000012,-0.0116732,0.0144978000000006,-0.0341763999999992,7.380000000000555e-05,0,sub_21
-0.0178842000000002,0.0036824000000012,-0.0116896,0.0196092000000006,-0.0380223999999992,-0.0015947999999999,0,sub_21
-0.0170024000000002,0.0046706000000012,-0.0103986,0.0202484000000006,-0.0386619999999992,-0.0020167999999999,0,sub_21
-0.0184006000000002,0.0031370000000012,-0.0108034,0.0209296000000006,-0.0333065999999992,-0.0024683999999999,0,sub_21
-0.0194488000000002,0.0034780000000012,-0.0151086,0.0177404000000006,-0.0356033999999992,-0.0040053999999999,0,sub_21
-0.0187812000000002,0.0024900000000012,-0.0140718,0.0111448000000006,-0.0340617999999992,-0.0034346,0,sub_21
-0.0175580000000002,0.0029674000000012,-0.0133568,0.0049770000000006,-0.0320963999999992,-0.0026478,0,sub_21
-0.0189910000000002,0.0046240000000012,-0.0137106,0.0028488000000006,-0.0344021999999992,-0.0028956,0,sub_21
-0.0192638000000002,0.0042484000000012,-0.0110648,0.0004988000000006,-0.0348209999999992,-0.0026978,0,sub_21
-0.0194528000000002,0.0041926000000012,-0.0087262,0.0011714000000006,-0.0277915999999992,-0.0029158,0,sub_21
-0.0207138000000002,0.0039748000000012,-0.0082408,0.0001486000000006,-0.0188363999999992,-0.0037889999999999,0,sub_21
-0.0213734000000002,0.0039422000000012,-0.0075928,-0.0012651999999993,-0.0178311999999992,-0.0051223999999999,0,sub_21
-0.0207258000000002,0.0030890000000012,-0.0066204,-0.0033095999999993,-0.0134199999999992,-0.0051825999999999,0,sub_21
-0.0215384000000002,0.0043796000000012,-0.008518,-0.0032221999999993,-0.0098667999999992,-0.0056541999999999,0,sub_21
-0.0235650000000002,0.0051204000000012,-0.0110196,-0.0031441999999993,-0.0084441999999992,-0.0061231999999999,0,sub_21
-0.0232734000000002,0.0044990000000012,-0.0098332,-0.0024183999999993,-0.0055313999999992,-0.0068031999999999,0,sub_21
-0.0244946000000002,0.0049458000000012,-0.0090754,-0.0002531999999993,0.0019162000000007,-0.0063701999999999,0,sub_21
-0.0277184000000002,0.0044424000000012,-0.0094002,0.0021228000000006,0.0087240000000007,-0.0059349999999999,0,sub_21
-0.0302112000000002,0.0024904000000012,-0.0074056,0.0013202000000006,0.0195944000000006,-0.0063817999999999,0,sub_21
-0.0312038000000002,0.0007636000000012,-0.0050724,-8.719999999936721e-05,0.0335318000000006,-0.0068665999999999,0,sub_21
-0.0319088000000002,0.0019396000000012,-0.0070836,0.0001912000000006,0.0434126000000006,-0.0066935999999999,0,sub_21
-0.0313562000000002,0.0016496000000012,-0.0083778,2.960000000063281e-05,0.0507366000000006,-0.0060931999999999,0,sub_21
-0.0285400000000002,0.0019740000000012,-0.0087568,0.0007090000000006,0.0574100000000007,-0.0033496,0,sub_21
-0.0269390000000002,0.0021194000000012,-0.0102172,0.0024398000000006,0.0613074000000007,4.5999999999985634e-05,0,sub_21
-0.0257444000000002,0.0025074000000012,-0.0110812,0.0045716000000006,0.0634202000000007,0.0026217999999999,0,sub_21
-0.0248792000000002,0.0017214000000012,-0.0107372,0.0054252000000006,0.0649026000000007,0.0041213999999999,0,sub_21
-0.0233980000000002,0.0022988000000012,-0.011221,0.0050024000000006,0.0666052000000007,0.0049707999999999,0,sub_21
-0.0219526000000002,0.0027372000000012,-0.012209,0.0045578000000006,0.0640818000000007,0.0043016,0,sub_21
-0.0201518000000002,0.0043698000000012,-0.014385,0.0057974000000006,0.0570758000000007,0.0042908,0,sub_21
-0.0183814000000002,0.0046520000000012,-0.0160766,0.0070330000000006,0.0494298000000007,0.0044945999999999,0,sub_21
-0.0162280000000002,0.0045726000000012,-0.0166832,0.0076256000000006,0.0411470000000007,0.0046945999999999,0,sub_21
-0.0154878000000002,0.0041698000000012,-0.0174954,0.0082240000000006,0.0337180000000007,0.0044663999999999,0,sub_21
-0.0152322000000002,0.0037664000000012,-0.0180228,0.0086106000000006,0.0239196000000007,0.0036269999999999,0,sub_21
-0.0146692000000002,0.0028598000000012,-0.0168708,0.0062040000000006,0.0100820000000007,0.0029869999999999,0,sub_21
-0.0133342000000002,0.0027048000000012,-0.0161312,0.0012400000000006,-0.0026829999999992,0.0027549999999999,0,sub_21
-0.0149070000000002,0.0032890000000012,-0.0166798,-0.0028399999999993,-0.0090577999999992,0.0020935999999999,0,sub_21
-0.0152168000000002,0.0045448000000012,-0.0180238,-0.0029145999999993,-0.0183517999999992,0.0012325999999999,0,sub_21
-0.0157084000000002,0.0043326000000012,-0.0171662,-0.0029729999999993,-0.0238117999999992,0.0005805999999999,0,sub_21
-0.0155468000000002,0.0033562000000012,-0.0160852,-0.0023901999999993,-0.0290607999999992,-6.740000000001446e-05,0,sub_21
