userAcceleration.x,userAcceleration.y,userAcceleration.z,rotationRate.x,rotationRate.y,rotationRate.z,label,subject
-0.0121792000000002,0.0179408000000012,0.0750305999999999,0.0197360000000004,-0.0974817999999993,0.0247557999999999,0,sub_15
-0.0131878000000002,0.0171456000000012,0.0763301999999999,0.0210584000000004,-0.0902337999999993,0.0226193999999999,0,sub_15
-0.0138220000000002,0.0169312000000012,0.077717,0.0221510000000004,-0.0868193999999993,0.0202725999999999,0,sub_15
-0.0144918000000002,0.0167222000000012,0.0790305999999999,0.0217492000000004,-0.0827637999999993,0.0187691999999999,0,sub_15
-0.0140066000000002,0.0155722000000012,0.080242,0.0198470000000004,-0.0791335999999993,0.0183239999999999,0,sub_15
-0.0136108000000002,0.0142620000000012,0.0816667999999999,0.0168694000000004,-0.0769925999999993,0.0183005999999999,0,sub_15
-0.0140178000000002,0.0142492000000012,0.0828081999999999,0.0128296000000004,-0.0731461999999993,0.0189081999999999,0,sub_15
-0.0139376000000002,0.0143444000000012,0.0834967999999999,0.0088062000000004,-0.0654655999999993,0.0197247999999999,0,sub_15
-0.0131642000000002,0.0146876000000012,0.0832295999999999,0.0064906000000004,-0.0588511999999993,0.0192727999999999,0,sub_15
-0.0134938000000002,0.0163274000000012,0.0820619999999999,0.0054612000000004,-0.0511749999999993,0.0186147999999999,0,sub_15
-0.0137812000000002,0.0167508000000012,0.0809093999999999,0.0059358000000004,-0.0411603999999993,0.0179641999999999,0,sub_15
-0.0133216000000002,0.0162310000000012,0.0793643999999999,0.0074860000000004,-0.0298685999999993,0.0166787999999999,0,sub_15
-0.0121168000000002,0.0153622000000012,0.0776343999999999,0.0105404000000004,-0.0170871999999993,0.0145473999999999,0,sub_15
-0.0107910000000002,0.0143492000000012,0.0768623999999999,0.0138196000000004,-0.0015377999999993,0.0126275999999999,0,sub_15
-0.0094312000000002,0.0138484000000012,0.0772929999999999,0.0168960000000004,0.0167804000000006,0.0111301999999999,0,sub_15
-0.0079200000000002,0.0137664000000012,0.0764795999999999,0.0199754000000004,0.0376474000000006,0.0115523999999999,0,sub_15
-0.0073608000000002,0.0140736000000012,0.0751891999999999,0.0204722000000004,0.0548964000000006,0.0132429999999999,0,sub_15
-0.0075078000000002,0.0140712000000012,0.0726879999999999,0.0166622000000004,0.0649104000000006,0.0164081999999999,0,sub_15
-0.0071020000000002,0.0145858000000012,0.0707839999999999,0.0113194000000004,0.0661946000000006,0.0195739999999999,0,sub_15
-0.0063288000000002,0.0144794000000012,0.0691845999999999,0.0059468000000004,0.0604496000000006,0.0223211999999999,0,sub_15
-0.0059440000000002,0.0150354000000012,0.0687663999999999,0.0007864000000004,0.0523688000000006,0.0229363999999999,0,sub_15
-0.0046892000000002,0.0156732000000012,0.0699031999999999,-0.0028475999999995,0.0508900000000006,0.0229127999999999,0,sub_15
-0.0031874000000002,0.0169182000000012,0.0718904,-0.0047429999999995,0.0553752000000006,0.0218255999999999,0,sub_15
-0.0021986000000002,0.0168580000000012,0.0732933999999999,-0.0053341999999995,0.0651822000000006,0.0207405999999999,0,sub_15
-0.0012984000000002,0.0163062000000012,0.0737045999999999,-0.0052757999999995,0.0766930000000006,0.0192307999999999,0,sub_15
-0.0004994000000002,0.0158634000000012,0.0734615999999999,-0.0058687999999995,0.0856496000000006,0.0177195999999999,0,sub_15
0.0006453999999997,0.0160204000000012,0.0717805999999999,-0.0062705999999995,0.0894930000000006,0.0160027999999999,0,sub_15
0.0009661999999997,0.0155746000000012,0.0696495999999999,-0.0064639999999995,0.0922702000000006,0.0142887999999999,0,sub_15
0.0010905999999997,0.0166338000000012,0.0670347999999999,-0.0064449999999994,0.0939848000000006,0.0117229999999999,0,sub_15
0.0013169999999997,0.0188492000000012,0.0647769999999999,-0.0062123999999994,0.0944256000000006,0.0078783999999999,0,sub_15
0.0009395999999997,0.0198294000000012,0.0630643999999999,-0.0049167999999994,0.0935858000000006,0.0036156,0,sub_15
0.0012961999999997,0.0200056000000012,0.0619039999999999,-0.0031869999999994,0.0942368000000006,-0.0008597999999999,0,sub_15
0.0016521999999997,0.0194586000000012,0.0618353999999999,-0.0004053999999995,0.0927486000000006,-0.0040431999999999,0,sub_15
0.0021739999999997,0.0184114000000012,0.0630275999999999,0.0019370000000004,0.0897652000000006,-0.0059457999999999,0,sub_15
0.0026389999999997,0.0167522000000012,0.0641613999999999,0.0029866000000004,0.0859264000000006,-0.0059335999999999,0,sub_15
0.0033101999999997,0.0160648000000012,0.0659293999999999,0.0031740000000004,0.0814466000000006,-0.0046445999999999,0,sub_15
0.0033927999999997,0.0163800000000012,0.0670504,0.0039644000000004,0.0682310000000006,-0.0037676,0,sub_15
0.0004179999999997,0.0187452000000012,0.0653669999999999,0.0047144000000004,0.0447938000000006,-0.0041596,0,sub_15
-0.0028370000000002,0.0208236000000012,0.0629611999999999,0.0034912000000004,0.0090090000000006,-0.0051906,0,sub_15
-0.0043560000000002,0.0224262000000012,0.0623173999999999,0.0011706000000004,-0.0357117999999993,-0.0083542,0,sub_15
-0.0060084000000002,0.0212046000000012,0.0622955999999999,0.0031010000000004,-0.0853427999999993,-0.0127636,0,sub_15
-0.0026702000000002,0.0181902000000012,0.0676089999999999,0.0038164000000004,-0.1215425999999993,-0.0182668,0,sub_15
0.0065223999999997,0.0169264000000012,0.0770171999999999,0.0085402000000004,-0.1211081999999993,-0.02443,0,sub_15
0.0167395999999997,0.0157864000000012,0.0863511999999999,0.0159810000000004,-0.0859551999999993,-0.0306186,0,sub_15
0.0190793999999997,0.0145106000000012,0.0937829999999999,0.0228668000000004,-0.0286551999999993,-0.0336348,0,sub_15
0.0146063999999997,0.0170368000000012,0.0999103999999999,0.0225460000000004,0.0439912000000006,-0.032021,0,sub_15
0.0052111999999997,0.0142048000000012,0.1007325999999999,0.0213750000000004,0.1134414000000006,-0.0244344,0,sub_15
-0.0047812000000002,0.0152112000000012,0.0983247999999999,0.0166684000000004,0.1547848000000006,-0.0179048,0,sub_15
-0.0157170000000002,0.0137822000000012,0.0963831999999999,0.0112430000000004,0.1792968000000006,-0.0107176,0,sub_15
-0.0224574000000002,0.0122586000000012,0.0948861999999999,0.0053870000000004,0.2010482000000006,-0.0054528,0,sub_15
-0.0219838000000002,0.0111758000000012,0.0909632,-0.0002393999999995,0.2213280000000006,-0.0053118,0,sub_15
-0.0236542000000002,0.0180850000000012,0.0845201999999999,-0.0069599999999995,0.2405454000000006,-0.0100836,0,sub_15
-0.0292318000000002,0.0216140000000012,0.0775469999999999,-0.0136843999999995,0.2601838000000006,-0.013574,0,sub_15
-0.0351142000000002,0.0274388000000012,0.0701961999999999,-0.0195869999999995,0.2717274000000007,-0.0181166,0,sub_15
-0.0412762000000002,0.0296374000000012,0.0618391999999999,-0.0195425999999995,0.2770748000000006,-0.0219807999999999,0,sub_15
-0.0461584000000002,0.0332332000000012,0.0564687999999999,-0.0152593999999995,0.2758034000000006,-0.0260205999999999,0,sub_15
-0.0532586000000002,0.0352168000000012,0.0557423999999999,-0.0037281999999995,0.2736518000000006,-0.0293675999999999,0,sub_15
-0.0580420000000002,0.0347854000000012,0.0573265999999999,0.0129124000000004,0.2657428000000006,-0.0358761999999999,0,sub_15
-0.0582558000000002,0.0290822000000012,0.0594835999999999,0.0336242000000004,0.2531666000000007,-0.0508961999999999,0,sub_15
-0.0532102000000002,0.0270108000000012,0.0578187999999999,0.0491670000000004,0.2267696000000006,-0.069768,0,sub_15
-0.0425160000000002,0.0227776000000012,0.0509449999999999,0.0648810000000004,0.1884510000000006,-0.0911872,0,sub_15
-0.0253458000000002,0.0170752000000012,0.0415619999999999,0.0797048000000004,0.1369466000000006,-0.1177231999999999,0,sub_15
-0.0085930000000002,0.0102802000000012,0.0315441999999999,0.0926400000000004,0.0929040000000006,-0.1438548,0,sub_15
0.0021543999999996,0.0071448000000012,0.0234395999999999,0.1057772000000004,0.0537310000000006,-0.1625136,0,sub_15
0.0094953999999996,0.0032822000000012,0.0199001999999999,0.1265486000000004,0.0108820000000006,-0.1742777999999999,0,sub_15
0.0106405999999996,0.0009942000000012,0.0194439999999999,0.1450828000000004,-0.0479665999999993,-0.1789868,0,sub_15
0.0117713999999997,0.0001626000000012,0.0210683999999999,0.1581956000000004,-0.1191817999999993,-0.1766675999999999,0,sub_15
0.0121435999999997,-0.0057575999999987,0.0277307999999999,0.1639874000000004,-0.1974329999999993,-0.1666992,0,sub_15
0.0134823999999997,-0.0140177999999987,0.0377379999999999,0.1520826000000004,-0.2647881999999993,-0.1489636,0,sub_15
0.0140981999999997,-0.0177257999999987,0.0512487999999999,0.1208512000000004,-0.3073801999999993,-0.1266943999999999,0,sub_15
0.0102665999999997,-0.0267359999999987,0.0683501999999999,0.0798994000000004,-0.3254503999999993,-0.1011063999999999,0,sub_15
0.0025569999999997,-0.0354497999999987,0.0847393999999999,0.0230100000000004,-0.3268549999999993,-0.0735146,0,sub_15
-0.0093492000000002,-0.0379217999999987,0.0986669999999999,-0.0528119999999995,-0.3160467999999993,-0.0467116,0,sub_15
-0.0227452000000002,-0.0335005999999987,0.1090075999999999,-0.1360865999999995,-0.3007425999999993,-0.0188982,0,sub_15
-0.0372668000000002,-0.0346819999999987,0.116254,-0.2270321999999995,-0.2824313999999993,0.0094985999999999,0,sub_15
-0.0460028000000002,-0.0325995999999987,0.1225445999999999,-0.3302631999999995,-0.2465961999999993,0.0352235999999999,0,sub_15
-0.0528018000000002,-0.0227967999999987,0.1260625999999999,-0.4383193999999995,-0.1890261999999993,0.0643053999999999,0,sub_15
-0.0550148000000002,-0.0077411999999987,0.1244201999999999,-0.5404135999999996,-0.1270319999999993,0.1006869999999999,0,sub_15
-0.0533790000000002,-0.0019183999999987,0.1126701999999999,-0.6140543999999994,-0.0487309999999993,0.1370327999999999,0,sub_15
-0.0570452000000002,0.0039034000000012,0.0958909999999999,-0.6417315999999995,0.0808192000000006,0.1578242,0,sub_15
-0.0600568000000002,0.0085502000000012,0.0772001999999999,-0.6295271999999995,0.2072420000000006,0.1801801999999999,0,sub_15
-0.0656930000000002,0.0213744000000012,0.0546549999999999,-0.5704719999999995,0.3032874000000006,0.192861,0,sub_15
-0.0646402000000002,0.0511766000000012,0.0381521999999999,-0.4724299999999995,0.3683736000000007,0.1883349999999999,0,sub_15
-0.0622856000000002,0.0867220000000013,0.0335093999999999,-0.3759579999999995,0.3616954000000006,0.1764123999999999,0,sub_15
-0.0532064000000002,0.0982992000000013,0.0382183999999999,-0.2961065999999995,0.2708948000000006,0.1702499999999999,0,sub_15
-0.0522108000000002,0.0996184000000013,0.0395969999999999,-0.2180745999999995,0.1456240000000007,0.1545047999999999,0,sub_15
-0.0514406000000002,0.0813396000000013,0.0413393999999999,-0.1335827999999995,0.0229292000000006,0.1283329999999999,0,sub_15
-0.0486626000000002,0.0372148000000013,0.0339721999999999,-0.0316985999999995,-0.0884821999999993,0.0892359999999999,0,sub_15
-0.0364108000000002,-0.0041087999999986,0.0353167999999999,0.0744344000000004,-0.1532629999999993,0.0535271999999999,0,sub_15
-0.0206386000000002,-0.0188489999999986,0.0390629999999999,0.1411642000000004,-0.1787975999999993,0.0409937999999999,0,sub_15
0.0029471999999997,-0.0191283999999987,0.0587845999999999,0.1506960000000004,-0.1795299999999993,0.0560165999999999,0,sub_15
0.0231973999999997,-0.0169271999999987,0.084613,0.1054874000000004,-0.1812363999999993,0.0956543999999999,0,sub_15
0.0335157999999997,-0.0113493999999987,0.1143053999999999,0.0148540000000004,-0.2035369999999992,0.1565793999999999,0,sub_15
0.0261815999999997,-0.0067807999999987,0.1205089999999999,-0.0833547999999995,-0.2545539999999993,0.2125746,0,sub_15
0.0174325999999997,-0.0029347999999987,0.1151741999999999,-0.1499421999999995,-0.3209223999999993,0.2440274,0,sub_15
0.0054591999999997,-0.0016873999999987,0.0974961999999999,-0.1829739999999995,-0.3500323999999992,0.2530206,0,sub_15
0.0004161999999997,1.1600000001297194e-05,0.0833407999999999,-0.1997143999999995,-0.3286503999999993,0.2483898,0,sub_15
-0.0010494000000002,0.0013818000000012,0.0769377999999999,-0.2167347999999995,-0.2847003999999993,0.2374674,0,sub_15
0.0038877999999997,0.0004784000000012,0.0839185999999999,-0.2397937999999995,-0.2571261999999993,0.2243874,0,sub_15
0.0070889999999997,-0.0001551999999987,0.0940665999999999,-0.2664547999999995,-0.2687519999999993,0.2138961999999999,0,sub_15
0.0113011999999996,0.0009168000000012,0.0996971999999999,-0.2867199999999995,-0.3255817999999993,0.206926,0,sub_15
0.0131409999999997,0.0026806000000012,0.1002623999999999,-0.2989929999999995,-0.4018533999999992,0.2064457999999999,0,sub_15
0.0125927999999997,0.0057372000000012,0.0912549999999999,-0.3045947999999995,-0.4563959999999992,0.2113903999999999,0,sub_15
0.0090757999999996,0.0107298000000012,0.0802161999999999,-0.2995735999999995,-0.4730539999999992,0.2170016,0,sub_15
0.0054703999999997,0.0152710000000012,0.0714467999999999,-0.2743485999999995,-0.4635511999999993,0.2163111999999999,0,sub_15
0.0010177999999997,0.0149920000000012,0.0669065999999999,-0.2275057999999995,-0.4508809999999992,0.2040169999999999,0,sub_15
-0.0006110000000002,0.0135058000000012,0.0615299999999999,-0.1682615999999995,-0.4443847999999993,0.1798534,0,sub_15
0.0015727999999997,0.0096236000000012,0.0614373999999999,-0.1030237999999995,-0.4372557999999992,0.1520989999999999,0,sub_15
0.0074981999999997,0.0038452000000012,0.0633232,-0.0460711999999995,-0.4175457999999993,0.1287569999999999,0,sub_15
0.0156665999999997,-0.0024441999999987,0.0664817999999999,-0.0092013999999995,-0.3952421999999992,0.1136033999999999,0,sub_15
0.0257721999999997,-0.0066943999999987,0.0731551999999999,0.0008836000000004,-0.3882243999999992,0.1081101999999999,0,sub_15
0.0323005999999997,-0.0088569999999987,0.0832687999999999,-0.0088159999999995,-0.4073757999999993,0.1106307999999999,0,sub_15
0.0352017999999997,-0.0084627999999987,0.0919917999999999,-0.0275913999999995,-0.4505759999999993,0.1144005999999999,0,sub_15
0.0356499999999997,-0.0086413999999987,0.0967435999999999,-0.0438511999999995,-0.5063449999999993,0.1156403999999999,0,sub_15
0.0324923999999997,-0.0082857999999987,0.0972931999999999,-0.0544569999999995,-0.5456991999999994,0.1096347999999999,0,sub_15
0.0307179999999997,-0.0073203999999987,0.0936472,-0.0535843999999995,-0.5545975999999992,0.0964061999999999,0,sub_15
0.0328947999999997,-0.0049283999999987,0.0891419999999999,-0.0428255999999995,-0.5503107999999993,0.0806659999999999,0,sub_15
0.0368597999999997,-0.0019795999999987,0.0844357999999999,-0.0299617999999995,-0.5511497999999992,0.0662289999999999,0,sub_15
0.0399925999999997,0.0075332000000012,0.0809425999999999,-0.0175795999999995,-0.5637069999999993,0.0522309999999999,0,sub_15
0.0404893999999997,0.0138488000000012,0.0798717999999999,-0.0036053999999995,-0.5941973999999993,0.0459583999999999,0,sub_15
0.0384393999999997,0.0191528000000012,0.0820223999999999,0.0086302000000004,-0.6295903999999993,0.0418163999999999,0,sub_15
0.0329681999999997,0.0212194000000012,0.0867965999999999,0.0203542000000004,-0.6326123999999993,0.0414749999999999,0,sub_15
0.0263853999999997,0.0225864000000012,0.0929147999999999,0.0300288000000004,-0.6136953999999993,0.0442957999999999,0,sub_15
0.0176241999999997,0.0195422000000012,0.0951091999999999,0.0387948000000004,-0.5598329999999994,0.0468517999999999,0,sub_15
0.0143419999999997,0.0179298000000012,0.0954847999999999,0.0409356000000004,-0.5051079999999992,0.0525649999999999,0,sub_15
0.0082789999999997,0.0167812000000012,0.0884707999999999,0.0422048000000004,-0.4550645999999992,0.0576371999999999,0,sub_15
0.0073309999999997,0.0178474000000012,0.0803523999999999,0.0389098000000004,-0.4248145999999993,0.0614209999999999,0,sub_15
0.0054533999999997,0.0160912000000012,0.0711211999999999,0.0361018000000004,-0.3822045999999992,0.0641241999999999,0,sub_15
0.0065411999999997,0.0112172000000012,0.0670977999999999,0.0345684000000004,-0.3410895999999992,0.0666243999999999,0,sub_15
0.0109939999999997,0.0105204000000012,0.0666751999999999,0.0338200000000004,-0.2760817999999992,0.0607673999999999,0,sub_15
0.0192043999999997,0.0071914000000012,0.0717279999999999,0.0313472000000004,-0.2149029999999993,0.0549033999999999,0,sub_15
0.0231379999999997,0.0022480000000012,0.073922,0.0307304000000004,-0.1758567999999992,0.0411757999999999,0,sub_15
0.0274681999999997,-0.0029187999999987,0.0743484,0.0263868000000004,-0.1634117999999992,0.0229695999999999,0,sub_15
0.0299461999999996,-0.0033329999999987,0.0739915999999999,0.0119120000000004,-0.1711817999999993,0.0072823999999999,0,sub_15
0.0295283999999997,-0.0035115999999987,0.0714818,-0.0026491999999995,-0.1940947999999992,-0.0043268,0,sub_15
0.0223675999999997,0.0026088000000012,0.0652377999999999,-0.0139895999999995,-0.2066031999999992,-0.0099448,0,sub_15
0.0134007999999997,0.0057142000000012,0.0583443999999999,-0.0246361999999995,-0.1972093999999992,-0.0055446,0,sub_15
0.0068923999999997,0.0130948000000012,0.0524903999999999,-0.0292115999999995,-0.1663181999999992,-0.0011296,0,sub_15
0.0047993999999997,0.0177384000000012,0.0457943999999999,-0.0207357999999995,-0.1303481999999992,0.0005927999999999,0,sub_15
0.0053711999999997,0.0203550000000012,0.0395279999999999,-0.0092093999999995,-0.0820245999999992,0.0006113999999999,0,sub_15
0.0128659999999997,0.0148776000000012,0.0378075999999999,0.0017230000000004,-0.0275041999999992,-0.0034414,0,sub_15
0.0354413999999997,0.0187270000000012,0.0350315999999999,0.0201262000000004,0.0221120000000007,-0.0129905999999999,0,sub_15
0.0573329999999997,0.0207968000000012,0.0309565999999999,0.0396620000000004,0.0433700000000007,-0.0180087999999999,0,sub_15
0.0744943999999997,0.0225908000000012,0.0273915999999999,0.0505642000000004,0.0520500000000007,-0.013671,0,sub_15
0.0779491999999997,0.0163430000000012,0.0268733999999999,0.0494418000000004,0.0475480000000007,-0.0057682,0,sub_15
0.0795487999999997,0.0149306000000012,0.0326763999999999,0.0427082000000004,0.0239112000000007,-0.0030074,0,sub_15
0.0668643999999997,0.0064850000000012,0.0432563999999999,0.0289306000000004,-0.0024621999999992,-0.0024288,0,sub_15
0.0487677999999997,-0.0059283999999987,0.0573071999999999,0.0093790000000004,0.0072252000000007,-0.0104825999999999,0,sub_15
0.0315359999999997,-0.0133349999999987,0.0709543999999999,-0.0094879999999995,0.0493804000000007,-0.0343865999999999,0,sub_15
0.0226471999999996,-0.0135765999999987,0.0804475999999999,-0.0261407999999995,0.1077268000000007,-0.0600049999999999,0,sub_15
0.0180971999999997,-0.0137483999999987,0.0836211999999999,-0.0487437999999995,0.1805450000000006,-0.0764969999999999,0,sub_15
0.0218825999999997,-0.0020261999999987,0.0865859999999999,-0.0673187999999995,0.2478090000000007,-0.0927399999999999,0,sub_15
0.0324747999999997,0.0154386000000012,0.0867847999999999,-0.0762349999999995,0.2843428000000007,-0.1048168,0,sub_15
0.0413897999999997,0.0217294000000012,0.0872667999999999,-0.0801797999999994,0.3065230000000006,-0.1070092,0,sub_15
0.0511445999999997,0.0279480000000012,0.0893649999999999,-0.0732405999999995,0.3295158000000007,-0.1086994,0,sub_15
0.0569177999999997,0.0345656000000012,0.0891042,-0.0528829999999994,0.3484084000000007,-0.1090086,0,sub_15
0.0528841999999997,0.0316096000000012,0.0856983999999999,-0.0304251999999994,0.3676880000000007,-0.1013988,0,sub_15
0.0450441999999997,0.0198332000000012,0.0830109999999999,-0.0108053999999995,0.3771592000000007,-0.0893098,0,sub_15
0.0382099999999997,0.0149016000000012,0.0800477999999999,0.0076736000000004,0.3700166000000007,-0.0774212,0,sub_15
0.0311191999999997,0.0093460000000012,0.0766739999999999,0.0246024000000004,0.3467018000000007,-0.0691546,0,sub_15
0.0276047999999996,0.0047834000000012,0.0721771999999999,0.0383470000000004,0.3187442000000007,-0.0692364,0,sub_15
0.0261925999999996,-0.0015975999999987,0.0696777999999999,0.0487208000000004,0.2910492000000007,-0.0787424,0,sub_15
0.0243581999999996,-0.0032279999999987,0.0691307999999999,0.0553286000000004,0.2744684000000007,-0.0938438,0,sub_15
0.0308965999999996,-0.0026449999999987,0.0737247999999999,0.0666202000000004,0.2500106000000007,-0.114457,0,sub_15
0.0386467999999997,-0.0008201999999987,0.0781597999999999,0.0743816000000004,0.2033926000000006,-0.1314346,0,sub_15
0.0375731999999997,-0.0035649999999987,0.0837301999999999,0.0771242000000004,0.1378072000000006,-0.1426546,0,sub_15
0.0333625999999997,-0.0016511999999987,0.0899613999999999,0.0753602000000004,0.0741240000000007,-0.1462174,0,sub_15
0.0250821999999997,0.0018600000000012,0.0970375999999999,0.0766410000000004,0.0280942000000006,-0.1448676,0,sub_15
0.0053199999999997,0.0028656000000012,0.1011499999999999,0.0718508000000004,0.0144444000000006,-0.1371924,0,sub_15
-0.0154018000000002,0.0009144000000012,0.1075731999999999,0.0682380000000004,0.0261408000000006,-0.1286868,0,sub_15
-0.0299810000000002,0.0013188000000012,0.1144703999999999,0.0672306000000004,0.0455076000000006,-0.122523,0,sub_15
-0.0398442000000002,-0.0035917999999987,0.1207121999999999,0.0647354000000004,0.0617018000000006,-0.1208519999999999,0,sub_15
-0.0445972000000002,-0.0051341999999987,0.1245957999999999,0.0635318000000004,0.0732334000000006,-0.12643,0,sub_15
-0.0442242000000002,-0.0050591999999987,0.1278211999999999,0.0650878000000004,0.0762544000000006,-0.1373188,0,sub_15
-0.0498908000000002,-0.0036399999999987,0.1307289999999999,0.0707312000000004,0.0856572000000006,-0.1492553999999999,0,sub_15
-0.0515016000000002,0.0004710000000012,0.1387789999999999,0.0824920000000004,0.1303912000000007,-0.1575625999999999,0,sub_15
-0.0495866000000002,0.0072582000000012,0.1458365999999999,0.1122652000000004,0.1914814000000007,-0.1691833999999999,0,sub_15
-0.0428590000000002,0.0119170000000012,0.148716,0.1428144000000004,0.2399796000000006,-0.1760824,0,sub_15
-0.0365348000000002,0.0128546000000012,0.1435479999999999,0.1710754000000004,0.2567302000000007,-0.1803929999999999,0,sub_15
-0.0252248000000002,0.0151746000000012,0.1332155999999999,0.1880772000000004,0.2362386000000007,-0.1855891999999999,0,sub_15
-0.0228140000000002,0.0158990000000012,0.1118113999999999,0.1889264000000004,0.1812936000000007,-0.1921358,0,sub_15
-0.0235642000000002,0.0129260000000012,0.0842431999999999,0.1634494000000004,0.1168188000000007,-0.1903081999999999,0,sub_15
-0.0277058000000002,0.0070696000000012,0.0591725999999999,0.1209196000000004,0.0626048000000007,-0.1822036,0,sub_15
-0.0270484000000002,0.0050948000000012,0.0405341999999999,0.0697816000000004,0.0471664000000007,-0.1665178,0,sub_15
-0.0201120000000002,0.0056836000000012,0.0255893999999999,0.0258260000000004,0.0666296000000007,-0.1471943999999999,0,sub_15
-0.0036600000000002,0.0052338000000012,0.0158255999999999,-0.0052667999999995,0.1022290000000007,-0.1250245999999999,0,sub_15
0.0152821999999997,0.0059692000000012,0.0084439999999999,-0.0169053999999995,0.1424620000000006,-0.1063567999999999,0,sub_15
0.0315297999999997,0.0073862000000012,-5.9800000000036216e-05,-0.0112491999999995,0.1815838000000006,-0.0911988,0,sub_15
0.0413801999999997,0.0062986000000012,-0.0085352,0.0050074000000004,0.2010854000000007,-0.080428,0,sub_15
0.0394661999999997,0.0037586000000012,-0.0144172,0.0210362000000004,0.2173918000000006,-0.0696547999999999,0,sub_15
0.0340795999999997,0.0037592000000012,-0.0134934,0.0368190000000004,0.2239088000000006,-0.0614344,0,sub_15
0.0234763999999997,0.0058976000000012,-0.0032032,0.0463200000000004,0.2127514000000006,-0.0500306,0,sub_15
0.0103385999999997,0.0084886000000012,0.0142511999999999,0.0572744000000004,0.1915794000000006,-0.039672,0,sub_15
-0.0081358000000002,0.0076168000000012,0.0386169999999999,0.0680222000000004,0.1706264000000006,-0.030597,0,sub_15
-0.0192128000000002,0.0072122000000012,0.0611645999999999,0.0822452000000004,0.1575674000000006,-0.0272762,0,sub_15
-0.0312454000000002,0.0060486000000012,0.0802307999999999,0.0960886000000004,0.1500688000000006,-0.0288792,0,sub_15
-0.0384686000000002,-0.0024983999999987,0.0895603999999999,0.1014536000000004,0.1519872000000006,-0.033758,0,sub_15
-0.0403792000000002,-0.0112117999999986,0.0950713999999999,0.0902340000000004,0.1663234000000006,-0.0394093999999999,0,sub_15
-0.0342504000000002,-0.0143071999999986,0.0921377999999999,0.0653750000000004,0.1845414000000006,-0.0449473999999999,0,sub_15
-0.0273286000000002,-0.0114085999999987,0.0877493999999999,0.0289594000000004,0.1900216000000006,-0.0469205999999999,0,sub_15
