userAcceleration.x,userAcceleration.y,userAcceleration.z,rotationRate.x,rotationRate.y,rotationRate.z,label,subject
0.0168947999999997,0.0073194000000012,-0.0243992,-0.0031543999999994,-0.0059389999999992,-0.0045095999999999,0,sub_2
0.0148381999999997,0.0083534000000012,-0.022276,-0.0040167999999994,-0.0095895999999991,-0.0019461999999999,0,sub_2
0.0113965999999997,0.0087796000000012,-0.0213906,-0.0021063999999994,-0.0143117999999991,-0.0002165999999999,0,sub_2
0.0089443999999997,0.0089846000000012,-0.0197546,0.0010776000000005,-0.0220153999999991,3.020000000004226e-05,0,sub_2
0.0085927999999997,0.0079394000000012,-0.0183488,0.0034158000000005,-0.0288603999999991,-0.0005845999999999,0,sub_2
0.0077167999999997,0.0072802000000012,-0.0161376,0.0040604000000005,-0.0335655999999991,-0.0020685999999999,0,sub_2
0.0077807999999997,0.0062468000000012,-0.0161526,0.0040422000000005,-0.0376135999999992,-0.0020635999999999,0,sub_2
0.0086399999999997,0.0064808000000012,-0.015182,0.0021018000000005,-0.0416565999999992,-0.0016445999999999,0,sub_2
0.0080739999999997,0.0063616000000012,-0.0150132,-0.0017161999999994,-0.0420289999999992,-0.0006115999999999,0,sub_2
0.0063773999999997,0.0065680000000012,-0.013937,-0.0050977999999994,-0.0402723999999992,0.000422,0,sub_2
0.0054201999999997,0.0072696000000012,-0.013718,-0.0069963999999994,-0.0404399999999992,0.0018956,0,sub_2
0.0048169999999997,0.0081046000000012,-0.012653,-0.0071879999999994,-0.0408259999999992,0.0031678,0,sub_2
0.0036893999999997,0.0085510000000012,-0.0127558,-0.0062963999999994,-0.0382303999999992,0.0038026,0,sub_2
0.0029031999999997,0.0088948000000012,-0.012309,-0.0037253999999994,-0.0356835999999992,0.004031,0,sub_2
0.0017811999999997,0.0094666000000012,-0.012055,0.0001258000000005,-0.0331411999999992,0.0042682,0,sub_2
0.0008537999999997,0.0089112000000012,-0.010171,0.0029218000000005,-0.0284629999999991,0.004068,0,sub_2
-0.0001902000000002,0.0082430000000012,-0.0082274,0.0031914000000005,-0.0211629999999991,0.0035956,0,sub_2
-0.0004474000000002,0.0076754000000012,-0.0062492,0.0021770000000005,-0.0147107999999991,0.0031154,0,sub_2
-0.0004288000000002,0.0073530000000012,-0.005478,0.0005224000000005,-0.0082563999999992,0.0026306,0,sub_2
0.0001469999999997,0.0074096000000012,-0.004836,-0.0009207999999994,-0.0022287999999992,0.002148,0,sub_2
0.0005993999999997,0.0080830000000012,-0.0056136,-0.0010855999999994,0.0037926000000007,0.0021016,0,sub_2
0.0005689999999997,0.0081454000000012,-0.006315,0.0006434000000005,0.0088990000000007,0.0023207999999999,0,sub_2
0.0005889999999997,0.0091466000000012,-0.0073494,0.0030048000000005,0.0125110000000007,0.0027599999999999,0,sub_2
0.0009155999999997,0.0086006000000012,-0.008153,0.0062132000000005,0.0144166000000007,0.0029935999999999,0,sub_2
0.0017341999999997,0.0075682000000012,-0.0090216,0.0085556000000005,0.0156404000000007,0.0025576,0,sub_2
0.0035343999999997,0.0075262000000012,-0.009817,0.0102540000000005,0.0158022000000007,0.001905,0,sub_2
0.0056875999999997,0.0084708000000012,-0.0107716,0.0104472000000005,0.0140490000000007,0.0018852,0,sub_2
0.0065073999999997,0.0086550000000012,-0.0114808,0.0102252000000005,0.0148540000000007,0.0018592,0,sub_2
0.0069203999999997,0.0086474000000012,-0.012493,0.0089402000000005,0.0165148000000007,0.0018248,0,sub_2
0.0082395999999997,0.0088010000000012,-0.0132124,0.0080866000000005,0.0167300000000007,0.0020322,0,sub_2
0.0088921999999997,0.0089216000000012,-0.0146392,0.0072244000000005,0.0146032000000007,0.0018152,0,sub_2
0.0086453999999997,0.0082292000000012,-0.015349,0.0078578000000005,0.0126852000000007,0.0013948,0,sub_2
0.0085431999999997,0.0073778000000012,-0.0153518,0.0086704000000005,0.0077190000000007,0.0014096,0,sub_2
0.0088225999999997,0.0081936000000012,-0.0144996,0.0099076000000005,0.0027496000000007,0.0018546,0,sub_2
0.0070267999999997,0.0084842000000012,-0.0141852,0.0113718000000005,0.0007622000000007,0.0022974,0,sub_2
0.0053797999999997,0.0078898000000012,-0.0134152,0.0126350000000005,0.0011208000000007,0.0023086,0,sub_2
0.0054167999999997,0.0075228000000012,-0.0128352,0.0124018000000005,0.0002090000000007,0.0016698,0,sub_2
0.0061155999999997,0.0071026000000012,-0.0124154,0.0111244000000005,3.8000000007783534e-06,0.0008066,0,sub_2
0.0057017999999997,0.0067950000000012,-0.0126198,0.0094156000000005,-0.0008405999999992,0.0003684,0,sub_2
0.0061781999999997,0.0066780000000012,-0.0124892,0.0068514000000005,-0.0018959999999992,0.0001382,0,sub_2
0.0063439999999997,0.0071312000000012,-0.0122764,0.0047130000000005,-0.0025293999999992,0.0005512,0,sub_2
0.0066305999999997,0.0077140000000012,-0.0134266,0.0038470000000005,-0.0016509999999992,0.0014026,0,sub_2
0.0060953999999997,0.0081026000000012,-0.014499,0.0046928000000005,7.460000000075834e-05,0.002051,0,sub_2
0.0066859999999997,0.0081392000000012,-0.0149968,0.0061690000000005,-0.0009691999999992,0.0020665999999999,0,sub_2
0.0061143999999997,0.0083512000000012,-0.0144408,0.0076366000000005,-0.0037181999999992,0.002298,0,sub_2
0.0056871999999997,0.0079068000000012,-0.0132246,0.0084738000000005,-0.0045465999999992,0.0023088,0,sub_2
0.0042887999999997,0.0074482000000012,-0.0114164,0.0086920000000005,-0.0043307999999992,0.0014554,0,sub_2
0.0044207999999997,0.0072386000000012,-0.0108002,0.0080528000000005,-0.0049641999999992,0.0005972,0,sub_2
0.0043429999999997,0.0072380000000012,-0.0103802,0.0072008000000005,-0.0040261999999992,-5.4399999999977815e-05,0,sub_2
0.0050861999999997,0.0073924000000012,-0.010549,0.0061372000000005,-0.0024491999999992,-0.0004947999999999,0,sub_2
0.0057791999999997,0.0078736000000012,-0.0113874,0.0054898000000005,-0.0027927999999992,-0.0005023999999999,0,sub_2
0.0058345999999997,0.0076204000000012,-0.013087,0.0056940000000005,-0.0029289999999992,0.0001365999999999,0,sub_2
0.0053091999999997,0.0073694000000012,-0.0132604,0.0071872000000005,-0.0015765999999992,0.0003553999999999,0,sub_2
0.0048975999999997,0.0067430000000012,-0.0127614,0.0086904000000005,-0.0003001999999992,-0.0004904,0,sub_2
0.0046579999999997,0.0064572000000012,-0.0122726,0.0095526000000004,0.0003410000000007,-0.001767,0,sub_2
0.0045257999999997,0.0059272000000012,-0.0121236,0.0091354000000005,0.0016242000000007,-0.0026259999999999,0,sub_2
0.0047817999999997,0.0067672000000012,-0.0115132,0.0070114000000005,0.0033378000000007,-0.0030701999999999,0,sub_2
0.0044405999999997,0.0075004000000012,-0.0117552,0.0042294000000004,0.0046648000000007,-0.0028849999999999,0,sub_2
0.0042347999999996,0.0078498000000012,-0.0134072,0.0020914000000005,0.0070542000000007,-0.0024829999999999,0,sub_2
0.0049213999999996,0.0085280000000012,-0.0143382,0.0016576000000005,0.0085862000000007,-0.0022817999999999,0,sub_2
0.0051909999999996,0.0094630000000012,-0.0140656,0.0014276000000005,0.0077746000000007,-0.0022899999999999,0,sub_2
0.0055787999999997,0.0086992000000012,-0.0133964,0.0026930000000005,0.0067474000000007,-0.0029283999999999,0,sub_2
0.0054421999999997,0.0073068000000012,-0.0132616,0.0037648000000005,0.0073846000000007,-0.0033491999999999,0,sub_2
0.0062385999999997,0.0068346000000012,-0.0131018,0.0041888000000005,0.0065316000000007,-0.0035587999999999,0,sub_2
0.0065181999999997,0.0058126000000012,-0.013705,0.0028688000000005,0.0037702000000007,-0.0040005999999999,0,sub_2
0.0063825999999997,0.0052444000000012,-0.0150324,0.0019842000000005,0.0029248000000007,-0.0044415999999999,0,sub_2
0.0063467999999997,0.0057228000000012,-0.015651,-0.0001881999999994,0.0014404000000007,-0.0038225999999999,0,sub_2
0.0067771999999997,0.0068188000000012,-0.014728,-0.0023645999999994,-0.0008961999999992,-0.0032025999999999,0,sub_2
0.0055911999999997,0.0076016000000012,-0.0144702,-0.0041025999999994,-0.0006775999999992,-0.0025829999999999,0,sub_2
0.0045457999999997,0.0081050000000012,-0.0149166,-0.0032423999999994,0.0012352000000007,-0.0021521999999999,0,sub_2
0.0047249999999997,0.0078436000000012,-0.0153136,-0.0015315999999994,0.0018692000000007,-0.0023547999999999,0,sub_2
0.0047933999999997,0.0072524000000012,-0.0144056,-0.0004657999999994,0.0008036000000007,-0.0032005999999999,0,sub_2
0.0051091999999997,0.0067962000000012,-0.0142818,-4.759999999944479e-05,-0.0015397999999992,-0.0036219999999999,0,sub_2
0.0048671999999997,0.0069742000000012,-0.0129964,-0.0011627999999994,-0.0043037999999992,-0.0040623999999999,0,sub_2
0.0041665999999997,0.0069742000000012,-0.0126426,-0.0035503999999994,-0.0047223999999992,-0.0038737999999999,0,sub_2
0.0033451999999997,0.0072584000000012,-0.0120208,-0.0065789999999994,-0.0055639999999992,-0.0039027999999999,0,sub_2
0.0029253999999997,0.0079748000000012,-0.0130508,-0.0083255999999994,-0.0059839999999992,-0.0039233999999999,0,sub_2
0.0028751999999997,0.0088000000000012,-0.0140116,-0.0092167999999994,-0.0059807999999992,-0.0039385999999999,0,sub_2
0.0029517999999997,0.0085064000000012,-0.0152394,-0.0085775999999994,-0.0053473999999992,-0.0030803999999999,0,sub_2
0.0027417999999997,0.0087660000000012,-0.0145634,-0.0079365999999994,-0.0051365999999992,-0.0030761999999999,0,sub_2
0.0027061999999997,0.0086750000000012,-0.0144306,-0.0067001999999994,-0.0057741999999992,-0.0028613999999999,0,sub_2
0.0030723999999997,0.0081794000000012,-0.0142376,-0.0054615999999994,-0.0066223999999992,-0.0032873999999999,0,sub_2
0.0036975999999997,0.0075190000000012,-0.01397,-0.0050765999999994,-0.0074675999999991,-0.0037191999999999,0,sub_2
0.0048021999999997,0.0076684000000012,-0.0131676,-0.0063957999999994,-0.0070309999999992,-0.0035235999999999,0,sub_2
0.0055693999999997,0.0074918000000012,-0.012763,-0.0081377999999994,-0.0051041999999992,-0.0026919999999999,0,sub_2
0.0050663999999997,0.0076434000000012,-0.0123306,-0.0096255999999994,-0.0027597999999992,-0.0016371999999999,0,sub_2
0.0044085999999997,0.0082956000000012,-0.0125226,-0.0094045999999994,-0.0002071999999992,-0.0007841999999999,0,sub_2
0.0038789999999997,0.0086342000000012,-0.0128404,-0.0087529999999994,0.0021350000000007,-0.0009961999999999,0,sub_2
0.0035241999999997,0.0084020000000012,-0.0126286,-0.0070829999999994,0.0023462000000007,-0.0016277999999999,0,sub_2
0.0037741999999997,0.0083230000000012,-0.0126532,-0.0058493999999994,0.0012772000000007,-0.0014059999999999,0,sub_2
0.0040395999999997,0.0087592000000012,-0.0121236,-0.0056741999999994,0.0021294000000007,-0.0011941999999999,0,sub_2
0.0039129999999997,0.0082708000000012,-0.0115648,-0.0072029999999994,0.0042632000000007,-0.0003549999999999,0,sub_2
0.0036667999999997,0.0081450000000012,-0.0114566,-0.0078783999999994,0.0063940000000007,0.00049,0,sub_2
0.0036641999999997,0.0087938000000012,-0.0117814,-0.0083023999999994,0.0074590000000007,0.000913,0,sub_2
0.0037911999999997,0.0087196000000012,-0.0116694,-0.0082985999999994,0.0078868000000007,0.0004852,0,sub_2
0.0042995999999997,0.0073642000000012,-0.0115726,-0.0076535999999994,0.0083132000000007,-0.0001517999999999,0,sub_2
0.0053529999999997,0.0067052000000012,-0.010891,-0.0078957999999994,0.0083072000000007,-0.0007893999999999,0,sub_2
0.0065345999999997,0.0063612000000012,-0.010573,-0.0092133999999994,0.0068118000000007,-0.0010051999999999,0,sub_2
0.0070463999999997,0.0062320000000012,-0.0109044,-0.0111681999999994,0.0059578000000007,-0.0012261999999999,0,sub_2
0.0071797999999997,0.0062870000000012,-0.0126804,-0.0120589999999994,0.0046732000000007,-0.0012257999999999,0,sub_2
0.0084359999999997,0.0076118000000012,-0.0129562,-0.0127441999999994,0.0023200000000007,-0.0005813999999999,0,sub_2
0.0080913999999997,0.0081976000000012,-0.0131262,-0.0116897999999994,0.0006076000000007,0.0004964,0,sub_2
0.0064749999999997,0.0082750000000012,-0.012541,-0.0099885999999994,0.0003844000000007,0.0015768,0,sub_2
0.0059829999999997,0.0076672000000012,-0.0119904,-0.0078635999999994,-0.0015405999999992,0.001594,0,sub_2
0.0067923999999997,0.0080360000000012,-0.010564,-0.0061849999999994,-0.0047479999999992,0.001193,0,sub_2
0.0066273999999997,0.0075600000000012,-0.0105536,-0.0053529999999994,-0.0062487999999992,0.0009974,0,sub_2
0.0073559999999997,0.0072110000000012,-0.010791,-0.0057983999999994,-0.0071059999999992,0.0007922,0,sub_2
0.0074325999999997,0.0075350000000012,-0.0108438,-0.0073145999999994,-0.0085993999999992,0.000794,0,sub_2
0.0069609999999997,0.0076268000000012,-0.0103706,-0.0081819999999994,-0.0079653999999992,0.0010112,0,sub_2
0.0058511999999997,0.0078616000000012,-0.0094264,-0.0094563999999994,-0.0062581999999991,0.0014274,0,sub_2
0.0051509999999997,0.0079992000000012,-0.0097474,-0.0096707999999994,-0.0068947999999991,0.0009994,0,sub_2
0.0046363999999997,0.0085840000000012,-0.0095568,-0.0090355999999994,-0.0085989999999991,0.000365,0,sub_2
0.0044687999999997,0.0090560000000012,-0.0096846,-0.0077447999999994,-0.0079545999999991,-0.0002539999999999,0,sub_2
0.0044091999999997,0.0097092000000012,-0.0098878,-0.0068837999999994,-0.0070987999999991,-2.1599999999937943e-05,0,sub_2
0.0044125999999997,0.0090376000000012,-0.0105198,-0.0060199999999994,-0.0056039999999991,0.00021,0,sub_2
0.0043131999999997,0.0087384000000012,-0.0104728,-0.0051483999999994,-0.0021925999999992,0.0006528,0,sub_2
0.0037951999999997,0.0082990000000012,-0.0106758,-0.0049235999999994,-0.0004823999999992,0.0008796,0,sub_2
0.0042537999999996,0.0077766000000012,-0.0106242,-0.0042863999999994,-0.0011237999999991,0.0008848,0,sub_2
0.0043907999999996,0.0071562000000012,-0.0105586,-0.0036499999999994,-0.0017661999999992,0.0011036,0,sub_2
0.0043191999999996,0.0070028000000012,-0.0099646,-0.0034345999999994,-0.0009163999999992,0.0015312,0,sub_2
0.0034345999999996,0.0074608000000012,-0.0093944,-0.0038371999999994,-0.0004823999999992,0.0015398,0,sub_2
0.0034739999999997,0.0078272000000012,-0.0088626,-0.0035947999999994,0.0008024000000007,0.0013382,0,sub_2
0.0032385999999997,0.0075488000000012,-0.0091082,-0.0031313999999994,0.0035788000000007,0.0009226,0,sub_2
0.0032915999999997,0.0073972000000012,-0.0095428,-0.0026755999999994,0.0048630000000007,0.0007226,0,sub_2
0.0036137999999997,0.0084188000000012,-0.010687,-0.0015855999999994,0.0046542000000007,0.0003152,0,sub_2
0.0044017999999997,0.0071850000000012,-0.0106322,-0.0005147999999994,0.0050782000000007,-0.0001051999999999,0,sub_2
0.0046281999999997,0.0067152000000012,-0.0105518,-8.21999999994449e-05,0.0061428000000007,-0.0003171999999999,0,sub_2
0.0058449999999997,0.0076184000000012,-0.0097832,-0.0011529999999994,0.0052942000000007,-0.0003235999999999,0,sub_2
0.0066807999999997,0.0083446000000012,-0.0096584,-0.0019699999999994,0.0052932000000007,-0.0011761999999999,0,sub_2
0.0064373999999997,0.0070456000000012,-0.010234,-0.0021495999999994,0.0048630000000007,-0.0018101999999999,0,sub_2
0.0074541999999997,0.0071106000000012,-0.0124374,-0.0019111999999994,0.0033626000000007,-0.0015851999999999,0,sub_2
0.0087055999999997,0.0072136000000012,-0.0129188,-0.0025311999999994,0.0010122000000007,-0.0011513999999999,0,sub_2
0.0085203999999997,0.0066906000000012,-0.0135506,-0.0031461999999994,-6.059999999922213e-05,-0.0005055999999999,0,sub_2
0.0078623999999997,0.0064868000000012,-0.013667,-0.0033691999999994,-0.0013415999999992,0.000349,0,sub_2
0.0081587999999997,0.0075518000000012,-0.013387,-0.0029587999999994,-0.0041159999999992,0.00121,0,sub_2
0.0075865999999997,0.0089440000000012,-0.0123162,-0.0021215999999994,-0.0071041999999992,0.0018606,0,sub_2
0.0062177999999997,0.0089440000000012,-0.0122272,-0.0001595999999994,-0.0071153999999992,0.0020914,0,sub_2
0.0049131999999997,0.0087036000000012,-0.0115728,0.0022328000000005,-0.0064881999999992,0.0021108,0,sub_2
0.0048687999999997,0.0082222000000012,-0.0105114,0.0035526000000005,-0.0073477999999992,0.001911,0,sub_2
0.0046229999999997,0.0079736000000012,-0.0097224,0.0033856000000005,-0.0071351999999992,0.0012722,0,sub_2
0.0042907999999997,0.0075498000000012,-0.0095572,0.0030060000000005,-0.0069209999999992,0.0004182,0,sub_2
0.0038497999999997,0.0081062000000012,-0.0093766,0.0012922000000005,-0.0084063999999992,0.0004082,0,sub_2
0.0041205999999997,0.0078366000000012,-0.0092552,-0.0004175999999994,-0.0094639999999992,-2.959999999999791e-05,0,sub_2
0.0037805999999997,0.0082522000000012,-0.0098066,-0.0012623999999994,-0.0077555999999992,-0.0002511999999999,0,sub_2
0.0028877999999997,0.0082540000000012,-0.009753,-0.0012111999999994,-0.0060397999999992,-4.019999999999791e-05,0,sub_2
0.0026757999999997,0.0086560000000012,-0.0087812,-0.0011627999999994,-0.0051751999999992,-4.179999999999791e-05,0,sub_2
0.0028913999999997,0.0083504000000012,-0.0090124,0.0003840000000005,-0.0038871999999992,-0.0006743999999999,0,sub_2
0.0028733999999997,0.0091092000000012,-0.0094556,0.0027844000000005,-0.0021777999999992,-0.0008743999999999,0,sub_2
0.0029521999999997,0.0088050000000012,-0.0093352,0.0047570000000005,-0.0008921999999992,-0.0012905999999999,0,sub_2
0.0046613999999997,0.0084094000000012,-0.0085258,0.0056182000000005,0.0003850000000007,-0.0017135999999999,0,sub_2
0.0048153999999997,0.0084680000000012,-0.0087786,0.0054126000000005,0.0023024000000007,-0.0015037999999999,0,sub_2
0.0046507999999997,0.0094360000000012,-0.0084554,0.0041344000000005,0.0035818000000007,-0.0006597999999999,0,sub_2
0.0045565999999997,0.0103748000000012,-0.008576,0.0024652000000005,0.0042340000000007,0.0001792,0,sub_2
0.0042251999999997,0.0121548000000012,-0.00892,0.0027146000000005,0.0053022000000007,0.0018858,0,sub_2
0.0012981999999997,0.0133462000000012,-0.008781,0.0059666000000005,0.0099810000000007,0.0038224,0,sub_2
-0.0010348000000002,0.0121018000000012,-0.0063914,0.0117934000000005,0.0159368000000007,0.0038524,0,sub_2
-0.0033812000000002,0.0102324000000012,-0.0030864,0.0193300000000005,0.0204038000000007,0.0017598,0,sub_2
-0.0046610000000002,0.0073958000000012,-0.0010126,0.0259802000000005,0.0244440000000007,-0.0020443999999999,0,sub_2
-0.0033700000000002,0.0043592000000012,-0.0007332,0.0268682000000005,0.0261692000000007,-0.0080223999999999,0,sub_2
0.0025193999999997,0.0015304000000012,-0.0029664,0.0219768000000005,0.0230178000000007,-0.0148891999999999,0,sub_2
0.0086155999999997,0.0005290000000012,-0.0073344,0.0109016000000005,0.0230746000000007,-0.0194531999999999,0,sub_2
0.0162241999999997,0.0025092000000012,-0.0153498,-0.0020625999999994,0.0267450000000007,-0.0208323999999999,0,sub_2
0.0226479999999997,0.0052344000000012,-0.022327,-0.0118501999999994,0.0284732000000007,-0.0187687999999999,0,sub_2
0.0263431999999997,0.0076676000000012,-0.0273536,-0.0146127999999994,0.0293136000000007,-0.0138775999999999,0,sub_2
0.0232191999999997,0.0082710000000012,-0.0283318,-0.0107769999999994,0.0275698000000007,-0.0078685999999999,0,sub_2
0.0202501999999997,0.0090076000000012,-0.029088,-0.0003575999999994,0.0183486000000007,-0.0024449999999999,0,sub_2
0.0165757999999997,0.0068094000000012,-0.0268426,0.0102296000000005,0.0040216000000007,0.0014928,0,sub_2
0.0116811999999997,0.0048926000000012,-0.0228342,0.0161272000000005,-0.0104969999999991,0.0041164,0,sub_2
0.0072409999999997,0.0031078000000012,-0.01888,0.0164888000000005,-0.0230761999999991,0.0060578,0,sub_2
0.0058135999999997,0.0041346000000012,-0.0159156,0.0109254000000005,-0.0292377999999991,0.0079462,0,sub_2
0.0036075999999997,0.0053836000000012,-0.0120802,0.0015492000000005,-0.0296317999999992,0.0093734,0,sub_2
0.0011049999999997,0.0074060000000012,-0.0081952,-0.0071621999999994,-0.0257619999999992,0.0095178,0,sub_2
-0.0005792000000002,0.0087344000000012,-0.0059256,-0.0116001999999994,-0.0221141999999992,0.0081968,0,sub_2
-0.0017900000000002,0.0095572000000012,-0.003715,-0.0119879999999994,-0.0206059999999992,0.0056252,0,sub_2
-0.0024898000000002,0.0092144000000012,-0.00339,-0.0096245999999994,-0.0205995999999992,0.0020098,0,sub_2
-0.0027536000000002,0.0083096000000012,-0.0041954,-0.0061971999999994,-0.0212361999999992,-0.0015973999999999,0,sub_2
-0.0011594000000002,0.0070500000000012,-0.0060892,-0.0040475999999994,-0.0224937999999992,-0.0039325999999999,0,sub_2
0.0015019999999997,0.0066494000000012,-0.008651,-0.0050967999999994,-0.0216163999999992,-0.0045837999999999,0,sub_2
0.0043225999999997,0.0075380000000012,-0.012007,-0.0084843999999994,-0.0171157999999992,-0.0035469999999999,0,sub_2
0.0063441999999997,0.0092984000000012,-0.014896,-0.0114567999999994,-0.0128391999999992,-0.0001567999999999,0,sub_2
0.0077851999999997,0.0109176000000012,-0.0173258,-0.0125211999999994,-0.0109143999999992,0.003677,0,sub_2
0.0069439999999997,0.0123854000000012,-0.0180836,-0.0101961999999994,-0.0124275999999992,0.0071134,0,sub_2
0.0047147999999997,0.0130396000000012,-0.0169632,-0.0046733999999994,-0.0154399999999992,0.0097196,0,sub_2
0.0005095999999997,0.0123512000000012,-0.0137828,0.0034174000000005,-0.0182421999999992,0.010848,0,sub_2
-0.0035118000000002,0.0113910000000012,-0.0095778,0.0123702000000005,-0.0199675999999992,0.0102701999999999,0,sub_2
-0.0068438000000002,0.0100884000000012,-0.0011734,0.0211210000000005,-0.0191357999999991,0.0096877999999999,0,sub_2
-0.0101706000000002,0.0082938000000012,0.0081337999999999,0.0282062000000005,-0.0104097999999991,0.0078017999999999,0,sub_2
-0.0142870000000002,0.0067018000000012,0.0193315999999999,0.0323416000000005,0.0019674000000007,0.0011903999999999,0,sub_2
-0.0140664000000002,0.0057128000000012,0.0259341999999999,0.0313848000000005,0.0156612000000007,-0.0105858,0,sub_2
-0.0107726000000002,0.0043656000000012,0.0275593999999999,0.0223276000000005,0.0264082000000007,-0.0262587999999999,0,sub_2
-0.0007140000000002,0.0024442000000012,0.0130875999999999,0.0036544000000005,0.0325076000000007,-0.0434885999999999,0,sub_2
0.0153427999999997,0.0033568000000012,-0.0108942,-0.0242339999999994,0.0360568000000007,-0.0543701999999999,0,sub_2
0.0335409999999997,0.0027676000000012,-0.0406076,-0.0551567999999994,0.0478342000000007,-0.0528769999999999,0,sub_2
0.0416251999999997,0.0007772000000012,-0.0642182,-0.0752455999999994,0.0629262000000007,-0.0372117999999999,0,sub_2
0.0455929999999997,0.0038286000000012,-0.0817338,-0.0717121999999994,0.0742726000000007,-0.0111217999999999,0,sub_2
0.0350683999999997,0.0149008000000012,-0.073189,-0.0422529999999994,0.0693070000000007,0.022434,0,sub_2
0.0103505999999997,0.0207504000000012,-0.0504746,0.0044606000000005,0.0472794000000007,0.0454502,0,sub_2
-0.0100674000000002,0.0243736000000012,-0.0202208,0.0583792000000005,-0.0138465999999992,0.0467598,0,sub_2
-0.0184814000000002,0.0198640000000012,0.0059543999999999,0.0903176000000005,-0.0901767999999992,0.0331938,0,sub_2
-0.0184778000000002,0.0056998000000012,0.0230657999999999,0.0831794000000005,-0.1333149999999992,0.0114074,0,sub_2
