userAcceleration.x,userAcceleration.y,userAcceleration.z,rotationRate.x,rotationRate.y,rotationRate.z,label,subject
-0.0033406000000002,0.0012610000000012,0.0034634,-0.0025033999999995,-0.0165119999999993,0.0040291999999999,0,sub_13
-0.0034516000000002,0.0002028000000012,0.0037056,-0.0037739999999995,-0.0139525999999993,0.0044443999999998,0,sub_13
-0.0034974000000002,-0.0006627999999987,0.0031272,-0.0043667999999995,-0.0103045999999993,0.0029171999999998,0,sub_13
-0.0038132000000002,4.720000000122543e-05,0.0022772,-0.0047365999999995,-0.0053755999999993,0.0005353999999999,0,sub_13
-0.0028664000000002,-0.0003287999999987,3.380000000000492e-05,-0.0050929999999995,0.0014752000000006,-0.002917,0,sub_13
-0.0023352000000002,8.780000000122548e-05,-0.0013279999999999,-0.0043873999999995,0.0076812000000006,-0.005934,0,sub_13
-0.0019016000000002,0.0011470000000012,-0.0028553999999999,-0.0028359999999995,0.0126042000000006,-0.008516,0,sub_13
-0.0015184000000002,0.0022932000000012,-0.0039965999999999,-0.0017529999999995,0.0151614000000006,-0.0095798,0,sub_13
-0.0010654000000002,0.0023128000000012,-0.0056869999999999,-0.0011129999999995,0.0155836000000006,-0.0091484,0,sub_13
0.0001735999999997,0.0017638000000012,-0.0053781999999999,0.0001432000000004,0.0134358000000006,-0.0059322,0,sub_13
0.0002355999999997,0.0016168000000012,-0.0041829999999999,0.0009824000000004,0.0108634000000005,-0.0014562,0,sub_13
-0.0006054000000002,0.0015924000000012,-0.0022191999999999,0.0016168000000004,0.0099970000000005,0.0028023999999999,0,sub_13
-0.0019946000000002,0.0022172000000012,-0.0003509999999999,0.0026838000000004,0.0093464000000005,0.0059953999999999,0,sub_13
-0.0040732000000002,0.0021468000000012,0.0019252,0.0031308000000004,0.0114744000000005,0.0074713999999999,0,sub_13
-0.0059914000000001,0.0015544000000012,0.001895,0.0018852000000004,0.0144700000000005,0.0065843999999999,0,sub_13
-0.0071222000000002,0.0010044000000012,0.0006016,0.0016910000000004,0.0168220000000005,0.0046571999999999,0,sub_13
-0.0068122000000001,0.0015086000000012,-0.0001555999999999,0.0008470000000004,0.0168336000000006,0.0025147999999999,0,sub_13
-0.0073286000000001,0.0016426000000012,-0.0010809999999999,-0.0008485999999995,0.0174864000000005,0.0005793999999999,0,sub_13
-0.0058744000000001,0.0016740000000012,-0.0017829999999999,-0.0019083999999995,0.0157848000000005,-7.940000000006907e-05,0,sub_13
-0.0059344000000001,0.0025326000000012,-0.0017453999999999,-0.0021137999999995,0.0140810000000005,-0.0009456,0,sub_13
-0.0051756000000001,0.0027858000000012,-0.0019071999999999,-0.0023161999999995,0.0125920000000005,-0.0022396,0,sub_13
-0.0058348000000001,0.0025874000000012,-0.0024347999999999,-0.0008191999999995,0.0102414000000005,-0.002666,0,sub_13
-0.0049386000000001,0.0021278000000012,-0.0017581999999999,-0.0003947999999995,0.0074650000000005,-0.0022448,0,sub_13
-0.0058424000000001,0.0021086000000012,-0.001511,1.760000000047847e-05,0.0040556000000005,-0.0024512,0,sub_13
-0.0055362000000001,0.0031246000000011,-0.0003546,0.0002098000000004,0.0004288000000005,-0.001377,0,sub_13
-0.0061474000000001,0.0042806000000011,0.0014543999999999,-0.0004437999999995,-0.0012783999999994,-9.740000000006888e-05,0,sub_13
-0.0054062000000001,0.0043678000000011,0.0017175999999999,-0.0008653999999995,-0.0019193999999993,0.0009675999999999,0,sub_13
-0.0049534000000002,0.0042394000000011,0.0013907999999999,-0.0008687999999995,-0.0046913999999993,0.0018245999999999,0,sub_13
-0.0044834000000002,0.0038134000000012,0.0013138,-0.0015161999999995,-0.0078891999999993,0.0031049999999999,0,sub_13
-0.0041926000000001,0.0026152000000012,0.001172,-0.0023661999999995,-0.0093791999999993,0.0037405999999999,0,sub_13
-0.0038012000000001,0.0021482000000012,0.0012474,-0.0030067999999995,-0.0119343999999993,0.0041653999999999,0,sub_13
-0.0041926000000001,0.0022684000000012,0.001288,-0.0042907999999995,-0.0127819999999993,0.0041573999999999,0,sub_13
-0.0046964000000001,0.0012328000000012,0.0006876,-0.0051299999999995,-0.0104321999999993,0.0032937999999999,0,sub_13
-0.0041590000000001,0.0004758000000012,-0.0008385999999999,-0.0053211999999995,-0.0068043999999993,0.0020057999999999,0,sub_13
-0.0049476000000001,0.0013066000000012,-0.0019889999999999,-0.0031587999999995,-0.0059273999999993,-0.000117,0,sub_13
-0.0054758000000001,0.0027908000000012,-0.0020236,-0.0016499999999995,-0.0073941999999993,-0.0016004,0,sub_13
-0.0046252000000001,0.0034558000000012,-0.0016096,-0.0016385999999995,-0.0094959999999993,-0.0028798,0,sub_13
-0.0027094000000001,0.0040990000000012,-0.0016444,-0.0016299999999995,-0.0113879999999993,-0.003305,0,sub_13
-0.0013328000000002,0.0044042000000012,-0.0007981999999999,-0.0012005999999995,-0.0130743999999993,-0.002232,0,sub_13
-3.660000000021437e-05,0.0028728000000012,-3.3399999999995154e-05,-0.0018493999999995,-0.0128675999999993,-0.0001004,0,sub_13
0.0008391999999998,0.0012700000000012,0.0002504,-0.0018465999999995,-0.0103185999999993,0.0018189999999999,0,sub_13
7.439999999980553e-05,0.0009224000000012,0.0007474,-0.0020551999999995,-0.0084037999999993,0.0026695999999999,0,sub_13
-0.0017418000000001,0.0021770000000012,0.00058,-0.0016057999999995,-0.0064909999999993,0.0026797999999999,0,sub_13
-0.0025116000000001,0.0019960000000012,-0.0001137999999999,-0.0009495999999995,-0.0064947999999993,0.0022665999999999,0,sub_13
-0.0020432000000001,0.0027136000000012,-0.0003051999999999,-0.0009423999999995,-0.0084137999999993,0.0018511999999999,0,sub_13
-0.0032140000000001,0.0028776000000012,-0.0010319999999999,-0.0017903999999995,-0.0103315999999993,0.0018571999999999,0,sub_13
-0.0038734000000001,0.0023158000000012,-0.0022795999999999,-0.0017599999999995,-0.0077739999999993,0.0007951999999999,0,sub_13
-0.0028090000000001,0.0009874000000012,-0.0024519999999999,-0.0011007999999995,-0.0047883999999993,-0.000486,0,sub_13
-0.0016142000000001,0.0017622000000012,-0.0021035999999999,-0.0002357999999995,-0.0028713999999993,-0.0011234,0,sub_13
-0.0014100000000001,0.0020760000000012,-0.0017835999999999,-1.179999999954143e-05,-0.0007407999999993,-0.0013382,0,sub_13
-0.0005470000000001,0.0021578000000012,-0.0016379999999999,0.0006580000000004,0.0034862000000005,-0.0017652,0,sub_13
-0.0007172000000002,0.0027020000000012,-0.0004623999999999,0.0017362000000004,0.0053614000000005,-0.000477,0,sub_13
-0.0021002000000002,0.0036422000000012,-0.0007219999999999,0.0017362000000004,0.0042592000000005,0.0003799999999999,0,sub_13
-0.0033070000000002,0.0024704000000012,-0.0005129999999999,-0.0003871999999995,0.0044472000000005,0.0001523999999999,0,sub_13
-0.0044440000000002,0.0018174000000012,-0.0012425999999999,-0.0012187999999995,0.0059140000000005,-0.0013498,0,sub_13
-0.0048834000000002,0.0009774000000012,-0.0011477999999999,-0.0003585999999995,0.0052804000000005,-0.0034794,0,sub_13
-0.0051180000000002,0.0016396000000012,-0.0013143999999999,7.300000000047842e-05,0.0044344000000005,-0.0053982,0,sub_13
-0.0042560000000002,0.0014682000000012,-0.0009357999999999,-0.0003451999999995,0.0055046000000005,-0.006257,0,sub_13
-0.0039394000000002,0.0018530000000012,-0.0007375999999999,-0.0001201999999995,0.0069994000000005,-0.0073256,0,sub_13
-0.0035544000000002,0.0020736000000012,-0.0010651999999999,0.0003124000000004,0.0065422000000005,-0.0075334,0,sub_13
-0.0030568000000001,0.0035072000000012,-0.0022751999999999,0.0003132000000004,0.0054456000000005,-0.0073162,0,sub_13
-0.0013598000000001,0.0033882000000012,-0.0025169999999999,-0.0001165999999995,0.0037106000000006,-0.0068876,0,sub_13
-0.0004734000000002,0.0027204000000012,-0.0013253999999999,-0.0009795999999995,0.0015466000000006,-0.0053932,0,sub_13
-0.0009384000000001,0.0029706000000012,-0.0016375999999999,-0.0016283999999995,1.940000000060648e-05,-0.003471,0,sub_13
-0.0015664000000001,0.0025908000000012,-0.0015511999999999,-0.0035391999999995,0.0027934000000006,-0.002847,0,sub_13
-0.0018354000000002,0.0013482000000012,-0.0021103999999999,-0.0043791999999995,0.0059914000000005,-0.0026434,0,sub_13
-0.0020536000000002,0.0002360000000012,-0.0027691999999999,-0.0030781999999995,0.0074786000000005,-0.0032802,0,sub_13
-0.0039778000000001,0.0006894000000012,-0.0031521999999999,-0.0013437999999995,0.0093948000000005,-0.0049828,0,sub_13
-0.0051734000000002,0.0017912000000012,-0.0033077999999999,0.0001790000000004,0.0108890000000005,-0.0075408,0,sub_13
-0.0051940000000002,0.0028588000000011,-0.0029087999999999,0.0018942000000004,0.0087564000000005,-0.0090248,0,sub_13
-0.0045828000000002,0.0036612000000011,-0.0024969999999999,0.0014690000000004,0.0062008000000006,-0.0094548,0,sub_13
-0.0038080000000002,0.0037642000000011,-0.0019029999999999,-0.0004589999999995,0.0051398000000006,-0.008826,0,sub_13
-0.0027678000000002,0.0036768000000011,-0.0016695999999999,-0.0019535999999995,0.0055686000000006,-0.0081962,0,sub_13
-0.0022122000000002,0.0026740000000011,-0.0021733999999999,-0.0023687999999995,0.0085512000000006,-0.0077756,0,sub_13
-0.0025734000000002,0.0019316000000012,-0.0024937999999999,-0.0017111999999995,0.0113320000000006,-0.0062814,0,sub_13
-0.0038622000000002,0.0019512000000012,-0.0014971999999999,-0.0014851999999995,0.0130492000000006,-0.0047888,0,sub_13
-0.0057030000000002,0.0022702000000012,-0.0014123999999999,-0.0010457999999995,0.0141290000000006,-0.0039348,0,sub_13
-0.0060502000000002,0.0024938000000012,-0.0013063999999999,-0.0006139999999995,0.0132922000000006,-0.003292,0,sub_13
-0.0062458000000002,0.0027996000000012,-0.0005193999999999,-0.0006117999999995,0.0118178000000006,-0.0026516,0,sub_13
-0.0057014000000002,0.0030992000000012,-0.0005713999999999,-0.0003945999999995,0.0122448000000006,-0.0030778,0,sub_13
-0.0039746000000002,0.0027156000000012,-0.0011727999999999,-0.0001677999999995,0.0143780000000006,-0.0039336,0,sub_13
-0.0024598000000002,0.0023600000000011,-0.0011021999999999,-0.0005935999999995,0.0150170000000006,-0.0035102,0,sub_13
-0.0018584000000002,0.0023906000000011,-0.0008437999999999,-0.0001651999999995,0.0150284000000006,-0.0017994,0,sub_13
-0.0017386000000002,0.0024174000000011,-0.0006695999999999,0.0004612000000004,0.0126912000000006,0.0009839999999999,0,sub_13
-0.0016384000000002,0.0025368000000011,-0.0001893999999999,-0.0008249999999995,0.0116408000000006,0.0033249999999999,0,sub_13
-0.0022548000000002,0.0015798000000012,-0.0005493999999999,-0.0018901999999995,0.0112330000000006,0.0045983999999999,0,sub_13
-0.0036068000000002,0.0010898000000012,-0.0011827999999999,-0.0014443999999995,0.0125328000000006,0.0037439999999999,0,sub_13
-0.0048130000000002,0.0002362000000012,-0.0009839999999999,-0.0003621999999995,0.0136038000000006,0.0013999999999999,0,sub_13
-0.0051692000000002,-7.239999999875463e-05,-0.0002671999999999,-0.0007705999999995,0.0151068000000006,-0.0011686,0,sub_13
-0.0059300000000002,6.30000000012454e-05,-0.0007247999999999,-0.0011799999999995,0.0159724000000006,-0.0041636,0,sub_13
-0.0059772000000002,0.0011408000000012,-0.0008695999999999,-0.0009565999999995,0.0144934000000006,-0.0065012,0,sub_13
-0.0049210000000002,0.0023634000000012,-0.0007891999999999,-0.0020335999999995,0.0100302000000006,-0.0073488,0,sub_13
-0.0038528000000002,0.0033132000000012,-0.0018611999999999,-0.0039677999999995,0.0062030000000006,-0.0067076,0,sub_13
-0.0025226000000002,0.0029052000000012,-0.0023065999999999,-0.0037673999999995,0.0034304000000006,-0.0051982,0,sub_13
-0.0020504000000001,0.0030566000000012,-0.0015609999999999,-0.0027211999999995,-0.0004129999999993,-0.0030406,0,sub_13
-0.0018850000000001,0.0036244000000012,-7.459999999999524e-05,-0.0025229999999995,-0.0019127999999993,-0.0011144,0,sub_13
-0.0024198000000001,0.0033196000000012,0.0001684,-0.0025297999999995,-0.0019187999999993,0.0003811999999999,0,sub_13
-0.0026718000000001,0.0018366000000012,9.680000000000487e-05,-0.0031785999999995,-0.0027729999999993,0.0014459999999999,0,sub_13
-0.0036392000000001,0.0017340000000012,-0.0006097999999999,-0.0044507999999995,-0.0027763999999993,0.0012413999999999,0,sub_13
-0.0041192000000001,0.0012850000000012,-0.0008947999999999,-0.0048675999999995,-0.0027809999999993,0.0006153999999999,0,sub_13
-0.0046746000000001,0.0009464000000012,-0.0016013999999999,-0.0048585999999995,-0.0034245999999993,-0.0004342,0,sub_13
-0.0046900000000001,0.0008796000000012,-0.0019187999999999,-0.0046313999999995,-0.0032157999999993,-0.001697,0,sub_13
-0.0043924000000001,0.0011554000000012,-0.0019617999999999,-0.0043965999999995,-0.0019391999999993,-0.003602,0,sub_13
-0.0038628000000001,0.0012248000000012,-0.0022039999999999,-0.0043899999999995,-0.0019331999999993,-0.0050976,0,sub_13
-0.0029648000000001,0.0014592000000012,-0.0029221999999999,-0.0037451999999995,-0.0017189999999993,-0.005948,0,sub_13
-0.0025984000000001,0.0018336000000012,-0.0018481999999999,-0.0026831999999995,-0.0023635999999993,-0.0055124,0,sub_13
-0.0026244000000002,0.0024006000000012,-0.0011739999999999,-0.0016049999999995,-0.0011155999999993,-0.0050534,0,sub_13
-0.0032076000000002,0.0029908000000012,-0.0006489999999999,-0.0020127999999995,0.0012054000000006,-0.005247,0,sub_13
-0.0036966000000002,0.0035164000000012,-0.0009623999999999,-0.0022109999999995,0.0028856000000006,-0.0052246,0,sub_13
-0.0042110000000002,0.0028658000000012,-0.0005719999999999,-0.0030627999999995,0.0022220000000006,-0.004563,0,sub_13
-0.0054142000000002,0.0025386000000012,-0.0009425999999999,-0.0041221999999995,0.0017764000000006,-0.0049714,0,sub_13
-0.0049022000000002,0.0026368000000012,-0.0012113999999999,-0.0047699999999995,-0.0003501999999993,-0.0054004,0,sub_13
-0.0044942000000002,0.0031640000000012,-0.0014625999999999,-0.0041317999999995,-0.0009907999999993,-0.0056088,0,sub_13
-0.0042964000000002,0.0031738000000012,-0.0006431999999999,-0.0043393999999995,0.0007126000000005,-0.0051852,0,sub_13
-0.0045940000000002,0.0030900000000012,0.0006596,-0.0028271999999995,0.0044924000000005,-0.0040892,0,sub_13
-0.0052962000000002,0.0022818000000012,0.0010688,-0.0028113999999995,0.0093360000000005,-0.001296,0,sub_13
-0.0062524000000001,0.0009252000000012,0.000805,-0.0021515999999995,0.0146052000000005,0.0010737999999998,0,sub_13
-0.0074840000000001,0.0002738000000012,0.0005524,-0.0002269999999995,0.0156124000000005,0.0026033999999998,0,sub_13
-0.0075766000000001,0.0006106000000012,0.0001124,0.0014804000000004,0.0144948000000005,0.0028523999999998,0,sub_13
-0.0072262000000001,0.0015384000000012,-0.0001669999999999,0.0006242000000004,0.0130098000000005,0.0019935999999998,0,sub_13
-0.0056384000000001,0.0019222000000012,-0.0002953999999999,0.0014766000000004,0.0108840000000005,7.959999999991073e-05,0,sub_13
-0.0049128000000001,0.0025360000000012,0.0006102,0.0016850000000004,0.0087570000000005,-0.0009844,0,sub_13
-0.0033738000000002,0.0027866000000012,0.001574,0.0010490000000004,0.0076378000000005,-0.0013972,0,sub_13
-0.0022398000000002,0.0025890000000012,0.0020592,0.0010378000000004,0.0048052000000006,-9.440000000004932e-05,0,sub_13
-0.0013666000000001,0.0014758000000012,0.0016794,0.0008152000000004,0.0030362000000006,0.0018465999999999,0,sub_13
-0.0012206000000001,0.0005184000000012,0.0014528,0.0008136000000004,0.0027586000000005,0.0035733999999999,0,sub_13
-0.0019780000000001,0.0009294000000012,0.0020132,0.0010254000000004,0.0022680000000005,0.0050883999999998,0,sub_13
-0.0036238000000001,0.0022618000000012,0.0028244,0.0012274000000004,0.0005594000000005,0.0059465999999998,0,sub_13
-0.0047038000000001,0.0015922000000012,0.0037221999999999,0.0010064000000004,-0.0009319999999994,0.0061605999999998,0,sub_13
-0.0054356000000001,0.0013908000000012,0.0037747999999999,0.0001308000000004,-0.0054047999999994,0.0065875999999998,0,sub_13
-0.0059804000000001,0.0011648000000012,0.0041319999999999,-0.0007283999999995,-0.0097003999999994,0.0061749999999999,0,sub_13
-0.0055698000000001,0.0004452000000012,0.0041663999999999,-0.0007283999999995,-0.0129327999999993,0.0055533999999999,0,sub_13
-0.0052618000000001,-0.0006829999999987,0.0036931999999999,-0.0009409999999995,-0.0148903999999993,0.0059969999999999,0,sub_13
-0.0059176000000001,-0.0001875999999987,0.0037475999999999,-0.0022041999999995,-0.0147077999999993,0.0049349999999999,0,sub_13
-0.0056072000000001,-0.0002059999999987,0.0022753999999999,-0.0021639999999995,-0.0111139999999993,0.0021683999999999,0,sub_13
-0.0045828000000001,0.0005472000000012,0.0009073999999999,-0.0021515999999995,-0.0100419999999993,0.0004579999999999,0,sub_13
-0.0044238000000001,0.0014102000000012,-0.0004126,-0.0023717999999995,-0.0125935999999993,-0.0006084,0,sub_13
-0.0039358000000001,0.0020092000000012,-0.0007879999999999,-0.0021669999999995,-0.0147239999999993,-0.000818,0,sub_13
-0.0025836000000002,0.0018950000000012,-0.0009959999999999,-0.0013001999999995,-0.0153891999999993,-0.0007934,0,sub_13
-0.0026614000000002,0.0024838000000012,-9.13999999999952e-05,-0.0017155999999995,-0.0158393999999993,-0.000137,0,sub_13
-0.0033276000000002,0.0026312000000011,0.0001032,-0.0010553999999995,-0.0148001999999993,9.759999999993056e-05,0,sub_13
-0.0017522000000002,0.0019052000000011,0.0005552,0.0002458000000004,-0.0133381999999993,0.0005497999999999,0,sub_13
-0.0003884000000002,0.0016684000000011,-0.0002491999999999,-0.0005847999999995,-0.0118667999999993,0.0005597999999999,0,sub_13
-0.0003596000000002,0.0022154000000011,-0.0009405999999999,5.440000000045827e-05,-0.0105965999999993,0.0020581999999999,0,sub_13
1.4599999999785488e-05,0.0019742000000011,-0.0005401999999999,0.0019690000000004,-0.0097595999999993,0.0042069999999999,0,sub_13
-0.0002864000000002,0.0015908000000011,3.6400000000024697e-05,0.0023832000000004,-0.0101965999999993,0.0065605999999999,0,sub_13
-0.0028110000000002,0.0012442000000012,0.0003066,0.0024170000000004,-0.0061713999999993,0.0072173999999998,0,sub_13
-0.0038518000000002,0.0007716000000012,0.001483,0.0033224000000004,0.0004132000000006,0.0063813999999998,0,sub_13
-0.0041254000000002,-7.119999999877437e-05,0.00182,0.0040202000000004,0.0067916000000006,0.0040485999999999,0,sub_13
-0.0048038000000002,0.0006012000000012,0.0021806,0.0047006000000004,0.0103960000000006,0.0027873999999999,0,sub_13
-0.0055514000000002,0.0007292000000012,0.0018204,0.0053888000000004,0.0154928000000006,0.0013107999999999,0,sub_13
-0.0049134000000002,0.0009110000000012,0.0014488,0.0045516000000004,0.0186932000000006,0.0008733999999999,0,sub_13
-0.0048406000000002,0.0015814000000012,0.0010216,0.0045524000000004,0.0199674000000006,0.0019399999999999,0,sub_13
-0.0050438000000002,0.0018572000000012,0.0007578,0.0049772000000004,0.0214496000000005,0.0038639999999999,0,sub_13
-0.0046546000000002,0.0011554000000012,0.0007442,0.0056388000000004,0.0241828000000005,0.0043061999999999,0,sub_13
-0.0050314000000002,0.0018496000000012,0.0005654,0.0064916000000004,0.0235004000000005,0.0062495999999999,0,sub_13
-0.0057162000000002,0.0030608000000012,0.0012018,0.0071206000000004,0.0204752000000005,0.0081945999999999,0,sub_13
-0.0065064000000002,0.0027658000000012,0.001099,0.0073220000000004,0.0172384000000005,0.0101367999999999,0,sub_13
-0.0074152000000002,0.0028142000000012,0.0012514,0.0070936000000004,0.0129396000000006,0.0116497999999998,0,sub_13
-0.0086230000000001,0.0037414000000012,0.0016518,0.0060000000000004,0.0084632000000006,0.0131433999999998,0,sub_13
-0.0079990000000001,0.0039550000000012,0.0020082,0.0049082000000004,0.0033520000000006,0.0135695999999998,0,sub_13
-0.0081678000000001,0.0034652000000012,0.0018102,0.0031820000000004,-0.0011151999999993,0.0133495999999998,0,sub_13
-0.0074282000000001,0.0033924000000012,0.0015824,0.0018906000000004,-0.0055979999999993,0.0124907999999998,0,sub_13
-0.0063644000000001,0.0036006000000012,0.0012746,0.0010204000000004,-0.0109361999999993,0.0120633999999998,0,sub_13
-0.0052050000000002,0.0023886000000012,-4.379999999997533e-05,0.0001482000000004,-0.0162759999999993,0.0120631999999998,0,sub_13
-0.0047786000000002,0.0014308000000012,0.000446,-0.0013573999999995,-0.0194855999999993,0.0126967999999998,0,sub_13
-0.0045724000000002,0.0018450000000012,0.0007568,-0.0011531999999995,-0.0218497999999993,0.0135547999999998,0,sub_13
-0.0053410000000002,0.0028854000000012,0.0005806,-0.0011703999999995,-0.0252601999999993,0.0139863999999998,0,sub_13
-0.0057412000000002,0.0025694000000012,-4.7799999999995416e-05,-0.0028935999999995,-0.0290881999999993,0.0137655999999998,0,sub_13
-0.0065526000000002,0.0030714000000012,-0.0006258,-0.0037663999999995,-0.0344071999999993,0.0126981999999999,0,sub_13
-0.0050886000000002,0.0030996000000012,-0.0015003999999999,-0.0035657999999995,-0.0403513999999993,0.0112077999999999,0,sub_13
-0.0034758000000002,0.0031768000000012,-0.0019725999999999,-0.0037967999999995,-0.0458737999999993,0.0112093999999999,0,sub_13
-0.0012658000000002,0.0027330000000012,-0.0018355999999999,-0.0046573999999994,-0.0488383999999993,0.0114167999999999,0,sub_13
0.0009075999999997,0.0027302000000012,-0.0017845999999999,-0.0053103999999994,-0.0513843999999993,0.0133343999999999,0,sub_13
0.0024227999999997,0.0034150000000012,-0.0016055999999999,-0.0048935999999995,-0.0518095999999993,0.0167521999999999,0,sub_13
0.0015689999999997,0.0036888000000012,-0.0017145999999999,-0.0038295999999995,-0.0499059999999993,0.0193209999999999,0,sub_13
0.0003207999999997,0.0028896000000012,-0.0029407999999999,-0.0027559999999995,-0.0479939999999993,0.0197531999999999,0,sub_13
-0.0010476000000002,0.0017470000000012,-0.0025269999999999,-0.0014699999999995,-0.0462955999999993,0.0201873999999999,0,sub_13
-0.0026576000000002,0.0016526000000012,-0.0016871999999999,-0.0003869999999995,-0.0439505999999993,0.0189099999999999,0,sub_13
-0.0024532000000001,0.0007730000000012,-0.0013305999999999,-0.0010001999999995,-0.0411373999999993,0.0161153999999999,0,sub_13
-0.0016720000000002,-8.839999999877426e-05,-0.0011023999999999,-0.0020383999999995,-0.0374721999999993,0.0137439999999999,0,sub_13
0.0001113999999997,-0.0012439999999987,-0.0004581999999999,-0.0017971999999995,-0.0329635999999993,0.0124487999999999,0,sub_13
0.0012155999999997,-0.0001629999999987,-7.759999999999556e-05,-0.0015617999999995,-0.0295211999999993,0.0113683999999999,0,sub_13
0.0014973999999997,0.0013458000000012,-0.0007257999999999,-0.0013031999999995,-0.0222385999999993,0.0090015999999999,0,sub_13
0.0030923999999997,0.0018534000000012,-0.0017321999999999,-0.0006103999999995,-0.0130691999999993,0.0064309999999999,0,sub_13
0.0047123999999997,0.0020776000000012,-0.0024329999999999,-0.0014263999999995,-0.0062425999999993,0.0049209999999999,0,sub_13
0.0050375999999997,0.0029128000000012,-0.0025201999999999,-0.0011985999999995,-0.0007163999999993,0.0048999999999999,0,sub_13
0.0037655999999997,0.0021342000000012,-0.0024856,-0.0009715999999995,0.0054456000000006,0.0057327999999999,0,sub_13
0.0021245999999997,0.0006156000000012,-0.001262,0.0007210000000004,0.0077580000000006,0.0089307999999999,0,sub_13
-0.0020490000000002,0.0014590000000011,0.0007665999999999,0.0017640000000004,0.0079420000000006,0.0121269999999999,0,sub_13
-0.0058408000000002,0.0024096000000011,0.0018095999999999,0.0032452000000004,0.0085592000000006,0.0131893999999999,0,sub_13
-0.0085024000000002,0.0022994000000011,0.0020969999999999,0.0017564000000004,0.0083566000000006,0.0118973999999999,0,sub_13
-0.0095564000000002,9.140000000118568e-05,0.0017636,0.0011172000000004,0.0062378000000006,0.0095455999999999,0,sub_13
-0.0096556000000002,-0.0013533999999988,0.0024124,0.0002656000000004,0.0032718000000006,0.0061251999999999,0,sub_13
-0.0099948000000001,-0.0035915999999987,0.0037203999999999,-0.0001687999999995,0.0015662000000006,0.0022435999999999,0,sub_13
-0.0113160000000001,-0.0031393999999987,0.0039883999999999,-0.0005877999999995,0.0026328000000006,-0.0022824,0,sub_13
-0.0114602000000001,-0.0025207999999987,0.0043771999999999,-0.0005637999999995,0.0056222000000006,-0.0085168,0,sub_13
-0.0105882000000001,-0.0006411999999987,0.0035743999999999,-0.0018209999999995,0.0084030000000006,-0.01476,0,sub_13
-0.0085798000000001,0.0004802000000012,0.0007625999999999,-0.0026475999999995,0.0120344000000006,-0.0210012,0,sub_13
-0.0053490000000002,0.0008332000000012,-0.0022905999999999,-0.0021987999999995,0.0120526000000006,-0.0259118,0,sub_13
