userAcceleration.x,userAcceleration.y,userAcceleration.z,rotationRate.x,rotationRate.y,rotationRate.z,label,subject
-0.0131870000000002,0.0055046000000012,-0.031766,0.0092084000000004,-0.0027441999999991,-0.0096862,0,sub_18
-0.0109018000000002,0.0048976000000012,-0.033654,0.0068506000000004,-0.0052917999999991,-0.009913,0,sub_18
-0.0099680000000002,0.0055878000000012,-0.035691,0.0051158000000004,-0.0114643999999991,-0.0099172,0,sub_18
-0.0097864000000002,0.0057764000000012,-0.0376818,0.0048786000000004,-0.0159411999999991,-0.0090586,0,sub_18
-0.0102664000000002,0.0062518000000012,-0.037813,0.0063578000000004,-0.0168079999999991,-0.0066972,0,sub_18
-0.0110606000000002,0.0060412000000012,-0.0372164,0.0093326000000004,-0.0166173999999991,-0.0036856,0,sub_18
-0.0134712000000002,0.0072742000000012,-0.0367034,0.0116702000000004,-0.0153607999999991,-0.0002526,0,sub_18
-0.0165470000000002,0.0079090000000012,-0.035975,0.0135944000000004,-0.0113321999999991,0.0029603999999999,0,sub_18
-0.0188874000000002,0.0080172000000012,-0.0346824,0.0146736000000004,-0.0064441999999991,0.0050981999999999,0,sub_18
-0.0210442000000002,0.0078672000000012,-0.0328286,0.0157558000000004,-0.0028269999999991,0.0053147999999999,0,sub_18
-0.0228312000000002,0.0081502000000012,-0.0312356,0.0172666000000005,-0.0002703999999991,0.0040401999999999,0,sub_18
-0.0235894000000002,0.0073324000000012,-0.0290614,0.0190110000000005,0.0059106000000008,0.0019079999999999,0,sub_18
-0.0227006000000002,0.0061958000000012,-0.0277654,0.0205448000000005,0.0129438000000008,-1.3200000000001403e-05,0,sub_18
-0.0225714000000002,0.0064314000000012,-0.026756,0.0214300000000005,0.0178496000000008,-0.0021498,0,sub_18
-0.0218436000000002,0.0059336000000012,-0.0278674,0.0220892000000005,0.0197742000000008,-0.0044976,0,sub_18
-0.0204950000000002,0.0048086000000012,-0.0296604,0.0221122000000005,0.0227654000000008,-0.0066376,0,sub_18
-0.0191268000000002,0.0034054000000012,-0.0316898,0.0201976000000005,0.0232016000000008,-0.007506,0,sub_18
-0.0181138000000002,0.0031132000000012,-0.033319,0.0169902000000005,0.0217214000000008,-0.0075264,0,sub_18
-0.0165054000000002,0.0034376000000012,-0.0351304,0.0146382000000005,0.0221496000000008,-0.0060478,0,sub_18
-0.0154838000000002,0.0038878000000012,-0.0349486,0.0129256000000005,0.0238480000000008,-0.003071,0,sub_18
-0.0166336000000002,0.0054298000000012,-0.0343496,0.0120596000000004,0.0246888000000008,0.0005537999999999,0,sub_18
-0.0174782000000002,0.0077330000000012,-0.0342742,0.0105650000000005,0.0285128000000008,0.0045975999999999,0,sub_18
-0.0179954000000002,0.0097552000000012,-0.0339542,0.0088868000000005,0.0393666000000008,0.0090584,0,sub_18
-0.0189020000000002,0.0087230000000012,-0.0306422,0.0087118000000005,0.0517092000000008,0.012887,0,sub_18
-0.0202880000000002,0.0074452000000012,-0.0292242,0.0121526000000005,0.0597848000000008,0.0150372,0,sub_18
-0.0209602000000002,0.0068578000000012,-0.0290754,0.0134474000000005,0.0640370000000008,0.016109,0,sub_18
-0.0220882000000002,0.0041956000000012,-0.0282358,0.0132408000000005,0.0646804000000008,0.0152521999999999,0,sub_18
-0.0232856000000002,6.000000000128229e-05,-0.0292126,0.0093580000000005,0.0521364000000008,0.0120365999999999,0,sub_18
-0.0250990000000002,-0.0005779999999987,-0.0348224,-0.0003001999999994,0.0345070000000008,0.0068641999999999,0,sub_18
-0.0260538000000002,0.0011056000000012,-0.0393312,-0.0120653999999994,0.0234872000000008,0.0023095999999999,0,sub_18
-0.0264312000000002,0.0009718000000012,-0.0413152,-0.0189049999999994,0.0175594000000008,-0.001149,0,sub_18
-0.0258528000000002,0.0021452000000012,-0.0418408,-0.0205901999999994,0.0118460000000008,-0.0030768,0,sub_18
-0.0273874000000002,0.0058672000000012,-0.0398091999999999,-0.0175475999999994,0.0144220000000008,-0.0041276,0,sub_18
-0.0292114000000002,0.0110970000000012,-0.0366198,-0.0104155999999994,0.0257156000000008,-0.0043064,0,sub_18
-0.0312554000000002,0.0142194000000012,-0.0329074,-0.0009029999999995,0.0438212000000008,-0.0051182,0,sub_18
-0.0325030000000002,0.0138164000000012,-0.0305206,0.0103532000000004,0.0702290000000008,-0.0057148,0,sub_18
-0.0340182000000002,0.0121540000000012,-0.0296444,0.0200882000000004,0.1026008000000008,-0.005687,0,sub_18
-0.0330064000000002,0.0086418000000012,-0.0302704,0.0279038000000004,0.1358288000000008,-0.0050328,0,sub_18
-0.0285494000000002,0.0060502000000012,-0.02974,0.0341962000000004,0.1622452000000008,-0.0045942,0,sub_18
-0.0218318000000002,0.0017486000000012,-0.0325312,0.0353284000000004,0.1793078000000008,-0.0048206,0,sub_18
-0.0143824000000002,-0.0002617999999987,-0.0354254,0.0304354000000004,0.1831896000000008,-0.006995,0,sub_18
-0.0046028000000002,-0.0011549999999987,-0.0391558,0.0231712000000004,0.1781136000000008,-0.0100302,0,sub_18
0.0035673999999997,-0.0005785999999987,-0.0425058,0.0145788000000004,0.1634504000000008,-0.0119942,0,sub_18
0.0087831999999997,-0.0021865999999987,-0.0460324,0.0033808000000004,0.1398436000000008,-0.0128966,0,sub_18
0.0107127999999997,0.0002284000000012,-0.0470688,-0.0084171999999994,0.1093058000000008,-0.0129298,0,sub_18
0.0107267999999997,0.0029468000000012,-0.047987,-0.0178757999999994,0.0783286000000008,-0.0116642,0,sub_18
0.0070369999999997,0.0057474000000012,-0.047485,-0.0215743999999994,0.0471182000000008,-0.0103579999999999,0,sub_18
0.0044359999999997,0.0068294000000012,-0.0466314,-0.0203585999999994,0.0173820000000008,-0.0090193999999999,0,sub_18
0.0013089999999997,0.0078880000000012,-0.0449188,-0.0159115999999994,-0.0046987999999991,-0.0068135999999999,0,sub_18
-0.0017768000000002,0.0088246000000012,-0.0424016,-0.0074763999999994,-0.0232787999999991,-0.0030989999999999,0,sub_18
-0.0034206000000002,0.0096924000000012,-0.0401432,0.0015988000000005,-0.0422853999999991,0.0001934,0,sub_18
-0.0034766000000002,0.0090412000000012,-0.0397504,0.0083406000000004,-0.0585131999999991,0.0032521999999999,0,sub_18
-0.0039388000000002,0.0088240000000012,-0.0397606,0.0127572000000004,-0.0706813999999991,0.005435,0,sub_18
-0.0036992000000002,0.0079780000000012,-0.0411318,0.0153490000000004,-0.0807021999999991,0.007826,0,sub_18
-0.0034776000000002,0.0061368000000012,-0.043563,0.0160472000000004,-0.0849627999999991,0.0099827999999999,0,sub_18
-0.0041862000000002,0.0054716000000012,-0.0444274,0.0165532000000004,-0.0841111999999991,0.0125589999999999,0,sub_18
-0.0060018000000002,0.0051408000000012,-0.0433038,0.0157854000000004,-0.0824003999999991,0.0144841999999999,0,sub_18
-0.0086480000000002,0.0044868000000012,-0.0402334,0.0141700000000004,-0.0808935999999991,0.0149081999999999,0,sub_18
-0.0112096000000002,0.0052070000000012,-0.0370164,0.0126926000000004,-0.0787517999999991,0.0133995999999999,0,sub_18
-0.0132846000000002,0.0056586000000012,-0.0338594,0.0103818000000004,-0.0734061999999991,0.0105991999999999,0,sub_18
-0.0164220000000002,0.0045348000000012,-0.0310254,0.0076720000000004,-0.0625171999999991,0.0071479999999999,0,sub_18
-0.0200282000000002,0.0038466000000012,-0.0278,0.0053232000000004,-0.0453259999999991,0.0038921999999999,0,sub_18
-0.0218682000000002,0.0037930000000012,-0.0268376,0.0021322000000004,-0.0236651999999991,0.0025475999999999,0,sub_18
-0.0232458000000002,0.0021824000000012,-0.0270734,-0.0027713999999994,-0.0022157999999991,0.0022595999999999,0,sub_18
-0.0222486000000002,0.0017366000000012,-0.0280466,-0.0089753999999994,0.0141272000000008,0.001328,0,sub_18
-0.0181780000000002,0.0029596000000012,-0.03019,-0.0147783999999994,0.0242920000000008,-1.9999999999961197e-05,0,sub_18
-0.0139434000000002,0.0048062000000012,-0.0330188,-0.0186009999999994,0.0266558000000008,-0.0017587999999999,0,sub_18
-0.0104972000000002,0.0052546000000012,-0.0349906,-0.0199003999999994,0.0209138000000008,-0.0032559999999999,0,sub_18
-0.0075922000000002,0.0069168000000012,-0.0362492,-0.0193743999999994,0.0104744000000008,-0.0040939999999999,0,sub_18
-0.0065060000000002,0.0080682000000012,-0.0369746,-0.0175881999999994,-0.0018969999999991,-0.0023567999999999,0,sub_18
-0.0076644000000002,0.0092466000000012,-0.036153,-0.0136761999999994,-0.0147071999999991,0.0006773999999999,0,sub_18
-0.0083408000000002,0.0087382000000012,-0.0354342,-0.0080665999999994,-0.0283805999999991,0.0050065999999999,0,sub_18
-0.0107310000000002,0.0088346000000012,-0.0352594,-0.0028635999999994,-0.0384271999999991,0.0084737999999999,0,sub_18
-0.0132730000000002,0.0074898000000012,-0.034269,0.0024256000000005,-0.0459127999999991,0.0110841999999999,0,sub_18
-0.0161114000000002,0.0056736000000012,-0.0329808,0.0062374000000005,-0.0510445999999991,0.0123991999999999,0,sub_18
-0.0188938000000002,0.0045012000000012,-0.0331322,0.0068536000000004,-0.0561607999999991,0.0126237999999999,0,sub_18
-0.0212002000000002,0.0047890000000012,-0.0331932,0.0047122000000004,-0.0595553999999991,0.010904,0,sub_18
-0.0221396000000002,0.0048972000000012,-0.033313,0.0029458000000004,-0.0612421999999991,0.0085643999999999,0,sub_18
-0.0227812000000002,0.0044936000000012,-0.0345274,0.0014054000000004,-0.0595233999999991,0.0068627999999999,0,sub_18
-0.0225102000000002,0.0027922000000012,-0.035983,-0.0007721999999994,-0.0563143999999991,0.0060095999999999,0,sub_18
-0.0216858000000002,0.0008978000000012,-0.0363462,-0.0044569999999994,-0.0552341999999991,0.0060031999999999,0,sub_18
-0.0212330000000002,0.0024068000000012,-0.035478,-0.0072987999999994,-0.0556515999999991,0.0068591999999999,0,sub_18
-0.0211536000000002,0.0043254000000012,-0.0342208,-0.0087855999999994,-0.0533061999999991,0.0077003999999999,0,sub_18
-0.0209510000000002,0.0057216000000012,-0.0320014,-0.0089769999999994,-0.0488295999999991,0.0072661999999999,0,sub_18
-0.0209448000000002,0.0073552000000012,-0.0307928,-0.0076603999999994,-0.0428599999999991,0.0051313999999999,0,sub_18
-0.0206898000000002,0.0081458000000012,-0.0313318,-0.0065833999999994,-0.0343319999999991,0.0023625999999999,0,sub_18
-0.0196210000000002,0.0068574000000012,-0.0334928,-0.0072105999999994,-0.0251587999999991,-0.0004188,0,sub_18
-0.0170530000000002,0.0048868000000012,-0.0349036,-0.0080713999999994,-0.0200345999999991,-0.0027694,0,sub_18
-0.0151076000000002,0.0039264000000012,-0.037058,-0.0081063999999994,-0.0202431999999991,-0.0042528,0,sub_18
-0.0137640000000002,0.0036668000000012,-0.0382886,-0.0081605999999994,-0.0238639999999991,-0.0048773999999999,0,sub_18
-0.0125946000000002,0.0043972000000012,-0.0396268,-0.0077385999999994,-0.0255673999999991,-0.0055131999999999,0,sub_18
-0.0123728000000002,0.0046828000000012,-0.0402238,-0.0073137999999994,-0.0259949999999991,-0.0055097999999999,0,sub_18
-0.0126138000000002,0.0055550000000012,-0.0408538,-0.0065159999999994,-0.0279181999999991,-0.0057265999999999,0,sub_18
-0.0123884000000002,0.0062376000000012,-0.0419974,-0.0069975999999994,-0.0289871999999991,-0.0053125999999999,0,sub_18
-0.0117232000000002,0.0073892000000012,-0.0430576,-0.0072581999999994,-0.0283525999999991,-0.0048992,0,sub_18
-0.0104360000000002,0.0081498000000012,-0.0424216,-0.0066729999999994,-0.0294251999999991,-0.0044775999999999,0,sub_18
-0.0091990000000002,0.0079708000000012,-0.0421642,-0.0043911999999994,-0.0334839999999991,-0.0046811999999999,0,sub_18
-0.0098056000000002,0.0083958000000012,-0.0424114,-0.0020651999999994,-0.0375425999999991,-0.0040187999999999,0,sub_18
-0.0112064000000002,0.0075726000000012,-0.0404672,0.0028308000000005,-0.0392675999999991,-0.0031277999999999,0,sub_18
-0.0145156000000002,0.0065712000000012,-0.037303,0.0079528000000005,-0.0373747999999991,-0.0013853999999999,0,sub_18
-0.0195366000000002,0.0054420000000012,-0.0347342,0.0122356000000005,-0.0318587999999991,0.0007738,0,sub_18
-0.0249932000000002,0.0058696000000012,-0.032749,0.0131402000000004,-0.0180183999999991,0.0022493999999999,0,sub_18
-0.0268658000000002,0.0060126000000012,-0.0315302,0.0121582000000004,0.0018002000000008,0.0022085999999999,0,sub_18
-0.0263958000000002,0.0062906000000012,-0.0309142,0.0092588000000004,0.0212038000000008,0.0010867999999999,0,sub_18
-0.0236550000000002,0.0067272000000012,-0.0306252,0.0074156000000004,0.0378356000000008,-0.0004512,0,sub_18
-0.0209770000000002,0.0082550000000012,-0.0311462,0.0044882000000004,0.0514848000000008,-0.0011384,0,sub_18
-0.0175122000000002,0.0094206000000012,-0.0315576,0.0034434000000005,0.0582986000000008,0.0007683999999999,0,sub_18
-0.0142798000000002,0.0110280000000012,-0.0340234,0.0019496000000005,0.0623356000000008,0.0048119999999999,0,sub_18
-0.0101526000000002,0.0111300000000012,-0.0367872,0.0013038000000005,0.0641370000000008,0.0073453999999999,0,sub_18
-0.0060980000000002,0.0092334000000012,-0.0386084,0.0027486000000005,0.0540094000000008,0.0075585999999999,0,sub_18
-0.0041370000000002,0.0052678000000012,-0.0404086,0.0045722000000005,0.0315300000000008,0.0060811999999999,0,sub_18
-0.0039412000000002,0.0005688000000012,-0.0423894,0.0040496000000005,0.0099084000000008,0.0052271999999999,0,sub_18
-0.0089500000000002,-0.0018243999999987,-0.0414908,0.0056416000000005,-0.0157693999999991,0.0046067999999999,0,sub_18
-0.0151962000000002,-0.0036799999999987,-0.0385618,0.0072220000000005,-0.0430495999999991,0.0055073999999999,0,sub_18
-0.0215936000000002,-0.0043803999999987,-0.0364104,0.0045790000000005,-0.0581801999999991,0.0087129999999999,0,sub_18
-0.0253002000000002,-0.0019887999999987,-0.0326662,0.0015880000000005,-0.0558387999999991,0.0118935999999999,0,sub_18
-0.0285126000000002,0.0014738000000012,-0.0292712,-0.0011407999999994,-0.0484105999999991,0.0120514,0,sub_18
-0.0286582000000002,0.0026296000000012,-0.0268444,-0.0059611999999994,-0.0335105999999991,0.0102623999999999,0,sub_18
-0.0293472000000002,0.0061982000000012,-0.0274614,-0.0107527999999994,-0.0124311999999991,0.0082519999999999,0,sub_18
-0.0291612000000002,0.0080950000000012,-0.0291516,-0.0129829999999994,0.0080036000000008,0.0054055999999999,0,sub_18
-0.0269516000000002,0.0080618000000012,-0.0323072,-0.0152371999999994,0.0231120000000008,0.0025659999999999,0,sub_18
-0.0225684000000002,0.0067532000000012,-0.0352576,-0.0185887999999994,0.0346382000000008,0.0001777999999999,0,sub_18
-0.0174502000000002,0.0051760000000012,-0.0400404,-0.0243171999999994,0.0395680000000008,-0.0022185999999999,0,sub_18
-0.0119246000000002,0.0030084000000012,-0.0450012,-0.0319995999999994,0.0370476000000008,-0.0046191999999999,0,sub_18
-0.0068730000000002,0.0032188000000012,-0.049359,-0.0394983999999994,0.0289828000000008,-0.0059429999999999,0,sub_18
-0.0035398000000002,0.0027018000000012,-0.0515754,-0.0420973999999994,0.0155310000000008,-0.0055259999999999,0,sub_18
-0.0021944000000002,0.0027320000000012,-0.0536026,-0.0423857999999994,-0.0047519999999991,-0.0038023999999999,0,sub_18
-0.0030192000000002,0.0031860000000012,-0.0543924,-0.0411939999999994,-0.0273861999999991,-0.0014243999999999,0,sub_18
-0.0053600000000002,0.0049464000000012,-0.0542188,-0.0380761999999994,-0.0489609999999991,0.000752,0,sub_18
-0.0091904000000002,0.0053626000000012,-0.0530212,-0.0332311999999994,-0.0671285999999991,0.0018677999999999,0,sub_18
-0.0129794000000002,0.0060998000000012,-0.0522604,-0.0290221999999994,-0.0799275999999991,0.0021271999999999,0,sub_18
-0.0159268000000002,0.0070890000000012,-0.0512414,-0.0251929999999994,-0.0827097999999991,0.0019439999999999,0,sub_18
-0.0184866000000002,0.0072924000000012,-0.0489878,-0.0213177999999994,-0.0772253999999991,0.0019631999999999,0,sub_18
-0.0201990000000002,0.0077166000000012,-0.0463822,-0.0180557999999994,-0.0655609999999991,0.0021839999999999,0,sub_18
-0.0222086000000002,0.0092830000000012,-0.0438514,-0.0136999999999994,-0.0477227999999991,0.0026181999999999,0,sub_18
-0.0244630000000002,0.0094004000000012,-0.0422484,-0.0086869999999994,-0.0258393999999991,0.0032653999999999,0,sub_18
-0.0266392000000001,0.0094262000000012,-0.0392166,-0.0032461999999994,-0.0037445999999991,0.0039151999999999,0,sub_18
-0.0272470000000002,0.0095250000000012,-0.0373672,0.0009048000000005,0.0183962000000008,0.0045567999999999,0,sub_18
-0.0266410000000002,0.0083792000000012,-0.0372864,0.0029248000000005,0.0403348000000008,0.0043291999999999,0,sub_18
-0.0236560000000002,0.0065876000000012,-0.038558,0.0004506000000005,0.0584576000000008,0.0032203999999999,0,sub_18
-0.0178136000000002,0.0050200000000012,-0.0398788,-0.0052645999999994,0.0687394000000008,0.0020923999999999,0,sub_18
-0.0111612000000002,0.0035352000000012,-0.042776,-0.0116689999999994,0.0683702000000008,0.0011869999999999,0,sub_18
-0.0060122000000002,0.0033936000000012,-0.044374,-0.0176973999999994,0.0564954000000008,8.519999999999828e-05,0,sub_18
-0.0033950000000002,0.0040824000000012,-0.0445362,-0.0233477999999994,0.0341778000000008,-0.0005732,0,sub_18
-0.0031116000000002,0.0053960000000012,-0.045095,-0.0258167999999994,0.0084368000000008,-0.0003504,0,sub_18
-0.0060648000000002,0.0068522000000012,-0.0447086,-0.0250583999999994,-0.0124461999999991,-0.0001046,0,sub_18
-0.0104902000000002,0.0063430000000012,-0.043415,-0.0234203999999994,-0.0275797999999991,0.0001397999999999,0,sub_18
-0.0145046000000002,0.0054746000000012,-0.042782,-0.0232519999999994,-0.0380183999999991,-0.0002728,0,sub_18
-0.0171018000000002,0.0049610000000012,-0.0426942,-0.0247695999999994,-0.0435515999999991,-0.00049,0,sub_18
-0.0178972000000002,0.0045364000000012,-0.0425632,-0.0286291999999994,-0.0466701999999991,-0.0005344,0,sub_18
-0.0165920000000002,0.0045750000000012,-0.0429464,-0.0333449999999994,-0.0502125999999991,-0.0003708,0,sub_18
-0.0150500000000002,0.0055994000000012,-0.0430386,-0.0361375999999994,-0.0535469999999991,-0.0006212,0,sub_18
-0.0141154000000002,0.0061688000000012,-0.0428262,-0.0363697999999994,-0.0558293999999991,0.0002131999999999,0,sub_18
-0.0141100000000002,0.0061628000000012,-0.0426016,-0.0355341999999994,-0.0572657999999991,0.0016947999999999,0,sub_18
-0.0156220000000002,0.0060576000000012,-0.04205,-0.0359675999999994,-0.0579067999999991,0.0025471999999999,0,sub_18
-0.0185884000000001,0.0061238000000012,-0.0425456,-0.0363923999999994,-0.0579035999999991,0.0021169999999999,0,sub_18
-0.0206926000000001,0.0063360000000012,-0.0425842,-0.0373923999999994,-0.0561811999999991,0.0008117999999999,0,sub_18
-0.0209376000000002,0.0062988000000012,-0.0429494,-0.0381617999999994,-0.0514733999999991,-0.0013503999999999,0,sub_18
-0.0200806000000002,0.0061050000000012,-0.0433252,-0.0395653999999994,-0.0459093999999991,-0.0039451999999999,0,sub_18
-0.0179512000000002,0.0056790000000012,-0.044421,-0.0411815999999994,-0.0403437999999991,-0.0067551999999999,0,sub_18
-0.0164038000000002,0.0060586000000012,-0.0447304,-0.0438683999999994,-0.0354145999999991,-0.0093581999999999,0,sub_18
-0.0150940000000002,0.0049636000000012,-0.0461306,-0.0438347999999994,-0.0302919999999991,-0.0117145999999999,0,sub_18
-0.0152646000000002,0.0057038000000012,-0.0464038,-0.0412521999999994,-0.0249761999999991,-0.011276,0,sub_18
-0.0164306000000002,0.0063142000000012,-0.0463746,-0.0358977999999994,-0.0171255999999991,-0.0078304,0,sub_18
-0.0188940000000002,0.0069520000000012,-0.0452456,-0.0291743999999994,-0.0089575999999991,-0.0024646,0,sub_18
-0.0197266000000002,0.0072900000000012,-0.044475,-0.0218231999999994,-0.0044101999999991,0.0020557999999999,0,sub_18
-0.0202116000000002,0.0094260000000012,-0.0446314,-0.0189691999999994,-0.0036813999999991,0.0063359999999999,0,sub_18
-0.0167256000000002,0.0083936000000012,-0.0463096,-0.0186805999999994,-0.0069797999999991,0.0076123999999999,0,sub_18
-0.0107314000000002,0.0064068000000012,-0.0470328,-0.0203265999999994,-0.0153769999999991,0.0069589999999999,0,sub_18
-0.0038054000000002,0.0043914000000012,-0.0480386,-0.0246561999999994,-0.0296349999999991,0.0065197999999999,0,sub_18
0.0011981999999997,0.0027336000000012,-0.0481368,-0.0322009999999994,-0.0453799999999991,0.0077689999999999,0,sub_18
0.0047421999999997,0.0031094000000012,-0.0454334,-0.0376129999999994,-0.0607087999999991,0.0096735999999999,0,sub_18
0.0017329999999997,0.0025354000000012,-0.0390634,-0.0387545999999994,-0.0747767999999991,0.0122473999999999,0,sub_18
-0.0088300000000002,0.0037450000000012,-0.0324136,-0.0407113999999994,-0.0798953999999991,0.0152313999999999,0,sub_18
-0.0236146000000002,0.0052280000000012,-0.0248948,-0.0398233999999994,-0.0696819999999991,0.0177881999999999,0,sub_18
-0.0390024000000002,0.0057162000000012,-0.017006,-0.0382301999999994,-0.0464687999999991,0.0188377999999999,0,sub_18
-0.0529118000000002,0.0047422000000012,-0.0142562,-0.0429881999999994,-0.0149129999999991,0.0170549999999999,0,sub_18
-0.0562388000000002,0.0085696000000012,-0.0196138,-0.0555823999999994,0.0275446000000008,0.0130669999999999,0,sub_18
-0.0515836000000002,0.0090778000000012,-0.0267794,-0.0660055999999994,0.0770306000000008,0.0078031999999999,0,sub_18
-0.0395376000000002,0.0069832000000012,-0.0342964,-0.0790045999999995,0.1229044000000008,0.0023123999999999,0,sub_18
-0.0244426000000002,0.0055094000000012,-0.0447494,-0.0927231999999994,0.1513094000000008,-0.0029472,0,sub_18
-0.0063288000000002,0.0069948000000012,-0.0590964,-0.1073663999999994,0.1648002000000008,-0.0073398,0,sub_18
0.0086423999999997,0.0092762000000012,-0.0728032,-0.1169873999999994,0.1576018000000008,-0.0103888,0,sub_18
0.0257371999999997,0.0120144000000012,-0.0874052,-0.1184947999999994,0.1043542000000008,-0.0131084,0,sub_18
0.0429113999999997,0.0125958000000012,-0.106387,-0.1107473999999994,0.0072124000000008,-0.0140072,0,sub_18
0.0588185999999997,0.0130406000000012,-0.1230672,-0.0973519999999994,-0.1110579999999991,-0.0107804,0,sub_18
0.0705919999999997,0.0145630000000012,-0.1300492,-0.0761825999999994,-0.2498347999999991,-0.0010636,0,sub_18
0.0777075999999997,0.0139076000000012,-0.1316946,-0.0519055999999994,-0.4035593999999992,0.0144624,0,sub_18
0.0818291999999997,0.0130656000000012,-0.1280738,-0.0265483999999994,-0.5487877999999992,0.0355397999999999,0,sub_18
0.0814865999999997,0.0117080000000012,-0.115879,-0.0035533999999994,-0.6787135999999991,0.0593678,0,sub_18
0.0783301999999997,0.0105520000000012,-0.101009,0.0105384000000005,-0.7968849999999991,0.0818365999999999,0,sub_18
0.0696665999999997,0.0075904000000013,-0.0852588,0.0142728000000005,-0.8990177999999991,0.0984441999999999,0,sub_18
0.0572123999999997,-0.0004097999999986,-0.0648252,0.0055016000000005,-0.9878759999999992,0.1096061999999999,0,sub_18
0.0416561999999997,-0.0073183999999986,-0.0458002,-0.0223781999999994,-1.0619409999999991,0.1142065999999999,0,sub_18
0.0162645999999997,-0.0100871999999986,-0.0259424,-0.0599513999999995,-1.1152799999999992,0.1123031999999999,0,sub_18
-0.0119802000000002,-0.0127525999999986,-0.0077516,-0.0990771999999994,-1.1381311999999992,0.1065043999999999,0,sub_18
-0.0443544000000002,-0.0123487999999986,0.0044569999999999,-0.1346279999999994,-1.1266867999999992,0.0991909999999999,0,sub_18
-0.0717222000000002,-0.0093473999999986,0.0128641999999999,-0.1627333999999994,-1.0758409999999992,0.0888881999999999,0,sub_18
-0.0943906000000002,-0.0056705999999987,0.0257531999999999,-0.1778483999999995,-0.9847667999999992,0.0771289999999999,0,sub_18
-0.1106768000000002,0.0032398000000012,0.0342707999999999,-0.1881301999999995,-0.8638773999999991,0.0642971999999999,0,sub_18
