userAcceleration.x,userAcceleration.y,userAcceleration.z,rotationRate.x,rotationRate.y,rotationRate.z,label,subject
0.0044527999999997,0.0079780000000011,0.0249333999999999,-0.0148675999999995,-0.0134107999999992,0.0107715999999999,0,sub_11
-0.0011906000000002,0.0068194000000011,0.0265235999999999,-0.0066945999999995,-0.0045723999999992,0.0118781999999999,0,sub_11
-0.0065230000000002,0.0054216000000011,0.0290841999999999,0.0038102000000004,-0.0002119999999992,0.0119385999999999,0,sub_11
-0.0109358000000002,0.0052926000000012,0.0326712,0.0111134000000004,0.0020366000000007,0.0100565999999999,0,sub_11
-0.0135372000000001,0.0063434000000012,0.0365114,0.0126576000000004,0.0038828000000007,0.0072801999999999,0,sub_11
-0.0159506000000001,0.0071056000000012,0.03948,0.0088362000000004,0.0037012000000007,0.0027671999999999,0,sub_11
-0.0187782000000002,0.0086388000000012,0.0401788,0.0022466000000004,0.0028976000000007,-0.0036872,0,sub_11
-0.0187066000000002,0.0090628000000012,0.0395644,-0.0051927999999994,0.0023126000000007,-0.0107886,0,sub_11
-0.0154996000000002,0.0086368000000012,0.0376886,-0.0134661999999994,0.0026678000000007,-0.0177352,0,sub_11
-0.0104404000000002,0.0086846000000012,0.0370378,-0.0212937999999994,0.0079192000000007,-0.0240442,0,sub_11
-0.0054286000000002,0.0084402000000012,0.035788,-0.0284553999999994,0.0210428000000007,-0.0282222,0,sub_11
-0.0003876000000002,0.0069968000000012,0.0330964,-0.0332871999999994,0.0339308000000007,-0.0287514,0,sub_11
0.0013725999999997,0.0062034000000012,0.0305204,-0.0351699999999995,0.0418936000000007,-0.0256218,0,sub_11
2.919999999977975e-05,0.0052430000000012,0.0291219999999999,-0.0315569999999995,0.0448390000000007,-0.0194046,0,sub_11
-0.0040612000000002,0.0040240000000011,0.0256759999999999,-0.0213745999999995,0.0400820000000007,-0.0107816,0,sub_11
-0.0092538000000002,0.0025920000000012,0.0245687999999999,-0.0069649999999995,0.0272106000000007,-0.001264,0,sub_11
-0.0137534000000002,0.0034514000000012,0.0269167999999999,0.0066478000000004,0.0149246000000007,0.0056243999999999,0,sub_11
-0.0163300000000002,0.0046038000000012,0.0289391999999999,0.0175164000000004,0.0052212000000007,0.0084309999999999,0,sub_11
-0.0192750000000002,0.0066414000000012,0.0304995999999999,0.0235080000000004,-0.0016789999999992,0.0071407999999999,0,sub_11
-0.0207410000000002,0.0084694000000012,0.0335658,0.0224804000000004,-0.0070497999999992,0.0023813999999999,0,sub_11
-0.0203010000000002,0.0095576000000012,0.0354336,0.0172084000000004,-0.0096265999999992,-0.0047614,0,sub_11
-0.0193200000000002,0.0098032000000012,0.0357454,0.0097700000000004,-0.0097861999999992,-0.0116498,0,sub_11
-0.0192232000000001,0.0102330000000012,0.0367092,-2.9999999995311555e-06,-0.0065313999999992,-0.0179178,0,sub_11
-0.0178346000000002,0.0105188000000012,0.0366776,-0.0091337999999995,-0.0017917999999992,-0.0231152,0,sub_11
-0.0164358000000002,0.0098230000000012,0.0342366,-0.0154597999999995,0.0049926000000007,-0.0277184,0,sub_11
-0.0150912000000002,0.0095226000000012,0.0315052,-0.0205141999999995,0.0113406000000007,-0.0308166,0,sub_11
-0.0140760000000002,0.0087908000000011,0.028183,-0.0238769999999995,0.0157590000000007,-0.032405,0,sub_11
-0.0130358000000002,0.0077660000000011,0.024092,-0.0227837999999995,0.0167446000000007,-0.0318216,0,sub_11
-0.0123610000000002,0.0052374000000011,0.0212254,-0.0191571999999995,0.0147264000000007,-0.0282254,0,sub_11
-0.0129584000000002,0.0040460000000011,0.0207634,-0.0125905999999995,0.0099924000000007,-0.0221914,0,sub_11
-0.0144720000000002,0.0031456000000011,0.020436,-0.0026301999999995,0.0024698000000007,-0.014421,0,sub_11
-0.0175454000000002,0.0030040000000012,0.0219758,0.0088134000000004,-0.0071891999999992,-0.006424,0,sub_11
-0.0204292000000002,0.0027790000000012,0.026054,0.0191900000000004,-0.0174811999999992,0.0009255999999999,0,sub_11
-0.0226034000000002,0.0041464000000012,0.030206,0.0274788000000004,-0.0259395999999992,0.0058463999999999,0,sub_11
-0.0239774000000001,0.0047708000000012,0.0337796,0.0317316000000004,-0.0322457999999992,0.0088135999999999,0,sub_11
-0.0244382000000002,0.0058228000000012,0.0375208,0.0313210000000004,-0.0342643999999992,0.0091789999999999,0,sub_11
-0.0232466000000002,0.0070148000000012,0.039383,0.0273002000000004,-0.0349817999999992,0.0069537999999999,0,sub_11
-0.0221712000000002,0.0087000000000012,0.0396356,0.0205296000000004,-0.0329095999999992,0.0021419999999999,0,sub_11
-0.0203098000000002,0.0100114000000012,0.0395946,0.0120416000000004,-0.0285939999999992,-0.0041184,0,sub_11
-0.0187554000000002,0.0106284000000012,0.0387154,0.0022870000000004,-0.0223521999999992,-0.0114584,0,sub_11
-0.0169776000000002,0.0111550000000012,0.0366224,-0.0070109999999995,-0.0161259999999992,-0.0188234,0,sub_11
-0.0162322000000002,0.0111008000000012,0.0349448,-0.0139609999999995,-0.0086339999999992,-0.0251052,0,sub_11
-0.0149944000000002,0.0100556000000012,0.0323506,-0.0177073999999995,0.0005470000000006,-0.0302986,0,sub_11
-0.0146198000000002,0.0085880000000012,0.0305652,-0.0186961999999995,0.0086426000000006,-0.0329076,0,sub_11
-0.0127794000000002,0.0080776000000012,0.0295746,-0.0167093999999995,0.0160810000000006,-0.0335722,0,sub_11
-0.0116354000000002,0.0068366000000012,0.0291624,-0.0136971999999995,0.0237320000000006,-0.0314244,0,sub_11
-0.0103424000000002,0.0052634000000012,0.0287676,-0.0106887999999995,0.0315918000000007,-0.0282088,0,sub_11
-0.0105372000000002,0.0056432000000012,0.0289739999999999,-0.0079139999999995,0.0351904000000007,-0.0247756,0,sub_11
-0.0109628000000002,0.0058004000000012,0.0294469999999999,-0.0048759999999995,0.0382302000000007,-0.0228306,0,sub_11
-0.0120968000000002,0.0054670000000012,0.0301142,-0.0029105999999995,0.0395710000000007,-0.0213182,0,sub_11
-0.0132942000000002,0.0057388000000012,0.0315298,-0.0009461999999995,0.0398498000000007,-0.020659,0,sub_11
-0.0158574000000002,0.0060018000000012,0.0329948,0.0003648000000004,0.0379968000000007,-0.019147,0,sub_11
-0.0177962000000002,0.0054220000000012,0.0339362,0.0023082000000004,0.0350738000000007,-0.0169884,0,sub_11
-0.0191476000000002,0.0054918000000012,0.0340096,0.0050448000000004,0.0301502000000007,-0.0135448,0,sub_11
-0.0200318000000002,0.0058074000000011,0.0338478,0.0079898000000004,0.0245850000000007,-0.0096716,0,sub_11
-0.0202346000000002,0.0063444000000011,0.0329638,0.0096566000000004,0.0183894000000007,-0.0068748,0,sub_11
-0.0181948000000002,0.0068838000000012,0.03243,0.0111300000000004,0.0147588000000007,-0.0060054,0,sub_11
-0.0170394000000001,0.0073224000000012,0.0338716,0.0120134000000004,0.0160696000000007,-0.0042536,0,sub_11
-0.0182258000000002,0.0069932000000012,0.0342598,0.0122624000000004,0.0182364000000007,-0.0029346,0,sub_11
-0.0179418000000002,0.0083668000000012,0.0319444,0.0114494000000004,0.0195624000000007,-0.0035448,0,sub_11
-0.0150990000000001,0.0096584000000012,0.029568,0.0076654000000004,0.0215500000000007,-0.0071676,0,sub_11
-0.0119168000000002,0.0108034000000012,0.0270214,-0.0001427999999995,0.0280344000000007,-0.0129606,0,sub_11
-0.0095432000000002,0.0105106000000012,0.0228982,-0.0103155999999995,0.0355584000000007,-0.0209462,0,sub_11
-0.0083650000000002,0.0101354000000012,0.0199102,-0.0198549999999994,0.0426500000000007,-0.0278586,0,sub_11
-0.0118742000000002,0.0075394000000012,0.0207762,-0.0253565999999994,0.0467542000000007,-0.0297706,0,sub_11
-0.0193440000000002,0.0042330000000012,0.0224854,-0.0219529999999995,0.0446228000000007,-0.025203,0,sub_11
-0.0258970000000002,0.0011036000000012,0.0260138,-0.0083709999999995,0.0332748000000007,-0.0156388,0,sub_11
-0.0304798000000002,0.0003100000000012,0.0302624,0.0090152000000004,0.0163638000000007,-0.0034772,0,sub_11
-0.0288970000000002,-0.0001497999999987,0.0356382,0.0242772000000004,0.0013786000000007,0.0084535999999999,0,sub_11
-0.0249858000000002,0.0008010000000012,0.0407676,0.0342252000000004,-0.0084893999999992,0.0166541999999999,0,sub_11
-0.0210710000000002,0.0032986000000012,0.0454222,0.0373950000000004,-0.0119229999999992,0.0200989999999999,0,sub_11
-0.0208352000000002,0.0056556000000012,0.0473746,0.0346192000000004,-0.0136125999999992,0.0187997999999999,0,sub_11
-0.0194596000000002,0.0064430000000012,0.0484456,0.0284430000000004,-0.0146415999999992,0.0151259999999999,0,sub_11
-0.0206750000000002,0.0085418000000012,0.0476088,0.0214120000000004,-0.0162371999999992,0.0095789999999999,0,sub_11
-0.0206648000000002,0.0096548000000012,0.0456734,0.0148162000000004,-0.0161289999999992,0.0038191999999999,0,sub_11
-0.0193964000000002,0.0099900000000012,0.0425412,0.0082176000000004,-0.0162355999999992,-0.001513,0,sub_11
-0.0164250000000002,0.0108040000000012,0.0389368,0.0018506000000004,-0.0122947999999992,-0.0068488,0,sub_11
-0.0135764000000002,0.0111960000000012,0.0354936,-0.0034295999999995,-0.0055813999999992,-0.0138896,0,sub_11
-0.0103544000000002,0.0104926000000012,0.0319144,-0.0074117999999995,0.0038336000000007,-0.0205526,0,sub_11
-0.0091292000000002,0.0093136000000012,0.0286974,-0.0097051999999995,0.0104678000000007,-0.0259182,0,sub_11
-0.0078352000000002,0.0082266000000012,0.025428,-0.0090277999999995,0.0162282000000007,-0.0284846,0,sub_11
-0.0080622000000001,0.0053528000000012,0.0229294,-0.0053911999999995,0.0174702000000007,-0.0258038,0,sub_11
-0.0094218000000001,0.0035182000000012,0.0206117999999999,0.0011944000000004,0.0154848000000007,-0.0177572,0,sub_11
-0.0126672000000001,0.0026468000000012,0.0201679999999999,0.0100790000000004,0.0066580000000007,-0.00584,0,sub_11
-0.0137946000000001,0.0024332000000012,0.0205292,0.0213050000000004,-0.0021819999999992,0.0073751999999999,0,sub_11
-0.0155432000000002,0.0020260000000012,0.0222124,0.0310442000000004,-0.0101619999999992,0.0199379999999999,0,sub_11
-0.0157370000000002,0.0026704000000012,0.025404,0.0375964000000004,-0.0140599999999992,0.0300299999999999,0,sub_11
-0.0158932000000002,0.0049592000000011,0.028773,0.0407616000000004,-0.0155881999999992,0.0364633999999999,0,sub_11
-0.0153654000000002,0.0066208000000011,0.0306266,0.0399140000000004,-0.0118247999999992,0.0382485999999999,0,sub_11
-0.0159450000000002,0.0094948000000012,0.0336344,0.0326988000000004,-0.0050383999999992,0.0354989999999999,0,sub_11
-0.0162870000000002,0.0117586000000012,0.036051,0.0227356000000004,0.0039028000000006,0.0290953999999999,0,sub_11
-0.0152650000000002,0.0134518000000011,0.0355294,0.0125830000000004,0.0141392000000006,0.0186295999999999,0,sub_11
-0.0139414000000002,0.0136516000000012,0.0343682,0.0020122000000004,0.0245970000000006,0.0064513999999999,0,sub_11
-0.0135334000000002,0.0128580000000012,0.0336962,-0.0081365999999995,0.0342646000000006,-0.0047414,0,sub_11
-0.0146912000000002,0.0106568000000012,0.030303,-0.0138371999999995,0.0390068000000006,-0.0135468,0,sub_11
-0.0159772000000001,0.0083452000000012,0.0275166,-0.0125357999999995,0.0385966000000007,-0.0186646,0,sub_11
-0.0159468000000001,0.0058250000000012,0.0269589999999999,-0.0065857999999995,0.0331306000000007,-0.0168174,0,sub_11
-0.0153064000000001,0.0024056000000012,0.0269199999999999,0.0029446000000004,0.0246394000000007,-0.0074638,0,sub_11
-0.0125360000000001,0.0011234000000012,0.0265853999999999,0.0145654000000004,0.0114340000000006,0.0068241999999999,0,sub_11
-0.0080886000000002,0.0006818000000012,0.0262387999999999,0.0257634000000004,0.0020532000000007,0.0240955999999999,0,sub_11
-0.0016934000000002,0.0020544000000011,0.0253233999999999,0.0333638000000004,-0.0013469999999993,0.0406931999999999,0,sub_11
0.0011997999999997,0.0043142000000012,0.026235,0.0356668000000004,0.0026374000000007,0.0545911999999999,0,sub_11
0.0032897999999997,0.0089372000000012,0.027127,0.0339856000000004,0.0147618000000007,0.0609731999999999,0,sub_11
0.0041865999999997,0.0119834000000011,0.0259,0.0306704000000004,0.0341718000000007,0.0583613999999999,0,sub_11
0.0007975999999997,0.0130860000000011,0.0265498,0.0252300000000004,0.0561036000000007,0.0482985999999999,0,sub_11
-0.0048992000000002,0.0135464000000011,0.028086,0.0170206000000004,0.0755030000000007,0.0345877999999999,0,sub_11
-0.0100608000000002,0.0143102000000011,0.0269142,0.0068860000000004,0.0921462000000007,0.0191579999999999,0,sub_11
-0.0161302000000002,0.0139900000000011,0.0245786,-0.0039049999999995,0.1060186000000007,0.0045817999999999,0,sub_11
-0.0215226000000002,0.0134170000000011,0.0267318,-0.0142931999999995,0.1173216000000007,-0.0072108,0,sub_11
-0.0210370000000002,0.0128252000000011,0.0277622,-0.0221169999999995,0.1244148000000007,-0.016034,0,sub_11
-0.0206506000000002,0.0108356000000011,0.028546,-0.0269795999999995,0.1291404000000007,-0.0214152,0,sub_11
-0.0206542000000002,0.0086154000000011,0.0301547999999999,-0.0286673999999995,0.1302244000000007,-0.0246332,0,sub_11
-0.0202452000000002,0.0060710000000011,0.0316031999999999,-0.0280777999999995,0.1235734000000007,-0.0258458,0,sub_11
-0.0209554000000002,0.0049670000000012,0.0308474,-0.0249583999999995,0.1113690000000007,-0.0257518,0,sub_11
-0.0239504000000002,0.0048176000000012,0.0298328,-0.0210161999999995,0.0946782000000007,-0.0232962,0,sub_11
-0.0252214000000002,0.0060724000000012,0.0299918,-0.0196429999999995,0.0760788000000007,-0.020856,0,sub_11
-0.0239638000000002,0.0072340000000012,0.0319266,-0.0203863999999995,0.0600486000000007,-0.0197158,0,sub_11
-0.0224044000000002,0.0078754000000012,0.034478,-0.0221267999999995,0.0521732000000007,-0.0201452,0,sub_11
-0.0218756000000002,0.0070502000000012,0.034675,-0.0253483999999995,0.0468606000000007,-0.0208018,0,sub_11
-0.0224228000000002,0.0067666000000012,0.0346234,-0.0290045999999995,0.0389962000000007,-0.0223126,0,sub_11
-0.0245846000000002,0.0064534000000012,0.032899,-0.0284019999999995,0.0287750000000007,-0.0242182,0,sub_11
-0.0256234000000002,0.0053426000000012,0.0295241999999999,-0.0227775999999995,0.0129686000000007,-0.0254406,0,sub_11
-0.0253062000000002,0.0035722000000012,0.0276017999999999,-0.0148483999999995,-0.0081883999999992,-0.0225808,0,sub_11
-0.0230104000000002,0.0035080000000012,0.0283294,-0.0069325999999995,-0.0295695999999992,-0.0169434,0,sub_11
-0.0181658000000002,0.0037522000000012,0.029108,-5.85999999995309e-05,-0.0430733999999992,-0.0089734,0,sub_11
-0.0137202000000002,0.0033302000000012,0.0291062,0.0038426000000004,-0.0512489999999992,0.0011055999999999,0,sub_11
-0.0127822000000002,0.0050410000000012,0.0280904,0.0063370000000004,-0.0564095999999992,0.0107437999999999,0,sub_11
-0.0122544000000002,0.0076518000000011,0.0260336,0.0077780000000004,-0.0611299999999992,0.0178101999999999,0,sub_11
-0.0118460000000002,0.0085118000000012,0.0238178,0.0079086000000004,-0.0620675999999992,0.0229341999999998,0,sub_11
-0.0125036000000002,0.0091232000000012,0.0229818,0.0071924000000004,-0.0636329999999992,0.0259167999999998,0,sub_11
-0.0128562000000002,0.0096440000000011,0.0231382,0.0071316000000004,-0.0637015999999992,0.0269793999999999,0,sub_11
-0.0127716000000001,0.0085686000000012,0.023602,0.0072956000000004,-0.0616385999999992,0.0276133999999999,0,sub_11
-0.0137830000000002,0.0075328000000012,0.024459,0.0070424000000004,-0.0580803999999992,0.0276015999999998,0,sub_11
-0.0147920000000001,0.0082338000000012,0.0249278,0.0062004000000004,-0.0563695999999992,0.0267389999999999,0,sub_11
-0.0156624000000002,0.0087088000000012,0.0267522,0.0047278000000004,-0.0525259999999992,0.0258691999999999,0,sub_11
-0.0151642000000002,0.0089740000000012,0.0287734,0.0032676000000004,-0.0480345999999992,0.0228621999999999,0,sub_11
-0.0143616000000002,0.0090116000000012,0.0310758,0.0003122000000004,-0.0450251999999992,0.0187783999999999,0,sub_11
-0.0164366000000002,0.0091544000000012,0.0326558,-0.0029491999999995,-0.0444727999999992,0.0139727999999999,0,sub_11
-0.0203718000000001,0.0081292000000012,0.0353216,-0.0051659999999995,-0.0473389999999992,0.0106743999999999,0,sub_11
-0.0243308000000001,0.0072830000000012,0.0361502,-0.0052709999999995,-0.0544761999999992,0.0080371999999999,0,sub_11
-0.0276924000000001,0.0076492000000012,0.03579,-0.0066733999999995,-0.0641707999999992,0.0066759999999999,0,sub_11
-0.0297814000000001,0.0083078000000012,0.0371506,-0.0086969999999995,-0.0696019999999992,0.0053049999999999,0,sub_11
-0.0278562000000001,0.0085694000000012,0.0402278,-0.0108239999999995,-0.0693763999999992,0.0040079999999999,0,sub_11
-0.0248500000000002,0.0080622000000012,0.041543,-0.0125049999999995,-0.0657399999999992,0.0018551999999999,0,sub_11
-0.0223446000000002,0.0072574000000011,0.0416224,-0.0137691999999995,-0.0617749999999992,-0.002037,0,sub_11
-0.0217302000000002,0.0055620000000012,0.042618,-0.0124815999999995,-0.0586753999999992,-0.004842,0,sub_11
-0.0221560000000002,0.0052578000000011,0.041199,-0.0116485999999995,-0.0600553999999992,-0.0059352,0,sub_11
-0.0209920000000002,0.0060860000000011,0.037513,-0.0125341999999995,-0.0635613999999992,-0.0066104,0,sub_11
-0.0184004000000002,0.0077316000000011,0.0353486,-0.0146815999999995,-0.0640761999999992,-0.0083666,0,sub_11
-0.0148428000000002,0.0093190000000011,0.035308,-0.0172027999999995,-0.0568175999999992,-0.009889,0,sub_11
-0.0096530000000002,0.0094588000000011,0.0343806,-0.0197115999999995,-0.0459403999999992,-0.0105614,0,sub_11
-0.0049542000000002,0.0080690000000011,0.032698,-0.0198817999999994,-0.0363521999999992,-0.010575,0,sub_11
-0.0037152000000002,0.0063420000000011,0.0318324,-0.0151683999999995,-0.0301977999999992,-0.0086272,0,sub_11
-0.0038170000000002,0.0039124000000012,0.0286916,-0.0059781999999995,-0.0297095999999992,-0.0029838,0,sub_11
-0.0040106000000002,0.0004868000000012,0.0255242,0.0076268000000004,-0.0392693999999992,0.0074035999999999,0,sub_11
-0.0053878000000002,-0.0014991999999987,0.023228,0.0250294000000004,-0.0546103999999992,0.0216703999999999,0,sub_11
-0.0048392000000002,-0.0032189999999987,0.0225672,0.0443198000000004,-0.0723211999999992,0.0408673999999999,0,sub_11
-0.0034558000000002,-0.0047473999999987,0.0225312,0.0618984000000004,-0.0885449999999992,0.0626141999999999,0,sub_11
-0.0016986000000002,-0.0034913999999987,0.0249786,0.0743598000000004,-0.0976147999999992,0.0821545999999999,0,sub_11
-0.0015896000000002,0.0011580000000012,0.0278862,0.0779334000000004,-0.0961897999999992,0.0956373999999999,0,sub_11
-0.0019730000000002,0.0068492000000012,0.0310118,0.0713706000000004,-0.0864911999999992,0.0994305999999999,0,sub_11
-0.0044154000000002,0.0129028000000012,0.0341076,0.0565850000000004,-0.0673389999999992,0.0905491999999999,0,sub_11
-0.0102466000000002,0.0191432000000012,0.0388642,0.0369810000000004,-0.0398143999999992,0.0700865999999999,0,sub_11
-0.0160406000000002,0.0221792000000011,0.0418824,0.0157056000000004,-0.0116157999999992,0.0423475999999999,0,sub_11
-0.0244254000000002,0.0213258000000011,0.0423954,-0.0032391999999995,0.0108308000000007,0.0124955999999999,0,sub_11
-0.0316228000000002,0.0195398000000011,0.0418856,-0.0169167999999995,0.0271770000000007,-0.0141128,0,sub_11
-0.0363140000000002,0.0168526000000012,0.0408916,-0.0261719999999995,0.0373018000000007,-0.0338458,0,sub_11
-0.0366696000000002,0.0136778000000012,0.0396182,-0.0325003999999995,0.0414206000000007,-0.046073,0,sub_11
-0.0357834000000002,0.0098604000000012,0.039303,-0.0320553999999995,0.0401622000000007,-0.0514093999999999,0,sub_11
-0.0307372000000002,0.0061252000000012,0.0386442,-0.0284325999999995,0.0367892000000007,-0.0514227999999999,0,sub_11
-0.0277906000000002,0.0027010000000012,0.0403028,-0.0248403999999994,0.0306304000000007,-0.0473735999999999,0,sub_11
-0.0278742000000002,0.0019820000000012,0.0424694,-0.0193441999999994,0.0221162000000007,-0.0420261999999999,0,sub_11
-0.0271682000000002,0.0005148000000012,0.0414258,-0.0113133999999995,0.0101750000000007,-0.0343065999999999,0,sub_11
-0.0269346000000002,0.0009472000000012,0.0395734,-0.0086179999999995,-0.0008997999999992,-0.0255571999999999,0,sub_11
-0.0268460000000002,0.0038760000000012,0.0404108,-0.0091261999999995,-0.0120051999999992,-0.0184962,0,sub_11
-0.0235694000000002,0.0081412000000012,0.0396332,-0.0085119999999995,-0.0150011999999992,-0.0157108,0,sub_11
-0.0187698000000002,0.0086426000000012,0.0396454,-0.0091339999999995,-0.0103143999999992,-0.0150802,0,sub_11
-0.0174576000000002,0.0084864000000012,0.0399028,-0.0126935999999995,-0.0028775999999992,-0.0168604,0,sub_11
-0.0181874000000002,0.0084506000000012,0.0409996,-0.0128391999999995,0.0030620000000007,-0.0201104,0,sub_11
-0.0185954000000002,0.0073332000000012,0.0401924,-0.0097841999999995,0.0096270000000007,-0.0226978,0,sub_11
-0.0205056000000002,0.0048810000000012,0.03824,-0.0056919999999995,0.0119178000000007,-0.0229224,0,sub_11
-0.0232988000000001,0.0041084000000012,0.0357014,6.400000000044426e-05,0.0065250000000007,-0.0212028,0,sub_11
-0.0251172000000002,0.0044358000000012,0.0348957999999999,0.0072698000000004,-0.0024561999999992,-0.0192182,0,sub_11
-0.0233700000000002,0.0047874000000011,0.0331285999999999,0.0125562000000004,-0.0095201999999992,-0.0155402,0,sub_11
-0.0208906000000002,0.0053578000000012,0.0321372,0.0144784000000004,-0.0137903999999992,-0.0112636,0,sub_11
-0.0185696000000002,0.0071724000000012,0.033288,0.0121580000000004,-0.0142041999999992,-0.0087306,0,sub_11
-0.0168280000000002,0.0086292000000012,0.0336744,0.0083882000000004,-0.0073585999999992,-0.0087808,0,sub_11
-0.0144810000000002,0.0097912000000012,0.0332134,0.0054938000000004,0.0031110000000007,-0.0101114,0,sub_11
-0.0157148000000002,0.0095522000000012,0.0335824,0.0036624000000004,0.0112394000000007,-0.0129272,0,sub_11
-0.0188144000000002,0.0093432000000012,0.0341506,0.0045532000000004,0.0165746000000006,-0.0159188,0,sub_11
-0.0208948000000002,0.0074912000000012,0.0340102,0.0086226000000004,0.0180596000000007,-0.0178152,0,sub_11
-0.0217492000000002,0.0053598000000012,0.0344708,0.0120384000000004,0.0182616000000007,-0.0180054,0,sub_11
-0.0228314000000002,0.0045602000000012,0.0364434,0.0136568000000004,0.0174850000000006,-0.0162086,0,sub_11
-0.0228544000000002,0.0050834000000012,0.037913,0.0135672000000004,0.0173500000000006,-0.01357,0,sub_11
-0.0228116000000002,0.0053904000000012,0.0380172,0.0113506000000004,0.0170162000000007,-0.0126552,0,sub_11
-0.0247236000000002,0.0070038000000012,0.0390046,0.0074318000000004,0.0160560000000007,-0.0134604,0,sub_11
-0.0271374000000002,0.0096958000000012,0.039115,0.0039368000000004,0.0129700000000006,-0.0157554,0,sub_11
-0.0285686000000002,0.0107362000000012,0.0379216,0.0009552000000004,0.0115002000000007,-0.0185518,0,sub_11
-0.0281206000000002,0.0105630000000012,0.037167,-0.0013697999999995,0.0134378000000007,-0.0215616,0,sub_11
-0.0267348000000001,0.0105008000000011,0.0359494,-0.0024059999999995,0.0179252000000007,-0.0239246,0,sub_11
