userAcceleration.x,userAcceleration.y,userAcceleration.z,rotationRate.x,rotationRate.y,rotationRate.z,label,subject
-0.0234310000000002,0.0034408000000012,0.0162947999999999,0.0049820000000006,0.0034460000000007,-0.0002707999999999,0,sub_21
-0.0240484000000002,0.0030192000000012,0.0157047999999999,0.0071120000000006,0.0019496000000007,-0.0008947999999999,0,sub_21
-0.0237756000000002,0.0028908000000012,0.0163609999999999,0.0092466000000006,0.0015186000000007,-0.0015203999999999,0,sub_21
-0.0241800000000002,0.0027832000000012,0.0170339999999999,0.0101010000000006,0.0019410000000007,-0.0013011999999999,0,sub_21
-0.0246434000000001,0.0019138000000012,0.0178395999999999,0.0109516000000006,0.0006622000000007,-0.0019345999999999,0,sub_21
-0.0241100000000002,0.0021588000000012,0.0176877999999999,0.0117906000000006,-0.0014803999999992,-0.0025735999999999,0,sub_21
-0.0235590000000002,0.0020336000000012,0.0182175999999999,0.0121962000000006,-0.0046883999999992,-0.0027867999999999,0,sub_21
-0.0250112000000002,0.0021974000000012,0.0177903999999999,0.0130516000000006,-0.0023603999999992,-0.0025765999999999,0,sub_21
-0.0256252000000002,0.0020840000000013,0.0180115999999999,0.0151852000000006,-0.0010995999999992,-0.0029971999999999,0,sub_21
-0.0258016000000002,0.0023654000000012,0.0184901999999999,0.0158312000000006,0.0018692000000007,-0.0030029999999999,0,sub_21
-0.0265758000000001,0.0029578000000012,0.0184259999999999,0.0151978000000006,0.0035750000000007,-0.0027957999999999,0,sub_21
-0.0277086000000002,0.0029882000000012,0.0186925999999999,0.0135052000000006,0.0067768000000007,-0.0028117999999999,0,sub_21
-0.0273860000000002,0.0030070000000012,0.0179795999999999,0.0122174000000006,0.0052884000000007,-0.0032579999999999,0,sub_21
-0.0261696000000002,0.0039682000000012,0.0158761999999999,0.0113584000000006,0.0042246000000007,-0.0037017999999999,0,sub_21
-0.0249812000000002,0.0043048000000012,0.0148387999999999,0.0119890000000006,0.0029400000000007,-0.0034939999999999,0,sub_21
-0.0247418000000002,0.0033236000000012,0.0148053999999999,0.0115576000000006,0.0029364000000007,-0.0030815999999999,0,sub_21
-0.0235856000000002,0.0036154000000012,0.0138643999999999,0.0128150000000006,-0.0006967999999992,-0.0022253999999999,0,sub_21
-0.0244166000000002,0.0042104000000012,0.0137615999999999,0.0141010000000006,0.0012136000000007,-0.0015779999999999,0,sub_21
-0.0252822000000002,0.0032722000000012,0.0145253999999999,0.0160328000000006,0.0037634000000007,-0.0015677999999999,0,sub_21
-0.0247922000000002,0.0026868000000012,0.0145411999999999,0.0162548000000006,0.0048312000000007,-0.0024221999999999,0,sub_21
-0.0236148000000002,0.0026920000000012,0.0142997999999999,0.0160404000000006,0.0037702000000007,-0.0032769999999999,0,sub_21
-0.0232672000000002,0.0024170000000012,0.0138461999999999,0.0156076000000006,0.0027034000000007,-0.0030785999999999,0,sub_21
-0.0232598000000002,0.0031392000000012,0.0137571999999999,0.0151778000000005,0.0022756000000007,-0.0028809999999999,0,sub_21
-0.0229534000000002,0.0038420000000012,0.0139087999999999,0.0151622000000005,-0.0017719999999992,-0.0035301999999999,0,sub_21
-0.0225774000000002,0.0032544000000012,0.0144271999999999,0.0155810000000005,-0.0032679999999992,-0.0033251999999999,0,sub_21
-0.0234960000000002,0.0022926000000012,0.0146637999999999,0.0145198000000006,-0.0017759999999992,-0.0031343999999999,0,sub_21
-0.0235064000000002,0.0023014000000012,0.0144037999999999,0.0115498000000006,0.0003718000000007,-0.0048669999999999,0,sub_21
-0.0217866000000002,0.0012064000000012,0.0135559999999999,0.0075014000000006,0.0008156000000007,-0.0057503999999999,0,sub_21
-0.0208358000000002,0.0017618000000012,0.0113945999999999,0.0045172000000006,0.0020918000000007,-0.0053541999999999,0,sub_21
-0.0213386000000002,0.0025358000000012,0.0098529999999999,0.0036686000000006,0.0046356000000007,-0.0040899999999999,0,sub_21
-0.0217346000000002,0.0033388000000012,0.0092505999999999,0.0043088000000006,0.0056844000000007,-0.0032407999999999,0,sub_21
-0.0213224000000002,0.0035230000000012,0.0095221999999999,0.0049490000000006,0.0067332000000007,-0.0023915999999999,0,sub_21
-0.0215326000000002,0.0034844000000012,0.0095711999999999,0.0055950000000006,0.0088482000000007,-0.0017573999999999,0,sub_21
-0.0222204000000002,0.0017746000000012,0.0115617999999999,0.0030442000000006,0.0120488000000007,-0.0007111999999999,0,sub_21
-0.0224080000000002,0.0023378000000012,0.0123943999999999,-0.0008041999999993,0.0099334000000007,-0.0011625999999999,0,sub_21
-0.0222156000000002,0.0033750000000012,0.0119099999999999,-0.0035847999999993,0.0084518000000007,-0.0011801999999999,0,sub_21
-0.0232590000000002,0.0045426000000012,0.0118885999999999,-0.0042189999999993,0.0105812000000007,-0.0003327999999999,0,sub_21
-0.0245266000000002,0.0044306000000012,0.0126825999999999,-0.0040209999999993,0.0112080000000007,-0.0003341999999999,0,sub_21
-0.0248312000000002,0.0044930000000012,0.0129519999999999,-0.0044573999999993,0.0120544000000007,-0.0014085999999999,0,sub_21
-0.0242480000000002,0.0032700000000012,0.0132999999999999,-0.0049041999999993,0.0116184000000007,-0.0014133999999999,0,sub_21
-0.0233382000000002,0.0023794000000012,0.0149187999999999,-0.0066399999999993,0.0099058000000007,-0.0007843999999999,0,sub_21
-0.0234934000000002,0.0017258000000012,0.0140703999999999,-0.0066823999999993,0.0049924000000007,-0.0003531999999999,0,sub_21
-0.0236478000000002,0.0021458000000012,0.0134061999999999,-0.0058345999999993,0.0034990000000007,-0.0005589999999999,0,sub_21
-0.0243058000000002,0.0022342000000012,0.0126485999999999,-0.0030597999999993,0.0034902000000007,-0.0007531999999999,0,sub_21
-0.0247184000000002,0.0019264000000012,0.0134281999999999,-0.0028791999999993,0.0045444000000007,-0.0013879999999999,0,sub_21
-0.0250962000000002,0.0022780000000012,0.0134563999999999,-0.0033481999999993,0.0041070000000007,-0.0013843999999999,0,sub_21
-0.0251384000000002,0.0019900000000012,0.0144199999999999,-0.0061631999999993,0.0043152000000007,-0.0009707999999999,0,sub_21
-0.0252320000000002,0.0024128000000012,0.0136953999999999,-0.0070781999999993,0.0008914000000007,0.0003152,0,sub_21
-0.0248452000000002,0.0023716000000012,0.0140449999999999,-0.0077643999999993,0.0004514000000007,0.0011718,0,sub_21
-0.0251574000000002,0.0022168000000013,0.0148023999999999,-0.0081765999999993,0.0036486000000007,0.001165,0,sub_21
-0.0247044000000002,0.0017802000000013,0.0149621999999999,-0.0081659999999993,0.0051434000000007,0.0003084,0,sub_21
-0.0244660000000002,0.0025248000000013,0.0153457999999999,-0.0075211999999993,0.0055698000000007,-0.0003285999999999,0,sub_21
-0.0247066000000002,0.0021658000000013,0.0157103999999999,-0.0083735999999993,0.0051492000000007,-0.0009749999999999,0,sub_21
-0.0249924000000002,0.0024056000000013,0.0162129999999999,-0.0088629999999993,0.0038604000000007,-0.0013929999999999,0,sub_21
-0.0243260000000002,0.0030244000000012,0.0163349999999999,-0.0085027999999993,0.0021410000000007,-0.0013771999999999,0,sub_21
-0.0249204000000002,0.0032358000000012,0.0155501999999999,-0.0077051999999993,0.0031880000000007,-0.0009344,0,sub_21
-0.0245686000000002,0.0026356000000012,0.0152229999999999,-0.0077561999999993,0.0044544000000007,-0.0013526,0,sub_21
-0.0239250000000002,0.0029924000000012,0.0159067999999999,-0.0097209999999993,0.0072188000000007,-0.001786,0,sub_21
-0.0236244000000002,0.0032188000000012,0.0166039999999999,-0.0124927999999993,0.0076546000000007,-0.0018058,0,sub_21
-0.0247760000000002,0.0028278000000012,0.0159343999999999,-0.0133413999999993,0.0087228000000007,-0.0018131999999999,0,sub_21
-0.0240314000000002,0.0025154000000012,0.0141257999999999,-0.0142503999999993,0.0093574000000007,-0.0026595999999999,0,sub_21
-0.0230958000000002,0.0025698000000012,0.0125551999999999,-0.0130371999999993,0.0076402000000007,-0.0032743999999999,0,sub_21
-0.0217256000000002,0.0027314000000012,0.0124061999999999,-0.0113961999999993,0.0076200000000007,-0.0023929999999999,0,sub_21
-0.0221464000000002,0.0029866000000012,0.0111371999999999,-0.0091295999999993,0.0048260000000007,-0.0010763999999999,0,sub_21
-0.0220550000000002,0.0035706000000012,0.0102827999999999,-0.0079249999999993,0.0028888000000007,1.800000000000408e-05,0,sub_21
-0.0227088000000002,0.0035234000000012,0.0128709999999999,-0.0072801999999993,0.0041640000000007,0.0002344,0,sub_21
-0.0229618000000002,0.0040106000000012,0.0142053999999999,-0.0072821999999993,0.0035256000000007,2.1400000000004227e-05,0,sub_21
-0.0237052000000002,0.0037026000000012,0.0147601999999999,-0.0075061999999993,0.0016072000000007,0.0004496,0,sub_21
-0.0234898000000002,0.0034366000000012,0.0149027999999999,-0.0069131999999993,0.0007240000000007,0.0006822,0,sub_21
-0.0238070000000002,0.0040206000000012,0.0139495999999999,-0.0061059999999993,0.0002652000000007,0.0011294,0,sub_21
-0.0237964000000002,0.0045762000000012,0.0133121999999999,-0.0038183999999993,-0.0031815999999992,0.0015908,0,sub_21
-0.0243586000000002,0.0042208000000012,0.0149059999999999,-0.0025727999999993,-0.0010851999999992,0.0020378,0,sub_21
-0.0245926000000002,0.0031944000000012,0.0156837999999999,-0.0019759999999993,-0.0017529999999992,0.0016292,0,sub_21
-0.0243876000000002,0.0034302000000012,0.0157539999999999,-0.0034763999999993,-0.0038757999999992,0.0009803999999999,0,sub_21
-0.0245616000000002,0.0033680000000012,0.0171455999999999,-0.0049813999999993,-0.0066393999999992,0.0007597999999999,0,sub_21
-0.0251638000000002,0.0035820000000012,0.0168681999999999,-0.0054071999999993,-0.0060003999999992,0.0011831999999999,0,sub_21
-0.0260638000000002,0.0033480000000012,0.0164813999999999,-0.0052043999999993,-0.0047527999999992,0.0014073999999999,0,sub_21
-0.0258976000000002,0.0039404000000012,0.0164643999999999,-0.0037269999999993,-0.0056367999999992,0.0007885999999999,0,sub_21
-0.0251668000000002,0.0029926000000012,0.0174563999999999,-0.0039383999999993,-0.0016181999999992,0.0010063999999999,0,sub_21
-0.0247846000000002,0.0028784000000012,0.0168799999999999,-0.0045891999999993,-0.0007919999999992,0.0007979999999999,0,sub_21
-0.0247204000000002,0.0029988000000012,0.0159365999999999,-0.0063077999999993,0.0006736000000007,0.0014357999999999,0,sub_21
-0.0251450000000002,0.0039352000000012,0.0139671999999999,-0.0067363999999993,0.0008856000000007,0.0020735999999999,0,sub_21
-0.0251836000000002,0.0044976000000012,0.0137359999999999,-0.0058839999999993,0.0008818000000007,0.0022931999999999,0,sub_21
-0.0255134000000002,0.0053110000000012,0.0147801999999999,-0.0035321999999993,0.0023634000000007,0.0027349999999999,0,sub_21
-0.0261094000000002,0.0046840000000012,0.0154671999999999,-0.0026651999999993,0.0059798000000007,0.0033774,0,sub_21
-0.0264992000000002,0.0042710000000012,0.0171495999999999,-0.0028627999999993,0.0070196000000007,0.0025271999999999,0,sub_21
-0.0248972000000002,0.0038736000000012,0.0183431999999999,-0.0034929999999993,0.0072070000000007,0.0021022,0,sub_21
-0.0243740000000002,0.0039532000000012,0.0183745999999999,-0.0049737999999993,0.0090976000000007,0.0027374,0,sub_21
-0.0256278000000002,0.0033122000000012,0.0175213999999999,-0.0056201999999993,0.0069362000000007,0.0035971999999999,0,sub_21
-0.0254652000000002,0.0031520000000012,0.0179109999999999,-0.0051931999999993,0.0054136000000007,0.0036089999999999,0,sub_21
-0.0246042000000002,0.0024744000000012,0.0175809999999999,-0.0026335999999993,0.0047672000000007,0.0032004,0,sub_21
-0.0250438000000002,0.0020526000000012,0.0175123999999999,-0.0015619999999993,0.0058286000000007,0.0032065999999999,0,sub_21
-0.0246044000000002,0.0018042000000012,0.0169705999999999,-0.0009199999999993,0.0054036000000007,0.0023571999999999,0,sub_21
-0.0229156000000002,0.0024146000000012,0.0161205999999999,-4.539999999935698e-05,0.0026028000000007,0.001519,0,sub_21
-0.0220336000000002,0.0027574000000012,0.0156411999999999,0.0010436000000006,0.0012876000000007,0.0019623999999999,0,sub_21
-0.0247740000000002,0.0033242000000012,0.0147767999999999,0.0002102000000006,-0.0004469999999992,0.0023927999999999,0,sub_21
-0.0238200000000002,0.0029568000000012,0.0157603999999999,-0.0010515999999993,-0.0032427999999992,0.0021805999999999,0,sub_21
-0.0236206000000002,0.0021808000000012,0.0161575999999999,-0.0016521999999993,-0.0011415999999992,0.0021804,0,sub_21
-0.0235626000000002,0.0026412000000012,0.0160251999999999,-0.0005737999999993,0.0011992000000007,0.0019713999999999,0,sub_21
-0.0242244000000002,0.0025124000000012,0.0140391999999999,0.0006970000000006,-0.0017845999999992,0.0011294,0,sub_21
-0.0215934000000002,0.0024874000000012,0.0133843999999999,0.0019782000000006,-0.0009395999999992,0.0017782,0,sub_21
-0.0228178000000002,0.0031482000000012,0.0126925999999999,0.0041492000000006,-0.0001261999999992,0.0028646,0,sub_21
-0.0242732000000002,0.0040190000000012,0.0117275999999999,0.0063048000000006,-0.0031459999999992,0.0035285999999999,0,sub_21
-0.0252294000000002,0.0037078000000012,0.0130667999999999,0.0052732000000006,-0.0038083999999992,0.0035264,0,sub_21
-0.0245036000000002,0.0035628000000012,0.0161719999999999,0.0042454000000006,-0.0029819999999992,0.0041634,0,sub_21
-0.0246498000000002,0.0043198000000012,0.0164839999999999,0.0021394000000006,-0.0049205999999992,0.0045826,0,sub_21
-0.0245224000000002,0.0046672000000012,0.0145953999999999,-0.0006411999999993,-0.0051289999999992,0.0058454,0,sub_21
-0.0240594000000002,0.0043330000000012,0.0136343999999999,-0.0038435999999993,-0.0038461999999992,0.0075306,0,sub_21
-0.0239538000000002,0.0035778000000012,0.0116631999999999,-0.0048905999999993,-0.0057751999999992,0.0090208,0,sub_21
-0.0240928000000002,0.0036594000000012,0.0097423999999999,-0.0063587999999993,-0.0072729999999992,0.0096529999999999,0,sub_21
-0.0244210000000002,0.0039806000000012,0.0122003999999999,-0.0076029999999993,-0.0060035999999992,0.0107105999999999,0,sub_21
-0.0267252000000002,0.0006890000000012,0.0168701999999999,-0.0049825999999993,-0.0004823999999992,0.0107213999999999,0,sub_21
-0.0283238000000002,-0.0008059999999987,0.0204117999999999,0.0012718000000006,0.0037590000000007,0.0079818,0,sub_21
-0.0286780000000002,0.0011198000000012,0.0228011999999999,0.0072846000000006,0.0082284000000007,0.0039588,0,sub_21
-0.0282114000000002,0.0003588000000012,0.0250207999999999,0.0132994000000006,0.0135482000000007,0.000362,0,sub_21
-0.0270964000000002,-0.0014877999999987,0.0237295999999999,0.0175898000000006,0.0144024000000007,-0.0038819999999999,0,sub_21
-0.0241232000000002,0.0012178000000012,0.0193477999999999,0.0186606000000006,0.0031152000000007,-0.0085641999999999,0,sub_21
-0.0224940000000002,0.0024782000000012,0.0146301999999999,0.0144038000000006,-0.0047521999999992,-0.0113651999999999,0,sub_21
-0.0224968000000002,0.0007466000000012,0.0077339999999999,0.0078018000000006,-0.0104875999999992,-0.0124759999999999,0,sub_21
-0.0223978000000002,0.0021476000000012,0.0009231999999999,-7.939999999937789e-05,-0.0138833999999992,-0.0114623999999999,0,sub_21
-0.0227126000000002,0.0038628000000012,-0.0039192,-0.0049667999999993,-0.0138883999999992,-0.0085093999999999,0,sub_21
-0.0232584000000002,0.0049346000000012,-0.0075288,-0.0068879999999993,-0.0106993999999992,-0.0051085999999999,0,sub_21
-0.0235056000000002,0.0056674000000012,-0.008117,-0.0066803999999993,-0.0075221999999992,-0.0006246,0,sub_21
-0.0228274000000002,0.0061640000000012,-0.0051872,-0.0062623999999993,-0.0041359999999992,0.0047149999999999,0,sub_21
-0.0236974000000002,0.0046182000000013,0.0001895999999999,-0.0083845999999993,-0.0035223999999992,0.0087491999999999,0,sub_21
-0.0240208000000002,0.0022668000000013,0.0069833999999999,-0.0130815999999993,-0.0080053999999992,0.0108491999999999,0,sub_21
-0.0249826000000002,0.0018636000000013,0.0125773999999999,-0.0192463999999993,-0.0069429999999992,0.0127181999999999,0,sub_21
-0.0249806000000002,0.0020220000000013,0.0174611999999999,-0.0217943999999993,-0.0090855999999992,0.013762,0,sub_21
-0.0243468000000002,0.0013264000000013,0.0228047999999999,-0.0221951999999993,-0.0099505999999992,0.01311,0,sub_21
-0.0241796000000002,0.0016234000000012,0.0262501999999999,-0.0185543999999993,-0.0080415999999992,0.0120648,0,sub_21
-0.0254684000000002,0.0016834000000012,0.0284447999999999,-0.0150961999999993,0.0004736000000007,0.010796,0,sub_21
-0.0263052000000002,0.0003850000000012,0.0325491999999999,-0.0124953999999993,0.0068664000000007,0.0082424,0,sub_21
-0.0279266000000002,-0.0007601999999986,0.0339911999999999,-0.0150125999999993,0.0130674000000007,0.0047984,0,sub_21
-0.0279392000000002,0.0004470000000013,0.0317175999999999,-0.0153983999999993,0.0166902000000007,0.0024294,0,sub_21
-0.0275454000000002,0.0016998000000012,0.0284001999999999,-0.0149117999999993,0.0247834000000007,0.0002744,0,sub_21
-0.0270778000000002,0.0032712000000012,0.0248789999999999,-0.0082649999999993,0.0262520000000007,-0.0022561999999999,0,sub_21
-0.0252654000000002,0.0037550000000012,0.0187399999999999,-0.0033223999999993,0.0298512000000007,-0.0033061999999999,0,sub_21
-0.0243084000000002,0.0040404000000012,0.0150099999999999,0.0018594000000006,0.0408996000000007,-0.0026545999999999,0,sub_21
-0.0248396000000002,0.0034250000000012,0.0143877999999999,0.0040448000000006,0.0530336000000007,-0.0020137999999999,0,sub_21
-0.0254516000000002,0.0034668000000012,0.0134545999999999,0.0066150000000006,0.0547306000000007,-0.0024251999999999,0,sub_21
-0.0240932000000002,0.0030270000000012,0.0108667999999999,0.0049284000000006,0.0568680000000007,-0.0022473999999999,0,sub_21
-0.0236470000000002,0.0031748000000012,0.0091309999999999,0.0038782000000006,0.0592118000000007,-0.0009971999999999,0,sub_21
-0.0212934000000002,0.0038170000000012,0.0080219999999999,0.0047140000000006,0.0532424000000007,-0.0003641999999999,0,sub_21
-0.0200904000000002,0.0037450000000012,0.0069471999999999,0.0057526000000006,0.0451410000000007,0.0004866,0,sub_21
-0.0202252000000002,0.0032808000000012,0.0062429999999999,0.0046688000000006,0.0398160000000007,0.0015328,0,sub_21
-0.0203996000000002,0.0036128000000012,0.0059401999999999,0.0044220000000006,0.0329964000000007,0.0021808,0,sub_21
-0.0195626000000002,0.0038542000000012,0.0075591999999999,0.0043770000000006,0.0223464000000007,0.0015532,0,sub_21
-0.0194352000000002,0.0033342000000012,0.0087151999999999,0.0026220000000006,0.0112754000000007,0.0011278,0,sub_21
-0.0196586000000002,0.0037572000000012,0.0084513999999999,0.0002240000000006,-0.0006447999999992,0.0004854,0,sub_21
-0.0196844000000002,0.0041358000000012,0.0088159999999999,-0.0021795999999993,-0.0115037999999992,4.100000000002413e-05,0,sub_21
-0.0197608000000002,0.0044890000000012,0.0093905999999999,-0.0047849999999993,-0.0195931999999992,-0.0001945999999999,0,sub_21
-0.0209880000000002,0.0045996000000012,0.0092487999999999,-0.0056787999999993,-0.0261987999999992,7.200000000004143e-06,0,sub_21
-0.0218704000000002,0.0046520000000012,0.0103209999999999,-0.0059265999999993,-0.0317405999999992,-1.3999999999958056e-06,0,sub_21
-0.0226662000000002,0.0037280000000012,0.0119813999999999,-0.0055283999999993,-0.0364307999999992,-0.0004339999999999,0,sub_21
-0.0225498000000002,0.0031046000000012,0.0134571999999999,-0.0044815999999993,-0.0409085999999992,-0.0004209999999999,0,sub_21
-0.0235824000000002,0.0023520000000012,0.0145457999999999,-0.0034185999999993,-0.0415521999999992,-0.0001991999999999,0,sub_21
-0.0238782000000002,0.0006330000000012,0.0166129999999999,-0.0031839999999993,-0.0385525999999992,-0.0008533999999999,0,sub_21
-0.0247580000000002,0.0002184000000012,0.0170085999999999,-0.0018711999999993,-0.0336365999999992,-0.0021435999999999,0,sub_21
-0.0267494000000002,0.0015178000000012,0.0178541999999999,0.0009400000000006,-0.0270239999999992,-0.0027843999999999,0,sub_21
-0.0307110000000002,0.0009456000000012,0.0190453999999999,0.0071728000000006,-0.0180821999999992,-0.0027634,0,sub_21
-0.0340936000000002,0.0001786000000012,0.0195523999999999,0.0151144000000006,-0.0097813999999992,-0.0037978,0,sub_21
-0.0373422000000002,0.0018092000000012,0.0190715999999998,0.0219874000000006,-0.0025503999999992,-0.0065364,0,sub_21
-0.0359448000000002,0.0044370000000012,0.0160871999999998,0.0258598000000006,0.0021328000000007,-0.0088654,0,sub_21
-0.0300162000000002,0.0052822000000012,0.0125723999999999,0.0246208000000006,0.0112986000000007,-0.0088858,0,sub_21
-0.0211418000000002,0.0071290000000012,0.0098519999999999,0.0193056000000006,0.0162148000000007,-0.0082881999999999,0,sub_21
-0.0165612000000002,0.0084198000000012,0.0113593999999999,0.0122800000000006,0.0151624000000007,-0.0047281999999999,0,sub_21
-0.0139272000000002,0.0065900000000012,0.0135047999999999,0.0060818000000006,0.0100522000000007,0.0005517999999999,0,sub_21
-0.0165008000000002,0.0036142000000012,0.0169793999999999,0.0011936000000006,0.0104810000000007,0.0047657999999999,0,sub_21
-0.0224326000000002,0.0023462000000012,0.0212613999999999,-0.0011331999999993,0.0070822000000007,0.0049431999999999,0,sub_21
-0.0287154000000002,0.0015908000000012,0.0237021999999999,-0.0047371999999993,0.0028416000000007,0.0036174,0,sub_21
-0.0311234000000002,0.0011056000000012,0.0238281999999999,-0.0081185999999993,0.0060654000000007,-0.0004695999999999,0,sub_21
-0.0333728000000002,0.0021800000000012,0.0221579999999999,-0.0106147999999993,0.0165292000000007,-0.0043459999999999,0,sub_21
-0.0347096000000002,0.0022442000000012,0.0208591999999999,-0.0122339999999993,0.0281726000000007,-0.0067369999999999,0,sub_21
-0.0352004000000002,0.0008786000000012,0.0199761999999999,-0.0121395999999993,0.0432114000000007,-0.0071973999999999,0,sub_21
-0.0353180000000002,-3.339999999871421e-05,0.0201963999999999,-0.0107399999999993,0.0637850000000007,-0.0076559999999999,0,sub_21
-0.0331500000000002,-0.0001655999999987,0.0183287999999999,-0.0102293999999993,0.0771152000000007,-0.0074705999999999,0,sub_21
-0.0285244000000002,-0.0002103999999987,0.0159927999999999,-0.0138005999999993,0.0849176000000007,-0.0066655999999999,0,sub_21
-0.0233762000000002,-8.659999999871425e-05,0.0146659999999999,-0.0221077999999993,0.0906890000000007,-0.0041672,0,sub_21
-0.0207638000000002,0.0014562000000012,0.0116079999999999,-0.0312981999999993,0.0896464000000007,-0.00188,0,sub_21
-0.0190094000000002,0.0018712000000012,0.0078725999999999,-0.0383865999999993,0.0802924000000007,-0.0008492,0,sub_21
-0.0186010000000002,0.0022712000000012,0.0058211999999999,-0.0448231999999993,0.0728562000000007,-0.0004574,0,sub_21
-0.0197156000000002,0.0019672000000012,0.0065451999999999,-0.0484735999999993,0.0650962000000007,-0.0002712,0,sub_21
-0.0217420000000002,0.0018542000000012,0.0069871999999999,-0.0495795999999993,0.0524320000000007,-0.0013427999999999,0,sub_21
-0.0218826000000002,0.0005528000000012,0.0084033999999999,-0.0523877999999993,0.0406268000000007,-0.0026409999999999,0,sub_21
-0.0208040000000002,2.1800000001285736e-05,0.0107631999999998,-0.0568981999999993,0.0309540000000007,-0.0028857999999999,0,sub_21
-0.0213448000000002,0.0003560000000012,0.0127639999999998,-0.0609857999999993,0.0208518000000007,-0.0026995999999999,0,sub_21
-0.0219362000000002,0.0028180000000012,0.0119291999999999,-0.0610365999999993,0.0097720000000007,-0.0024719999999999,0,sub_21
-0.0222930000000002,0.0052042000000012,0.0090121999999999,-0.0535915999999993,0.0048448000000007,-0.0022001999999999,0,sub_21
-0.0230488000000002,0.0072102000000012,0.0060681999999999,-0.0392593999999993,0.0090556000000007,-0.0027525999999999,0,sub_21
-0.0214160000000002,0.0079788000000012,0.0020521999999999,-0.0211131999999993,0.0074996000000007,-0.0030571999999999,0,sub_21
-0.0194866000000002,0.0067876000000012,-3.000000000005134e-05,-0.0044511999999993,0.0104136000000007,-0.0010277999999999,0,sub_21
-0.0176188000000002,0.0047838000000012,0.0006369999999999,0.0077282000000006,0.0135540000000007,0.0016108,0,sub_21
-0.0181898000000002,0.0036636000000012,0.0003115999999999,0.0156286000000006,0.0122426000000007,0.0023024,0,sub_21
-0.0166834000000002,0.0034302000000012,0.0001411999999999,0.0211284000000006,0.0017828000000007,0.0025677999999999,0,sub_21
-0.0176472000000002,0.0037462000000012,0.0011695999999999,0.0209034000000006,7.58000000007069e-05,0.0034229999999999,0,sub_21
-0.0186686000000002,0.0036898000000012,0.0053587999999999,0.0157692000000006,-0.0022523999999992,0.004031,0,sub_21
-0.0200574000000002,0.0034030000000012,0.0061997999999999,0.0097516000000006,-0.0118189999999992,0.0040012,0,sub_21
-0.0205184000000002,0.0032804000000012,0.0091549999999999,0.0043578000000006,-0.0192579999999992,0.0050487999999999,0,sub_21
-0.0219358000000002,0.0033366000000012,0.0106647999999999,0.0015400000000006,-0.0235095999999992,0.0058965999999999,0,sub_21
-0.0233886000000002,0.0027348000000012,0.0136563999999999,0.0004474000000006,-0.0254167999999992,0.0050441999999999,0,sub_21
