userAcceleration.x,userAcceleration.y,userAcceleration.z,rotationRate.x,rotationRate.y,rotationRate.z,label,subject
-0.0035986000000004,0.0059110000000012,-0.0068818,0.0070028000000005,0.1406600000000006,-0.0059252,0,sub_9
0.0010081999999995,0.0069826000000012,-0.0084106,0.0119210000000004,0.1459478000000006,-0.00956,0,sub_9
0.0062419999999995,0.0045388000000012,-0.0107472,0.0167998000000004,0.1431372000000006,-0.0125438,0,sub_9
0.0122135999999995,0.0072878000000012,-0.0126612,0.0177094000000004,0.1145496000000006,-0.012745,0,sub_9
0.0161291999999995,0.0071506000000012,-0.0119972,0.0204238000000004,0.1023916000000006,-0.0116422,0,sub_9
0.0148995999999995,0.0067282000000012,-0.0117594,0.0214082000000004,0.0872482000000006,-0.0084112,0,sub_9
0.0119153999999995,0.0072054000000012,-0.0122282,0.0202502000000004,0.0704072000000006,-0.0049794,0,sub_9
0.0079135999999995,0.0082462000000012,-0.0135124,0.0190604000000004,0.0561382000000006,-0.0024376,0,sub_9
0.0032155999999995,0.0088664000000012,-0.0129616,0.0191508000000004,0.0408036000000006,-0.0009538,0,sub_9
-0.0010536000000004,0.0103788000000012,-0.0118404,0.0149430000000005,0.0186662000000006,0.0005085999999999,0,sub_9
-0.0024152000000004,0.0114484000000012,-0.0116618,0.0040996000000005,-0.0091961999999993,0.0008637999999999,0,sub_9
-0.0009620000000003,0.0112576000000012,-0.0098028,-0.0079675999999994,-0.0249083999999993,0.0007675999999999,0,sub_9
-0.0029856000000003,0.0121288000000012,-0.011055,-0.0199405999999994,-0.0278587999999993,0.0030377999999999,0,sub_9
-0.0021836000000003,0.0135912000000012,-0.0159354,-0.0366353999999994,-0.0361225999999993,0.0061363999999999,0,sub_9
0.0045973999999996,0.0132232000000012,-0.0188412,-0.0392035999999994,-0.0386667999999993,0.0052671999999999,0,sub_9
0.0094655999999996,0.0092616000000012,-0.0096768,-0.0217365999999994,-0.0297741999999993,0.0038369999999999,0,sub_9
0.0133083999999996,0.0048546000000012,-0.0016484,-0.0094823999999994,-0.0396191999999993,0.0041035999999999,0,sub_9
0.0227231999999995,-0.0015243999999987,0.0002415999999999,-0.0119835999999994,-0.0570809999999993,0.0038495999999999,0,sub_9
0.0313767999999995,-0.0020601999999986,-0.0047348,-0.0114199999999994,-0.0562347999999993,0.0046617999999999,0,sub_9
0.0346711999999995,-0.0024033999999986,-0.0061826,-0.0042033999999994,-0.0471019999999993,0.0052961999999999,0,sub_9
0.0334535999999995,-0.0038927999999986,-0.0068098,-0.0050385999999994,-0.0428387999999993,0.0054983999999999,0,sub_9
0.0263499999999995,-0.0029823999999986,-0.0101948,-0.0154631999999994,-0.0368333999999993,0.0045631999999999,0,sub_9
0.0170185999999995,0.0008896000000013,-0.0082588,-0.0229147999999994,-0.0384903999999993,-0.000828,0,sub_9
0.0111403999999995,-2.0799999998693737e-05,-0.0001196,-0.0247557999999994,-0.0433367999999993,-0.0090348,0,sub_9
0.0048589999999995,-0.0005821999999986,0.0045541999999999,-0.0392433999999995,-0.0560415999999993,-0.012406,0,sub_9
0.0029267999999995,0.0038486000000012,-0.0019888,-0.0558761999999994,-0.0691735999999993,-0.0136552,0,sub_9
0.0042811999999995,0.0075986000000012,-0.0072346,-0.0575411999999994,-0.0744783999999993,-0.0139552,0,sub_9
0.0044711999999995,0.0090870000000012,-0.0103912,-0.0470267999999994,-0.0730197999999993,-0.0111878,0,sub_9
0.0005305999999995,0.0093576000000012,-0.0129316,-0.0365973999999994,-0.0773233999999993,-0.009614,0,sub_9
-0.0005154000000004,0.0096684000000012,-0.0162072,-0.0244139999999994,-0.0733153999999993,-0.010175,0,sub_9
-0.0009378000000004,0.0093980000000012,-0.0188492,-0.0137051999999995,-0.0648289999999993,-0.0105384,0,sub_9
0.0016481999999995,0.0085622000000012,-0.0191034,-0.0023207999999995,-0.0605445999999993,-0.0124528,0,sub_9
0.0072393999999995,0.0074268000000012,-0.0162312,0.0054266000000004,-0.0583779999999993,-0.0143898,0,sub_9
0.0127227999999995,0.0069178000000012,-0.0127838,0.0065536000000004,-0.0540713999999993,-0.0129574,0,sub_9
0.0135625999999995,0.0065882000000012,-0.0114066,0.0025110000000005,-0.0589149999999993,-0.0098404,0,sub_9
0.0130259999999995,0.0067860000000012,-0.011166,-0.0024243999999994,-0.0741883999999993,-0.0084252,0,sub_9
0.0126223999999995,0.0068162000000012,-0.0108084,-0.0050511999999994,-0.0882433999999993,-0.0077846,0,sub_9
0.0103291999999995,0.0069432000000012,-0.012091,-0.0040351999999994,-0.0993267999999993,-0.0075498,0,sub_9
0.0077293999999995,0.0063452000000012,-0.0110016,-0.0033927999999994,-0.1145491999999993,-0.0084084,0,sub_9
0.0075403999999995,0.0056604000000012,-0.0093236,-0.0031619999999994,-0.1274223999999993,-0.010341,0,sub_9
0.0065489999999995,0.0057062000000012,-0.0082804,-0.0029089999999994,-0.1336975999999993,-0.0105728,0,sub_9
0.0033155999999995,0.0062750000000012,-0.0096968,-0.0054393999999994,-0.1418815999999993,-0.010608,0,sub_9
0.0002713999999995,0.0068476000000012,-0.010597,-0.0077515999999994,-0.1504863999999993,-0.0121364,0,sub_9
-0.0028264000000004,0.0062654000000012,-0.0102402,-0.0038907999999994,-0.1477233999999993,-0.0138222,0,sub_9
-0.0068488000000004,0.0054080000000012,-0.0102346,-0.0025845999999994,-0.1432485999999993,-0.0151006,0,sub_9
-0.0064444000000004,0.0049750000000012,-0.0113492,-0.0059717999999994,-0.1400297999999993,-0.0179058,0,sub_9
-0.0056654000000004,0.0048244000000012,-0.011951,-0.0080403999999994,-0.1259591999999993,-0.0183656,0,sub_9
-0.0063410000000004,0.0049194000000012,-0.011719,-0.0080569999999994,-0.1110111999999993,-0.0158436,0,sub_9
-0.0050238000000004,0.0053832000000012,-0.0122278,-0.0098111999999994,-0.1037235999999993,-0.0141782,0,sub_9
-0.0011570000000004,0.0056160000000012,-0.0106704,-0.0102737999999994,-0.0943081999999993,-0.012934,0,sub_9
-0.0007716000000004,0.0044556000000013,-0.0069644,-0.0081777999999994,-0.0832059999999993,-0.0095376,0,sub_9
-0.0004278000000004,0.0037376000000013,-0.0043844,-0.0082527999999994,-0.0818905999999993,-0.0076392,0,sub_9
0.0014487999999995,0.0031944000000013,-0.0046924,-0.0112303999999994,-0.0795373999999993,-0.0074494,0,sub_9
0.0011843999999995,0.0033388000000013,-0.006956,-0.0139755999999994,-0.0727117999999993,-0.0070502,0,sub_9
0.0001801999999995,0.0040908000000013,-0.0095808,-0.0158647999999994,-0.0663223999999993,-0.0077272,0,sub_9
0.0016499999999995,0.0065864000000012,-0.0132898,-0.0164459999999994,-0.0546075999999993,-0.0092564,0,sub_9
0.0031809999999995,0.0073378000000012,-0.0149078,-0.0142255999999994,-0.0362995999999993,-0.0103472,0,sub_9
0.0024027999999995,0.0068056000000012,-0.0133876,-0.0113891999999994,-0.0226835999999993,-0.0107866,0,sub_9
0.0030889999999995,0.0057974000000012,-0.0111874,-0.0117713999999994,-0.0137407999999993,-0.0118834,0,sub_9
0.0055903999999995,0.0052882000000012,-0.0090346,-0.0123741999999994,-0.0062781999999993,-0.0127518,0,sub_9
0.0068257999999995,0.0032744000000012,-0.0060816,-0.0129921999999994,-0.0015879999999993,-0.0129758,0,sub_9
0.0060333999999995,0.0017794000000012,-0.0044928,-0.0194067999999994,-0.0032751999999993,-0.0117366,0,sub_9
0.0043811999999995,0.0019558000000012,-0.004622,-0.0266633999999994,-0.0036757999999993,-0.0117868,0,sub_9
0.0024143999999995,0.0040538000000012,-0.0065904,-0.0304705999999994,0.0037944000000006,-0.011823,0,sub_9
-0.0014978000000004,0.0046860000000012,-0.0102992,-0.0344949999999994,0.0114742000000006,-0.0107926,0,sub_9
-0.0044694000000004,0.0056296000000012,-0.0131966,-0.0376553999999994,0.0206458000000006,-0.0106128,0,sub_9
-0.0027946000000004,0.0057156000000012,-0.0137904,-0.0343657999999994,0.0398120000000006,-0.0112554,0,sub_9
0.0024413999999995,0.0052270000000012,-0.0131278,-0.0323475999999994,0.0617488000000006,-0.0110558,0,sub_9
0.0095311999999995,0.0034268000000012,-0.0107934,-0.0361277999999994,0.0768822000000006,-0.0093924,0,sub_9
0.0141327999999995,0.0022650000000012,-0.007132,-0.0422915999999994,0.0849886000000006,-0.0066686,0,sub_9
0.0181845999999995,0.0011350000000012,-0.0055924,-0.0512609999999994,0.0845888000000006,-0.0054488,0,sub_9
0.0212395999999995,0.0029602000000012,-0.0063176,-0.0630547999999994,0.0707848000000005,-0.006368,0,sub_9
0.0229957999999995,0.0052608000000012,-0.0077318,-0.0729591999999994,0.0501564000000005,-0.0072654,0,sub_9
0.0199379999999995,0.0080256000000012,-0.0109372,-0.0766957999999994,0.0252444000000006,-0.0079006,0,sub_9
0.0176645999999995,0.0114140000000012,-0.014649,-0.0703627999999994,0.0077612000000006,-0.010184,0,sub_9
0.0105785999999995,0.0137452000000012,-0.01637,-0.0537425999999994,0.0025898000000006,-0.0100614,0,sub_9
0.0010299999999995,0.0126314000000012,-0.0177992,-0.0300381999999994,0.0080420000000006,-0.0088346,0,sub_9
-0.0065366000000004,0.0118036000000012,-0.0204534,0.0005326000000005,0.0194462000000006,-0.0101312,0,sub_9
-0.0091406000000004,0.0103006000000012,-0.0166746,0.0281036000000005,0.0255448000000006,-0.0140056,0,sub_9
-0.0082078000000004,0.0071234000000012,-0.0123368,0.0419604000000005,0.0180582000000006,-0.0185994,0,sub_9
0.0057217999999995,0.0047460000000012,-0.013826,0.0406524000000005,0.0057302000000006,-0.0247884,0,sub_9
0.0234987999999995,0.0050168000000012,-0.0094592,0.0312200000000005,-0.0082813999999993,-0.0291092,0,sub_9
0.0369087999999995,0.0041976000000012,-0.0050166,0.0068400000000005,-0.0218267999999993,-0.030544,0,sub_9
0.0465703999999995,0.0046946000000012,-0.0150712,-0.0269983999999994,-0.0445261999999993,-0.0256238,0,sub_9
0.0589263999999995,0.0108630000000012,-0.0277526,-0.0521219999999994,-0.0802301999999993,-0.0261808,0,sub_9
0.0641369999999995,0.0180718000000012,-0.03529,-0.0608439999999994,-0.1255651999999993,-0.0300292,0,sub_9
0.0644387999999995,0.0211386000000012,-0.044646,-0.0633695999999994,-0.1694287999999993,-0.0342636,0,sub_9
0.0617859999999995,0.0239012000000012,-0.0499562,-0.0565469999999994,-0.2201513999999993,-0.0362874,0,sub_9
0.0586095999999995,0.0248188000000012,-0.0445816,-0.0379303999999994,-0.2636481999999993,-0.0440066,0,sub_9
0.0513471999999995,0.0183754000000013,-0.037647,-0.0197079999999994,-0.2962923999999993,-0.0481104,0,sub_9
0.0427333999999995,0.0122096000000013,-0.0279404,-0.0098481999999994,-0.3319149999999993,-0.046073,0,sub_9
0.0373881999999995,0.0095516000000013,-0.017594,-0.0051533999999994,-0.3819885999999993,-0.0487534,0,sub_9
0.0367139999999995,0.0059830000000013,-0.0078286,-0.0040773999999994,-0.4294953999999993,-0.0508214,0,sub_9
0.0353995999999995,0.0031272000000013,0.0011275999999999,-0.0068411999999994,-0.4752901999999993,-0.051423,0,sub_9
0.0317583999999995,0.0020760000000012,0.0092489999999999,-0.0123623999999994,-0.5149069999999993,-0.049488,0,sub_9
0.0269201999999995,-0.0013339999999987,0.0145559999999999,-0.0210687999999994,-0.5542867999999993,-0.0507802,0,sub_9
0.0204289999999995,-0.0042281999999987,0.0153713999999999,-0.0303961999999994,-0.5877055999999994,-0.0503752,0,sub_9
0.0143527999999995,-0.0035589999999987,0.0135347999999999,-0.0390575999999994,-0.6206791999999994,-0.0553072,0,sub_9
0.0092765999999995,0.0001448000000012,0.0096485999999999,-0.0455803999999994,-0.6479267999999994,-0.0555314,0,sub_9
0.0038661999999996,0.0041944000000012,0.0051221999999999,-0.0478623999999994,-0.6626981999999993,-0.0625612,0,sub_9
-0.0020794000000003,0.0080892000000012,-0.0005604,-0.0454081999999994,-0.6668385999999994,-0.0682898,0,sub_9
-0.0063364000000003,0.0106694000000012,-0.002946,-0.0380329999999994,-0.6669523999999993,-0.0729208,0,sub_9
-0.0085434000000003,0.0112864000000012,-0.0030588,-0.0276923999999994,-0.6647619999999994,-0.0702702,0,sub_9
-0.0093686000000003,0.0096894000000012,-0.002472,-0.0155069999999994,-0.6395371999999994,-0.0753274,0,sub_9
-0.0114532000000003,0.0086922000000012,-0.000875,-0.0036555999999994,-0.6084937999999994,-0.0699432,0,sub_9
-0.0129926000000003,0.0076282000000012,0.0056647999999999,0.0073424000000005,-0.5778717999999994,-0.0649918,0,sub_9
-0.0154840000000004,0.0053186000000012,0.0105465999999999,0.0155714000000005,-0.5446893999999994,-0.0585676,0,sub_9
-0.0193884000000004,0.0037758000000012,0.0123161999999999,0.0212934000000005,-0.5033867999999994,-0.0560168,0,sub_9
-0.0208942000000004,0.0017922000000012,0.0147565999999999,0.0245948000000005,-0.4763589999999993,-0.0513282,0,sub_9
-0.0198202000000004,-1.0599999998732803e-05,0.0185805999999999,0.0254808000000005,-0.4627521999999994,-0.0449302,0,sub_9
-0.0158814000000003,-0.0013657999999987,0.0228797999999999,0.0212766000000005,-0.4461293999999993,-0.0424172,0,sub_9
-0.0149120000000003,-0.0020559999999987,0.0250901999999999,0.0126462000000005,-0.4164981999999993,-0.0390972,0,sub_9
-0.0156284000000003,-0.0034469999999987,0.0267577999999999,0.0014506000000005,-0.3868621999999994,-0.034727,0,sub_9
-0.0212984000000003,-0.0041313999999987,0.0265503999999999,-0.0097527999999994,-0.3576573999999993,-0.0290744,0,sub_9
-0.0260012000000003,-0.0024599999999987,0.0264967999999999,-0.0191875999999994,-0.3199159999999993,-0.0285478,0,sub_9
-0.0334632000000004,0.0001116000000012,0.0221129999999999,-0.0239051999999994,-0.2728337999999993,-0.0237272,0,sub_9
-0.0401192000000003,0.0020282000000012,0.0167855999999999,-0.0243649999999994,-0.2298067999999993,-0.0207944,0,sub_9
-0.0448386000000003,0.0033840000000012,0.0134243999999999,-0.0190455999999994,-0.1850861999999993,-0.0201736,0,sub_9
-0.0462528000000003,0.0035536000000013,0.0126069999999999,-0.0122047999999994,-0.1339799999999993,-0.0193366,0,sub_9
-0.0449704000000003,0.0022978000000013,0.0107799999999999,-0.0077091999999994,-0.0815907999999993,-0.0176632,0,sub_9
-0.0390942000000004,0.0017054000000013,0.0071961999999999,-0.0055913999999994,-0.0347377999999993,-0.0147174,0,sub_9
-0.0310740000000004,0.0025288000000013,0.0048079999999999,-0.0024391999999994,0.0057166000000006,-0.0109016,0,sub_9
-0.0219368000000004,0.0032802000000012,0.0014795999999999,-0.0016809999999994,0.0357396000000006,-0.0070892,0,sub_9
-0.0121874000000004,0.0048678000000012,-0.003036,-0.0022453999999994,0.0551194000000005,-0.0045542,0,sub_9
-0.0050818000000004,0.0053986000000012,-0.0064086,-0.0030509999999994,0.0678972000000005,-0.0024396,0,sub_9
-0.0026864000000004,0.0054580000000012,-0.007711,-0.0043159999999994,0.0734326000000006,-0.0003192,0,sub_9
-0.0011182000000004,0.0054446000000012,-0.0086872,-0.0077357999999994,0.0747126000000006,0.0022189999999999,0,sub_9
-0.0019300000000004,0.0061428000000012,-0.0108576,-0.0102885999999994,0.0785478000000006,0.0043327999999999,0,sub_9
-0.0028896000000003,0.0064144000000012,-0.0127226,-0.0107037999999994,0.0825914000000006,0.0058201999999999,0,sub_9
-0.0043418000000003,0.0072946000000012,-0.0134562,-0.0102615999999994,0.0872718000000006,0.0070989999999999,0,sub_9
-0.0054114000000003,0.0076220000000012,-0.0148198,-0.0080989999999994,0.0940804000000005,0.0075327999999999,0,sub_9
-0.0046936000000003,0.0068546000000012,-0.0155168,-0.0048705999999994,0.0996110000000005,0.0069071999999999,0,sub_9
-0.0026666000000003,0.0063104000000012,-0.013996,-0.0039969999999994,0.1040822000000005,0.0069075999999999,0,sub_9
-0.0016942000000003,0.0057544000000012,-0.01072,-0.0071851999999994,0.1079240000000006,0.0079485999999999,0,sub_9
-0.0007496000000003,0.0044930000000012,-0.0096218,-0.0116535999999994,0.1117704000000006,0.0089807999999999,0,sub_9
0.0012597999999995,0.0042256000000012,-0.0084264,-0.0169783999999994,0.1143440000000006,0.0093675999999999,0,sub_9
0.0003299999999995,0.0050096000000012,-0.0074418,-0.0227307999999994,0.1167060000000006,0.0097517999999999,0,sub_9
-0.0002374000000004,0.0052384000000012,-0.0074718,-0.0276325999999994,0.1186380000000006,0.0103559999999999,0,sub_9
-0.0001470000000004,0.0047982000000012,-0.0080866,-0.0303967999999994,0.1216270000000006,0.0111873999999999,0,sub_9
1.9599999999543766e-05,0.0056026000000012,-0.0091532,-0.0323143999999994,0.1233338000000006,0.0122399999999999,0,sub_9
0.0005369999999995,0.0067342000000012,-0.0099328,-0.0331783999999994,0.1226908000000005,0.0139437999999999,0,sub_9
0.0032819999999995,0.0077498000000012,-0.011592,-0.0325431999999994,0.1233210000000006,0.0156565999999999,0,sub_9
0.0061627999999995,0.0083650000000012,-0.0132196,-0.0308611999999994,0.1190490000000006,0.0169555999999999,0,sub_9
0.0079471999999995,0.0097314000000012,-0.0150258,-0.0276835999999994,0.1154100000000006,0.0184779999999999,0,sub_9
0.0097759999999995,0.0104014000000012,-0.0160288,-0.0240859999999994,0.1102782000000005,0.0200051999999999,0,sub_9
0.0102655999999995,0.0098888000000012,-0.0166844,-0.0213427999999994,0.1040874000000005,0.0206733999999999,0,sub_9
0.0095547999999995,0.0092624000000012,-0.0159442,-0.0179661999999994,0.0966152000000005,0.0215609999999999,0,sub_9
0.0079171999999995,0.0088460000000012,-0.0144544,-0.0141465999999994,0.0919146000000005,0.0215937999999999,0,sub_9
0.0058501999999995,0.0087342000000012,-0.0131298,-0.0114063999999994,0.0829626000000005,0.0201287999999999,0,sub_9
0.0043477999999995,0.0076216000000012,-0.0115754,-0.0088707999999994,0.0752922000000005,0.0180199999999999,0,sub_9
0.0027337999999995,0.0065932000000012,-0.0104174,-0.0060279999999994,0.0731918000000006,0.0169893999999999,0,sub_9
0.0016177999999995,0.0062682000000012,-0.0102358,-0.0048833999999994,0.0732272000000006,0.0161577999999999,0,sub_9
0.0012111999999995,0.0058772000000012,-0.0097202,-0.0037369999999994,0.0734764000000006,0.0151121999999999,0,sub_9
0.0026549999999995,0.0061882000000012,-0.009106,-0.0010901999999994,0.0754240000000006,0.0142887999999999,0,sub_9
0.0044947999999995,0.0072592000000012,-0.0087296,0.0024042000000005,0.0765148000000006,0.0138995999999999,0,sub_9
0.0087513999999995,0.0078710000000012,-0.0078914,0.0064304000000004,0.0688366000000006,0.0124419999999999,0,sub_9
0.0126497999999995,0.0082674000000012,-0.0081664,0.0093696000000004,0.0560514000000006,0.0103425999999999,0,sub_9
0.0155767999999995,0.0088002000000012,-0.0092064,0.0122984000000004,0.0417716000000006,0.0090995999999999,0,sub_9
0.0170899999999995,0.0077700000000012,-0.0102948,0.0139402000000004,0.0253682000000006,0.0072091999999999,0,sub_9
0.0177725999999995,0.0062566000000012,-0.0100254,0.0149438000000004,0.0083320000000006,0.0042469999999999,0,sub_9
0.0164203999999995,0.0059620000000012,-0.009887,0.0146806000000004,-0.0061411999999993,0.0008453999999999,0,sub_9
0.0158953999999995,0.0057906000000012,-0.0085068,0.0146384000000004,-0.0184863999999993,-0.0021302,0,sub_9
0.0175813999999995,0.0063714000000012,-0.0087002,0.0130882000000004,-0.0340221999999993,-0.0051122,0,sub_9
0.0196345999999995,0.0070644000000012,-0.0091316,0.0123752000000005,-0.0529705999999993,-0.0078702,0,sub_9
0.0200303999999995,0.0084908000000012,-0.0109976,0.0125090000000005,-0.0723521999999993,-0.0095536,0,sub_9
0.0202761999999995,0.0089104000000012,-0.0134158,0.0141346000000005,-0.0923773999999993,-0.0114394,0,sub_9
0.0200389999999995,0.0091612000000012,-0.0147608,0.0174700000000004,-0.1126181999999993,-0.0141674,0,sub_9
0.0178653999999995,0.0085476000000012,-0.0145992,0.0212426000000004,-0.1303047999999994,-0.016682,0,sub_9
0.0141775999999995,0.0081782000000012,-0.013685,0.0237552000000004,-0.1426639999999993,-0.0183578,0,sub_9
0.0122545999999995,0.0072026000000012,-0.0126984,0.0254142000000004,-0.1554445999999993,-0.0204664,0,sub_9
0.0090525999999995,0.0071948000000012,-0.0102646,0.0262446000000004,-0.1605607999999993,-0.020454,0,sub_9
0.0052485999999995,0.0063550000000012,-0.0092858,0.0264446000000005,-0.1622709999999993,-0.0191686,0,sub_9
0.0012611999999996,0.0058442000000012,-0.0078358,0.0258064000000005,-0.1599327999999993,-0.0172534,0,sub_9
-0.0018040000000003,0.0051856000000012,-0.0071406,0.0243358000000005,-0.1531167999999993,-0.0155632,0,sub_9
-0.0035310000000003,0.0048128000000012,-0.0063576,0.0226730000000005,-0.1414005999999993,-0.013667,0,sub_9
-0.0039366000000003,0.0045632000000012,-0.006533,0.0210158000000004,-0.1296793999999993,-0.0130528,0,sub_9
-0.0028886000000004,0.0048664000000012,-0.0074464,0.0195720000000004,-0.1183833999999993,-0.0128638,0,sub_9
-0.0012882000000004,0.0051724000000012,-0.0084972,0.0198486000000004,-0.1049591999999993,-0.01352,0,sub_9
0.0009545999999995,0.0059918000000012,-0.0086456,0.0205386000000004,-0.0938825999999993,-0.0135294,0,sub_9
0.0011297999999995,0.0066970000000012,-0.008695,0.0207922000000004,-0.0845107999999993,-0.0131124,0,sub_9
0.0011969999999995,0.0063258000000012,-0.0088488,0.0210412000000004,-0.0764163999999993,-0.0129074,0,sub_9
-8.66000000003966e-05,0.0061540000000012,-0.0086188,0.0210814000000004,-0.0676801999999993,-0.013132,0,sub_9
-0.0015190000000003,0.0058588000000012,-0.0085398,0.0204720000000005,-0.0610725999999993,-0.0133584,0,sub_9
-0.0030488000000003,0.0054896000000012,-0.0084958,0.0198758000000005,-0.0508455999999993,-0.0129484,0,sub_9
-0.0038254000000003,0.0053180000000012,-0.0089842,0.0193000000000005,-0.0361443999999993,-0.0125438,0,sub_9
-0.0038658000000003,0.0053992000000012,-0.0090638,0.0174428000000005,-0.0205907999999993,-0.0110812,0,sub_9
-0.0037088000000003,0.0047178000000012,-0.008922,0.0145180000000005,-0.0046099999999993,-0.0089856,0,sub_9
-0.0034796000000003,0.0051616000000012,-0.009241,0.0120218000000005,0.0120078000000006,-0.0066742,0,sub_9
-0.0025938000000003,0.0054092000000012,-0.0104246,0.0097380000000004,0.0273508000000006,-0.005428,0,sub_9
-0.0014282000000003,0.0058792000000012,-0.0112528,0.0074436000000004,0.0407744000000006,-0.0037522,0,sub_9
-0.0004294000000003,0.0069918000000012,-0.0129326,0.0068610000000004,0.0548332000000006,-0.0024924,0,sub_9
0.0001975999999996,0.0086874000000012,-0.0145116,0.0076158000000004,0.0684904000000006,-0.0009996,0,sub_9
-3.880000000041672e-05,0.0092438000000012,-0.0147858,0.0081582000000004,0.0821490000000006,0.0002781999999999,0,sub_9
-6.300000000041671e-05,0.0090812000000012,-0.0154674,0.0095504000000004,0.0947404000000006,0.0013495999999999,0,sub_9
0.0008891999999995,0.0094170000000012,-0.0142008,0.0115760000000004,0.1056260000000006,0.0022139999999999,0,sub_9
0.0019421999999995,0.0086962000000012,-0.0135346,0.0127338000000004,0.1135308000000006,0.0032897999999999,0,sub_9
0.0039165999999995,0.0077234000000012,-0.012458,0.0125454000000004,0.1205562000000006,0.0047749999999999,0,sub_9
0.0063427999999995,0.0076336000000012,-0.012918,0.0112834000000004,0.1265186000000006,0.0066813999999999,0,sub_9
0.0073971999999995,0.0089930000000012,-0.0133518,0.0102290000000004,0.1290260000000006,0.0083899999999999,0,sub_9
0.0066417999999995,0.0094098000000012,-0.0156582,0.0096004000000005,0.1302578000000006,0.0090349999999999,0,sub_9
