userAcceleration.x,userAcceleration.y,userAcceleration.z,rotationRate.x,rotationRate.y,rotationRate.z,label,subject
0.0284247999999997,0.0282172000000012,-0.0952888,0.0038142000000006,-0.010730999999999,-0.0054132,0,sub_22
0.0269697999999997,0.0267120000000012,-0.0938464,0.0070272000000006,-0.009245799999999,-0.0066746,0,sub_22
0.0261197999999997,0.0268946000000012,-0.09292,0.0091810000000006,-0.006901199999999,-0.008799,0,sub_22
0.0269065999999996,0.0262998000000012,-0.0918564,0.0128352000000006,-0.002858199999999,-0.0107014,0,sub_22
0.0281339999999997,0.0269934000000012,-0.0928992,0.0154102000000006,-0.000307999999999,-0.0113276,0,sub_22
0.0297793999999997,0.0276792000000012,-0.0919084,0.0198968000000006,0.0005302000000008,-0.0117246,0,sub_22
0.0308351999999996,0.0281714000000012,-0.089955,0.0239556000000006,0.0020058000000008,-0.0112708,0,sub_22
0.0315983999999996,0.0271158000000012,-0.0901688,0.0271630000000006,0.0041226000000008,-0.0106102,0,sub_22
0.0322179999999997,0.0269110000000012,-0.090783,0.0309942000000006,0.0028274000000008,-0.0097272,0,sub_22
0.0316807999999997,0.0245992000000012,-0.0882038,0.0352548000000006,0.0008968000000008,-0.0101222,0,sub_22
0.0308447999999997,0.0233566000000012,-0.0889954,0.0361150000000006,0.0013242000000008,-0.011185,0,sub_22
0.0320539999999997,0.0229680000000012,-0.091069,0.0380336000000006,-0.0016549999999991,-0.0137316,0,sub_22
0.0320827999999997,0.0220864000000012,-0.0916952,0.0399540000000006,-0.003359199999999,-0.015425,0,sub_22
0.0323717999999997,0.0215436000000012,-0.0925052,0.0416610000000006,-0.005487199999999,-0.0175468,0,sub_22
0.0326221999999997,0.0234032000000012,-0.0949906,0.0420762000000006,-0.009530799999999,-0.0190344,0,sub_22
0.0335899999999997,0.0237122000000012,-0.0945728,0.0433362000000006,-0.015282599999999,-0.0203002,0,sub_22
0.0332305999999997,0.0234460000000012,-0.0934462,0.0441886000000006,-0.017196199999999,-0.0220008,0,sub_22
0.0342109999999997,0.0233236000000012,-0.093781,0.0450334000000006,-0.021450999999999,-0.0243396,0,sub_22
0.0347367999999997,0.0242042000000012,-0.0937006,0.0452362000000006,-0.025704999999999,-0.0262556,0,sub_22
0.0346687999999997,0.0243596000000012,-0.0921984,0.0460830000000006,-0.029108999999999,-0.028168,0,sub_22
0.0331477999999997,0.0249044000000012,-0.0923858,0.0477872000000006,-0.032724799999999,-0.0311424,0,sub_22
0.0327039999999997,0.0248986000000012,-0.0924448,0.0495010000000006,-0.0339979999999991,-0.0339062,0,sub_22
0.0318869999999997,0.0252498000000012,-0.0925678,0.0518654000000006,-0.033141999999999,-0.0368818,0,sub_22
0.0318291999999997,0.0255754000000012,-0.092851,0.0548554000000006,-0.035696399999999,-0.0400622,0,sub_22
0.0328861999999997,0.0249344000000012,-0.0920698,0.0574112000000006,-0.039529399999999,-0.0428168,0,sub_22
0.0334621999999997,0.0239540000000012,-0.0918256,0.0591182000000006,-0.0408085999999991,-0.044085,0,sub_22
0.0316343999999997,0.0229248000000012,-0.0919876,0.0614470000000006,-0.046562399999999,-0.0457706,0,sub_22
0.0302727999999997,0.0226150000000012,-0.0910742,0.0642044000000006,-0.051891599999999,-0.0474536,0,sub_22
0.0289997999999997,0.0217302000000012,-0.089488,0.0666290000000006,-0.052330999999999,-0.0491436,0,sub_22
0.0269577999999997,0.0215228000000012,-0.089973,0.0686296000000006,-0.052554199999999,-0.0512642,0,sub_22
0.0261213999999997,0.0216696000000012,-0.0892032,0.0721144000000006,-0.055337599999999,-0.0537984,0,sub_22
0.0281545999999997,0.0238576000000012,-0.088155,0.0745486000000006,-0.054283399999999,-0.0561312,0,sub_22
0.0279229999999997,0.0242678000000012,-0.0899574,0.0748568000000006,-0.050456199999999,-0.0574142,0,sub_22
0.0274915999999997,0.0252088000000012,-0.0917288,0.0780804000000006,-0.047688399999999,-0.0597454,0,sub_22
0.0297327999999997,0.0258970000000012,-0.0914696,0.0828110000000006,-0.042791799999999,-0.0629232,0,sub_22
0.0323189999999997,0.0268766000000012,-0.0907454,0.0849898000000006,-0.035332199999999,-0.0654814,0,sub_22
0.0347801999999997,0.0262748000000012,-0.0926828,0.0880554000000006,-0.030112399999999,-0.067164,0,sub_22
0.0395091999999997,0.0270482000000012,-0.0893926,0.0934412000000006,-0.031078399999999,-0.0690362,0,sub_22
0.0422535999999997,0.0277542000000012,-0.0880886,0.0956102000000006,-0.033320999999999,-0.068579,0,sub_22
0.0431783999999997,0.0288472000000012,-0.087662,0.0971362000000006,-0.034502999999999,-0.0664186,0,sub_22
0.0426885999999997,0.0288772000000012,-0.088635,0.1001556000000006,-0.035265799999999,-0.063821,0,sub_22
0.0393607999999996,0.0283912000000012,-0.0874074,0.1042106000000006,-0.033793599999999,-0.0625126,0,sub_22
0.0357631999999996,0.0275046000000012,-0.087503,0.1087096000000006,-0.030609999999999,-0.0633398,0,sub_22
0.0347287999999996,0.0253582000000012,-0.0861376,0.1130172000000006,-0.024859799999999,-0.0665218,0,sub_22
0.0334455999999996,0.0233722000000012,-0.0858838,0.1167934000000006,-0.018532599999999,-0.0703122,0,sub_22
0.0342155999999996,0.0226162000000012,-0.0837468,0.1224756000000006,-0.016256799999999,-0.0749386,0,sub_22
0.0364519999999996,0.0225162000000012,-0.0808804,0.1262288000000006,-0.013769799999999,-0.0774424,0,sub_22
0.0363985999999997,0.0228164000000012,-0.0800754,0.1291342000000006,-0.007242999999999,-0.0771797999999999,0,sub_22
0.0334501999999996,0.0247030000000012,-0.0805488,0.1343752000000006,-0.001795399999999,-0.075404,0,sub_22
0.0305791999999997,0.0247758000000012,-0.0815446,0.1416414000000006,0.0009480000000009,-0.0751429999999999,0,sub_22
0.0273731999999997,0.0241248000000012,-0.0812304,0.1500022000000006,0.0085932000000009,-0.0761626,0,sub_22
0.0241025999999997,0.0244402000000012,-0.0820624,0.1592260000000006,0.0185780000000008,-0.0769653999999999,0,sub_22
0.0237319999999997,0.0232494000000012,-0.0830238,0.1682280000000006,0.0257974000000008,-0.078621,0,sub_22
0.0252475999999997,0.0213748000000012,-0.0811572,0.1754980000000006,0.0274834000000008,-0.0802815999999999,0,sub_22
0.0280839999999997,0.0208062000000012,-0.0768784,0.1821240000000006,0.0304414000000008,-0.0798118,0,sub_22
0.0295967999999997,0.0195588000000012,-0.0761002,0.1870278000000006,0.0316940000000008,-0.0776426,0,sub_22
0.0274113999999996,0.0189304000000012,-0.0771822,0.1938462000000007,0.0297518000000008,-0.077379,0,sub_22
0.0248295999999996,0.0201094000000012,-0.074858,0.2034260000000007,0.0231204000000008,-0.0790126,0,sub_22
0.0217907999999997,0.0205378000000012,-0.0763592,0.2132574000000006,0.0254348000000009,-0.0802286,0,sub_22
0.0175451999999997,0.0186836000000012,-0.080901,0.2231196000000007,0.0337180000000009,-0.0823068,0,sub_22
0.0133985999999997,0.0174504000000012,-0.085295,0.2351308000000006,0.0430684000000009,-0.0867214,0,sub_22
0.0130611999999996,0.0142416000000012,-0.086688,0.2488546000000006,0.0532668000000009,-0.0915524,0,sub_22
0.0178651999999997,0.0098472000000012,-0.0885212,0.2600160000000007,0.0645334000000009,-0.0949072,0,sub_22
0.0231103999999996,0.0081274000000012,-0.0872344,0.2722340000000006,0.0753624000000009,-0.0963314,0,sub_22
0.0266441999999997,0.0108740000000012,-0.0856642,0.2848220000000007,0.0787128000000008,-0.0926158,0,sub_22
0.0307235999999997,0.0107092000000012,-0.0836992,0.2952302000000006,0.0767248000000008,-0.0839948,0,sub_22
0.0316791999999997,0.0113544000000012,-0.0824602,0.3026206000000006,0.0719614000000008,-0.071332,0,sub_22
0.0272919999999997,0.0142466000000012,-0.0831094,0.3145244000000006,0.0716674000000008,-0.0614208,0,sub_22
0.0235161999999997,0.0170684000000012,-0.0840224,0.3261974000000006,0.0654172000000008,-0.05364,0,sub_22
0.0229751999999997,0.0153334000000012,-0.084273,0.3396292000000006,0.0634512000000008,-0.0531164,0,sub_22
0.0213867999999997,0.0170830000000012,-0.0851824,0.3503314000000007,0.0698096000000009,-0.054118,0,sub_22
0.0234743999999996,0.0165022000000012,-0.0870756,0.3593602000000007,0.0791748000000008,-0.0596215999999999,0,sub_22
0.0272573999999996,0.0143834000000012,-0.0888848,0.3598436000000006,0.0904702000000008,-0.0609145999999999,0,sub_22
0.0320197999999996,0.0100634000000012,-0.0918994,0.3554080000000006,0.1038946000000009,-0.0575443999999999,0,sub_22
0.0355887999999996,0.0067274000000012,-0.0947778,0.3447548000000006,0.1147676000000008,-0.0501551999999999,0,sub_22
0.0376039999999996,0.0033394000000012,-0.0988658,0.3355558000000006,0.1171126000000008,-0.0425312,0,sub_22
0.0388937999999996,0.0005382000000012,-0.101985,0.3303658000000006,0.1130372000000008,-0.0312392,0,sub_22
0.0376599999999996,-0.0017543999999987,-0.1049386,0.3296518000000006,0.1066078000000008,-0.0211948,0,sub_22
0.0347721999999996,-0.0010973999999987,-0.1073652,0.3289464000000007,0.0974274000000008,-0.0158469999999999,0,sub_22
0.0319377999999997,0.0033320000000012,-0.111498,0.3322712000000006,0.0816334000000008,-0.0117443999999999,0,sub_22
0.0313399999999997,0.0061716000000012,-0.1167582,0.3362418000000006,0.0660546000000009,-0.0087057999999999,0,sub_22
0.0303007999999997,0.0072588000000012,-0.1171536,0.3361728000000006,0.0509270000000008,-0.0084731999999999,0,sub_22
0.0297223999999997,0.0069366000000012,-0.1160246,0.3326918000000006,0.0351766000000008,-0.0093317999999999,0,sub_22
0.0293565999999997,0.0057694000000012,-0.114617,0.3270962000000006,0.0241190000000008,-0.0097839999999999,0,sub_22
0.0291107999999997,0.0034478000000012,-0.1122679999999999,0.3102272000000007,0.0205594000000008,-0.0107518,0,sub_22
0.0276353999999997,0.0021628000000012,-0.1072151999999999,0.2897694000000007,0.0225638000000008,-0.0147428,0,sub_22
0.0273955999999997,0.0030310000000012,-0.106307,0.2618254000000007,0.0216074000000009,-0.0177142,0,sub_22
0.0277275999999996,0.0037820000000012,-0.108817,0.2328162000000006,0.0212928000000008,-0.0204802,0,sub_22
0.0280593999999997,0.0009166000000012,-0.1100722,0.2042100000000006,0.0143774000000008,-0.0245166,0,sub_22
0.0268267999999997,-0.0025611999999987,-0.1108478,0.1826460000000006,0.0061650000000008,-0.0299978,0,sub_22
0.0273207999999997,-0.0063099999999987,-0.1108946,0.1580726000000006,-0.0060885999999991,-0.0346404,0,sub_22
0.0279309999999997,-0.0093697999999987,-0.1124554,0.1377858000000006,-0.0149447999999991,-0.0401118,0,sub_22
0.0285293999999997,-0.0114233999999987,-0.1120172,0.1187554000000006,-0.028070599999999,-0.0445008,0,sub_22
0.0306307999999997,-0.0110945999999987,-0.1120122,0.1074120000000006,-0.038459599999999,-0.0473442,0,sub_22
0.0331441999999997,-0.0109801999999987,-0.1124464,0.1009534000000006,-0.0507959999999991,-0.0469462,0,sub_22
0.0331229999999997,-0.0090413999999987,-0.1143204,0.1011046000000006,-0.062098599999999,-0.0443668,0,sub_22
0.0321985999999997,-0.0075807999999987,-0.1166844,0.1051328000000006,-0.0697839999999991,-0.0411168,0,sub_22
0.0315121999999997,-0.0053091999999987,-0.1191212,0.1115310000000006,-0.071939999999999,-0.03743,0,sub_22
0.0292663999999997,-0.0032579999999987,-0.1206434,0.1143230000000006,-0.0689717999999991,-0.0333476,0,sub_22
0.0269239999999997,-0.0021127999999987,-0.1192314,0.1109482000000006,-0.062355799999999,-0.0303812,0,sub_22
0.0259823999999997,-0.0020705999999987,-0.1160204,0.1022458000000006,-0.055290999999999,-0.0285208,0,sub_22
0.0239509999999997,-0.0017257999999987,-0.1120254,0.0890358000000006,-0.049710599999999,-0.0273384,0,sub_22
0.0213631999999997,-0.0028129999999987,-0.1092584,0.0719632000000006,-0.050502399999999,-0.0276702,0,sub_22
0.0200509999999997,-0.0039857999999986,-0.1095006,0.0546600000000006,-0.057886999999999,-0.0307726,0,sub_22
0.0202473999999997,-0.0056143999999986,-0.1111284,0.0411908000000006,-0.0669885999999991,-0.0340598,0,sub_22
0.0204241999999996,-0.0072565999999986,-0.1128608,0.0324166000000006,-0.074407999999999,-0.0358208,0,sub_22
0.0216515999999996,-0.0082823999999986,-0.1146286,0.0292008000000006,-0.078442199999999,-0.036479,0,sub_22
0.0224015999999997,-0.0083049999999987,-0.114722,0.0311230000000006,-0.078022799999999,-0.0364662,0,sub_22
0.0220805999999997,-0.0079217999999987,-0.1123548,0.0360430000000006,-0.073148199999999,-0.0343016,0,sub_22
0.0203681999999996,-0.0065141999999987,-0.110709,0.0422500000000006,-0.066362399999999,-0.0317032,0,sub_22
0.0199157999999996,-0.0045399999999987,-0.1100432,0.0480332000000006,-0.058935799999999,-0.0291086,0,sub_22
0.0200969999999997,-0.0030641999999987,-0.1089938,0.0533848000000006,-0.051087799999999,-0.025022,0,sub_22
0.0212475999999996,-0.0013845999999987,-0.1078638,0.0568170000000006,-0.040685799999999,-0.0186019999999999,0,sub_22
0.0229843999999997,-0.0010497999999987,-0.107087,0.0576934000000006,-0.027936399999999,-0.0109211999999999,0,sub_22
0.0248077999999997,-0.0002497999999987,-0.1052666,0.0549310000000006,-0.016457599999999,-0.001982,0,sub_22
0.0253535999999997,0.0006072000000012,-0.1025066,0.0502368000000006,-0.009014199999999,0.0054531999999999,0,sub_22
0.0258551999999997,0.0014912000000012,-0.0993644,0.0433954000000006,-0.006667999999999,0.0107435999999999,0,sub_22
0.0244481999999997,0.0018212000000012,-0.0977346,0.0359016000000006,-0.010272199999999,0.0128323999999999,0,sub_22
0.0223695999999996,0.0026154000000012,-0.0959628,0.0288210000000006,-0.019619399999999,0.0121539999999999,0,sub_22
0.0211677999999996,0.0024172000000012,-0.0948108,0.0240960000000006,-0.030027999999999,0.0085023999999999,0,sub_22
0.0203277999999996,-6.75999999987284e-05,-0.0937406,0.0204504000000006,-0.037034199999999,0.0054949999999999,0,sub_22
0.0179199999999996,-0.0036259999999987,-0.0921668,0.0185252000000006,-0.041275799999999,0.0022821999999999,0,sub_22
0.0168347999999996,-0.0069655999999987,-0.0891588,0.0172526000000006,-0.042113399999999,-0.0002894,0,sub_22
0.0166799999999997,-0.0094165999999987,-0.0876478,0.0149258000000006,-0.039328599999999,-0.0020182,0,sub_22
0.0166843999999997,-0.0104403999999987,-0.0869694,0.0117378000000006,-0.037396599999999,-0.0028976,0,sub_22
0.0171673999999997,-0.0081759999999987,-0.0870736,0.0085410000000006,-0.038442999999999,-0.0048414,0,sub_22
0.0184661999999997,-0.0037053999999987,-0.0891338,0.0053576000000006,-0.0365065999999991,-0.0067888,0,sub_22
0.0195965999999997,0.0002766000000012,-0.0930038,0.0034746000000006,-0.030949399999999,-0.0095864,0,sub_22
0.0199789999999997,0.0032146000000012,-0.0961456,0.0028930000000006,-0.021346199999999,-0.0130212,0,sub_22
0.0207627999999997,0.0050228000000012,-0.0990796,0.0023334000000006,-0.006418399999999,-0.0160352,0,sub_22
0.0221217999999997,0.0039362000000012,-0.1010254,0.0022160000000006,0.0123412000000009,-0.0186238,0,sub_22
0.0244269999999996,0.0005312000000012,-0.1017304,0.0016632000000006,0.0291848000000009,-0.021213,0,sub_22
0.0283727999999996,-0.0026763999999987,-0.101448,0.0006596000000006,0.0411280000000009,-0.0233718,0,sub_22
0.0331525999999996,-0.0057917999999987,-0.1015658,-0.0005957999999993,0.0456108000000009,-0.0244545999999999,0,sub_22
0.0378329999999996,-0.0080765999999987,-0.1003154,-0.0003891999999993,0.0436944000000009,-0.0248779999999999,0,sub_22
0.0426189999999997,-0.0089603999999987,-0.100078,0.0010718000000006,0.0381430000000008,-0.0231515999999999,0,sub_22
0.0456705999999997,-0.0077849999999987,-0.1002586,0.0035920000000006,0.0327932000000008,-0.0194952,0,sub_22
0.0472375999999997,-0.0065367999999987,-0.1009038,0.0058998000000006,0.0297792000000008,-0.0137068,0,sub_22
0.0481473999999997,-0.0046301999999987,-0.101755,0.0088602000000006,0.0308060000000008,-0.006637,0,sub_22
0.0484941999999997,-0.0034831999999987,-0.103161,0.0122512000000006,0.0339566000000008,0.0017147999999999,0,sub_22
0.0476281999999997,-0.0027949999999987,-0.103067,0.0160688000000006,0.0368936000000009,0.0098561999999999,0,sub_22
0.0463985999999996,-0.0026929999999987,-0.1024674,0.0203036000000006,0.0372742000000009,0.0175763999999999,0,sub_22
0.0449973999999997,-0.0027995999999987,-0.101211,0.0247412000000006,0.0340372000000009,0.0240207999999999,0,sub_22
0.0432679999999996,-0.0033541999999987,-0.0985852,0.0291692000000006,0.0269720000000009,0.0287607999999999,0,sub_22
0.0408959999999996,-0.0036793999999986,-0.0963564,0.0329610000000006,0.0190636000000009,0.0317883999999999,0,sub_22
0.0382573999999997,-0.0034391999999986,-0.0953896,0.0354774000000006,0.0107396000000009,0.0333121999999999,0,sub_22
0.0367823999999997,-0.0037933999999986,-0.0946248,0.0369308000000006,0.0022106000000009,0.0337605999999999,0,sub_22
0.0359679999999997,-0.0021387999999986,-0.0928812,0.0379632000000006,-0.005462999999999,0.0337775999999999,0,sub_22
0.0344219999999996,-0.0017863999999986,-0.092041,0.0390182000000006,-0.012269999999999,0.0340071999999999,0,sub_22
0.0329957999999997,-0.0014631999999987,-0.0904062,0.0392168000000006,-0.019925399999999,0.0340181999999999,0,sub_22
0.0311395999999996,-0.0009701999999987,-0.0886012,0.0389926000000006,-0.027363799999999,0.0333849999999999,0,sub_22
0.0305543999999996,-4.17999999987282e-05,-0.0880116,0.0381330000000006,-0.034795799999999,0.0316791999999999,0,sub_22
0.0292523999999997,-0.0006219999999987,-0.0886928,0.0370572000000006,-0.0430781999999991,0.0297593999999999,0,sub_22
0.0291189999999997,-8.079999999872813e-05,-0.0891954,0.0353252000000006,-0.0515823999999991,0.0267671999999999,0,sub_22
0.0285919999999996,0.0007560000000012,-0.0900178,0.0333866000000006,-0.058594599999999,0.0237715999999999,0,sub_22
0.0289093999999996,0.0010090000000012,-0.0920002,0.0306012000000006,-0.0641123999999991,0.0207681999999999,0,sub_22
0.0281091999999997,0.0009698000000012,-0.0928098,0.0276054000000006,-0.0683535999999991,0.0184025999999999,0,sub_22
0.0274819999999997,2.96000000012518e-05,-0.093513,0.0239780000000006,-0.070887399999999,0.0158167999999999,0,sub_22
0.0268195999999997,-0.0008251999999987,-0.0946096,0.0199288000000006,-0.071293399999999,0.0142935999999999,0,sub_22
0.0267895999999997,-0.0017823999999987,-0.0962716,0.0158824000000006,-0.0706357999999991,0.0131961999999999,0,sub_22
0.0271703999999997,-0.0029447999999987,-0.0970274,0.0126894000000006,-0.0695567999999991,0.0125315999999999,0,sub_22
0.0274281999999996,-0.0028855999999987,-0.098051,0.0105662000000006,-0.0672057999999991,0.0125137999999999,0,sub_22
0.0280669999999996,-0.0022777999999987,-0.0984514,0.0107950000000006,-0.0637977999999991,0.0125109999999999,0,sub_22
0.0285875999999997,-0.0008919999999987,-0.0990502,0.0125202000000006,-0.059755799999999,0.0125177999999999,0,sub_22
0.0282293999999997,-0.0003903999999987,-0.0988636,0.0155294000000006,-0.055502599999999,0.0118925999999999,0,sub_22
0.0273927999999997,0.0001822000000012,-0.098505,0.0196084000000006,-0.050401799999999,0.0114871999999999,0,sub_22
0.0266787999999997,-0.0004367999999987,-0.0979008,0.0239036000000006,-0.044874799999999,0.0108691999999999,0,sub_22
0.0261967999999996,-0.0012941999999987,-0.0976084,0.0271320000000006,-0.038919599999999,0.0106703999999999,0,sub_22
0.0263985999999996,-0.0030565999999987,-0.0957802,0.0297184000000006,-0.033600599999999,0.0102543999999999,0,sub_22
0.0274915999999996,-0.0044173999999987,-0.0943576,0.0316666000000006,-0.027428799999999,0.0102599999999999,0,sub_22
0.0286089999999996,-0.0050353999999987,-0.0928288,0.0321098000000006,-0.022535199999999,0.0115387999999999,0,sub_22
0.0291243999999996,-0.0051687999999987,-0.0905838,0.0321204000000006,-0.018706199999999,0.0130293999999999,0,sub_22
0.0288809999999997,-0.0062877999999987,-0.0881744,0.0325576000000006,-0.015090799999999,0.0143097999999999,0,sub_22
0.0283699999999996,-0.0073647999999987,-0.087588,0.0327728000000006,-0.013392199999999,0.0155909999999999,0,sub_22
0.0272137999999996,-0.0067081999999987,-0.0869356,0.0329824000000006,-0.013396199999999,0.0164469999999999,0,sub_22
0.0268827999999997,-0.0056953999999987,-0.0874112,0.0346960000000006,-0.013183999999999,0.0151767999999999,0,sub_22
0.0272671999999996,-0.0044587999999987,-0.08914,0.0376946000000006,-0.013396399999999,0.0124205999999999,0,sub_22
0.0278299999999996,-0.0022155999999987,-0.0918804,0.0400446000000006,-0.016797399999999,0.0083819999999999,0,sub_22
0.0293211999999997,0.0003348000000012,-0.0937676,0.0402610000000006,-0.020615199999999,0.0039017999999999,0,sub_22
0.0313473999999997,0.0010974000000012,-0.0959596,0.0381224000000006,-0.025068199999999,0.0004744,0,sub_22
0.0317243999999997,0.0011948000000012,-0.0971932,0.0334176000000006,-0.028668599999999,-0.0008357999999999,0,sub_22
0.0313609999999997,-0.0001037999999987,-0.0977298,0.0259324000000006,-0.031416399999999,0.0001838,0,sub_22
0.0314735999999997,-0.0022143999999987,-0.0981804,0.0169564000000006,-0.0316099999999991,0.0031123999999999,0,sub_22
0.0304537999999997,-0.0041201999999987,-0.0984508,0.0096854000000006,-0.031599199999999,0.0066935999999999,0,sub_22
0.0292575999999997,-0.0051913999999987,-0.0988864,0.0047616000000006,-0.033081999999999,0.0087973999999999,0,sub_22
0.0288775999999997,-0.0052393999999987,-0.0992674,0.0021802000000006,-0.037335799999999,0.0092121999999999,0,sub_22
0.0290985999999997,-0.0052495999999987,-0.0992164,0.0017372000000006,-0.042229399999999,0.0079333999999999,0,sub_22
0.0287255999999997,-0.0045577999999987,-0.0985058,0.0025792000000006,-0.046274399999999,0.0064489999999999,0,sub_22
0.0272845999999997,-0.0039983999999987,-0.0980892,0.0032182000000006,-0.047762799999999,0.0051733999999999,0,sub_22
0.0264017999999997,-0.0042847999999987,-0.0972516,0.0030116000000006,-0.047331799999999,0.0041031999999999,0,sub_22
0.0259135999999996,-0.0057643999999987,-0.0966102,0.0019572000000006,-0.045619399999999,0.0030253999999999,0,sub_22
0.0261523999999996,-0.0056647999999987,-0.0974212,0.0002588000000006,-0.045181399999999,0.0015175999999999,0,sub_22
0.0267887999999997,-0.0055213999999987,-0.0978898,-0.0018721999999993,-0.046232399999999,-0.0002049999999999,0,sub_22
0.0283249999999996,-0.0049897999999987,-0.098883,-0.0035751999999992,-0.047496199999999,-0.0023515999999999,0,sub_22
0.0302745999999997,-0.0044665999999987,-0.1001066,-0.0039913999999993,-0.046848599999999,-0.0040643999999999,0,sub_22
0.0316797999999996,-0.0043303999999987,-0.101425,-0.0044047999999993,-0.044288599999999,-0.0044977999999999,0,sub_22
0.0324279999999997,-0.0042199999999987,-0.1022394,-0.0039637999999993,-0.039820999999999,-0.0032186,0,sub_22
0.0332779999999997,-0.0045345999999987,-0.1037838,-0.0022461999999993,-0.035149199999999,-0.0008626,0,sub_22
0.0344463999999997,-0.0047057999999987,-0.1040166,0.0007638000000006,-0.031960799999999,0.0015053999999999,0,sub_22
0.0348525999999997,-0.0044573999999987,-0.1040824,0.0044032000000006,-0.030693999999999,0.0043075999999999,0,sub_22
