userAcceleration.x,userAcceleration.y,userAcceleration.z,rotationRate.x,rotationRate.y,rotationRate.z,label,subject
0.0364199999999998,-0.0068605999999987,0.0730775999999999,-0.0179279999999995,0.0046402000000006,-0.02117,0,sub_11
0.0343081999999997,-0.0054167999999987,0.0728574,-0.0149243999999995,0.0169518000000006,-0.0124054,0,sub_11
0.0292137999999997,-0.0050243999999987,0.0728924,-0.0109393999999995,0.0153910000000006,0.0015113999999999,0,sub_11
0.0225891999999997,-0.0062873999999987,0.071862,-0.0050857999999995,0.0033794000000006,0.0165227999999999,0,sub_11
0.0152943999999997,-0.0079187999999987,0.0724546,0.0054208000000004,-0.0199315999999993,0.0294447999999999,0,sub_11
0.0069907999999997,-0.0091359999999987,0.077261,0.0145700000000004,-0.0461561999999993,0.0366093999999999,0,sub_11
0.0045255999999997,-0.0122575999999987,0.0808108,0.0169690000000004,-0.0623143999999993,0.0364501999999999,0,sub_11
0.0049209999999997,-0.0155695999999987,0.083615,0.0147622000000004,-0.0647969999999993,0.0302591999999999,0,sub_11
0.0081499999999997,-0.0184223999999987,0.0848064,0.0081242000000004,-0.0602169999999993,0.0199689999999999,0,sub_11
0.0142351999999997,-0.0208251999999987,0.08331,-0.0055225999999995,-0.0524005999999993,0.0055663999999999,0,sub_11
0.0225793999999997,-0.0230361999999987,0.0779574,-0.0241937999999995,-0.0456629999999993,-0.0114504,0,sub_11
0.0279153999999997,-0.0197369999999987,0.0745742,-0.0415799999999995,-0.0385013999999993,-0.0290998,0,sub_11
0.0319033999999997,-0.0138973999999987,0.0732508,-0.0539081999999995,-0.0258039999999993,-0.0428828,0,sub_11
0.0334105999999997,-0.0078403999999987,0.0723268,-0.0566363999999995,-0.0061391999999993,-0.0491302,0,sub_11
0.0318609999999997,-0.0032747999999987,0.07272,-0.0470397999999995,0.0119518000000006,-0.0454618,0,sub_11
0.0277315999999997,-0.0008739999999987,0.0734646,-0.0270925999999995,0.0163324000000006,-0.0320896,0,sub_11
0.0240751999999997,-0.0034319999999987,0.073744,-0.0027449999999995,0.0093794000000006,-0.012049,0,sub_11
0.0217957999999997,-0.0066919999999987,0.0728654,0.0199172000000004,-0.0076141999999993,0.0088545999999999,0,sub_11
0.0188039999999997,-0.0104421999999987,0.0762607999999999,0.0333718000000004,-0.0362757999999993,0.0252223999999999,0,sub_11
0.0176395999999997,-0.0125365999999987,0.0818134,0.0351408000000004,-0.0601835999999993,0.0350931999999999,0,sub_11
0.0188575999999997,-0.0118973999999987,0.0871034,0.0276432000000004,-0.0635789999999993,0.0382499999999999,0,sub_11
0.0196327999999997,-0.0125191999999987,0.0895838,0.0145904000000004,-0.0534557999999993,0.0368575999999999,0,sub_11
0.0193193999999997,-0.0152583999999987,0.090947,0.0005160000000004,-0.0375593999999993,0.0311777999999999,0,sub_11
0.0193357999999997,-0.0179395999999987,0.0874682,-0.0101225999999995,-0.0182599999999993,0.0240221999999999,0,sub_11
0.0185905999999997,-0.0183433999999987,0.082704,-0.0145799999999995,-0.0028077999999993,0.0145643999999999,0,sub_11
0.0179597999999997,-0.0199465999999987,0.0773512,-0.0148035999999995,0.0032626000000006,0.0032253999999999,0,sub_11
0.0178425999999997,-0.0189541999999987,0.0748014,-0.0117617999999995,0.0030886000000006,-0.0091446,0,sub_11
0.0194581999999997,-0.0145267999999987,0.0749884,-0.0091669999999995,-7.259999999933964e-05,-0.0200182,0,sub_11
0.0227939999999997,-0.0088759999999987,0.0751474,-0.0086759999999995,0.0067734000000006,-0.0275012,0,sub_11
0.0286425999999997,-0.0057783999999987,0.0730834,-0.0105735999999995,0.0178316000000006,-0.028963,0,sub_11
0.0317563999999997,-0.0042139999999987,0.0738992,-0.0103813999999995,0.0256604000000006,-0.023783,0,sub_11
0.0335069999999997,-0.0035605999999987,0.074473,-0.0095787999999995,0.0304894000000006,-0.014963,0,sub_11
0.0340333999999997,-0.0040073999999987,0.0737548,-0.0070845999999995,0.0333890000000006,-0.0046332,0,sub_11
0.0338103999999997,-0.0049817999999987,0.0742012,-0.0026997999999995,0.0301018000000006,0.0061449999999999,0,sub_11
0.0306571999999997,-0.0081733999999987,0.075677,0.0028038000000004,0.0302554000000006,0.0162245999999999,0,sub_11
0.0272765999999997,-0.0106525999999987,0.0753292,0.0055440000000004,0.0306402000000006,0.0241479999999999,0,sub_11
0.0219877999999997,-0.0116957999999987,0.0764636,0.0059168000000004,0.0255010000000006,0.0291037999999998,0,sub_11
0.0166493999999997,-0.0126723999999987,0.076974,0.0037262000000004,0.0165486000000006,0.0308417999999998,0,sub_11
0.0117987999999997,-0.0134553999999987,0.0766422,4.0000000000475074e-05,0.0031434000000006,0.0285157999999999,0,sub_11
0.0088465999999997,-0.0138311999999987,0.0784762,-0.0043005999999995,-0.0162137999999993,0.0234155999999998,0,sub_11
0.0083951999999997,-0.0134435999999987,0.080125,-0.0073157999999995,-0.0276839999999993,0.0161781999999999,0,sub_11
0.0118421999999997,-0.0143425999999987,0.0792582,-0.0072725999999995,-0.0257357999999993,0.0084847999999999,0,sub_11
0.0159447999999997,-0.0156431999999987,0.077952,-0.0052907999999995,-0.0182607999999993,0.0022933999999999,0,sub_11
0.0203765999999997,-0.0168145999999987,0.0769752,-0.0039595999999995,-0.0124905999999993,-0.0032594,0,sub_11
0.0235753999999997,-0.0160981999999987,0.074279,-0.0038657999999995,-0.0055785999999993,-0.008996,0,sub_11
0.0257175999999997,-0.0130429999999987,0.072779,-0.0050675999999995,5.100000000068071e-05,-0.0126036,0,sub_11
0.0256995999999997,-0.0089309999999987,0.0731876,-0.0069469999999995,0.0009814000000006,-0.0125778,0,sub_11
0.0244999999999997,-0.0060671999999987,0.074768,-0.0079949999999995,0.0008280000000006,-0.0086992,0,sub_11
0.0242005999999997,-0.0057185999999987,0.0747304,-0.0062595999999995,0.0057664000000006,-0.0018166,0,sub_11
0.0244673999999997,-0.0065235999999987,0.0751006,-0.0020247999999995,0.0076324000000006,0.0073973999999999,0,sub_11
0.0231893999999997,-0.0097673999999987,0.0757202,0.0023984000000004,0.0033216000000006,0.0159795999999999,0,sub_11
0.0229045999999997,-0.0124797999999987,0.0767974,0.0053338000000004,-0.0020399999999993,0.0222025999999999,0,sub_11
0.0230603999999997,-0.0144763999999987,0.077452,0.0072590000000004,0.0005040000000006,0.0237081999999999,0,sub_11
0.0211865999999997,-0.0143697999999987,0.0790906,0.0072964000000004,0.0035982000000006,0.0222157999999998,0,sub_11
0.0184447999999997,-0.0146571999999987,0.080497,0.0043628000000004,0.0075660000000006,0.0179241999999999,0,sub_11
0.0181503999999997,-0.0147665999999987,0.08041,0.0007986000000004,0.0123936000000006,0.0123451999999999,0,sub_11
0.0180749999999997,-0.0154969999999987,0.0783674,-0.0014889999999995,0.0161522000000006,0.0065627999999999,0,sub_11
0.0180785999999997,-0.0156337999999987,0.0754088,-0.0027539999999995,0.0107432000000006,0.0014403999999999,0,sub_11
0.0178127999999997,-0.0152741999999987,0.0724656,-0.0029989999999995,-0.0003185999999993,-0.0026064,0,sub_11
0.0190491999999997,-0.0129745999999987,0.0703688,-0.0017617999999995,-0.0133055999999992,-0.0059994,0,sub_11
0.0216045999999997,-0.0097407999999987,0.0694666,-0.0004905999999995,-0.0245153999999993,-0.0087452,0,sub_11
0.0237679999999997,-0.0070097999999987,0.0695508,0.0005786000000004,-0.0316821999999993,-0.010002,0,sub_11
0.0249033999999997,-0.0047209999999987,0.0707084,0.0020844000000004,-0.0354467999999993,-0.0099784,0,sub_11
0.0265113999999997,-0.0028067999999987,0.0739192,0.0021098000000004,-0.0338893999999993,-0.0076218,0,sub_11
0.0282361999999997,-0.0027587999999987,0.0766064,-0.0001715999999995,-0.0223143999999993,-0.004226,0,sub_11
0.0280913999999997,-0.0052153999999987,0.0772052,-0.0037469999999995,-0.0074015999999993,-0.0008518,0,sub_11
0.0246113999999997,-0.0064427999999987,0.0791998,-0.0084095999999995,0.0026162000000006,0.0020937999999999,0,sub_11
0.0210717999999997,-0.0071539999999987,0.0806336,-0.0133105999999995,0.0064588000000006,0.0044045999999999,0,sub_11
0.0167019999999997,-0.0076809999999987,0.0804318,-0.0161015999999995,0.0034824000000007,0.0052433999999999,0,sub_11
0.0119897999999997,-0.0097203999999987,0.079393,-0.0129359999999995,-0.0080361999999993,0.0069749999999999,0,sub_11
0.0075269999999997,-0.0106949999999987,0.0790251999999999,-0.0044561999999995,-0.0234109999999992,0.0093897999999999,0,sub_11
0.0097569999999997,-0.0138821999999987,0.0761404,0.0044724000000004,-0.0347355999999992,0.0109477999999999,0,sub_11
0.0155177999999997,-0.0175727999999987,0.073894,0.0093892000000004,-0.0381571999999992,0.0109721999999999,0,sub_11
0.0230449999999997,-0.0202855999999987,0.0730794,0.0105360000000004,-0.0285581999999993,0.0081761999999999,0,sub_11
0.0306117999999997,-0.0197605999999987,0.0733348,0.0066152000000004,-0.0061445999999993,0.0008561999999999,0,sub_11
0.0358663999999998,-0.0185437999999987,0.0746734,-0.0004467999999995,0.0263066000000006,-0.0097034,0,sub_11
0.0347613999999998,-0.0160333999999987,0.0770668,-0.0077325999999995,0.0568392000000006,-0.0198348,0,sub_11
0.0290783999999997,-0.0129473999999987,0.0785976,-0.0129171999999995,0.0786328000000006,-0.0256896,0,sub_11
0.0200737999999997,-0.0092033999999987,0.0788894,-0.0173353999999995,0.0848552000000006,-0.0276736,0,sub_11
0.0105425999999997,-0.0066013999999987,0.0791682,-0.0209797999999995,0.0769986000000006,-0.0260022,0,sub_11
0.0034459999999997,-0.0061657999999987,0.078831,-0.0225709999999995,0.0531480000000006,-0.0223732,0,sub_11
-0.0008314000000002,-0.0034043999999987,0.0806108,-0.0201685999999995,0.0160730000000006,-0.0184856,0,sub_11
-0.0024752000000002,-0.0007139999999987,0.0829716,-0.0145819999999995,-0.0197519999999993,-0.0154098,0,sub_11
0.0040069999999997,-0.0006539999999987,0.083823,-0.0044627999999995,-0.0434511999999993,-0.0116768,0,sub_11
0.0143719999999997,-0.0046881999999987,0.0813427999999999,0.0082678000000004,-0.0582109999999993,-0.006905,0,sub_11
0.0254665999999997,-0.0074423999999987,0.0782057999999999,0.0187260000000004,-0.0540105999999993,0.0001767999999999,0,sub_11
0.0379321999999997,-0.0120741999999987,0.0739681999999999,0.0237546000000004,-0.0220997999999993,0.0086805999999999,0,sub_11
0.0476687999999997,-0.0166121999999987,0.071599,0.0237158000000004,0.0223964000000006,0.0177739999999999,0,sub_11
0.0446687999999997,-0.0202575999999987,0.0742636,0.0166338000000004,0.0647936000000006,0.0251115999999999,0,sub_11
0.0325615999999997,-0.0189159999999987,0.0795768,0.0031170000000004,0.0995536000000006,0.0288183999999999,0,sub_11
0.0174815999999997,-0.0174727999999987,0.0829594,-0.0149323999999995,0.1175194000000006,0.0271737999999999,0,sub_11
0.0020225999999998,-0.0175961999999987,0.0827058,-0.0336995999999995,0.1125008000000006,0.0197851999999999,0,sub_11
-0.0070124000000001,-0.0164677999999987,0.0806766,-0.0475893999999995,0.0913210000000006,0.0049455999999999,0,sub_11
-0.0045782000000002,-0.0136357999999987,0.0784674,-0.0484567999999995,0.0671308000000006,-0.0142858,0,sub_11
0.0046469999999997,-0.0109149999999987,0.075699,-0.0352235999999995,0.0482124000000006,-0.0321436,0,sub_11
0.0174413999999997,-0.0110371999999987,0.0711766,-0.0117309999999995,0.0377618000000006,-0.0452402,0,sub_11
0.0295937999999997,-0.0111247999999987,0.069451,0.0141306000000004,0.0381448000000006,-0.0523522,0,sub_11
0.0368359999999997,-0.0126849999999987,0.0672638,0.0322884000000004,0.0442540000000006,-0.0507378,0,sub_11
0.0391879999999997,-0.0112903999999987,0.0666766,0.0363348000000004,0.0516600000000006,-0.0415322,0,sub_11
0.0386467999999998,-0.0083331999999987,0.0681796,0.0271628000000004,0.0663366000000006,-0.0275146,0,sub_11
0.0356345999999997,-0.0022337999999987,0.0743344,0.0117960000000004,0.0831508000000006,-0.009911,0,sub_11
0.0284015999999997,-0.0010481999999987,0.0792944,-0.0033925999999995,0.0889264000000006,0.0078997999999999,0,sub_11
0.0206821999999997,-0.0024501999999987,0.0838102,-0.0137013999999995,0.0846866000000006,0.0219119999999999,0,sub_11
0.0131005999999997,-0.0076975999999987,0.0832818,-0.0176089999999995,0.0755440000000006,0.0310611999999999,0,sub_11
0.0071233999999997,-0.0136185999999987,0.0811548,-0.0157863999999995,0.0548950000000006,0.0355649999999999,0,sub_11
0.0018865999999997,-0.0187125999999987,0.079989,-0.0103371999999995,0.0270176000000006,0.0330529999999999,0,sub_11
0.0003223999999997,-0.0180061999999987,0.0801452,-0.0033581999999995,0.0063542000000006,0.0262915999999999,0,sub_11
0.0012833999999997,-0.0170547999999987,0.0787186,0.0026104000000004,-0.0025841999999993,0.0186535999999999,0,sub_11
0.0043741999999997,-0.0167361999999987,0.0768726,0.0058340000000004,-0.0081049999999993,0.0114147999999999,0,sub_11
0.0075825999999997,-0.0160023999999987,0.0767296,0.0062800000000004,-0.0146803999999993,0.0039443999999999,0,sub_11
0.0101483999999997,-0.0168785999999987,0.076037,0.0031006000000004,-0.0199681999999993,-0.0026984,0,sub_11
0.0123627999999997,-0.0183977999999987,0.0756616,0.0001404000000004,-0.0227051999999993,-0.0080612,0,sub_11
0.0129249999999997,-0.0179411999999987,0.0775642,0.0003702000000004,-0.0256749999999993,-0.011265,0,sub_11
0.0123949999999997,-0.0172515999999987,0.0794572,0.0029076000000004,-0.0318581999999993,-0.0123076,0,sub_11
0.0130483999999997,-0.0154273999999987,0.0814906,0.0060632000000004,-0.0412461999999993,-0.0116326,0,sub_11
0.0148719999999997,-0.0125323999999987,0.0825958,0.0092052000000004,-0.0512827999999993,-0.0086068,0,sub_11
0.0191753999999997,-0.0081003999999987,0.081763,0.0106770000000004,-0.0570715999999993,-0.0047188,0,sub_11
0.0242315999999997,-0.0057623999999987,0.0815394,0.0109088000000004,-0.0558173999999993,-0.0027714,0,sub_11
0.0285405999999997,-0.0042467999999987,0.0828218,0.0101248000000004,-0.0464505999999993,-0.004046,0,sub_11
0.0313413999999997,-0.0060375999999987,0.0820026,0.0079018000000004,-0.0276933999999993,-0.0081202,0,sub_11
0.0338457999999997,-0.0077031999999987,0.0803558,0.0055000000000004,-0.0029629999999993,-0.0139124,0,sub_11
0.0339557999999997,-0.0096285999999987,0.0798988,0.0039128000000004,0.0177330000000006,-0.019932,0,sub_11
0.0311449999999997,-0.0086309999999987,0.0783994,0.0016328000000004,0.0288354000000006,-0.0238076,0,sub_11
0.0277567999999997,-0.0070771999999987,0.0744804,-0.0011161999999995,0.0348088000000006,-0.0234072,0,sub_11
0.0252931999999997,-0.0060129999999987,0.0705768,-0.0017193999999995,0.0384824000000006,-0.0195692,0,sub_11
0.0249875999999997,-0.0087487999999987,0.0661098,-1.4799999999542437e-05,0.0357468000000006,-0.0133568,0,sub_11
0.0239257999999997,-0.0119417999999987,0.0647878,0.0018852000000004,0.0300234000000006,-0.006071,0,sub_11
0.0241939999999997,-0.0160149999999987,0.0653754,0.0044368000000004,0.0255812000000006,-6.440000000008036e-05,0,sub_11
0.0220791999999997,-0.0204303999999987,0.0703443999999999,0.0080608000000004,0.0185940000000006,0.0021075999999999,0,sub_11
0.0154155999999997,-0.0228555999999987,0.0784387999999999,0.0107972000000004,0.0092144000000006,0.0010703999999999,0,sub_11
0.0067869999999997,-0.0207075999999987,0.0866816,0.0120678000000004,0.0028354000000006,-0.0031854,0,sub_11
-0.0004900000000002,-0.0151251999999987,0.0929726,0.0128924000000004,-0.0118349999999993,-0.011493,0,sub_11
-0.0052580000000002,-0.0098863999999987,0.0970596,0.0137022000000004,-0.0352529999999993,-0.0220908,0,sub_11
-0.0052024000000001,-0.0068391999999987,0.0978332,0.0149572000000004,-0.0554733999999993,-0.0335442,0,sub_11
0.0036775999999998,-0.0069817999999987,0.0929224,0.0192290000000004,-0.0680385999999993,-0.043918,0,sub_11
0.0139935999999998,-0.0062529999999987,0.0883034,0.0245782000000004,-0.0750807999999993,-0.051087,0,sub_11
0.0246643999999998,-0.0081901999999987,0.0819176,0.0280436000000004,-0.0676543999999993,-0.0518782,0,sub_11
0.0337439999999997,-0.0119897999999987,0.0746874,0.0302492000000004,-0.0459535999999993,-0.0461222,0,sub_11
0.0417907999999997,-0.0131487999999987,0.0673076,0.0335024000000004,-0.0223635999999993,-0.0341658,0,sub_11
0.0440679999999997,-0.0097203999999987,0.0640072,0.0319982000000004,-0.0102723999999993,-0.019664,0,sub_11
0.0410359999999998,-0.0062507999999987,0.062555,0.0266334000000004,-0.0039241999999993,-0.002622,0,sub_11
0.0372643999999997,-0.0074379999999987,0.0625821999999999,0.0217010000000004,0.0053986000000006,0.0161281999999999,0,sub_11
0.0339335999999998,-0.0079019999999987,0.0649552,0.0142054000000004,0.0132424000000006,0.0340077999999999,0,sub_11
0.0298023999999997,-0.0071757999999987,0.0693302,0.0069328000000004,0.0193964000000006,0.0480455999999999,0,sub_11
0.0256107999999998,-0.0074587999999987,0.0727332,0.0018466000000004,0.0328046000000006,0.0576027999999999,0,sub_11
0.0246641999999997,-0.0091153999999987,0.075466,-0.0028149999999995,0.0434602000000006,0.0609747999999999,0,sub_11
0.0201427999999997,-0.0086431999999987,0.0768034,-0.0074823999999995,0.0460470000000006,0.0575205999999999,0,sub_11
0.0149075999999997,-0.0065253999999987,0.0762584,-0.0070393999999995,0.0407550000000006,0.0485573999999999,0,sub_11
0.0107577999999998,-0.0059189999999987,0.0740664,-0.0066117999999995,0.0297200000000006,0.0372513999999999,0,sub_11
0.0099599999999997,-0.0088115999999987,0.0719932,-0.0042791999999995,0.0171222000000006,0.0270425999999999,0,sub_11
0.0100839999999997,-0.0124225999999987,0.0713203999999999,0.0031792000000004,0.0079058000000006,0.0192155999999999,0,sub_11
0.0125523999999997,-0.0134171999999987,0.0727894,0.0151136000000004,-5.7199999999336646e-05,0.0137681999999999,0,sub_11
0.0143423999999997,-0.0136535999999987,0.07391,0.0249210000000004,-0.0050359999999993,0.0097977999999999,0,sub_11
0.0165759999999997,-0.0139609999999987,0.073749,0.0304888000000004,-0.0021237999999993,0.0074967999999999,0,sub_11
0.0184233999999997,-0.0129953999999987,0.0740048,0.0302746000000004,-0.0033971999999993,0.0064287999999999,0,sub_11
0.0200595999999997,-0.0119421999999987,0.0753598,0.0234418000000004,-0.0046507999999993,0.0061689999999999,0,sub_11
0.0209241999999998,-0.0110545999999987,0.0748668,0.0132066000000004,-0.0016381999999993,0.0075891999999999,0,sub_11
0.0210027999999998,-0.0110365999999987,0.0744276,0.0038272000000004,0.0070544000000006,0.0118239999999999,0,sub_11
0.0192789999999997,-0.0103043999999987,0.074081,-0.0051609999999995,0.0091358000000006,0.0173517999999999,0,sub_11
0.0150727999999998,-0.0087681999999987,0.0735528,-0.0092435999999995,0.0109862000000006,0.0231279999999999,0,sub_11
0.0110209999999997,-0.0073577999999987,0.0699944,-0.0073793999999995,0.0060004000000006,0.0283133999999999,0,sub_11
0.0087161999999997,-0.0075897999999987,0.069702,-0.0033987999999995,-0.0055863999999993,0.0307445999999999,0,sub_11
0.0068643999999997,-0.0084777999999987,0.0706302,0.0005948000000004,-0.0188105999999993,0.0310029999999999,0,sub_11
0.0048105999999997,-0.0103287999999987,0.0727336,0.0065442000000004,-0.0254319999999993,0.0299847999999999,0,sub_11
0.0040869999999997,-0.0104085999999987,0.0741414,0.0102998000000004,-0.0382375999999993,0.0288037999999999,0,sub_11
0.0047255999999997,-0.0100361999999987,0.0774212,0.0134200000000004,-0.0491267999999993,0.0284705999999999,0,sub_11
0.0071349999999997,-0.0091833999999987,0.0770318,0.0163174000000004,-0.0583261999999993,0.0319791999999999,0,sub_11
0.0119449999999997,-0.0064641999999987,0.0763258,0.0187812000000004,-0.0649837999999993,0.0395407999999999,0,sub_11
0.0170925999999997,-0.0044785999999987,0.0737994,0.0212174000000004,-0.0742123999999993,0.0507373999999999,0,sub_11
0.0207355999999997,-0.0053403999999987,0.0724172,0.0228774000000004,-0.0740479999999993,0.0614309999999999,0,sub_11
0.0209261999999997,-0.0081783999999987,0.0695776,0.0192664000000004,-0.0651083999999993,0.0667353999999999,0,sub_11
0.0206407999999997,-0.0096635999999987,0.0656806,0.0086830000000004,-0.0505657999999993,0.0621563999999999,0,sub_11
0.0189809999999997,-0.0127115999999987,0.062501,-0.0029517999999995,-0.0404617999999993,0.0496707999999999,0,sub_11
0.0174829999999997,-0.0146393999999987,0.0622156,-0.0139973999999995,-0.0294389999999993,0.0327831999999999,0,sub_11
0.0153565999999997,-0.0153479999999987,0.0614848,-0.0237569999999995,-0.0173545999999993,0.0156893999999999,0,sub_11
0.0144929999999997,-0.0134361999999987,0.0606492,-0.0324957999999995,-0.0127417999999993,0.0013897999999999,0,sub_11
0.0121529999999997,-0.0110895999999987,0.0626092,-0.0389371999999995,-0.0143351999999993,-0.007972,0,sub_11
0.0110145999999997,-0.0095863999999987,0.0645986,-0.0426181999999995,-0.0163747999999993,-0.0147502,0,sub_11
0.0108591999999997,-0.0083133999999987,0.0663748,-0.0445067999999995,-0.0163399999999992,-0.0218138,0,sub_11
0.0131885999999997,-0.0057877999999987,0.0703588,-0.0435927999999995,-0.0097109999999992,-0.0286524,0,sub_11
0.0170795999999998,-0.0040241999999987,0.0736235999999999,-0.0394857999999995,0.0098728000000007,-0.0331681999999999,0,sub_11
0.0221409999999997,-0.0050897999999987,0.0748193999999999,-0.0317333999999995,0.0366748000000006,-0.0344632,0,sub_11
0.0282053999999998,-0.0076423999999987,0.0750901999999999,-0.0259069999999995,0.0653884000000006,-0.0325694,0,sub_11
0.0314493999999998,-0.0085979999999987,0.0787163999999999,-0.0247939999999995,0.0932526000000006,-0.027289,0,sub_11
0.0324387999999997,-0.0102229999999987,0.0804859999999999,-0.0286153999999995,0.1175026000000006,-0.0196886,0,sub_11
0.0308069999999997,-0.0146433999999987,0.0806792,-0.0351867999999995,0.1345402000000006,-0.0122788,0,sub_11
0.0277569999999997,-0.0202233999999987,0.0807272,-0.0430593999999995,0.1454096000000006,-0.0063656,0,sub_11
0.0190529999999997,-0.0257877999999987,0.0812898,-0.0481659999999995,0.1526550000000006,-0.0023512,0,sub_11
0.0078927999999997,-0.0259769999999987,0.0817528,-0.0486947999999995,0.1475152000000006,-0.000264,0,sub_11
-0.0027414000000002,-0.0271571999999987,0.0817852,-0.0484563999999995,0.1215000000000006,0.0001463999999999,0,sub_11
-0.0097632000000001,-0.0255217999999987,0.0835841999999999,-0.0450641999999995,0.0848218000000006,0.0003785999999999,0,sub_11
-0.0138486000000001,-0.0203471999999987,0.0856297999999999,-0.0363397999999995,0.0485478000000006,0.0015021999999999,0,sub_11
-0.0145934000000001,-0.0124133999999987,0.0899395999999999,-0.0250719999999995,0.0092786000000006,0.0035017999999999,0,sub_11
-0.0115554000000001,-0.0113115999999987,0.0908209999999999,-0.0126565999999995,-0.0278425999999993,0.0051315999999999,0,sub_11
-0.0085736000000001,-0.0112963999999987,0.0897705999999999,0.0030170000000004,-0.0534649999999993,0.0054873999999999,0,sub_11
-0.0028610000000001,-0.0106049999999987,0.0890693999999999,0.0180848000000004,-0.0731127999999993,0.0041223999999999,0,sub_11
0.0021119999999998,-0.0105707999999987,0.0884292,0.0269918000000004,-0.0886833999999993,0.0007861999999999,0,sub_11
0.0094615999999998,-0.0136755999999987,0.084992,0.0314188000000004,-0.0924887999999993,-0.0031192,0,sub_11
0.0170121999999997,-0.0174975999999987,0.0825068,0.0337612000000004,-0.0835111999999993,-0.0051328,0,sub_11
0.0247351999999997,-0.0179767999999987,0.0827674,0.0337814000000004,-0.0655907999999993,-0.0037558,0,sub_11
