userAcceleration.x,userAcceleration.y,userAcceleration.z,rotationRate.x,rotationRate.y,rotationRate.z,label,subject
0.0111757999999996,0.0026774000000012,-0.0048969999999999,-0.0075955999999994,0.1133012000000008,0.0177929999999999,0,sub_17
0.0098809999999995,0.0014902000000012,0.0003048,-0.0123061999999994,0.1124544000000008,0.0205385999999999,0,sub_17
0.0109243999999995,0.0003888000000012,0.002408,-0.0170569999999994,0.1026594000000008,0.0232953999999999,0,sub_17
0.0135457999999996,-0.0011749999999987,0.001641,-0.0171207999999994,0.0885222000000008,0.0259295999999999,0,sub_17
0.0185147999999996,-0.0034397999999987,0.0003694,-0.0141839999999994,0.0788428000000008,0.0300745999999999,0,sub_17
0.0223319999999996,-0.0032677999999987,-0.0018691999999999,-0.0103917999999994,0.0708596000000008,0.0355051999999999,0,sub_17
0.0247765999999996,-0.0001505999999987,-0.0043291999999999,-0.0072377999999994,0.0628804000000008,0.0405039999999999,0,sub_17
0.0258543999999996,0.0033008000000012,-0.0075193999999999,-0.0051325999999994,0.0547088000000008,0.0412227999999999,0,sub_17
0.0266915999999996,0.0098766000000012,-0.0101047999999999,-0.0036659999999994,0.0447062000000008,0.0371865999999999,0,sub_17
0.0276895999999995,0.0146666000000012,-0.0088821999999999,0.0020692000000005,0.0310822000000008,0.0293391999999999,0,sub_17
0.0259077999999995,0.0155724000000012,-0.0038933999999999,0.0097438000000005,0.0198028000000008,0.0195795999999999,0,sub_17
0.0222411999999996,0.0138520000000012,0.0023914,0.0178384000000005,0.0084730000000008,0.0090147999999999,0,sub_17
0.0206521999999996,0.0109918000000012,0.0081808,0.0246030000000005,-0.0147797999999991,-0.0023986,0,sub_17
0.0188435999999996,0.0107080000000012,0.0126325999999999,0.0294290000000005,-0.0403761999999991,-0.0121134,0,sub_17
0.0151799999999996,0.0100374000000012,0.0110645999999999,0.0259276000000005,-0.0648877999999991,-0.0195376,0,sub_17
0.0122323999999996,0.0095944000000012,0.0054227999999999,0.0164960000000005,-0.0787291999999991,-0.0261624,0,sub_17
0.0094405999999996,0.0073756000000012,-0.001841,0.0058390000000005,-0.0799549999999991,-0.030081,0,sub_17
0.0045495999999996,0.0051782000000012,-0.0079748,-0.0011341999999994,-0.0643791999999991,-0.0297224,0,sub_17
0.0024855999999996,0.0020914000000012,-0.0125207999999999,-0.0067925999999994,-0.0381671999999991,-0.0263772,0,sub_17
0.0035869999999996,0.0028222000000012,-0.0152309999999999,-0.0062439999999994,-0.0051693999999991,-0.0204336,0,sub_17
0.0057005999999996,0.0061504000000012,-0.0179419999999999,0.0001490000000005,0.0162804000000008,-0.0129366,0,sub_17
0.0095981999999996,0.0116480000000012,-0.0202121999999999,0.0096840000000005,0.0242986000000008,-0.0058276,0,sub_17
0.0151225999999996,0.0164680000000012,-0.0217975999999999,0.0211136000000005,0.0252842000000008,2.1799999999930728e-05,0,sub_17
0.0188149999999996,0.0185684000000012,-0.0219431999999999,0.0359302000000005,0.0198682000000008,0.0054757999999999,0,sub_17
0.0199189999999996,0.0182050000000012,-0.0207441999999999,0.0513706000000005,0.0106158000000008,0.0107251999999999,0,sub_17
0.0212931999999996,0.0162222000000012,-0.0185766,0.0651554000000005,-0.0037249999999991,0.0153263999999999,0,sub_17
0.0220521999999996,0.0128966000000012,-0.0157191999999999,0.0770094000000005,-0.0225247999999991,0.0177833999999999,0,sub_17
0.0213705999999996,0.0092590000000012,-0.0126677999999999,0.0867488000000005,-0.0374803999999991,0.0197933999999999,0,sub_17
0.0184857999999996,0.0071706000000012,-0.0091827999999999,0.0937498000000005,-0.0460289999999991,0.0202803999999999,0,sub_17
0.0155091999999995,0.0031212000000012,-0.0027267999999999,0.0984354000000005,-0.0507213999999991,0.0175417999999999,0,sub_17
0.0114045999999995,-0.0009739999999987,0.006375,0.1018964000000005,-0.0430523999999991,0.0147787999999998,0,sub_17
0.0068723999999995,-0.0041621999999987,0.0174013999999999,0.1005072000000005,-0.0215219999999991,0.0130323999999998,0,sub_17
0.0038027999999995,-0.0069907999999987,0.0276885999999999,0.0922834000000005,-0.0016713999999991,0.0110267999999998,0,sub_17
0.0024073999999996,-0.0109813999999987,0.0354325999999999,0.0770022000000005,0.0150064000000008,0.0094031999999998,0,sub_17
0.0024915999999996,-0.0116963999999987,0.0372133999999999,0.0561646000000005,0.0321202000000008,0.0100903999999999,0,sub_17
0.0051551999999996,-0.0122647999999986,0.033528,0.0323158000000005,0.0456158000000008,0.0124703999999999,0,sub_17
0.0091449999999996,-0.0119003999999986,0.0253577999999999,0.0109978000000005,0.0552564000000008,0.0176501999999998,0,sub_17
0.0117727999999996,-0.0114121999999986,0.0154111999999999,-0.0073157999999994,0.0714802000000008,0.0256197999999998,0,sub_17
0.0140939999999996,-0.0112001999999986,0.0068316,-0.0217743999999994,0.0898254000000008,0.0325455999999998,0,sub_17
0.0177863999999996,-0.0097147999999986,0.001268,-0.0324325999999994,0.0958136000000008,0.0360953999999998,0,sub_17
0.0200541999999996,-0.0059353999999987,-0.0019217999999999,-0.0418449999999994,0.0915812000000008,0.0371031999999999,0,sub_17
0.0184257999999996,0.0007242000000012,-0.0047059999999999,-0.0519453999999994,0.0752128000000008,0.0366263999999999,0,sub_17
0.0154049999999996,0.0077850000000012,-0.0112291999999999,-0.0616697999999994,0.0460658000000008,0.0346731999999999,0,sub_17
0.0108899999999996,0.0162172000000012,-0.0197192,-0.0628727999999994,0.0113598000000008,0.0302227999999999,0,sub_17
0.0021457999999996,0.0204306000000012,-0.031709,-0.0608281999999994,-0.0144031999999991,0.0242879999999999,0,sub_17
-0.0041416000000003,0.0240088000000012,-0.0415393999999999,-0.0491463999999994,-0.0321045999999991,0.0186237999999999,0,sub_17
-0.0047432000000003,0.0236236000000012,-0.048471,-0.0275699999999994,-0.0313079999999991,0.0138595999999999,0,sub_17
-0.0015274000000003,0.0213254000000012,-0.0466705999999999,-0.0006093999999994,-0.0207245999999991,0.0078385999999998,0,sub_17
0.0040375999999996,0.0192870000000012,-0.0389261999999999,0.0222646000000005,-0.0131267999999991,0.0060657999999998,0,sub_17
0.0133933999999996,0.0168548000000012,-0.0262525999999999,0.0395640000000005,-0.0070187999999991,0.0087425999999998,0,sub_17
0.0192065999999996,0.0136512000000012,-0.0158655999999999,0.0487360000000005,-0.0030215999999991,0.0135017999999998,0,sub_17
0.0190241999999996,0.0099788000000012,-0.0053261999999999,0.0508142000000005,-0.0124153999999991,0.0165193999999998,0,sub_17
0.0147775999999996,0.0076252000000012,0.002482,0.0460586000000005,-0.0247611999999991,0.0177837999999998,0,sub_17
0.0103329999999996,0.0046058000000012,0.0073138,0.0368644000000005,-0.0313243999999991,0.0153777999999999,0,sub_17
0.0057355999999996,0.0048560000000012,0.008816,0.0287602000000005,-0.0359609999999991,0.0097723999999999,0,sub_17
0.0022705999999996,0.0044032000000012,0.0101219999999999,0.0196044000000005,-0.0388827999999991,0.0024481999999999,0,sub_17
0.0020439999999996,0.0040968000000012,0.0071239999999999,0.0089722000000005,-0.0375397999999991,-0.0044644,0,sub_17
0.0027891999999996,0.0048692000000012,0.0027577999999999,0.0017722000000005,-0.0287655999999991,-0.0079442,0,sub_17
0.0023963999999996,0.0050670000000012,-0.0031768,-0.0049817999999993,-0.0127609999999991,-0.008439,0,sub_17
0.0029283999999996,0.0055274000000012,-0.008754,-0.0096183999999993,0.0010996000000008,-0.007421,0,sub_17
0.0048437999999996,0.0061530000000012,-0.0148319999999999,-0.0125595999999993,0.0119732000000008,-0.0068144,0,sub_17
0.0091083999999996,0.0069776000000012,-0.0181669999999999,-0.0140033999999994,0.0230570000000008,-0.0068386,0,sub_17
0.0152481999999996,0.0076806000000012,-0.0206575999999999,-0.0144127999999994,0.0260446000000008,-0.0076998,0,sub_17
0.0223001999999996,0.0092172000000012,-0.0221175999999999,-0.0135803999999994,0.0200812000000008,-0.0089684,0,sub_17
0.0263665999999996,0.0097896000000012,-0.0216333999999999,-0.0119137999999994,0.0128246000000008,-0.0072382,0,sub_17
0.0260097999999996,0.0084376000000012,-0.0200155999999999,-0.0091973999999994,0.0051246000000008,-0.002082,0,sub_17
0.0245161999999996,0.0083732000000012,-0.0171319999999999,-0.0049047999999994,-0.0029715999999991,0.0032867999999999,0,sub_17
0.0204955999999996,0.0090464000000012,-0.0136903999999999,-0.0008111999999994,-0.0074467999999991,0.0090769999999999,0,sub_17
0.0158961999999996,0.0084338000000012,-0.0120333999999999,0.0033178000000005,-0.0048879999999991,0.0140039999999998,0,sub_17
0.0149219999999996,0.0088658000000012,-0.0116223999999999,0.0048884000000005,-0.0071991999999991,0.0135779999999999,0,sub_17
0.0191169999999996,0.0111086000000012,-0.0106453999999999,0.0064600000000005,-0.0152389999999991,0.0071773999999999,0,sub_17
0.0231579999999996,0.0129534000000012,-0.0083719999999999,0.0066610000000005,-0.0239509999999991,0.0012079999999999,0,sub_17
0.0252689999999996,0.0126938000000012,-0.0067631999999999,0.0053338000000005,-0.0405399999999991,-0.0049758,0,sub_17
0.0279229999999996,0.0122534000000012,-0.0056275999999999,0.0018364000000005,-0.0664907999999991,-0.0124446,0,sub_17
0.0265747999999996,0.0119614000000012,-0.0039875999999999,0.0013378000000005,-0.0894709999999991,-0.0194688,0,sub_17
0.0220267999999996,0.0104316000000012,-0.0021661999999999,-0.0001989999999994,-0.1013871999999991,-0.0218142,0,sub_17
0.0165551999999996,0.0077936000000012,-0.0012529999999999,-0.0021317999999994,-0.1066965999999991,-0.0243846,0,sub_17
0.0167053999999996,0.0071526000000012,-0.0009753999999999,-0.0021145999999994,-0.1068933999999991,-0.0284434,0,sub_17
0.0168327999999996,0.0070828000000012,0.000282,0.0013206000000005,-0.1037033999999991,-0.029919,0,sub_17
0.0176861999999996,0.0050374000000012,0.0013644,0.0036974000000005,-0.0932871999999991,-0.0260702,0,sub_17
0.0160619999999996,0.0046890000000012,0.0023032,0.0048054000000005,-0.0803101999999991,-0.0222336,0,sub_17
0.0145567999999996,0.0048920000000012,0.0014452,0.0056684000000005,-0.0752117999999991,-0.019243,0,sub_17
0.0103409999999996,0.0059362000000012,-0.0003021999999999,0.0054416000000005,-0.0754351999999991,-0.016467,0,sub_17
0.0068363999999996,0.0062602000000012,-0.0024495999999999,0.0039422000000005,-0.0737375999999991,-0.0134886,0,sub_17
0.0019537999999996,0.0084006000000012,-0.0051049999999999,0.0029012000000005,-0.0664961999999991,-0.0120096,0,sub_17
0.0009997999999996,0.0085568000000012,-0.0081319999999999,0.0022924000000005,-0.0612033999999991,-0.0118168,0,sub_17
-0.0004936000000003,0.0100894000000012,-0.0094783999999999,0.0059636000000005,-0.0540047999999991,-0.0124514,0,sub_17
0.0004799999999996,0.0084926000000012,-0.0086217999999999,0.0105046000000005,-0.0423385999999991,-0.0122308,0,sub_17
0.0006799999999996,0.0073216000000012,-0.0060971999999999,0.0156856000000005,-0.0296133999999991,-0.010939,0,sub_17
-0.0001562000000003,0.0043726000000012,-0.003913,0.0176402000000005,-0.0228415999999991,-0.0098758,0,sub_17
-0.0003950000000003,0.0032782000000012,-0.0021776,0.0204246000000005,-0.0211443999999991,-0.0104996,0,sub_17
-0.0007450000000003,0.0020330000000012,-0.0001376,0.0180938000000005,-0.0158167999999991,-0.0088134,0,sub_17
-0.0036378000000003,0.0017308000000012,0.0004883999999999,0.0121586000000005,-0.0043019999999991,-0.0060922,0,sub_17
-0.0054968000000003,0.0024238000000012,-0.0007718,0.0040378000000005,0.0067478000000008,-0.0060176,0,sub_17
-0.0031278000000003,0.0051172000000012,-0.0023195999999999,-0.0019541999999994,0.0150274000000008,-0.0076336,0,sub_17
-0.0006660000000003,0.0076124000000012,-0.0036299999999999,-0.0073019999999993,0.0252180000000008,-0.0081794,0,sub_17
0.0033711999999996,0.0081154000000012,-0.0065531999999999,-0.0100999999999993,0.0317828000000007,-0.0099848,0,sub_17
0.0068933999999996,0.0092196000000012,-0.0079809999999999,-0.0103585999999993,0.0336514000000008,-0.0117664,0,sub_17
0.0091061999999996,0.0094190000000012,-0.0088505999999999,-0.0103451999999993,0.0366342000000008,-0.01177,0,sub_17
0.0101393999999996,0.0079100000000012,-0.0086777999999999,-0.0090571999999994,0.0385462000000008,-0.0115498,0,sub_17
0.0111437999999996,0.0064108000000012,-0.0077285999999999,-0.0086267999999994,0.0396090000000008,-0.0113344,0,sub_17
0.0119265999999995,0.0061512000000012,-0.0069317999999999,-0.0086659999999994,0.0408444000000008,-0.009251,0,sub_17
0.0125221999999995,0.0070148000000012,-0.0066211999999999,-0.0091231999999994,0.0442108000000008,-0.0069596,0,sub_17
0.0125635999999995,0.0077882000000012,-0.0062161999999999,-0.0078695999999994,0.0477868000000008,-0.0052976,0,sub_17
0.0115241999999995,0.0083180000000012,-0.0047725999999999,-0.0068177999999994,0.0530716000000008,-0.0044938,0,sub_17
0.0101201999999995,0.0078386000000012,-0.0027159999999999,-0.0061897999999994,0.0581482000000008,-0.0045471999999999,0,sub_17
0.0093341999999996,0.0070236000000012,-0.0005471999999999,-0.0072249999999994,0.0628484000000008,-0.0069106,0,sub_17
0.0105785999999996,0.0059690000000012,0.0009853999999999,-0.0095471999999993,0.0656374000000008,-0.0097078,0,sub_17
0.0128779999999996,0.0049858000000012,0.0018787999999999,-0.0131715999999993,0.0645916000000008,-0.011441,0,sub_17
0.0154325999999996,0.0053028000000012,0.0016566,-0.0166027999999994,0.0609806000000008,-0.0112466,0,sub_17
0.0172685999999996,0.0066388000000012,-0.0010501999999999,-0.0192051999999994,0.0587812000000008,-0.0101936,0,sub_17
0.0188107999999996,0.0080448000000012,-0.0037833999999999,-0.0196861999999994,0.0548658000000008,-0.0080552,0,sub_17
0.0186755999999996,0.0085244000000012,-0.0061381999999999,-0.0176095999999994,0.0517876000000008,-0.0044046,0,sub_17
0.0172423999999996,0.0095164000000012,-0.0076297999999999,-0.0144421999999994,0.0529712000000008,-0.00182,0,sub_17
0.0170913999999996,0.0105194000000012,-0.0091911999999999,-0.0108357999999994,0.0554376000000008,-0.0007296,0,sub_17
0.0182345999999996,0.0110620000000012,-0.0093327999999999,-0.0059349999999994,0.0541414000000008,-0.00048,0,sub_17
0.0183299999999996,0.0102756000000012,-0.0085479999999999,-0.0010351999999994,0.0524198000000008,-0.0004436,0,sub_17
0.0194377999999996,0.0093106000000012,-0.0077261999999999,0.0031976000000005,0.0494664000000008,-0.0018674,0,sub_17
0.0210297999999996,0.0075394000000012,-0.0068675999999999,0.0067778000000005,0.0443820000000008,-0.0026522,0,sub_17
0.0214665999999996,0.0051344000000012,-0.0056543999999999,0.0099188000000005,0.0378028000000008,-0.0021562,0,sub_17
0.0199903999999996,0.0035294000000012,-0.0035833999999999,0.0115654000000005,0.0322888000000008,-0.0003902,0,sub_17
0.0181621999999996,0.0033852000000012,-0.0022075999999999,0.0123670000000005,0.0291198000000008,0.0017941999999999,0,sub_17
0.0160451999999996,0.0027668000000012,-0.0003435999999999,0.0125612000000005,0.0271922000000008,0.0041479999999999,0,sub_17
0.0137411999999996,0.0031800000000012,0.001074,0.0123392000000005,0.0276098000000008,0.0064959999999999,0,sub_17
0.0124235999999996,0.0034976000000012,0.0019678,0.0114934000000005,0.0320758000000008,0.0092617999999999,0,sub_17
0.0135493999999996,0.0034764000000012,0.0014979999999999,0.0097764000000005,0.0410116000000008,0.0120641999999999,0,sub_17
0.0157919999999996,0.0026670000000012,0.0021895999999999,0.0072030000000005,0.0488868000000008,0.0144347999999999,0,sub_17
0.0177295999999996,0.0026342000000012,0.0026731999999999,0.0037608000000005,0.0531440000000008,0.0165903999999998,0,sub_17
0.0198867999999996,0.0026410000000012,0.0024477999999999,0.0005108000000005,0.0512278000000008,0.0172595999999998,0,sub_17
0.0214641999999996,0.0034938000000012,0.0019677999999999,-0.0031743999999994,0.0459102000000008,0.0164345999999998,0,sub_17
0.0225789999999996,0.0042690000000012,0.0014397999999999,-0.0059769999999994,0.0380430000000008,0.0149295999999998,0,sub_17
0.0234905999999996,0.0070078000000012,-0.0017225999999999,-0.0083689999999994,0.0280376000000008,0.0149255999999998,0,sub_17
0.0234987999999996,0.0107510000000012,-0.0069613999999999,-0.0092733999999994,0.0165366000000008,0.0147201999999998,0,sub_17
0.0231267999999996,0.0147402000000012,-0.0111267999999999,-0.0082563999999994,0.0048174000000008,0.0141013999999999,0,sub_17
0.0213559999999996,0.0168740000000012,-0.0139813999999999,-0.0033949999999994,-0.0055707999999991,0.0124925999999999,0,sub_17
0.0186801999999996,0.0175826000000012,-0.0158099999999999,0.0025360000000005,-0.0165967999999991,0.0096103999999999,0,sub_17
0.0167825999999996,0.0160480000000012,-0.0155131999999999,0.0093358000000005,-0.0259143999999991,0.0050229999999999,0,sub_17
0.0167627999999996,0.0127486000000012,-0.0136929999999999,0.0148844000000005,-0.0275627999999991,0.0016987999999999,0,sub_17
0.0169785999999996,0.0088232000000012,-0.0122311999999999,0.0180954000000005,-0.0241015999999991,0.0013427999999999,0,sub_17
0.0189569999999995,0.0065544000000012,-0.0122453999999999,0.0180886000000005,-0.0234709999999991,0.0034783999999999,0,sub_17
0.0200779999999995,0.0065896000000012,-0.0130135999999999,0.0176494000000005,-0.0230561999999991,0.0066793999999999,0,sub_17
0.0182411999999995,0.0072564000000012,-0.0136271999999999,0.0172264000000005,-0.0231553999999991,0.0103611999999999,0,sub_17
0.0157073999999995,0.0077004000000012,-0.0136131999999999,0.0176520000000005,-0.0266571999999991,0.0117033999999998,0,sub_17
0.0138179999999996,0.0083176000000012,-0.0134387999999999,0.0187168000000005,-0.0331327999999991,0.0102763999999998,0,sub_17
0.0148403999999996,0.0088068000000012,-0.0120187999999999,0.0202122000000005,-0.0427893999999991,0.0047973999999999,0,sub_17
0.0166059999999996,0.0094876000000012,-0.0098817999999999,0.0214952000000005,-0.0501101999999991,0.0014503999999999,0,sub_17
0.0160179999999996,0.0088128000000012,-0.0091033999999999,0.0210464000000005,-0.0581919999999991,-0.001747,0,sub_17
0.0156363999999996,0.0079900000000012,-0.0088185999999999,0.0220738000000005,-0.0694771999999991,-0.004289,0,sub_17
0.0153195999999996,0.0062938000000012,-0.0080719999999999,0.0246170000000005,-0.0750187999999991,-0.0059732,0,sub_17
0.0122633999999995,0.0056368000000012,-0.0080047999999999,0.0253074000000005,-0.0707223999999991,-0.006147,0,sub_17
0.0143501999999996,0.0065386000000012,-0.0069081999999999,0.0244956000000005,-0.0708845999999991,-0.0088894,0,sub_17
0.0205445999999996,0.0090078000000012,-0.0043871999999999,0.0234762000000005,-0.0684943999999991,-0.0103544,0,sub_17
0.0259473999999996,0.0132626000000012,-0.0026751999999999,0.0198850000000005,-0.0682275999999991,-0.0114076,0,sub_17
0.0292273999999996,0.0170874000000012,-0.0036643999999999,0.0172780000000005,-0.0875599999999991,-0.0137106,0,sub_17
0.0293581999999996,0.0185546000000012,-0.0059137999999999,0.0190670000000005,-0.1195133999999991,-0.0164346,0,sub_17
0.0222229999999996,0.0158328000000012,-0.0090847999999999,0.0264392000000005,-0.1429667999999991,-0.0184894,0,sub_17
0.0130053999999996,0.0114638000000012,-0.0089379999999999,0.0379240000000005,-0.1542869999999991,-0.0213858,0,sub_17
0.0046169999999996,0.0047350000000012,-0.0045819999999999,0.0484012000000005,-0.1517573999999991,-0.0236658,0,sub_17
-0.0008384000000003,-0.0010505999999987,0.001949,0.0521230000000005,-0.1296071999999991,-0.0223736,0,sub_17
-0.0035634000000003,-0.0049225999999987,0.0079286,0.0490496000000005,-0.0965819999999991,-0.0175108,0,sub_17
-0.0033268000000003,-0.0052927999999987,0.0120598,0.0408378000000005,-0.0658881999999991,-0.0111854,0,sub_17
-0.0010980000000003,-0.0044129999999987,0.0110804,0.0289700000000005,-0.0413611999999991,-0.004664,0,sub_17
0.0014707999999996,-0.0016083999999987,0.006795,0.0175070000000005,-0.0219481999999991,0.0016531999999999,0,sub_17
0.0032027999999996,0.0023832000000012,0.002382,0.0094554000000005,-0.0053179999999991,0.0056349999999999,0,sub_17
0.0048791999999996,0.0058698000000012,-0.0027367999999999,0.0045966000000005,0.0070504000000008,0.0070807999999999,0,sub_17
0.0059001999999996,0.0077058000000012,-0.0074865999999999,0.0018502000000005,0.0094352000000008,0.0044713999999999,0,sub_17
0.0089859999999996,0.0070006000000012,-0.0126207999999999,0.0009828000000005,-0.0009551999999991,-0.0017404,0,sub_17
0.0110981999999996,0.0087080000000012,-0.0149693999999999,0.0050488000000005,-0.0028517999999991,-0.0051514,0,sub_17
0.0114659999999996,0.0083820000000012,-0.0165815999999999,0.0063372000000005,-0.0032565999999991,-0.0062334,0,sub_17
0.0120633999999996,0.0077262000000012,-0.0161137999999999,0.0097364000000005,-0.0087823999999991,-0.0072942,0,sub_17
0.0118577999999996,0.0069646000000012,-0.0150787999999999,0.0107964000000005,-0.0090041999999991,-0.0060046,0,sub_17
0.0093763999999996,0.0084534000000012,-0.0115743999999999,0.0118900000000005,0.0003526000000008,-0.0025906,0,sub_17
0.0079963999999996,0.0069876000000012,-0.0098031999999999,0.0103906000000005,-0.0009205999999991,-0.0025994,0,sub_17
0.0081669999999996,0.0060500000000012,-0.0080935999999999,0.0118562000000005,-0.0027055999999991,-0.0036862,0,sub_17
0.0091897999999996,0.0056912000000012,-0.0060495999999999,0.0107900000000005,0.0033956000000008,-0.0033052,0,sub_17
0.0106765999999996,0.0062402000000012,-0.0037839999999999,0.0101526000000005,0.0101334000000008,-0.0027084,0,sub_17
0.0125145999999996,0.0072738000000012,-0.0039355999999999,0.0090644000000005,0.0117588000000008,-0.0018946,0,sub_17
0.0143397999999996,0.0084316000000012,-0.0062223999999999,0.0073140000000005,0.0063642000000008,-0.0032128,0,sub_17
0.0173367999999996,0.0100682000000012,-0.0088795999999999,0.0074890000000005,-0.0059781999999991,-0.0070414,0,sub_17
0.0204355999999996,0.0108182000000012,-0.0098397999999999,0.0083022000000005,-0.0176879999999991,-0.0097982,0,sub_17
0.0215701999999996,0.0101850000000012,-0.0089833999999999,0.0095516000000005,-0.0251467999999991,-0.0104208,0,sub_17
0.0216473999999996,0.0088410000000012,-0.0067005999999999,0.0088238000000005,-0.0293349999999991,-0.0095848,0,sub_17
0.0196177999999996,0.0073408000000012,-0.0049643999999999,0.0066264000000005,-0.0262817999999991,-0.0068456,0,sub_17
0.0156321999999996,0.0062374000000012,-0.0040599999999999,0.0029508000000005,-0.0187535999999991,-0.0030542,0,sub_17
0.0119423999999996,0.0056352000000012,-0.0048703999999999,-7.699999999941669e-05,-0.0116451999999991,-0.0013942,0,sub_17
0.0116117999999996,0.0051888000000012,-0.0066199999999999,-0.0022387999999994,-0.0032553999999991,-0.0012254,0,sub_17
0.0119641999999996,0.0059260000000012,-0.0082683999999999,-0.0045349999999994,0.0076202000000008,-0.0016826,0,sub_17
0.0132933999999996,0.0069912000000012,-0.0089211999999999,-0.0070627999999994,0.0159338000000008,-0.0006428,0,sub_17
0.0148801999999996,0.0077324000000012,-0.0088889999999999,-0.0091841999999994,0.0197720000000008,0.0004055999999999,0,sub_17
0.0154889999999996,0.0090102000000012,-0.0095181999999999,-0.0112113999999994,0.0226194000000008,0.0023325999999999,0,sub_17
0.0149109999999996,0.0105712000000012,-0.0109303999999999,-0.0132469999999994,0.0224882000000008,0.0031951999999999,0,sub_17
0.0152007999999996,0.0112004000000012,-0.0110387999999999,-0.0125231999999994,0.0185150000000008,0.0034407999999999,0,sub_17
0.0143689999999996,0.0105092000000012,-0.0089659999999999,-0.0105077999999994,0.0160330000000008,0.0026255999999999,0,sub_17
0.0134215999999996,0.0095930000000012,-0.0070813999999999,-0.0097541999999994,0.0180278000000008,0.0022229999999999,0,sub_17
0.0120941999999995,0.0085746000000012,-0.0046189999999999,-0.0099607999999994,0.0186710000000008,0.0013661999999999,0,sub_17
0.0115575999999996,0.0072996000000012,-0.0031689999999999,-0.0103913999999994,0.0173960000000008,0.0009373999999999,0,sub_17
0.0106077999999996,0.0062678000000012,-0.0027461999999999,-0.0120945999999994,0.0176176000000008,0.0002843999999999,0,sub_17
0.0113959999999996,0.0059740000000012,-0.0035589999999999,-0.0134899999999994,0.0179036000000008,-0.0003424,0,sub_17
0.0140357999999996,0.0062810000000012,-0.0044503999999999,-0.0142405999999994,0.0205258000000008,0.0003141999999999,0,sub_17
0.0163829999999996,0.0068736000000012,-0.0059773999999999,-0.0149881999999994,0.0244238000000008,0.0016101999999999,0,sub_17
