userAcceleration.x,userAcceleration.y,userAcceleration.z,rotationRate.x,rotationRate.y,rotationRate.z,label,subject
-0.0215024000000002,0.0047934000000012,0.0995549999999999,0.0320980000000005,-0.0189645999999991,0.0057846,0,sub_19
-0.0218544000000002,0.0041722000000012,0.0989303999999999,0.0344336000000005,-0.0202561999999991,0.0070846,0,sub_19
-0.0203224000000002,0.0029012000000012,0.0994517999999999,0.0352660000000005,-0.0228241999999991,0.0092302,0,sub_19
-0.0197084000000002,0.0027466000000012,0.1000815999999999,0.0365390000000005,-0.0257141999999991,0.0096794,0,sub_19
-0.0200946000000002,0.0030644000000012,0.1006067999999999,0.0384636000000005,-0.0277473999999991,0.0084228,0,sub_19
-0.0195660000000002,0.0030700000000012,0.1019653999999999,0.0391032000000005,-0.0280829999999991,0.0099324,0,sub_19
-0.0180406000000002,0.0027038000000012,0.1036439999999999,0.0399638000000005,-0.0267147999999991,0.0114414,0,sub_19
-0.0186546000000002,0.0045668000000012,0.1035809999999999,0.0410474000000005,-0.0236411999999991,0.0125226,0,sub_19
-0.0172908000000002,0.0044312000000012,0.1039263999999999,0.0395642000000005,-0.0189581999999991,0.0148562,0,sub_19
-0.0166990000000002,0.0049528000000012,0.1031247999999999,0.0374438000000005,-0.0138459999999991,0.0169714,0,sub_19
-0.0163970000000002,0.0054572000000012,0.1021789999999999,0.0355454000000005,-0.0085145999999992,0.0173786,0,sub_19
-0.0172118000000002,0.0072354000000012,0.1014875999999999,0.0328614000000005,-0.0044243999999992,0.0179944,0,sub_19
-0.0159196000000002,0.0069714000000012,0.1012955999999999,0.0303890000000005,-0.0013977999999992,0.0179722,0,sub_19
-0.0160266000000002,0.0082290000000012,0.1013767999999999,0.0289864000000005,0.0012032000000007,0.0168898,0,sub_19
-0.0152438000000002,0.0081190000000012,0.1019487999999999,0.0269418000000005,0.0038046000000007,0.01623,0,sub_19
-0.0145246000000002,0.0076126000000012,0.1022045999999999,0.0242522000000005,0.0061920000000007,0.0164208,0,sub_19
-0.0134302000000002,0.0066994000000012,0.1026973999999999,0.0206480000000005,0.0104690000000007,0.0155356,0,sub_19
-0.0138362000000002,0.0065552000000012,0.1033849999999999,0.0157662000000005,0.0158142000000007,0.0150672,0,sub_19
-0.0145366000000002,0.0062588000000012,0.1032433999999999,0.0104568000000005,0.0211600000000007,0.0148096,0,sub_19
-0.0153566000000002,0.0067624000000012,0.1029673999999999,0.0060802000000005,0.0260856000000007,0.0149994,0,sub_19
-0.0160028000000002,0.0068138000000012,0.1028565999999999,0.0012742000000006,0.0299490000000007,0.0147602,0,sub_19
-0.0172382000000002,0.0073138000000012,0.1018963999999999,-0.0031165999999993,0.0316788000000007,0.014954,0,sub_19
-0.0182126000000002,0.0070098000000012,0.1019283999999999,-0.0057993999999993,0.0325546000000007,0.0140926,0,sub_19
-0.0191166000000002,0.0063956000000012,0.1018323999999999,-0.0082707999999993,0.0327914000000007,0.0130198,0,sub_19
-0.0198522000000002,0.0057118000000012,0.1020331999999999,-0.0106101999999993,0.0338676000000007,0.0123612,0,sub_19
-0.0205490000000002,0.0056094000000012,0.1020567999999999,-0.0120931999999994,0.0362164000000007,0.0123478,0,sub_19
-0.0204850000000002,0.0047498000000012,0.1021889999999999,-0.0129333999999994,0.0389900000000007,0.0121246,0,sub_19
-0.0201346000000002,0.0042408000000012,0.1016805999999999,-0.0144145999999994,0.0413406000000007,0.011684,0,sub_19
-0.0197350000000002,0.0044864000000012,0.1016713999999999,-0.0164887999999994,0.0435600000000007,0.0118958,0,sub_19
-0.0194590000000002,0.0045064000000012,0.1018043999999999,-0.0192097999999994,0.0451390000000007,0.0129584,0,sub_19
-0.0192570000000002,0.0046048000000012,0.1017505999999999,-0.0214983999999993,0.0467218000000007,0.0127422,0,sub_19
-0.0200576000000002,0.0049918000000012,0.1021081999999999,-0.0235705999999993,0.0493674000000007,0.0129536,0,sub_19
-0.0209302000000002,0.0051864000000012,0.1024685999999999,-0.0252179999999993,0.0517976000000007,0.0133817999999999,0,sub_19
-0.0212316000000002,0.0048078000000012,0.1023889999999999,-0.0260609999999993,0.0539320000000007,0.0131596,0,sub_19
-0.0224790000000002,0.0042830000000012,0.1018717999999999,-0.0264733999999993,0.0550074000000007,0.011019,0,sub_19
-0.0237686000000002,0.0037330000000012,0.1019341999999999,-0.0271433999999994,0.0551866000000007,0.0101582,0,sub_19
-0.0245862000000002,0.0033536000000012,0.1018087999999999,-0.0278183999999994,0.0543004000000007,0.0092986,0,sub_19
-0.0248664000000002,0.0026738000000012,0.1014879999999999,-0.0276425999999994,0.0531964000000007,0.0088726,0,sub_19
-0.0259578000000002,0.0019554000000012,0.1016299999999999,-0.0268275999999994,0.0523016000000007,0.008878,0,sub_19
-0.0262872000000002,0.0019808000000012,0.1012681999999999,-0.0253733999999994,0.0511914000000007,0.0088882,0,sub_19
-0.0266594000000002,0.0019296000000012,0.1017245999999999,-0.0230329999999993,0.0496918000000007,0.0089064,0,sub_19
-0.0266460000000002,0.0014598000000012,0.1019773999999999,-0.0206943999999993,0.0477662000000007,0.0089252,0,sub_19
-0.0277296000000002,0.0013616000000012,0.1026911999999999,-0.0179273999999993,0.0464774000000007,0.0091598,0,sub_19
-0.0283494000000002,0.0017066000000012,0.1026871999999999,-0.0147355999999993,0.0449732000000007,0.0096114,0,sub_19
-0.0283422000000002,0.0010288000000012,0.1032379999999999,-0.0121905999999993,0.0430408000000007,0.0111272,0,sub_19
-0.0284524000000002,7.200000001282222e-06,0.1028387999999999,-0.0104989999999993,0.0408992000000007,0.0124236,0,sub_19
-0.0290670000000002,-0.0001605999999987,0.1027289999999999,-0.0079509999999993,0.0383328000000007,0.0126584,0,sub_19
-0.0290984000000002,-0.0002643999999986,0.1025567999999999,-0.0058325999999993,0.0347042000000007,0.0124642,0,sub_19
-0.0290424000000002,-0.0005823999999986,0.1023141999999999,-0.0037189999999993,0.0300104000000007,0.0122712,0,sub_19
-0.0300244000000002,0.0005162000000012,0.1012461999999999,-0.0016023999999993,0.0248948000000007,0.0110106,0,sub_19
-0.0298026000000002,0.0008108000000012,0.1008647999999999,-0.0005565999999993,0.0189306000000007,0.0097438,0,sub_19
-0.0300332000000002,0.0010480000000012,0.1010661999999999,0.0004882000000005,0.0129656000000007,0.0086906,0,sub_19
-0.0304400000000002,0.0015270000000012,0.1008501999999999,0.0008940000000005,0.0072160000000007,0.0076326,0,sub_19
-0.0303920000000002,0.0018972000000012,0.1010011999999999,0.0006644000000005,0.0018972000000007,0.0059288,0,sub_19
-0.0294872000000002,0.0009128000000012,0.1021475999999999,0.0012920000000005,-0.0027843999999992,0.0040164,0,sub_19
-0.0297864000000002,0.0018610000000012,0.1026007999999999,0.0036294000000005,-0.0070449999999992,0.0019018,0,sub_19
-0.0293822000000002,0.0026360000000012,0.1016423999999999,0.0040418000000005,-0.0115155999999992,0.0006284,0,sub_19
-0.0278630000000002,0.0026406000000012,0.1019815999999999,0.0038188000000005,-0.0155551999999992,-0.0012907999999999,0,sub_19
-0.0276210000000002,0.0025010000000012,0.1022421999999999,0.0038130000000005,-0.0185309999999992,-0.0029961999999999,0,sub_19
-0.0280470000000002,0.0032360000000012,0.1023251999999999,0.0035948000000005,-0.0208687999999992,-0.0042765999999999,0,sub_19
-0.0274356000000002,0.0028444000000012,0.1020021999999999,0.0025232000000005,-0.0229913999999992,-0.0053495999999999,0,sub_19
-0.0269886000000002,0.0021422000000012,0.1027633999999999,0.0027356000000005,-0.0244783999999992,-0.0066279999999999,0,sub_19
-0.0270608000000001,0.0022430000000012,0.1017229999999999,0.0037976000000005,-0.0257595999999992,-0.0068325999999999,0,sub_19
-0.0271420000000002,0.0025224000000012,0.1013737999999999,0.0040034000000005,-0.0270403999999991,-0.0064021999999999,0,sub_19
-0.0257810000000002,0.0017986000000012,0.1016163999999999,0.0035766000000005,-0.0266143999999991,-0.0059783999999999,0,sub_19
-0.0258474000000002,0.0024548000000012,0.1022369999999998,0.0046520000000005,-0.0247005999999991,-0.0059733999999999,0,sub_19
-0.0255662000000002,0.0030672000000012,0.1017567999999999,0.0048768000000005,-0.0219323999999991,-0.0057617999999999,0,sub_19
-0.0248834000000002,0.0027258000000012,0.1025623999999998,0.0038234000000005,-0.0178849999999991,-0.0047061999999999,0,sub_19
-0.0241418000000002,0.0029748000000012,0.1024229999999998,0.0031996000000005,-0.0140485999999991,-0.0045017999999999,0,sub_19
-0.0235578000000002,0.0035964000000012,0.1016203999999999,0.0021434000000005,-0.0112769999999992,-0.0040853999999999,0,sub_19
-0.0230020000000002,0.0029754000000012,0.1013647999999999,-0.0006265999999994,-0.0095663999999992,-0.0032523999999999,0,sub_19
-0.0227670000000002,0.0030310000000012,0.1012699999999999,-0.0034593999999994,-0.0082917999999992,-0.0026643999999999,0,sub_19
-0.0226780000000002,0.0036448000000012,0.1009881999999999,-0.0056539999999994,-0.0080819999999992,-0.0027113999999999,0,sub_19
-0.0218576000000002,0.0032520000000012,0.1005051999999999,-0.0082763999999994,-0.0074473999999992,-0.0021211999999999,0,sub_19
-0.0218304000000002,0.0032238000000012,0.1008767999999999,-0.0104737999999994,-0.0074525999999992,-0.0017407999999999,0,sub_19
-0.0215068000000002,0.0036688000000012,0.1008347999999999,-0.0120281999999994,-0.0070329999999992,-0.0015699999999999,0,sub_19
-0.0217608000000002,0.0039456000000012,0.1008261999999999,-0.0137331999999994,-0.0057521999999992,-0.0007289999999999,0,sub_19
-0.0221266000000002,0.0035498000000012,0.1005973999999999,-0.0152181999999994,-0.0034051999999992,-0.0003151999999999,0,sub_19
-0.0224052000000002,0.0040592000000012,0.1008753999999999,-0.0156323999999994,-0.0002095999999992,0.000105,0,sub_19
-0.0226460000000002,0.0040722000000012,0.1005695999999999,-0.0157741999999994,0.0038124000000007,0.000664,0,sub_19
-0.0233556000000002,0.0042768000000012,0.0994825999999999,-0.0161273999999994,0.0084734000000007,0.0014344,0,sub_19
-0.0234592000000002,0.0041202000000012,0.0988743999999999,-0.0162689999999994,0.0124954000000007,0.0019934,0,sub_19
-0.0252300000000002,0.0060842000000012,0.0978449999999999,-0.0164057999999994,0.0173704000000007,0.0023378,0,sub_19
-0.0256982000000002,0.0062814000000012,0.0975027999999999,-0.0171857999999994,0.0207596000000007,0.001825,0,sub_19
-0.0258590000000002,0.0065088000000012,0.0970949999999999,-0.0182391999999994,0.0233218000000007,0.001387,0,sub_19
-0.0264462000000002,0.0065812000000012,0.0973233999999999,-0.0192953999999994,0.0260936000000007,0.0018032,0,sub_19
-0.0253212000000002,0.0053560000000012,0.0978255999999999,-0.0199201999999994,0.0292924000000007,0.0015812,0,sub_19
-0.0246218000000002,0.0036922000000012,0.0982697999999999,-0.0201249999999994,0.0316350000000007,0.002004,0,sub_19
-0.0248170000000002,0.0026942000000012,0.0992937999999999,-0.0194355999999994,0.0346514000000007,0.0023684,0,sub_19
-0.0250870000000002,0.0021188000000012,0.1004291999999999,-0.0183157999999993,0.0383062000000007,0.0025214,0,sub_19
-0.0240186000000002,0.0010098000000012,0.1013793999999999,-0.0171959999999993,0.0413246000000007,0.0020344,0,sub_19
-0.0243640000000002,0.0004380000000012,0.1026899999999999,-0.0156473999999993,0.0451920000000007,0.0019764,0,sub_19
-0.0231932000000002,-0.0006939999999987,0.1044205999999999,-0.0123907999999993,0.0494786000000007,0.0021436,0,sub_19
-0.0226060000000002,-0.0010699999999987,0.1047577999999998,-0.0093919999999993,0.0537224000000007,0.0038684,0,sub_19
-0.0215324000000002,-0.0005349999999987,0.1048797999999999,-0.0061855999999994,0.0579604000000007,0.0068764,0,sub_19
-0.0211018000000002,0.0011532000000012,0.1047605999999999,-0.0023165999999994,0.0627648000000007,0.009641,0,sub_19
-0.0207366000000002,0.0037210000000012,0.1034571999999999,0.0006872000000005,0.0656522000000007,0.013043,0,sub_19
-0.0197572000000002,0.0058392000000012,0.1025233999999999,0.0009104000000005,0.0664214000000007,0.0157872,0,sub_19
-0.0189762000000002,0.0075090000000012,0.1019043999999999,0.0002820000000005,0.0667710000000007,0.0176714,0,sub_19
-0.0189280000000002,0.0078370000000012,0.1019377999999999,-0.0014091999999994,0.0667032000000007,0.018267,0,sub_19
-0.0177202000000002,0.0069136000000012,0.1027335999999999,-0.0031219999999993,0.0654308000000007,0.0182566,0,sub_19
-0.0164948000000002,0.0055570000000012,0.1050495999999999,-0.0035449999999993,0.0656480000000007,0.0176124,0,sub_19
-0.0161746000000002,0.0048258000000012,0.1064939999999999,-0.0018235999999993,0.0688378000000007,0.0176204,0,sub_19
-0.0150750000000002,0.0049262000000012,0.1083167999999999,0.0003372000000005,0.0724392000000007,0.0178324,0,sub_19
-0.0142222000000002,0.0049502000000012,0.1099249999999999,0.0025018000000005,0.0771050000000007,0.0182566,0,sub_19
-0.0136118000000002,0.0063218000000012,0.1115577999999999,0.0033928000000005,0.0836910000000007,0.0190968,0,sub_19
-0.0125932000000002,0.0085994000000012,0.1121147999999999,0.0025808000000005,0.0917718000000008,0.0205642,0,sub_19
-0.0104724000000002,0.0102476000000012,0.1125623999999999,-0.0001467999999994,0.1000758000000007,0.0211632,0,sub_19
-0.0096252000000002,0.0116754000000012,0.1128245999999999,-0.0045853999999994,0.1090412000000007,0.0206934,0,sub_19
-0.0081068000000002,0.0139432000000012,0.1127287999999998,-0.0109395999999994,0.1173812000000007,0.018502,0,sub_19
-0.0075312000000002,0.0148826000000012,0.1123607999999999,-0.0177195999999994,0.1244504000000007,0.0148136,0,sub_19
-0.0072578000000002,0.0156454000000012,0.1116023999999999,-0.0251329999999994,0.1296178000000007,0.0077048,0,sub_19
-0.0070358000000002,0.0156440000000012,0.1117347999999999,-0.0333653999999994,0.1333030000000007,-0.0009095999999999,0,sub_19
-0.0063274000000002,0.0161754000000012,0.1115239999999998,-0.0428761999999994,0.1357212000000008,-0.0112403999999999,0,sub_19
-0.0053538000000002,0.0158954000000012,0.1112313999999999,-0.0528117999999994,0.1368692000000008,-0.0232817999999999,0,sub_19
-0.0039418000000002,0.0167834000000012,0.1105155999999999,-0.0642465999999994,0.1358954000000008,-0.0361855999999999,0,sub_19
-0.0024256000000002,0.0167396000000012,0.1104741999999998,-0.0778373999999994,0.1313022000000007,-0.0478177999999999,0,sub_19
-0.0025934000000002,0.0167294000000012,0.1099233999999999,-0.0929773999999994,0.1228756000000008,-0.0585949999999999,0,sub_19
-0.0024890000000002,0.0159008000000012,0.1092907999999999,-0.1092185999999994,0.1089050000000008,-0.0672363999999999,0,sub_19
-0.0027378000000002,0.0159372000000012,0.1071537999999999,-0.1273425999999994,0.0921132000000008,-0.0733325999999999,0,sub_19
-0.0028472000000002,0.0161820000000012,0.1048975999999999,-0.1484815999999994,0.0697898000000008,-0.0788017999999999,0,sub_19
-0.0025998000000002,0.0175028000000012,0.1020361999999999,-0.1674857999999994,0.0457622000000007,-0.0861767999999999,0,sub_19
-0.0023366000000002,0.0146008000000012,0.0980015999999999,-0.1807307999999994,0.0198030000000007,-0.0950045999999999,0,sub_19
-0.0022614000000002,0.0099164000000012,0.0926027999999999,-0.1865107999999994,-0.0040629999999992,-0.1010055999999999,0,sub_19
-0.0037652000000002,0.0018038000000012,0.0872455999999999,-0.1831897999999994,-0.0221945999999992,-0.0983955999999999,0,sub_19
-0.0064208000000002,-0.0105677999999987,0.0795017999999999,-0.1754281999999994,-0.0386799999999992,-0.0850741999999999,0,sub_19
-0.0114050000000002,-0.0255987999999987,0.0725189999999999,-0.1705113999999993,-0.0581897999999992,-0.0589501999999999,0,sub_19
-0.0160712000000002,-0.0376437999999987,0.0667923999999999,-0.1715627999999994,-0.0782979999999992,-0.0204919999999999,0,sub_19
-0.0269118000000002,-0.0518841999999987,0.0652287999999999,-0.1784489999999993,-0.1035443999999992,0.0292552,0,sub_19
-0.0375826000000002,-0.0623115999999987,0.0659327999999999,-0.1892353999999994,-0.1351963999999992,0.0858198,0,sub_19
-0.0479796000000002,-0.0687751999999987,0.0721989999999999,-0.1909863999999994,-0.1489891999999991,0.14392,0,sub_19
-0.0496500000000002,-0.0507611999999987,0.0826905999999999,-0.1769953999999994,-0.1393467999999991,0.1886406,0,sub_19
-0.0509170000000002,-0.0278537999999987,0.0930411999999999,-0.1588655999999993,-0.1181959999999991,0.2116,0,sub_19
-0.0477330000000002,-0.0012825999999987,0.1012357999999999,-0.1474177999999993,-0.0892527999999991,0.20972,0,sub_19
-0.0524000000000002,0.0282732000000012,0.1075605999999999,-0.1452299999999993,-0.0559183999999991,0.1834144,0,sub_19
-0.0563474000000002,0.0571480000000012,0.1110127999999999,-0.1450943999999993,-0.0312043999999992,0.1301864,0,sub_19
-0.0685256000000002,0.0606048000000012,0.1091505999999999,-0.1419551999999993,-0.0147621999999992,0.0650258,0,sub_19
-0.0777930000000002,0.0539058000000012,0.1102987999999999,-0.1243161999999993,-0.0002889999999992,0.0001826,0,sub_19
-0.0888784000000002,0.0398256000000012,0.1100877999999999,-0.0795781999999993,0.0155758000000007,-0.0631911999999999,0,sub_19
-0.0930082000000002,0.0141140000000012,0.1071585999999999,-0.0143879999999993,0.0245504000000007,-0.1261997999999999,0,sub_19
-0.0969196000000002,-0.0166779999999987,0.1045581999999999,0.0472664000000006,0.0183624000000007,-0.1772495999999999,0,sub_19
-0.0977264000000002,-0.0450735999999987,0.1049005999999999,0.0910480000000006,-0.0038235999999991,-0.2081073999999999,0,sub_19
-0.0939350000000002,-0.0634843999999986,0.1055249999999999,0.1172102000000006,-0.0305137999999991,-0.2162225999999999,0,sub_19
-0.0827388000000002,-0.0726315999999987,0.1071171999999998,0.1238742000000006,-0.0555107999999991,-0.2046073999999999,0,sub_19
-0.0699730000000001,-0.0723963999999987,0.1099681999999999,0.1168086000000006,-0.0790403999999991,-0.1751435999999999,0,sub_19
-0.0600410000000001,-0.0654279999999987,0.1108179999999999,0.1049942000000005,-0.1042995999999991,-0.1352421999999999,0,sub_19
-0.0550592000000001,-0.0562315999999987,0.1093609999999999,0.0969964000000005,-0.1378693999999992,-0.0982945999999999,0,sub_19
-0.0583052000000002,-0.0493697999999987,0.1046481999999999,0.0924070000000005,-0.1852493999999992,-0.0739105999999999,0,sub_19
-0.0640578000000002,-0.0432359999999987,0.1001967999999999,0.0908046000000006,-0.2440985999999991,-0.0610275999999999,0,sub_19
-0.0643674000000002,-0.0334177999999987,0.0963939999999999,0.0922288000000006,-0.2993159999999991,-0.0532557999999999,0,sub_19
-0.0585894000000002,-0.0205211999999987,0.0932397999999999,0.0931124000000005,-0.3347077999999991,-0.0478631999999999,0,sub_19
-0.0435248000000002,-0.0027767999999987,0.0941267999999999,0.0947514000000005,-0.3483551999999991,-0.0463387999999999,0,sub_19
-0.0211402000000002,0.0181300000000012,0.0980385999999999,0.0954298000000005,-0.3345301999999991,-0.0410105999999999,0,sub_19
-0.0002944000000002,0.0453252000000012,0.1033413999999999,0.0819130000000005,-0.2910699999999991,-0.0285557999999999,0,sub_19
0.0153359999999997,0.0622844000000012,0.1104139999999999,0.0591150000000005,-0.2271101999999992,-0.0196101999999999,0,sub_19
0.0252179999999997,0.0634410000000012,0.1186193999999999,0.0333608000000005,-0.1571711999999992,-0.0115475999999999,0,sub_19
0.0287927999999997,0.0483548000000012,0.1218287999999999,0.0075776000000005,-0.0868331999999992,0.003351,0,sub_19
0.0224915999999997,0.0255980000000012,0.1207591999999999,-0.0124817999999994,-0.0256733999999992,0.0174468,0,sub_19
0.0115725999999997,-0.0028169999999986,0.1161353999999999,-0.0097055999999994,0.0209812000000008,0.0161246,0,sub_19
-1.0000000002494124e-06,-0.0224291999999987,0.1097471999999999,0.0081952000000005,0.0518580000000008,0.0046732,0,sub_19
-0.0068528000000002,-0.0295013999999986,0.1025837999999999,0.0341686000000005,0.0650622000000008,-0.0165267999999999,0,sub_19
-0.0108888000000002,-0.0269631999999987,0.0969739999999999,0.0566686000000005,0.0601884000000007,-0.0426417999999999,0,sub_19
-0.0097578000000002,-0.0183529999999986,0.0938649999999999,0.0658714000000005,0.0436294000000008,-0.0654163999999999,0,sub_19
-0.0022250000000002,-0.0100203999999986,0.0928703999999999,0.0566380000000005,0.0242992000000007,-0.0718653999999999,0,sub_19
0.0065977999999997,-0.0045153999999987,0.0936859999999999,0.0334826000000005,0.0111244000000008,-0.0604733999999999,0,sub_19
0.0113335999999997,-0.0003033999999987,0.0954803999999999,0.0015798000000006,0.0145328000000008,-0.0327131999999999,0,sub_19
0.0113197999999997,0.0033604000000012,0.0971977999999999,-0.0311159999999993,0.0392178000000008,0.0029192,0,sub_19
0.0063485999999997,0.0054280000000012,0.0953655999999999,-0.0567245999999993,0.0738926000000008,0.0383746,0,sub_19
-0.0060562000000002,0.0056906000000012,0.0912619999999999,-0.0729351999999993,0.1030260000000007,0.0662114,0,sub_19
-0.0246902000000002,0.0021810000000012,0.0875729999999999,-0.0793057999999993,0.1223860000000008,0.0787472,0,sub_19
-0.0440550000000002,0.0003462000000012,0.0846119999999999,-0.0736939999999994,0.1302752000000007,0.072367,0,sub_19
-0.0607408000000002,-0.0001641999999987,0.0811037999999999,-0.0592925999999994,0.1332898000000008,0.0519538,0,sub_19
-0.0724592000000002,-0.0005669999999987,0.0806419999999999,-0.0429199999999993,0.1414358000000008,0.0253522,0,sub_19
-0.0723386000000002,0.0007198000000012,0.0802691999999999,-0.0327029999999993,0.1568702000000008,-0.0006589999999999,0,sub_19
-0.0659200000000002,0.0043676000000012,0.0793479999999999,-0.0305977999999993,0.1765736000000008,-0.0216049999999999,0,sub_19
-0.0569938000000002,0.0063732000000012,0.0773653999999999,-0.0387651999999993,0.1952244000000008,-0.0368529999999999,0,sub_19
-0.0488716000000002,0.0025628000000012,0.0766261999999999,-0.0538027999999993,0.2057980000000008,-0.0508567999999999,0,sub_19
-0.0431192000000002,-0.0028459999999987,0.0771387999999999,-0.0701569999999994,0.2021262000000008,-0.0710471999999999,0,sub_19
-0.0437242000000002,-0.0105835999999987,0.0801077999999999,-0.0794983999999994,0.1864980000000008,-0.0973707999999999,0,sub_19
-0.0453542000000002,-0.0237915999999987,0.0856649999999999,-0.0786497999999994,0.1548728000000007,-0.1280891999999999,0,sub_19
-0.0468612000000002,-0.0381643999999987,0.0919947999999999,-0.0691401999999993,0.1061634000000008,-0.1563749999999999,0,sub_19
-0.0481094000000002,-0.0481151999999987,0.0980189999999999,-0.0563229999999993,0.0450400000000008,-0.1732985999999999,0,sub_19
-0.0513754000000002,-0.0542341999999987,0.1048983999999998,-0.0440207999999993,-0.0182823999999992,-0.1727041999999999,0,sub_19
-0.0530328000000002,-0.0580323999999987,0.1111789999999998,-0.0373121999999993,-0.0739871999999992,-0.1542123999999999,0,sub_19
-0.0523560000000002,-0.0542833999999987,0.1144001999999999,-0.0344461999999993,-0.1118553999999991,-0.1173969999999999,0,sub_19
-0.0473116000000002,-0.0345035999999987,0.1136995999999999,-0.0388079999999993,-0.1316371999999991,-0.0684775999999999,0,sub_19
-0.0427384000000002,-0.0109027999999987,0.1071107999999999,-0.0458477999999993,-0.1383797999999992,-0.0279255999999999,0,sub_19
-0.0365474000000002,0.0106938000000012,0.0986461999999999,-0.0504541999999993,-0.1405977999999991,-0.0021039999999999,0,sub_19
-0.0323120000000002,0.0297464000000012,0.0913425999999999,-0.0522253999999993,-0.1474393999999991,0.0053698,0,sub_19
-0.0295466000000002,0.0427416000000012,0.0854545999999999,-0.0496667999999993,-0.1584843999999992,-0.0052803999999999,0,sub_19
-0.0274072000000002,0.0324232000000012,0.0863253999999999,-0.0376373999999993,-0.1646083999999991,-0.0293301999999999,0,sub_19
-0.0242470000000002,0.0172196000000012,0.0928659999999999,-0.0162003999999993,-0.1599259999999991,-0.0467053999999999,0,sub_19
-0.0193776000000002,0.0007336000000012,0.0986195999999999,0.0110110000000006,-0.1414585999999991,-0.0531619999999999,0,sub_19
-0.0146484000000002,-0.0120231999999987,0.1031217999999999,0.0418556000000006,-0.1115399999999992,-0.0493527999999999,0,sub_19
-0.0121770000000002,-0.0214265999999987,0.1057817999999999,0.0662798000000005,-0.0780087999999991,-0.0376883999999999,0,sub_19
-0.0147212000000002,-0.0236109999999987,0.1042509999999999,0.0870412000000005,-0.0502257999999991,-0.0239057999999999,0,sub_19
-0.0190126000000002,-0.0240187999999987,0.1004601999999999,0.1024250000000005,-0.0354067999999992,-0.0135623999999999,0,sub_19
-0.0234102000000002,-0.0221687999999987,0.0970441999999999,0.1115684000000005,-0.0369523999999992,-0.0079417999999999,0,sub_19
-0.0251460000000002,-0.0207981999999987,0.0955039999999999,0.1189568000000005,-0.0502055999999992,-0.0033867999999999,0,sub_19
-0.0244010000000002,-0.0171575999999987,0.0960083999999999,0.1263154000000005,-0.0709121999999991,0.0003232,0,sub_19
