userAcceleration.x,userAcceleration.y,userAcceleration.z,rotationRate.x,rotationRate.y,rotationRate.z,label,subject
-0.0641016000000002,-0.0146517999999986,0.1007965999999999,0.0039920000000005,-0.0177353999999992,-0.0217565999999999,0,sub_19
-0.0638062000000002,-0.0147851999999986,0.1019433999999999,0.0039622000000005,-0.0181861999999992,-0.0155603999999999,0,sub_19
-0.0636618000000002,-0.0158067999999986,0.1032997999999999,0.0045736000000005,-0.0173651999999992,-0.0082931999999999,0,sub_19
-0.0640620000000002,-0.0171295999999987,0.1045147999999998,0.0060394000000005,-0.0156975999999992,-0.0003803999999999,0,sub_19
-0.0644998000000002,-0.0188573999999987,0.1053507999999999,0.0092130000000005,-0.0142471999999992,0.0071176,0,sub_19
-0.0646240000000002,-0.0197249999999987,0.1053463999999999,0.0140918000000005,-0.0145019999999992,0.0133476,0,sub_19
-0.0646682000000002,-0.0203231999999987,0.1044857999999999,0.0206766000000005,-0.0164613999999992,0.0180962,0,sub_19
-0.0648534000000002,-0.0201743999999987,0.1032259999999999,0.0274718000000005,-0.0203337999999992,0.0215668,0,sub_19
-0.0650422000000002,-0.0189387999999987,0.1015593999999999,0.0327698000000005,-0.0265385999999992,0.0235346,0,sub_19
-0.0649712000000002,-0.0159347999999986,0.0985909999999999,0.0378650000000005,-0.0320967999999992,0.0237908,0,sub_19
-0.0647490000000002,-0.0131731999999986,0.0958251999999999,0.0421218000000005,-0.0361529999999992,0.0221166,0,sub_19
-0.0644424000000002,-0.0085409999999986,0.0933393999999999,0.0457568000000005,-0.0387051999999992,0.0178724,0,sub_19
-0.0637664000000002,-0.0039969999999986,0.0907797999999999,0.0457760000000005,-0.0408101999999992,0.011466,0,sub_19
-0.0627196000000002,-0.0011019999999986,0.0890633999999999,0.0445302000000005,-0.0403505999999991,0.0041928,0,sub_19
-0.0623650000000002,-0.0007585999999986,0.0890217999999999,0.0415802000000005,-0.0388213999999992,-0.0026663999999999,0,sub_19
-0.0621342000000002,-0.0016013999999987,0.0900763999999999,0.0364910000000005,-0.0372899999999991,-0.0082585999999999,0,sub_19
-0.0619454000000002,-0.0052139999999986,0.0921449999999999,0.0307482000000005,-0.0364047999999991,-0.0115045999999999,0,sub_19
-0.0617562000000002,-0.0100671999999986,0.0944459999999999,0.0275768000000005,-0.0347427999999991,-0.0123703999999999,0,sub_19
-0.0615722000000002,-0.0140275999999986,0.0970541999999999,0.0269486000000005,-0.0345903999999991,-0.0108661999999999,0,sub_19
-0.0619782000000002,-0.0172187999999986,0.0986895999999999,0.0282274000000005,-0.0363665999999991,-0.0082779999999999,0,sub_19
-0.0627630000000002,-0.0195337999999986,0.0993945999999999,0.0320628000000005,-0.0385791999999991,-0.0052441999999999,0,sub_19
-0.0637870000000002,-0.0200665999999987,0.0999851999999999,0.0367460000000005,-0.0410123999999991,-0.0011357999999999,0,sub_19
-0.0635094000000002,-0.0192567999999987,0.0999711999999999,0.0403408000000005,-0.0442369999999992,0.0029528,0,sub_19
-0.0640418000000002,-0.0169173999999987,0.0980369999999999,0.0418076000000005,-0.0472369999999991,0.0059578,0,sub_19
-0.0634600000000002,-0.0142935999999987,0.0963639999999999,0.0402900000000005,-0.0502237999999991,0.0083012,0,sub_19
-0.0622054000000002,-0.0115999999999987,0.0946365999999999,0.0374070000000005,-0.0548237999999992,0.0090104,0,sub_19
-0.0605388000000002,-0.0100719999999987,0.0926865999999999,0.0338924000000005,-0.0596257999999992,0.007579,0,sub_19
-0.0605006000000002,-0.0087491999999987,0.0913029999999999,0.0299694000000005,-0.0633491999999991,0.0031524,0,sub_19
-0.0597176000000002,-0.0082727999999986,0.0908093999999999,0.0262722000000005,-0.0657889999999992,-0.0027695999999999,0,sub_19
-0.0581404000000002,-0.0082243999999986,0.0905911999999999,0.0225876000000005,-0.0665201999999992,-0.0097621999999999,0,sub_19
-0.0574496000000002,-0.0079595999999986,0.0904111999999999,0.0175068000000005,-0.0637077999999992,-0.0159969999999999,0,sub_19
-0.0570250000000002,-0.0069573999999986,0.0902117999999999,0.0113736000000005,-0.0568471999999991,-0.0213897999999999,0,sub_19
-0.0569698000000002,-0.0053619999999986,0.0899257999999999,0.0060996000000005,-0.0457403999999992,-0.0237909999999999,0,sub_19
-0.0559822000000001,-0.0044265999999986,0.0904385999999999,0.0009250000000005,-0.0295951999999992,-0.0241617999999999,0,sub_19
-0.0559100000000001,-0.0041939999999986,0.0902817999999999,-0.0029685999999994,-0.0113315999999992,-0.0226033999999999,0,sub_19
-0.0543792000000002,-0.0052249999999986,0.0913183999999999,-0.0081565999999994,0.0058628000000007,-0.0189163999999999,0,sub_19
-0.0525164000000002,-0.0068093999999986,0.0930549999999999,-0.0144239999999994,0.0205034000000008,-0.0150199999999999,0,sub_19
-0.0503748000000002,-0.0086077999999986,0.0942081999999999,-0.0219849999999994,0.0308924000000008,-0.0124089999999999,0,sub_19
-0.0490304000000002,-0.0098277999999986,0.0945499999999999,-0.0292309999999993,0.0343206000000008,-0.0109685999999999,0,sub_19
-0.0483292000000002,-0.0097519999999987,0.0965139999999999,-0.0343575999999994,0.0326358000000008,-0.0114295999999999,0,sub_19
-0.0493606000000002,-0.0088793999999987,0.0966187999999999,-0.0343643999999994,0.0294468000000008,-0.0131345999999999,0,sub_19
-0.0512342000000001,-0.0078915999999986,0.0959945999999999,-0.0307435999999994,0.0256122000000008,-0.0147649999999999,0,sub_19
-0.0530458000000001,-0.0077023999999986,0.0964453999999999,-0.0256377999999994,0.0219770000000007,-0.0142487999999999,0,sub_19
-0.0551288000000002,-0.0077561999999986,0.0979047999999999,-0.0211751999999994,0.0196148000000007,-0.0118159999999999,0,sub_19
-0.0562122000000002,-0.0090357999999986,0.0987255999999999,-0.0190671999999994,0.0174660000000007,-0.0074771999999999,0,sub_19
-0.0568270000000002,-0.0101863999999986,0.1008151999999999,-0.0190957999999994,0.0153222000000007,-0.0025123999999999,0,sub_19
-0.0569798000000002,-0.0116115999999986,0.1029037999999999,-0.0199807999999994,0.0138116000000007,0.0030382,0,sub_19
-0.0568980000000002,-0.0123665999999986,0.1041745999999999,-0.0204325999999994,0.0123056000000008,0.0070962,0,sub_19
-0.0563236000000002,-0.0135037999999986,0.1053569999999999,-0.0193847999999994,0.0101628000000008,0.0092428,0,sub_19
-0.0564622000000002,-0.0133819999999986,0.1054507999999999,-0.0169099999999994,0.0098120000000008,0.0101484,0,sub_19
-0.0568908000000002,-0.0129561999999986,0.1048345999999999,-0.0133557999999993,0.0109538000000008,0.0097778,0,sub_19
-0.0571758000000002,-0.0125427999999987,0.1033689999999999,-0.0110801999999993,0.0116776000000008,0.008544,0,sub_19
-0.0579736000000002,-0.0118531999999987,0.1028491999999999,-0.0100855999999994,0.0121926000000008,0.0073016,0,sub_19
-0.0590204000000002,-0.0108211999999987,0.1010481999999999,-0.0112219999999994,0.0139910000000008,0.0066836,0,sub_19
-0.0595650000000002,-0.0105087999999987,0.1005787999999999,-0.0139939999999994,0.0133658000000007,0.0055968,0,sub_19
-0.0600022000000002,-0.0104925999999987,0.1006293999999999,-0.0165631999999994,0.0108206000000007,0.0049412,0,sub_19
-0.0607504000000002,-0.0098651999999987,0.1012433999999999,-0.0165583999999994,0.0104004000000007,0.0034464,0,sub_19
-0.0608284000000002,-0.0090227999999986,0.0998087999999999,-0.0162419999999994,0.0137646000000007,0.0017536,0,sub_19
-0.0603948000000002,-0.0081849999999986,0.0998195999999999,-0.0142145999999994,0.0175506000000007,-0.0003549999999999,0,sub_19
-0.0595522000000002,-0.0082113999999986,0.0990751999999999,-0.0128293999999994,0.0209128000000007,-0.0024675999999999,0,sub_19
-0.0592198000000002,-0.0091239999999986,0.0997799999999999,-0.0137949999999994,0.0242798000000008,-0.0037419999999999,0,sub_19
-0.0583160000000002,-0.0111173999999986,0.1014639999999999,-0.0162743999999994,0.0252998000000008,-0.0028875999999999,0,sub_19
-0.0580846000000002,-0.0142797999999987,0.1039165999999999,-0.0184299999999994,0.0223170000000008,-0.0009759999999999,0,sub_19
-0.0585850000000002,-0.0180715999999986,0.1056291999999999,-0.0203857999999994,0.0176236000000008,0.002221,0,sub_19
-0.0600490000000002,-0.0202375999999986,0.1074201999999999,-0.0204201999999994,0.0148342000000008,0.0071382,0,sub_19
-0.0604798000000002,-0.0212033999999986,0.1076823999999999,-0.0177973999999994,0.0122492000000008,0.011258,0,sub_19
-0.0623744000000002,-0.0207067999999987,0.1060699999999999,-0.0130359999999994,0.0083878000000007,0.0130444,0,sub_19
-0.0636562000000002,-0.0195971999999986,0.1045603999999999,-0.0069897999999994,0.0030406000000007,0.012278,0,sub_19
-0.0640366000000002,-0.0173057999999987,0.1033019999999999,-0.0024331999999994,-0.0029343999999992,0.0100064,0,sub_19
-0.0636904000000002,-0.0148387999999987,0.1019869999999999,0.0023454000000005,-0.0093267999999992,0.0053868,0,sub_19
-0.0630392000000002,-0.0117343999999987,0.1011687999999999,0.0059670000000005,-0.0152861999999992,0.0007196,0,sub_19
-0.0611546000000002,-0.0100145999999987,0.1020617999999999,0.0076758000000005,-0.0193221999999992,-0.0037497999999999,0,sub_19
-0.0595058000000002,-0.0089395999999987,0.1033645999999999,0.0070464000000005,-0.0201593999999992,-0.0069577999999999,0,sub_19
-0.0584770000000002,-0.0084721999999987,0.1042519999999999,0.0061868000000005,-0.0172795999999992,-0.0096897999999999,0,sub_19
-0.0579542000000002,-0.0088945999999987,0.1052151999999999,0.0040526000000005,-0.0120559999999992,-0.0113655999999999,0,sub_19
-0.0575324000000002,-0.0095001999999987,0.1052559999999999,0.0008554000000005,-0.0061887999999992,-0.0132631999999999,0,sub_19
-0.0573022000000002,-0.0100165999999986,0.1051701999999999,-0.0038427999999994,-0.0015963999999992,-0.0147423999999999,0,sub_19
-0.0577578000000002,-0.0110359999999986,0.1056913999999999,-0.0076943999999994,0.0015018000000007,-0.0162137999999999,0,sub_19
-0.0584682000000002,-0.0125357999999986,0.1061889999999999,-0.0098155999999994,0.0032180000000007,-0.0172991999999999,0,sub_19
-0.0587716000000002,-0.0128823999999986,0.1068753999999999,-0.0108745999999994,0.0053504000000007,-0.0168819999999999,0,sub_19
-0.0591304000000002,-0.0140077999999986,0.1081243999999999,-0.0108667999999994,0.0079036000000007,-0.0160307999999999,0,sub_19
-0.0597330000000002,-0.0146401999999986,0.1085557999999999,-0.0095521999999994,0.0121838000000007,-0.0142843999999999,0,sub_19
-0.0592242000000001,-0.0141203999999986,0.1082935999999999,-0.0080269999999994,0.0164606000000007,-0.0118955999999999,0,sub_19
-0.0591128000000002,-0.0134993999999986,0.1082137999999999,-0.0067199999999994,0.0198852000000007,-0.0092933999999999,0,sub_19
-0.0587976000000002,-0.0142523999999986,0.1074619999999999,-0.0060559999999994,0.0213998000000007,-0.0079751999999999,0,sub_19
-0.0593514000000002,-0.0144443999999986,0.1066661999999999,-0.0062531999999994,0.0214252000000008,-0.0064473999999999,0,sub_19
-0.0594078000000002,-0.0149803999999987,0.1065815999999999,-0.0060531999999994,0.0201394000000008,-0.0047351999999999,0,sub_19
-0.0602588000000002,-0.0154333999999987,0.1070511999999999,-0.0056389999999994,0.0184292000000008,-0.0036617999999999,0,sub_19
-0.0601114000000002,-0.0153285999999987,0.1070205999999999,-0.0045817999999994,0.0171436000000008,-0.0027981999999999,0,sub_19
-0.0601592000000002,-0.0144667999999987,0.1071071999999999,-0.0030507999999994,0.0152028000000007,-0.0019175999999999,0,sub_19
-0.0597772000000002,-0.0143377999999987,0.1071141999999999,-0.0006671999999994,0.0128336000000008,-0.0012441999999999,0,sub_19
-0.0596258000000002,-0.0140569999999987,0.1068145999999999,0.0012924000000005,0.0106808000000007,-0.0010011999999999,0,sub_19
-0.0587648000000002,-0.0138081999999987,0.1070185999999999,0.0028206000000005,0.0093742000000008,0.0011604,0,sub_19
-0.0585754000000002,-0.0138041999999987,0.1074349999999999,0.0032838000000005,0.0080730000000007,0.0028874,0,sub_19
-0.0584474000000002,-0.0140425999999987,0.1082105999999999,0.0037010000000005,0.0082750000000007,0.0052402,0,sub_19
-0.0583116000000002,-0.0137893999999987,0.1090079999999999,0.0039096000000005,0.0097554000000007,0.0078035999999999,0,sub_19
-0.0585404000000002,-0.0143863999999987,0.1094653999999999,0.0043326000000005,0.0120846000000007,0.0110082,0,sub_19
-0.0593564000000002,-0.0148805999999986,0.1091589999999999,0.0054678000000005,0.0137292000000007,0.0129364,0,sub_19
-0.0597958000000002,-0.0150425999999986,0.1089983999999999,0.0066040000000005,0.0155868000000007,0.0148644,0,sub_19
-0.0605876000000002,-0.0154273999999986,0.1088191999999999,0.0075238000000005,0.0161696000000007,0.0161516,0,sub_19
-0.0615786000000002,-0.0151683999999986,0.1086431999999999,0.0088666000000005,0.0158986000000007,0.0174428,0,sub_19
-0.0617616000000002,-0.0141125999999986,0.1085617999999999,0.0097788000000005,0.0139282000000007,0.0178786,0,sub_19
-0.0620022000000002,-0.0135353999999986,0.1084749999999999,0.0106246000000005,0.0122208000000007,0.0178868,0,sub_19
-0.0623618000000002,-0.0131101999999986,0.1081431999999999,0.0114694000000005,0.0105126000000007,0.0181084,0,sub_19
-0.0623142000000002,-0.0126321999999986,0.1080081999999999,0.0121076000000005,0.0098720000000008,0.0179,0,sub_19
-0.0614370000000002,-0.0128361999999986,0.1078617999999999,0.0123702000000005,0.0096476000000007,0.0166196,0,sub_19
-0.0614262000000002,-0.0131365999999986,0.1075021999999999,0.0130654000000005,0.0104878000000007,0.0151274,0,sub_19
-0.0610794000000002,-0.0129783999999986,0.1072203999999999,0.0133348000000005,0.0117548000000007,0.0138452,0,sub_19
-0.0612884000000002,-0.0132395999999986,0.1080383999999999,0.0131716000000005,0.0119572000000007,0.012775,0,sub_19
-0.0614368000000002,-0.0131531999999986,0.1084505999999999,0.0123646000000005,0.0117340000000007,0.0121282,0,sub_19
-0.0616262000000002,-0.0128943999999986,0.1084729999999999,0.0106604000000005,0.0119548000000007,0.0116888,0,sub_19
-0.0616742000000002,-0.0125875999999986,0.1087409999999999,0.0089582000000005,0.0128138000000008,0.0114622,0,sub_19
-0.0617662000000002,-0.0123103999999986,0.1086931999999999,0.0072550000000005,0.0132476000000007,0.0110224,0,sub_19
-0.0610988000000002,-0.0114445999999986,0.1080399999999999,0.0062392000000005,0.0136622000000007,0.0097628,0,sub_19
-0.0608846000000002,-0.0114039999999987,0.1074127999999999,0.0058634000000005,0.0138624000000007,0.0082942,0,sub_19
-0.0607126000000002,-0.0113751999999987,0.1073943999999999,0.0065566000000005,0.0149094000000007,0.0072594,0,sub_19
-0.0603174000000002,-0.0109873999999987,0.1071081999999998,0.0063990000000005,0.0159620000000007,0.0055776,0,sub_19
-0.0604978000000002,-0.0112021999999987,0.1074089999999998,0.0064558000000005,0.0174390000000007,0.0041104,0,sub_19
-0.0606768000000002,-0.0125951999999987,0.1074873999999998,0.0062530000000005,0.0187224000000007,0.003039,0,sub_19
-0.0608052000000002,-0.0130183999999987,0.1081229999999998,0.0064768000000005,0.0200042000000007,0.0019706,0,sub_19
-0.0609296000000002,-0.0136057999999986,0.1087713999999998,0.0060558000000005,0.0202230000000007,0.000899,0,sub_19
-0.0611438000000002,-0.0144427999999986,0.1101073999999998,0.0056716000000005,0.0203890000000008,0.0002872,0,sub_19
-0.0609944000000002,-0.0145511999999987,0.1103371999999999,0.0046472000000005,0.0205574000000007,-0.0003287999999999,0,sub_19
-0.0609174000000001,-0.0137439999999986,0.1106041999999999,0.0031982000000005,0.0213656000000008,-0.0007349999999999,0,sub_19
-0.0612486000000001,-0.0128265999999986,0.1107343999999999,0.0011092000000005,0.0219640000000008,-0.0013589999999999,0,sub_19
-0.0618362000000001,-0.0124031999999987,0.1107485999999999,-0.0001275999999994,0.0223462000000007,-0.0019767999999999,0,sub_19
-0.0620172000000001,-0.0120327999999987,0.1099381999999999,-0.0014049999999994,0.0221412000000007,-0.0028399999999999,0,sub_19
-0.0618950000000002,-0.0124281999999987,0.1098533999999999,-0.0028985999999993,0.0208732000000007,-0.0041307999999999,0,sub_19
-0.0624050000000002,-0.0126607999999987,0.1102109999999999,-0.0041865999999993,0.0176878000000007,-0.0056311999999999,0,sub_19
-0.0623320000000002,-0.0129837999999987,0.1103829999999999,-0.0063157999999994,0.0131680000000007,-0.0071283999999999,0,sub_19
-0.0624176000000002,-0.0129071999999987,0.1102687999999999,-0.0103709999999994,0.0071644000000007,-0.0088507999999999,0,sub_19
-0.0624248000000002,-0.0125543999999987,0.1107717999999999,-0.0139985999999994,0.0009478000000007,-0.0109971999999999,0,sub_19
-0.0629424000000002,-0.0118881999999987,0.1107867999999999,-0.0169821999999994,-0.0044185999999992,-0.0131401999999999,0,sub_19
-0.0625432000000002,-0.0113789999999987,0.1104131999999999,-0.0195237999999994,-0.0070143999999992,-0.0159245999999999,0,sub_19
-0.0626346000000002,-0.0109169999999987,0.1097639999999999,-0.0205773999999994,-0.0074231999999992,-0.0193497999999999,0,sub_19
-0.0628668000000002,-0.0113657999999986,0.1094047999999999,-0.0188425999999994,-0.0050701999999992,-0.0231863999999999,0,sub_19
-0.0635892000000002,-0.0116819999999986,0.1087529999999999,-0.0160399999999994,-0.0025077999999992,-0.0270157999999999,0,sub_19
-0.0646812000000002,-0.0120193999999986,0.1084275999999999,-0.0124013999999994,-0.0008699999999991,-0.0304421999999999,0,sub_19
-0.0659258000000002,-0.0128337999999986,0.1087417999999999,-0.0083543999999994,-0.0026449999999991,-0.0332205999999999,0,sub_19
-0.0666768000000002,-0.0139695999999986,0.1092067999999999,-0.0041121999999994,-0.0069833999999991,-0.0344987999999999,0,sub_19
-0.0673710000000002,-0.0144485999999986,0.1099881999999999,-9.399999999943933e-05,-0.0123913999999991,-0.0344951999999999,0,sub_19
-0.0674650000000002,-0.0158419999999986,0.1107553999999999,0.0054112000000005,-0.0180227999999991,-0.0331989999999999,0,sub_19
-0.0668224000000002,-0.0177161999999986,0.1120227999999999,0.0119912000000005,-0.0235937999999992,-0.0310093999999999,0,sub_19
-0.0665390000000002,-0.0191651999999987,0.1122281999999999,0.0192104000000005,-0.0287433999999991,-0.0281749999999999,0,sub_19
-0.0662182000000002,-0.0208091999999987,0.1123201999999999,0.0260038000000005,-0.0334661999999992,-0.0251303999999999,0,sub_19
-0.0662504000000002,-0.0216623999999987,0.1118801999999998,0.0330096000000005,-0.0379785999999991,-0.0216573999999999,0,sub_19
-0.0664300000000002,-0.0211075999999987,0.1111941999999998,0.0393506000000005,-0.0408589999999991,-0.0178099999999999,0,sub_19
-0.0662442000000002,-0.0192743999999987,0.1099363999999998,0.0461268000000005,-0.0418233999999991,-0.0139619999999999,0,sub_19
-0.0657604000000002,-0.0177897999999986,0.1085929999999999,0.0544092000000005,-0.0400233999999991,-0.0101069999999999,0,sub_19
-0.0644548000000002,-0.0167313999999986,0.1073763999999999,0.0644092000000005,-0.0356735999999991,-0.0060295999999999,0,sub_19
-0.0631990000000002,-0.0166987999999986,0.1066105999999999,0.0733432000000005,-0.0313189999999991,-0.0021733999999999,0,sub_19
-0.0625594000000002,-0.0166655999999986,0.1058603999999999,0.0780374000000005,-0.0281523999999991,0.00106,0,sub_19
-0.0618256000000002,-0.0177493999999986,0.1065943999999999,0.0788862000000005,-0.0266741999999991,0.0036276,0,sub_19
-0.0614758000000002,-0.0170563999999987,0.1056451999999999,0.0762836000000005,-0.0267585999999991,0.0050684,0,sub_19
-0.0618682000000002,-0.0157685999999986,0.1047157999999999,0.0676932000000005,-0.0317145999999991,0.0045506,0,sub_19
-0.0612686000000002,-0.0130473999999986,0.1038149999999999,0.0567576000000005,-0.0400559999999991,0.0001754,0,sub_19
-0.0597200000000002,-0.0106249999999986,0.1024489999999999,0.0496530000000005,-0.0537241999999991,-0.0073709999999999,0,sub_19
-0.0602638000000002,-0.0079765999999986,0.1003815999999999,0.0444650000000005,-0.0727075999999991,-0.0193837999999999,0,sub_19
-0.0592342000000002,-0.0067113999999986,0.0996825999999999,0.0435886000000005,-0.0909741999999991,-0.0326125999999999,0,sub_19
-0.0586958000000002,-0.0060937999999986,0.0991303999999999,0.0482692000000005,-0.1064931999999991,-0.0451649999999998,0,sub_19
-0.0590488000000002,-0.0069847999999986,0.0982369999999999,0.0533710000000005,-0.1207455999999991,-0.0551523999999999,0,sub_19
-0.0627526000000002,-0.0086945999999986,0.1013919999999999,0.0539824000000005,-0.1289155999999992,-0.0607073999999999,0,sub_19
-0.0639016000000002,-0.0111473999999986,0.1038223999999999,0.0565496000000005,-0.1228431999999991,-0.0598575999999999,0,sub_19
-0.0662922000000002,-0.0137625999999986,0.1070523999999999,0.0612706000000005,-0.1086967999999991,-0.0553711999999999,0,sub_19
-0.0664234000000002,-0.0161571999999986,0.1093047999999999,0.0681178000000005,-0.0952011999999991,-0.0498009999999999,0,sub_19
-0.0665672000000002,-0.0182951999999986,0.1124189999999999,0.0777196000000005,-0.0853397999999992,-0.0435657999999999,0,sub_19
-0.0634562000000002,-0.0197491999999987,0.1125753999999999,0.0892360000000005,-0.0811409999999991,-0.0379359999999999,0,sub_19
-0.0600168000000002,-0.0200307999999987,0.1126753999999999,0.0966570000000005,-0.0877871999999991,-0.0340299999999999,0,sub_19
-0.0570970000000002,-0.0193139999999987,0.1137021999999999,0.0974280000000005,-0.1050517999999991,-0.0329341999999999,0,sub_19
-0.0564940000000002,-0.0174921999999987,0.1150303999999999,0.0954498000000005,-0.1206591999999991,-0.0313943999999999,0,sub_19
-0.0558140000000002,-0.0149837999999987,0.1156633999999999,0.0915934000000005,-0.1277343999999991,-0.0307335999999999,0,sub_19
-0.0549664000000002,-0.0139993999999987,0.1163387999999999,0.0862684000000005,-0.1296895999999991,-0.0305167999999999,0,sub_19
-0.0553394000000002,-0.0133489999999987,0.1167391999999999,0.0800956000000005,-0.1297265999999992,-0.0296673999999999,0,sub_19
-0.0556154000000002,-0.0140197999999987,0.1165449999999999,0.0735000000000005,-0.1265757999999991,-0.0264747999999999,0,sub_19
-0.0557288000000002,-0.0148915999999986,0.1159837999999999,0.0660280000000005,-0.1231579999999991,-0.0222585999999999,0,sub_19
-0.0548976000000002,-0.0158981999999986,0.1148609999999999,0.0595970000000005,-0.1221009999999991,-0.0146135999999999,0,sub_19
-0.0545118000000002,-0.0135947999999986,0.1133219999999999,0.0546558000000005,-0.1195671999999991,-0.0046099999999999,0,sub_19
-0.0533942000000002,-0.0113879999999986,0.1109477999999999,0.0531104000000005,-0.1140535999999991,0.0074228,0,sub_19
-0.0520498000000002,-0.0082247999999986,0.1077813999999999,0.0511448000000005,-0.1070469999999991,0.0194506,0,sub_19
-0.0492336000000002,-0.0058897999999986,0.1047205999999999,0.0496196000000005,-0.0987567999999991,0.0297708,0,sub_19
-0.0472828000000002,-0.0027383999999987,0.1012485999999999,0.0472572000000005,-0.0906613999999992,0.0362398,0,sub_19
-0.0461980000000002,-0.0007783999999987,0.0978521999999999,0.0470476000000005,-0.0838295999999992,0.0371706,0,sub_19
-0.0449734000000002,0.0019406000000012,0.0956865999999999,0.0488102000000005,-0.0765713999999992,0.032046,0,sub_19
-0.0437558000000002,0.0050320000000012,0.0942643999999999,0.0523058000000005,-0.0688715999999991,0.0215918,0,sub_19
-0.0433984000000002,0.0087772000000012,0.0940051999999999,0.0541154000000005,-0.0592373999999991,0.008346,0,sub_19
-0.0426032000000002,0.0101952000000012,0.0948991999999999,0.0552844000000005,-0.0474641999999991,-0.0053255999999999,0,sub_19
-0.0415818000000002,0.0094422000000012,0.0964285999999999,0.0519658000000005,-0.0354689999999991,-0.0173195999999999,0,sub_19
-0.0412198000000002,0.0074538000000012,0.0986633999999999,0.0415820000000005,-0.0258045999999991,-0.0263687999999999,0,sub_19
-0.0411028000000002,0.0040942000000012,0.1013113999999999,0.0275496000000005,-0.0172073999999991,-0.0318101999999999,0,sub_19
-0.0420164000000002,-0.0002563999999987,0.1047161999999999,0.0126446000000005,-0.0103217999999991,-0.0346917999999999,0,sub_19
-0.0434058000000002,-0.0037759999999986,0.1077729999999999,-0.0016167999999994,-0.0042993999999991,-0.0365081999999999,0,sub_19
-0.0459024000000002,-0.0080049999999986,0.1109139999999999,-0.0105371999999994,0.0036200000000008,-0.0378625999999999,0,sub_19
-0.0495748000000002,-0.0111281999999986,0.1127001999999999,-0.0115483999999994,0.0161930000000007,-0.0376721999999999,0,sub_19
-0.0525332000000002,-0.0140581999999986,0.1139003999999999,-0.0061593999999994,0.0304404000000008,-0.0355163999999999,0,sub_19
-0.0550390000000002,-0.0166243999999986,0.1141759999999999,0.0019862000000005,0.0427530000000007,-0.0314159999999999,0,sub_19
-0.0564442000000002,-0.0175623999999986,0.1132439999999999,0.0079644000000005,0.0501624000000007,-0.0247607999999999,0,sub_19
-0.0563440000000002,-0.0157677999999986,0.1123825999999999,0.0096418000000005,0.0520398000000007,-0.0162055999999999,0,sub_19
-0.0552224000000002,-0.0138845999999986,0.1121725999999999,0.0070266000000005,0.0481806000000007,-0.0078867999999999,0,sub_19
-0.0538842000000002,-0.0121897999999986,0.1117707999999999,0.0005660000000005,0.0422084000000007,-0.0006603999999999,0,sub_19
-0.0525464000000002,-0.0097353999999986,0.1105171999999999,-0.0090817999999994,0.0368960000000008,0.0041928,0,sub_19
