userAcceleration.x,userAcceleration.y,userAcceleration.z,rotationRate.x,rotationRate.y,rotationRate.z,label,subject
0.0168069999999996,-0.0251687999999987,0.01355,-0.0423351999999994,0.4619980000000009,0.1651263999999999,0,sub_15
0.0693197999999996,-0.0134423999999987,-0.005452,-0.1434649999999994,0.3647904000000008,0.1598443999999999,0,sub_15
0.1122893999999996,0.0032826000000012,-0.0185162,-0.2306391999999994,0.2182120000000008,0.1812149999999999,0,sub_15
0.1384973999999996,0.0152344000000012,-0.0298179999999999,-0.2781931999999995,0.0699498000000008,0.2163241999999999,0,sub_15
0.1477885999999995,0.0223554000000012,-0.0404977999999999,-0.2837689999999994,-0.0539155999999991,0.2412267999999999,0,sub_15
0.1506341999999996,0.0220706000000012,-0.0504438,-0.2519399999999995,-0.1394673999999991,0.2428405999999999,0,sub_15
0.1361937999999996,0.0107532000000012,-0.0570815999999999,-0.2071005999999994,-0.193261199999999,0.2299767999999999,0,sub_15
0.1181925999999996,0.0023656000000012,-0.0496758,-0.1568803999999994,-0.2103449999999991,0.1961669999999999,0,sub_15
0.0989407999999995,-0.0063393999999987,-0.0356253999999999,-0.1086299999999994,-0.2090261999999991,0.1441599999999999,0,sub_15
0.0865741999999996,-0.0082209999999987,-0.0176184,-0.0711781999999994,-0.184465399999999,0.0967479999999999,0,sub_15
0.0721769999999996,-0.0027455999999987,0.0030002,-0.0515119999999994,-0.1586369999999991,0.0673699999999999,0,sub_15
0.0629609999999996,0.0044918000000012,0.0292927999999999,-0.0266961999999994,-0.1266469999999991,0.0378063999999999,0,sub_15
0.0580945999999996,0.0043252000000012,0.0400846,-0.0023367999999994,-0.1006219999999991,0.0086739999999999,0,sub_15
0.0601177999999996,0.0039296000000012,0.0401725999999999,0.0153774000000005,-0.0779963999999991,-0.0170822,0,sub_15
0.0618913999999996,0.0050472000000012,0.0374512,0.0170014000000005,-0.0657901999999991,-0.0339646,0,sub_15
0.0653385999999996,0.0093998000000012,0.0371509999999999,0.0088266000000005,-0.0450471999999991,-0.0460124,0,sub_15
0.0650895999999996,0.0152444000000012,0.0320001999999999,-0.0075281999999994,-0.0328277999999991,-0.0506288,0,sub_15
0.0601195999999995,0.0179916000000012,0.0244247999999999,-0.0337691999999994,-0.0293373999999991,-0.0482528,0,sub_15
0.0517273999999996,0.0181962000000012,0.0226649999999999,-0.0569855999999994,-0.0177605999999991,-0.0460798,0,sub_15
0.0481785999999996,0.0171580000000012,0.0239393999999999,-0.0555327999999994,0.0103988000000008,-0.0563606,0,sub_15
0.0474893999999996,0.0131494000000012,0.0231457999999999,-0.0337789999999994,0.0374536000000008,-0.0744032,0,sub_15
0.0497431999999996,0.0074068000000012,0.0236419999999999,-0.0036269999999994,0.0753698000000008,-0.0985966,0,sub_15
0.0560729999999996,0.0087074000000012,0.0273219999999999,0.0304042000000005,0.1143676000000008,-0.130242,0,sub_15
0.0596435999999996,0.0109746000000012,0.0339248,0.0609658000000005,0.1456886000000009,-0.1572016,0,sub_15
0.0557421999999996,0.0106064000000012,0.0419258,0.0792434000000005,0.1599680000000009,-0.1741838,0,sub_15
0.0444079999999996,0.0079696000000012,0.0524773999999999,0.0852524000000005,0.1608266000000008,-0.1809794,0,sub_15
0.0311207999999996,0.0045940000000012,0.0612608,0.0873546000000004,0.1491200000000008,-0.18565,0,sub_15
0.0185671999999996,-0.0009581999999987,0.0660946,0.0885802000000004,0.1333640000000008,-0.1892532,0,sub_15
0.0107749999999996,-0.0058285999999987,0.0677255999999999,0.0956512000000004,0.1261510000000008,-0.2030814,0,sub_15
0.0101109999999996,-0.0077993999999987,0.0646701999999999,0.1098374000000005,0.1287402000000008,-0.2234954,0,sub_15
0.0162657999999996,-0.0067385999999987,0.0580695999999999,0.1268222000000005,0.1324030000000008,-0.248378,0,sub_15
0.0202977999999996,-0.0015935999999987,0.0505864,0.1379952000000005,0.1317966000000008,-0.2662452,0,sub_15
0.0210425999999996,0.0028702000000012,0.0455784,0.1420358000000005,0.1220094000000008,-0.273041,0,sub_15
0.0149487999999996,0.0072652000000012,0.0405705999999999,0.1404568000000005,0.1062360000000008,-0.2698272,0,sub_15
0.0067667999999996,0.0148856000000012,0.0394551999999999,0.1319944000000005,0.0912856000000008,-0.2534166,0,sub_15
-0.0032328000000003,0.0217790000000012,0.0435135999999999,0.1270524000000005,0.1035796000000008,-0.2333842,0,sub_15
-0.0156312000000003,0.0276638000000012,0.0512241999999999,0.1341684000000005,0.1343906000000008,-0.2190598,0,sub_15
-0.0261722000000003,0.0305036000000012,0.0595709999999999,0.1561242000000005,0.1809568000000008,-0.2149068,0,sub_15
-0.0343934000000003,0.0237406000000012,0.0722537999999999,0.1866398000000005,0.2300618000000009,-0.2136882,0,sub_15
-0.0406158000000003,0.0108324000000012,0.0868504,0.2338358000000005,0.2736248000000009,-0.226233,0,sub_15
-0.0412782000000003,0.0063854000000012,0.0990855999999999,0.2966958000000005,0.2745808000000008,-0.2533554,0,sub_15
-0.0333816000000003,0.0028844000000012,0.1078881999999999,0.3686244000000005,0.2431556000000009,-0.2891324,0,sub_15
-0.0204604000000003,0.0023978000000012,0.1058345999999999,0.4309004000000005,0.2006844000000009,-0.324749,0,sub_15
-0.0033992000000003,0.0076944000000012,0.0933475999999999,0.4817482000000005,0.1850742000000008,-0.3544978,0,sub_15
0.0102383999999996,0.0105844000000012,0.0787443999999999,0.4991244000000004,0.1927358000000008,-0.3674186,0,sub_15
0.0153481999999996,0.0067572000000012,0.0618296,0.4786818000000005,0.2081226000000008,-0.3613854,0,sub_15
0.0090919999999996,-0.0018347999999987,0.0464059999999999,0.4228910000000005,0.2054690000000008,-0.3421164,0,sub_15
-0.0053796000000003,-0.0115545999999987,0.040007,0.3526882000000005,0.1887572000000008,-0.3111796,0,sub_15
-0.0282404000000003,-0.0134537999999987,0.040469,0.2675748000000005,0.1333092000000008,-0.2773062,0,sub_15
-0.0531952000000003,-0.0067047999999987,0.0294256,0.2091300000000005,0.0726726000000008,-0.2477264,0,sub_15
-0.0761292000000003,-0.0015315999999987,0.0152604,0.1732428000000005,0.0439242000000008,-0.2201664,0,sub_15
-0.0911160000000003,0.0036384000000012,-0.0047162,0.1558412000000004,0.0913906000000008,-0.1938568,0,sub_15
-0.1028160000000003,0.0045844000000012,-0.0403166,0.1377922000000004,0.1738440000000008,-0.1784924,0,sub_15
-0.1118136000000003,0.0072138000000012,-0.0741184,0.1173084000000004,0.2680890000000008,-0.1793972,0,sub_15
-0.1180988000000003,0.0095742000000012,-0.0965997999999999,0.0967444000000005,0.3722144000000009,-0.2001842,0,sub_15
-0.1214184000000003,0.0092380000000012,-0.113438,0.0771192000000005,0.4829908000000008,-0.2333644,0,sub_15
-0.1209300000000003,0.0098964000000012,-0.1229246,0.0629544000000005,0.5677818000000009,-0.2730962,0,sub_15
-0.1169558000000003,0.0148178000000012,-0.1135448,0.0689316000000005,0.6277726000000008,-0.30881,0,sub_15
-0.1021946000000003,0.0106136000000012,-0.1033532,0.0971436000000005,0.6616474000000009,-0.3325854,0,sub_15
-0.0754372000000003,-0.0027499999999987,-0.0948218,0.1107424000000005,0.6424520000000008,-0.338876,0,sub_15
-0.0479028000000003,-0.0132153999999987,-0.0891462,0.1095356000000004,0.5738136000000008,-0.328756,0,sub_15
-0.0211034000000003,-0.0246237999999987,-0.0874462,0.0989438000000005,0.4725538000000008,-0.3045592,0,sub_15
0.0050383999999996,-0.0352375999999987,-0.0860653999999999,0.0790704000000005,0.3570140000000009,-0.2710086,0,sub_15
0.0205113999999996,-0.0406693999999987,-0.0844299999999999,0.0517422000000004,0.2553038000000008,-0.2266312,0,sub_15
0.0221247999999996,-0.0385707999999987,-0.0759689999999999,0.0276566000000005,0.1705960000000008,-0.1745616,0,sub_15
0.0151649999999996,-0.0337497999999987,-0.0638247999999999,0.0047664000000005,0.1140090000000008,-0.1229472,0,sub_15
0.0007511999999996,-0.0271577999999987,-0.0490135999999999,-0.0256997999999994,0.0800360000000008,-0.0722692,0,sub_15
-0.0197216000000003,-0.0229443999999987,-0.0363037999999999,-0.0647981999999994,0.0691142000000008,-0.0244584,0,sub_15
-0.0374066000000003,-0.0214317999999987,-0.0280723999999999,-0.1095655999999994,0.0716630000000008,0.0162453999999999,0,sub_15
-0.0540096000000003,-0.0236409999999987,-0.0255269999999999,-0.1574299999999994,0.0904424000000008,0.0500699999999999,0,sub_15
-0.0637622000000003,-0.0284685999999987,-0.0235325999999999,-0.2067017999999994,0.1220356000000008,0.0774591999999999,0,sub_15
-0.0681972000000003,-0.0358311999999987,-0.0210433999999999,-0.2567781999999995,0.1653464000000008,0.1056821999999999,0,sub_15
-0.0656076000000003,-0.0454881999999987,-0.0154048,-0.3141005999999994,0.2133586000000008,0.1366259999999999,0,sub_15
-0.0581014000000003,-0.0486199999999987,-0.0077864,-0.3822925999999995,0.2671494000000008,0.1704775999999999,0,sub_15
-0.0458082000000003,-0.0468631999999987,0.0010655999999999,-0.4501211999999995,0.3100600000000008,0.2075501999999999,0,sub_15
-0.0350128000000003,-0.0410073999999987,0.0102953999999999,-0.5101285999999995,0.3380236000000008,0.2461921999999999,0,sub_15
-0.0284190000000003,-0.0287323999999987,0.0150283999999999,-0.5571097999999994,0.3627680000000008,0.2793745999999999,0,sub_15
-0.0270398000000003,-0.0106815999999987,0.0134356,-0.5722705999999995,0.3819088000000008,0.3010359999999999,0,sub_15
-0.0308752000000003,0.0035770000000012,0.0083464,-0.5367035999999995,0.3738740000000008,0.3081311999999999,0,sub_15
-0.0385910000000003,0.0175564000000012,-0.0047775999999999,-0.4554431999999995,0.3548856000000008,0.2976137999999999,0,sub_15
-0.0458948000000003,0.0331368000000012,-0.021295,-0.3486299999999995,0.3136928000000009,0.2766207999999999,0,sub_15
-0.0525370000000003,0.0435164000000012,-0.0339984,-0.2250425999999994,0.2452060000000008,0.2468069999999999,0,sub_15
-0.0596004000000003,0.0532990000000012,-0.0489608,-0.0906375999999995,0.1490382000000008,0.2036445999999999,0,sub_15
-0.0606194000000003,0.0577444000000012,-0.061565,0.0458974000000005,0.0422494000000008,0.1506831999999999,0,sub_15
-0.0583726000000003,0.0521428000000012,-0.0544688,0.1536722000000005,-0.0523031999999991,0.0996415999999999,0,sub_15
-0.0549838000000003,0.0371454000000012,-0.0420954,0.2315024000000005,-0.1124611999999991,0.0513377999999999,0,sub_15
-0.0492656000000003,0.0225564000000012,-0.0308103999999999,0.2829472000000005,-0.1523027999999991,0.0068827999999999,0,sub_15
-0.0330312000000003,0.0052572000000012,-0.0168178,0.2955620000000005,-0.1667535999999991,-0.0133068,0,sub_15
-0.0181006000000003,-0.0101073999999987,0.0017078,0.2567454000000005,-0.1477165999999991,0.0015663999999999,0,sub_15
-0.0058910000000003,-0.0200177999999987,0.0104958,0.1826438000000005,-0.1163189999999991,0.0460873999999999,0,sub_15
0.0018039999999996,-0.0252427999999987,0.0224002,0.0913996000000005,-0.0811067999999991,0.1105665999999999,0,sub_15
0.0052829999999996,-0.0261785999999987,0.0357204,-0.0158791999999994,-0.0405617999999991,0.1873181999999999,0,sub_15
-0.0009394000000003,-0.0236569999999987,0.0508746,-0.1178025999999994,0.0023176000000008,0.2617541999999999,0,sub_15
-0.0107542000000003,-0.0187655999999987,0.0585621999999999,-0.2020093999999995,0.0237086000000008,0.3132677999999999,0,sub_15
-0.0203212000000003,-0.0140897999999987,0.0559951999999999,-0.2602763999999994,0.0434202000000008,0.3361227999999999,0,sub_15
-0.0236836000000003,-0.0080213999999987,0.0446219999999999,-0.3058451999999995,0.0665802000000008,0.3381247999999999,0,sub_15
-0.0232722000000003,-0.0018283999999987,0.0335039999999999,-0.3438423999999994,0.1091164000000008,0.3365231999999999,0,sub_15
-0.0200296000000003,-0.0017781999999987,0.0268421999999999,-0.3902967999999994,0.1661810000000008,0.3320661999999999,0,sub_15
-0.0207540000000003,-0.0021723999999987,0.0308869999999999,-0.4391011999999994,0.2260100000000008,0.3310077999999999,0,sub_15
-0.0259954000000003,0.0038780000000012,0.0413297999999999,-0.4690715999999995,0.2501962000000008,0.3292719999999999,0,sub_15
-0.0309636000000003,0.0158758000000012,0.040841,-0.4505609999999994,0.2246204000000008,0.3155471999999999,0,sub_15
-0.0327106000000003,0.0281686000000012,0.0336588,-0.3732391999999994,0.1620572000000008,0.2830523999999999,0,sub_15
-0.0334692000000003,0.0462338000000012,0.0183288,-0.2397685999999995,0.0986896000000008,0.2432599999999999,0,sub_15
-0.0222310000000003,0.0507598000000012,-0.012956,-0.0656421999999994,0.0594734000000008,0.2024385999999998,0,sub_15
-0.0028248000000003,0.0354034000000012,-0.0325585999999999,0.1007552000000005,0.0607502000000008,0.1651431999999999,0,sub_15
0.0160823999999996,0.0117300000000012,-0.0316679999999999,0.2137928000000005,0.1120440000000008,0.1336067999999999,0,sub_15
0.0379585999999996,-0.0132219999999987,-0.0137681999999999,0.2473848000000004,0.1607936000000008,0.1145509999999999,0,sub_15
0.0626249999999996,-0.0372031999999987,0.0154067999999999,0.2073872000000005,0.1292290000000008,0.1040569999999999,0,sub_15
0.0797591999999996,-0.0413011999999987,0.0498686,0.1126490000000005,0.0243512000000008,0.0932745999999999,0,sub_15
0.0913109999999996,-0.0244287999999987,0.0688261999999999,-0.0066553999999994,-0.1250059999999991,0.0915643999999999,0,sub_15
0.0979985999999996,-0.0064647999999987,0.0724847999999999,-0.1136631999999994,-0.2770229999999992,0.1051117999999999,0,sub_15
0.0962097999999996,0.0145954000000012,0.0610863999999999,-0.1767443999999994,-0.3853149999999991,0.1216875999999999,0,sub_15
0.0785461999999996,0.0376536000000012,0.0360571999999999,-0.1820589999999994,-0.3763659999999991,0.1263387999999999,0,sub_15
0.0565903999999996,0.0516870000000012,0.0083801999999999,-0.1442311999999994,-0.2701743999999991,0.1245437999999999,0,sub_15
0.0337487999999996,0.0545364000000012,-0.0181236,-0.0758685999999994,-0.1178317999999991,0.1167071999999999,0,sub_15
0.0181355999999996,0.0501350000000012,-0.0452884,0.0041512000000005,0.0091482000000008,0.1008665999999999,0,sub_15
0.0066069999999996,0.0318214000000012,-0.0672178,0.0740992000000005,0.1168146000000008,0.0751525999999999,0,sub_15
0.0066101999999996,0.0098974000000012,-0.078093,0.1052592000000005,0.1907270000000008,0.0526291999999999,0,sub_15
0.0065947999999996,-0.0074057999999987,-0.0768092,0.0990766000000005,0.2210760000000008,0.0341737999999999,0,sub_15
0.0131845999999996,-0.0165763999999987,-0.0667901999999999,0.0684334000000005,0.2180738000000008,0.0123855999999999,0,sub_15
0.0198261999999996,-0.0156705999999987,-0.0498279999999999,0.0245084000000005,0.2074316000000008,-0.0054266,0,sub_15
0.0286011999999996,-0.0017685999999987,-0.0382349999999999,-0.0236105999999994,0.1752470000000008,-0.0136264,0,sub_15
0.0453663999999996,0.0094230000000012,-0.0340853999999999,-0.0593487999999994,0.1084568000000008,-0.0099448,0,sub_15
0.0684491999999996,0.0174584000000012,-0.0389969999999999,-0.0834415999999994,0.0266916000000008,-0.0010354,0,sub_15
0.0913623999999996,0.0211826000000012,-0.0501441999999999,-0.1002825999999994,-0.0563749999999991,0.0072855999999999,0,sub_15
0.1103431999999996,0.0215140000000012,-0.0588131999999999,-0.1093875999999994,-0.1330535999999991,0.0098839999999999,0,sub_15
0.1213909999999996,0.0163618000000012,-0.0618148,-0.1077865999999994,-0.2069777999999991,0.0069989999999999,0,sub_15
0.1201113999999996,0.0125844000000012,-0.0589454,-0.0994605999999994,-0.2676705999999991,-0.0071792,0,sub_15
0.1112247999999996,0.0090194000000012,-0.0459345999999999,-0.0875701999999994,-0.3008675999999991,-0.0273498,0,sub_15
0.0972941999999996,0.0060344000000012,-0.0322599999999999,-0.0781693999999994,-0.3187141999999991,-0.0479848,0,sub_15
0.0787129999999996,0.0020170000000012,-0.0131959999999999,-0.0744173999999994,-0.3107647999999991,-0.0678376,0,sub_15
0.0627333999999996,-0.0006871999999987,0.0025791999999999,-0.0783103999999994,-0.2951167999999991,-0.0881812,0,sub_15
0.0515217999999996,0.0010616000000012,0.017727,-0.0838681999999994,-0.2700885999999991,-0.1085484,0,sub_15
0.0459779999999996,0.0053290000000012,0.0237399999999999,-0.0913501999999994,-0.2450571999999991,-0.1280744,0,sub_15
0.0412397999999996,0.0106158000000012,0.0297803999999999,-0.0943397999999994,-0.2117551999999991,-0.1418112,0,sub_15
0.0367159999999996,0.0154778000000012,0.0308753999999999,-0.0914133999999994,-0.1821333999999991,-0.1461016,0,sub_15
0.0276757999999996,0.0191864000000012,0.0338594,-0.0795215999999994,-0.1442637999999991,-0.1428624,0,sub_15
0.0123455999999996,0.0178412000000012,0.0323231999999999,-0.0668127999999994,-0.1085515999999991,-0.1336326,0,sub_15
-0.0059926000000003,0.0180598000000012,0.0330109999999999,-0.0556253999999993,-0.0756173999999991,-0.1209916,0,sub_15
-0.0233206000000003,0.0141210000000012,0.0344735999999999,-0.0403205999999994,-0.0326675999999991,-0.112394,0,sub_15
-0.0330774000000003,0.0101464000000012,0.0328829999999999,-0.0198593999999994,0.0047784000000008,-0.117213,0,sub_15
-0.0318938000000003,0.0078578000000012,0.0272821999999999,0.0072614000000005,0.0399072000000008,-0.1343738,0,sub_15
-0.0196776000000003,0.0099302000000012,0.0262657999999999,0.0350626000000005,0.0791014000000008,-0.1564488,0,sub_15
0.0014265999999996,0.0120178000000012,0.0299668,0.0632876000000005,0.1208380000000008,-0.1753194,0,sub_15
0.0263681999999996,0.0127526000000012,0.0313362,0.0828426000000005,0.1393542000000008,-0.1873842,0,sub_15
0.0430243999999996,0.0114262000000012,0.0337534,0.0849844000000005,0.1016042000000008,-0.179416,0,sub_15
0.0437981999999996,0.0108404000000012,0.0411922,0.0726578000000005,0.0488966000000008,-0.1480288,0,sub_15
0.0327647999999996,0.0063138000000012,0.0455868,0.0549028000000005,-0.0174565999999991,-0.1093982,0,sub_15
0.0119761999999996,-0.0025059999999987,0.0443076,0.0495552000000005,-0.0861591999999991,-0.0800782,0,sub_15
-0.0128364000000003,-0.0057763999999987,0.0398142,0.0550420000000005,-0.1282265999999991,-0.0609716,0,sub_15
-0.0301134000000003,-0.0024627999999987,0.0335968,0.0674234000000005,-0.1172303999999991,-0.0510716,0,sub_15
-0.0340868000000003,-0.0002869999999987,0.0272338,0.0845574000000005,-0.1032277999999991,-0.0511834,0,sub_15
-0.0317002000000003,-0.0028757999999987,0.0172404,0.1024472000000005,-0.1162645999999991,-0.0565964,0,sub_15
-0.0242358000000003,-0.0028863999999987,0.0111063999999999,0.1076612000000005,-0.1857579999999991,-0.0517708,0,sub_15
-0.0256314000000003,-0.0038807999999987,0.0269015999999999,0.0951826000000005,-0.2543253999999991,-0.050061,0,sub_15
-0.0340220000000003,-0.0101577999999987,0.0465663999999999,0.0928004000000005,-0.2208423999999991,-0.0563162,0,sub_15
-0.0432394000000003,-0.0171943999999987,0.0578421999999999,0.0876026000000005,-0.1632175999999991,-0.0767226,0,sub_15
-0.0466426000000003,-0.0166691999999987,0.0673068,0.0765624000000005,-0.121347999999999,-0.0947996,0,sub_15
-0.0493552000000003,-0.0145759999999987,0.063001,0.0587552000000005,-0.116301599999999,-0.1158676,0,sub_15
-0.0434490000000003,-0.0110015999999987,0.0391668,0.0474336000000005,-0.1720603999999991,-0.12143,0,sub_15
-0.0371460000000003,-0.0052949999999987,0.0127874,0.0223502000000005,-0.2898065999999991,-0.118036,0,sub_15
-0.0413954000000003,-0.0014159999999987,-0.0132724,-0.0002979999999994,-0.327715799999999,-0.1016958,0,sub_15
-0.0494408000000003,0.0028602000000012,-0.035876,-0.0272453999999994,-0.2744355999999991,-0.0820842,0,sub_15
-0.0589058000000003,0.0016018000000012,-0.0383171999999999,-0.0458483999999994,-0.122958799999999,-0.0642494,0,sub_15
-0.0687102000000003,7.220000000128477e-05,-0.0360625999999999,-0.0442179999999994,0.0581006000000008,-0.055925,0,sub_15
-0.0757504000000003,0.0018828000000012,-0.0331045999999999,-0.0258157999999994,0.1662628000000008,-0.054013,0,sub_15
-0.0752060000000003,0.0086438000000012,-0.0239429999999999,-0.0093667999999994,0.1689810000000008,-0.0553972,0,sub_15
-0.0749484000000003,0.0120074000000012,-0.0113337999999999,0.0124762000000005,0.1352572000000009,-0.059047,0,sub_15
-0.0744610000000003,0.0158168000000012,-0.0077589999999999,0.0316918000000005,0.0879018000000008,-0.0614158,0,sub_15
-0.0705822000000003,0.0163914000000012,-0.007363,0.0340126000000005,0.0327198000000008,-0.0632518,0,sub_15
-0.0614772000000003,0.0124474000000012,-0.0103824,0.0231120000000005,-0.0168919999999991,-0.0613416,0,sub_15
-0.0507562000000002,0.0081582000000012,-0.0120112,0.0109598000000005,-0.0545903999999991,-0.0539006,0,sub_15
-0.0410034000000003,0.0032618000000012,-0.014622,0.0021920000000005,-0.0982687999999991,-0.0457874,0,sub_15
-0.0314212000000003,-0.0005793999999987,-0.017556,-0.0055319999999994,-0.1445177999999991,-0.0350998,0,sub_15
-0.0247348000000003,-0.0009515999999987,-0.0176984,-0.0153447999999994,-0.1748041999999991,-0.0184652,0,sub_15
-0.0253296000000003,-0.0003273999999987,-0.0090358,-0.0246119999999994,-0.1776123999999991,-0.0007938,0,sub_15
-0.0261374000000003,-0.0016515999999987,-0.0024374,-0.0330081999999994,-0.1814693999999991,0.0119711999999999,0,sub_15
-0.0285590000000003,0.0005530000000012,0.0057374,-0.0377713999999994,-0.1859705999999991,0.0228395999999999,0,sub_15
-0.0313768000000003,0.0008136000000012,0.0127108,-0.0407787999999994,-0.1825827999999991,0.0307189999999999,0,sub_15
-0.0356772000000003,0.0013948000000012,0.0174058,-0.0422223999999994,-0.1678913999999991,0.0343219999999998,0,sub_15
-0.0367260000000003,0.0016924000000012,0.0170793999999999,-0.0423781999999994,-0.154470999999999,0.0349445999999998,0,sub_15
-0.0350816000000003,0.0013694000000012,0.0177323999999999,-0.0397333999999994,-0.1378533999999991,0.0328053999999998,0,sub_15
-0.0314314000000003,0.0006926000000012,0.0159291999999999,-0.0370415999999994,-0.1127059999999991,0.0287325999999998,0,sub_15
-0.0260758000000003,0.0032850000000012,0.0141399999999999,-0.0364701999999994,-0.0830829999999991,0.0261349999999998,0,sub_15
-0.0170584000000003,0.0044198000000012,0.0116471999999999,-0.0380861999999994,-0.0615637999999991,0.0273779999999999,0,sub_15
-0.0087704000000003,0.0058334000000012,0.0080019999999999,-0.0408119999999994,-0.0462329999999991,0.0320393999999999,0,sub_15
-0.0024216000000003,0.0085574000000012,0.0043397999999999,-0.0448833999999994,-0.042414399999999,0.0396971999999999,0,sub_15
0.0026717999999996,0.0111638000000012,0.0030564,-0.0487941999999994,-0.048829199999999,0.0488647999999999,0,sub_15
0.0048255999999996,0.0126384000000012,0.003463,-0.0497481999999994,-0.063557399999999,0.0565681999999999,0,sub_15
0.0044011999999996,0.0142026000000012,0.0040114,-0.0462223999999994,-0.0823339999999991,0.0604623999999999,0,sub_15
0.0066443999999996,0.0158908000000012,0.004468,-0.0388503999999994,-0.1032409999999991,0.0609679999999999,0,sub_15
0.0095473999999996,0.0141780000000012,0.0034442,-0.0286707999999994,-0.1190351999999991,0.0591365999999999,0,sub_15
0.0117067999999996,0.0102602000000012,0.001651,-0.0182509999999994,-0.1316229999999991,0.0545253999999999,0,sub_15
0.0155741999999996,0.0066794000000012,0.0008263999999999,-0.0093057999999994,-0.1401569999999991,0.0496849999999999,0,sub_15
0.0195061999999996,0.0033044000000012,0.0032403999999999,-0.0043895999999994,-0.1431373999999991,0.0448093999999999,0,sub_15
0.0207021999999996,0.0015140000000012,0.0064803999999999,-0.0022231999999994,-0.1390839999999991,0.0416145999999999,0,sub_15
0.0200925999999996,0.0022872000000012,0.0098527999999999,-0.0051759999999994,-0.1331011999999991,0.0398769999999999,0,sub_15
0.0179653999999996,0.0026844000000012,0.0145061999999999,-0.0115301999999994,-0.1205171999999991,0.0419529999999999,0,sub_15
0.0116325999999996,0.0029708000000012,0.0182458,-0.0169867999999994,-0.0974989999999991,0.0446625999999999,0,sub_15
0.0061099999999996,0.0008974000000012,0.0215028,-0.0162441999999994,-0.0723703999999991,0.0469857999999999,0,sub_15
