userAcceleration.x,userAcceleration.y,userAcceleration.z,rotationRate.x,rotationRate.y,rotationRate.z,label,subject
0.0702637999999996,0.0010732000000012,-0.0736338,-0.1408739999999995,-0.181091399999999,0.0584289999999999,0,sub_3
0.0642621999999996,0.0009054000000012,-0.0743154,-0.1184347999999995,-0.206368599999999,0.0731459999999999,0,sub_3
0.0618041999999997,-0.0043547999999987,-0.0694874,-0.1128759999999995,-0.237337599999999,0.0873249999999999,0,sub_3
0.0583689999999996,-0.0057507999999987,-0.0611896,-0.1214083999999995,-0.273782199999999,0.0977807999999999,0,sub_3
0.0556621999999996,-0.0046137999999987,-0.0541922,-0.1292469999999995,-0.301481199999999,0.1050253999999999,0,sub_3
0.0509617999999996,-0.0011725999999987,-0.0472466,-0.1299599999999995,-0.315124599999999,0.1076015999999999,0,sub_3
0.0441913999999996,0.0014676000000012,-0.0402308,-0.1227245999999995,-0.318986599999999,0.1080843999999999,0,sub_3
0.0384181999999996,0.0030430000000012,-0.037341,-0.1103471999999995,-0.314996399999999,0.1117977999999999,0,sub_3
0.0375753999999996,0.0005078000000012,-0.0372262,-0.0994431999999995,-0.301433999999999,0.1206159999999999,0,sub_3
0.0391163999999996,-0.0006923999999987,-0.0369102,-0.0996393999999995,-0.2901711999999991,0.1280777999999999,0,sub_3
0.0443307999999996,-0.0028747999999987,-0.0397484,-0.1092353999999995,-0.285039799999999,0.1318497999999999,0,sub_3
0.0511527999999997,-0.0045327999999987,-0.0436468,-0.1254535999999995,-0.286257999999999,0.1308833999999999,0,sub_3
0.0562281999999996,-0.0072231999999987,-0.0465542,-0.1452941999999995,-0.291490999999999,0.1247693999999999,0,sub_3
0.0572593999999997,-0.0087103999999987,-0.0479672,-0.1657721999999995,-0.299265799999999,0.1154495999999999,0,sub_3
0.0566881999999996,-0.0104577999999987,-0.0499972,-0.1807129999999995,-0.3083425999999989,0.1072381999999999,0,sub_3
0.0547271999999996,-0.0091419999999987,-0.053563,-0.1852139999999995,-0.3195913999999989,0.1003845999999999,0,sub_3
0.0532869999999996,0.0013696000000012,-0.0535938,-0.1752035999999994,-0.3327991999999989,0.0912847999999999,0,sub_3
0.0523971999999996,0.0053026000000012,-0.0503814,-0.1609441999999994,-0.346886799999999,0.0854203999999999,0,sub_3
0.0492079999999996,0.0109238000000012,-0.0489882,-0.1375133999999994,-0.3593121999999989,0.0821815999999999,0,sub_3
0.0445737999999996,0.0171666000000012,-0.047232,-0.1040407999999994,-0.364333599999999,0.0834901999999999,0,sub_3
0.0389483999999996,0.0195196000000012,-0.0411764,-0.0694811999999995,-0.354699199999999,0.0950423999999999,0,sub_3
0.0330671999999996,0.0112658000000012,-0.039617,-0.0434459999999995,-0.330383599999999,0.1189075999999999,0,sub_3
0.0294625999999996,0.0097270000000012,-0.039949,-0.0218493999999995,-0.298800199999999,0.1405959999999999,0,sub_3
0.0324393999999997,0.0043710000000012,-0.0397084,-0.0190075999999995,-0.267555999999999,0.1568127999999999,0,sub_3
0.0366085999999997,-0.0029707999999987,-0.0396918,-0.0372943999999995,-0.246215599999999,0.1639215999999999,0,sub_3
0.0421217999999996,-0.0084695999999987,-0.0413536,-0.0739281999999995,-0.2366917999999989,0.1583123999999999,0,sub_3
0.0497761999999997,-0.0111145999999987,-0.0423906,-0.1252799999999995,-0.233265999999999,0.1453443999999999,0,sub_3
0.0568717999999996,-0.0127731999999987,-0.0451652,-0.1768709999999995,-0.2349551999999989,0.1330221999999999,0,sub_3
0.0608035999999997,-0.0103507999999987,-0.0490464,-0.2116303999999994,-0.2413939999999989,0.1216781999999998,0,sub_3
0.0641079999999996,-0.0053007999999987,-0.052455,-0.2257071999999994,-0.2445227999999989,0.1170973999999999,0,sub_3
0.0662505999999997,-0.0014697999999987,-0.056236,-0.2190657999999994,-0.2353973999999989,0.1203367999999999,0,sub_3
0.0646127999999996,0.0025652000000012,-0.059006,-0.1908219999999995,-0.2114473999999989,0.1271263999999999,0,sub_3
0.0679033999999997,0.0067738000000012,-0.0629084,-0.1488801999999995,-0.179655999999999,0.1325059999999999,0,sub_3
0.0716855999999997,0.0068960000000012,-0.0659206,-0.1069153999999995,-0.143812399999999,0.1368123999999999,0,sub_3
0.0759239999999997,0.0046476000000012,-0.0690828,-0.0724243999999994,-0.111979599999999,0.1382943999999999,0,sub_3
0.0803981999999997,0.0005490000000012,-0.06899,-0.0482097999999995,-0.092873599999999,0.1345933999999999,0,sub_3
0.0828291999999996,-0.0026663999999987,-0.0676206,-0.0336457999999995,-0.092451199999999,0.1229439999999999,0,sub_3
0.0774505999999996,-0.0046145999999987,-0.0650562,-0.0310267999999995,-0.097925399999999,0.1043823999999998,0,sub_3
0.0680121999999996,-0.0050667999999987,-0.0636274,-0.0347429999999994,-0.095466999999999,0.0789295999999998,0,sub_3
0.0579485999999996,-0.0029355999999987,-0.0621122,-0.0376753999999995,-0.076986799999999,0.0461951999999998,0,sub_3
0.0485511999999996,0.0017112000000012,-0.0621798,-0.0371421999999995,-0.044891799999999,0.0156041999999999,0,sub_3
0.0385401999999996,0.0074378000000012,-0.0631824,-0.0363727999999995,0.0001670000000009,-0.007097,0,sub_3
0.0300475999999997,0.0106992000000012,-0.0610344,-0.0336973999999995,0.0532700000000009,-0.018472,0,sub_3
0.0257497999999997,0.0143544000000012,-0.0584796,-0.0274605999999995,0.1039674000000009,-0.0174276,0,sub_3
0.0203707999999997,0.0144260000000012,-0.0539142,-0.0241161999999994,0.1471608000000009,-0.0061364,0,sub_3
0.0130697999999997,0.0158802000000012,-0.0463132,-0.0249333999999995,0.1739334000000009,0.0126243999999999,0,sub_3
0.0083327999999997,0.0143638000000012,-0.0382332,-0.0315679999999995,0.1921880000000009,0.0354147999999999,0,sub_3
0.0036167999999997,0.0122962000000012,-0.0336874,-0.0414041999999995,0.2051478000000009,0.0530617999999999,0,sub_3
0.0027011999999997,0.0057486000000012,-0.030224,-0.0546207999999995,0.2149664000000009,0.0600071999999999,0,sub_3
0.0058857999999996,-0.0013583999999987,-0.0303436,-0.0675973999999995,0.216744400000001,0.0528639999999999,0,sub_3
0.0184813999999996,-0.0115673999999987,-0.035418,-0.0820039999999995,0.2141276000000009,0.0271293999999999,0,sub_3
0.0337291999999996,-0.0170283999999987,-0.0415336,-0.0949179999999995,0.199197200000001,-0.0107568,0,sub_3
0.0495585999999996,-0.0187143999999987,-0.0482626,-0.1059719999999994,0.1710500000000009,-0.0483992,0,sub_3
0.0577263999999996,-0.0096787999999987,-0.05426,-0.1113561999999994,0.1315550000000009,-0.0770146,0,sub_3
0.0624257999999997,0.0018246000000012,-0.060013,-0.1087231999999994,0.0879188000000009,-0.0893316,0,sub_3
0.0583289999999997,0.0156568000000012,-0.063308,-0.0903439999999994,0.0537382000000009,-0.0823228,0,sub_3
0.0486413999999996,0.0236184000000012,-0.0669918,-0.0568075999999994,0.0345776000000009,-0.0617678,0,sub_3
0.0364959999999997,0.0262788000000012,-0.0692928,-0.0127833999999995,0.0285660000000009,-0.0351744,0,sub_3
0.0284981999999997,0.0219062000000012,-0.0696874,0.0317040000000004,0.0310734000000009,-0.0081614,0,sub_3
0.0262829999999997,0.0144582000000012,-0.0660216,0.0698268000000004,0.0380918000000009,0.0151695999999999,0,sub_3
0.0271213999999997,0.0068022000000012,-0.0616994,0.0921820000000004,0.0420018000000009,0.0302757999999999,0,sub_3
0.0318393999999997,4.220000000125443e-05,-0.0566946,0.0962016000000004,0.0394106000000009,0.0354345999999999,0,sub_3
0.0369409999999997,-0.0015879999999987,-0.052137,0.0840230000000004,0.0322238000000009,0.0317267999999999,0,sub_3
0.0408655999999997,-0.0030321999999987,-0.0495534,0.0616208000000005,0.0219060000000009,0.0206877999999999,0,sub_3
0.0410637999999997,-0.0010811999999987,-0.0519602,0.0345348000000005,0.0090674000000009,0.0047051999999999,0,sub_3
0.0391725999999997,0.0013550000000012,-0.055823,0.0076470000000005,-0.006331799999999,-0.010418,0,sub_3
0.0363471999999996,0.0045514000000012,-0.0594814,-0.0152097999999995,-0.020280199999999,-0.0188918,0,sub_3
0.0347793999999996,0.0054008000000012,-0.0634906,-0.0318977999999995,-0.031296599999999,-0.0200624,0,sub_3
0.0342505999999996,0.0051654000000012,-0.065669,-0.0411311999999995,-0.039804599999999,-0.0156296,0,sub_3
0.0344673999999996,0.0040194000000012,-0.0665586,-0.0439711999999994,-0.0468561999999989,-0.0079492,0,sub_3
0.0355691999999996,0.0024366000000012,-0.0664382,-0.0418939999999994,-0.0524311999999989,-0.0008772,0,sub_3
0.0368033999999996,0.0017302000000012,-0.0665638,-0.0372553999999994,-0.0605607999999989,0.0034383999999999,0,sub_3
0.0365025999999997,0.0019342000000012,-0.0664462,-0.0309327999999994,-0.0746583999999989,0.0069187999999999,0,sub_3
0.0354653999999996,0.0042936000000012,-0.0668846,-0.0237817999999994,-0.0928127999999989,0.0119059999999999,0,sub_3
0.0321613999999996,0.0065386000000012,-0.065686,-0.0155741999999994,-0.1120413999999989,0.0181837999999999,0,sub_3
0.0271129999999996,0.0084404000000012,-0.0631012,-0.0062911999999994,-0.1291439999999989,0.0246797999999999,0,sub_3
0.0209049999999996,0.0096292000000012,-0.058702,0.0042930000000005,-0.143049199999999,0.0296853999999998,0,sub_3
0.0165123999999996,0.0098852000000012,-0.0540768,0.0151346000000005,-0.150974399999999,0.0308395999999998,0,sub_3
0.0129235999999996,0.0085886000000012,-0.0513834,0.0253842000000005,-0.152488799999999,0.0277083999999999,0,sub_3
0.0103427999999996,0.0069684000000012,-0.049128,0.0331182000000005,-0.146951599999999,0.0215595999999999,0,sub_3
0.0117419999999996,0.0049862000000012,-0.0517566,0.0376814000000004,-0.1379813999999989,0.0121795999999999,0,sub_3
0.0164003999999996,0.0032722000000012,-0.0572226,0.0377716000000005,-0.128140199999999,0.0019127999999999,0,sub_3
0.0217279999999996,0.0012412000000012,-0.0625378,0.0335800000000005,-0.119145399999999,-0.0060328,0,sub_3
0.0259531999999996,0.0025984000000012,-0.0670342,0.0253132000000005,-0.112277399999999,-0.0114404,0,sub_3
0.0300265999999996,0.0039794000000012,-0.0715404,0.0163776000000005,-0.108191199999999,-0.0132172,0,sub_3
0.0316431999999997,0.0062660000000012,-0.0723196,0.0101926000000004,-0.103498599999999,-0.0092072,0,sub_3
0.0316051999999997,0.0095664000000012,-0.0705604,0.0104012000000004,-0.0956519999999989,-0.0002428,0,sub_3
0.0313587999999997,0.0125868000000012,-0.06864,0.0165794000000004,-0.085496599999999,0.0121785999999999,0,sub_3
0.0308231999999997,0.0131592000000012,-0.0656542,0.0298018000000004,-0.073028999999999,0.0263553999999999,0,sub_3
0.0289607999999996,0.0123850000000012,-0.0627564,0.0466668000000004,-0.0582261999999989,0.0394863999999999,0,sub_3
0.0243041999999997,0.0090656000000012,-0.0593144,0.0622766000000005,-0.040850399999999,0.0496145999999999,0,sub_3
0.0206563999999997,0.0050870000000012,-0.0562272,0.0736380000000005,-0.023866999999999,0.0550131999999998,0,sub_3
0.0169657999999997,0.0032774000000012,-0.0542606,0.0788634000000005,-0.011075999999999,0.0526799999999998,0,sub_3
0.0147903999999996,0.0017056000000012,-0.053605,0.0774916000000005,-0.001004999999999,0.0436811999999999,0,sub_3
0.0142299999999996,0.0016290000000012,-0.053645,0.0733698000000005,0.0097334000000009,0.0299621999999999,0,sub_3
0.0182957999999996,0.0030734000000012,-0.0571814,0.0686166000000005,0.0200574000000009,0.0138891999999999,0,sub_3
0.0212461999999996,0.0044276000000012,-0.061413,0.0640662000000004,0.0286736000000009,-0.0015392,0,sub_3
0.0232377999999996,0.0043990000000012,-0.064555,0.0611692000000005,0.0395864000000009,-0.01076,0,sub_3
0.0246391999999996,0.0059492000000012,-0.0666264,0.0627442000000005,0.0540832000000009,-0.0143994,0,sub_3
0.0260471999999996,0.0081304000000012,-0.0676288,0.0698470000000004,0.0698160000000009,-0.0122334,0,sub_3
0.0257515999999997,0.0104536000000012,-0.065787,0.0826820000000005,0.0848664000000009,-0.0042582,0,sub_3
0.0252669999999997,0.0103738000000012,-0.0629268,0.0989146000000004,0.1009514000000009,0.0084395999999999,0,sub_3
0.0257823999999997,0.0104540000000012,-0.0607522,0.1170732000000005,0.1185204000000009,0.0213623999999999,0,sub_3
0.0260059999999997,0.0087288000000012,-0.0584826,0.1328964000000005,0.1365322000000009,0.0321319999999999,0,sub_3
0.0284157999999996,0.0047020000000012,-0.0581276,0.1414782000000005,0.1530958000000009,0.0383663999999999,0,sub_3
0.0318543999999996,0.0004628000000012,-0.0602272,0.1396164000000004,0.1648256000000009,0.0370563999999999,0,sub_3
0.0358347999999996,-0.0026961999999987,-0.063765,0.1268736000000005,0.1710770000000009,0.0299091999999999,0,sub_3
0.0387153999999996,-0.0061513999999987,-0.0661602,0.1051576000000004,0.1711956000000009,0.0190751999999999,0,sub_3
0.0407261999999996,-0.0084153999999987,-0.0693666,0.0772336000000004,0.166013000000001,0.0073499999999999,0,sub_3
0.0403965999999996,-0.0088055999999987,-0.0712062,0.0490818000000004,0.1586964000000009,-0.0033058,0,sub_3
0.0404307999999996,-0.0070567999999987,-0.070863,0.0264634000000004,0.1528330000000009,-0.0092246,0,sub_3
0.0410623999999996,-0.0039805999999987,-0.0698442,0.0130056000000004,0.1475614000000009,-0.0112348,0,sub_3
0.0415807999999996,-0.0004961999999987,-0.0689758,0.0101934000000004,0.1415954000000009,-0.008683,0,sub_3
0.0431149999999996,0.0026630000000012,-0.0672488,0.0163130000000004,0.1334496000000009,-0.0015796,0,sub_3
0.0442561999999997,0.0046360000000012,-0.0645358,0.0271030000000004,0.1220830000000009,0.0076969999999999,0,sub_3
0.0442155999999997,0.0048096000000012,-0.0621704,0.0387426000000004,0.1083760000000009,0.0154869999999999,0,sub_3
0.0438579999999996,0.0021606000000012,-0.0617092,0.0482570000000004,0.0942596000000009,0.0209127999999999,0,sub_3
0.0449701999999996,-0.0007765999999987,-0.0621674,0.0526708000000004,0.0799668000000009,0.0216027999999999,0,sub_3
0.0457633999999996,-0.0043885999999987,-0.062715,0.0504834000000004,0.0648602000000009,0.0184021999999999,0,sub_3
0.0463923999999996,-0.0067543999999987,-0.0637232,0.0421102000000004,0.0485040000000009,0.0134507999999999,0,sub_3
0.0463731999999996,-0.0073351999999987,-0.0647596,0.0294674000000004,0.0313120000000009,0.0080433999999999,0,sub_3
0.0459547999999996,-0.0054635999999987,-0.0642876,0.0159800000000005,0.0158282000000009,0.0024141999999999,0,sub_3
0.0444909999999996,-0.0030609999999987,-0.0623842,0.0035602000000004,0.0028880000000009,-0.0008606,0,sub_3
0.0431635999999997,-0.0010931999999987,-0.0603708,-0.0058693999999995,-0.007513599999999,-0.002195,0,sub_3
0.0424563999999997,0.0004500000000012,-0.0589436,-0.0118821999999995,-0.0155905999999989,-0.0017994,0,sub_3
0.0428595999999997,0.0002002000000012,-0.057953,-0.0144885999999995,-0.0236861999999989,0.0003291999999999,0,sub_3
0.0428289999999996,-0.0002273999999987,-0.0568542,-0.0158263999999994,-0.0330695999999989,0.0037501999999999,0,sub_3
0.0428111999999996,-0.0012933999999987,-0.0571546,-0.0169477999999995,-0.0428755999999989,0.0061049999999999,0,sub_3
0.0419143999999996,-0.0021067999999987,-0.0572932,-0.0174281999999994,-0.0537441999999989,0.0071837999999999,0,sub_3
0.0411245999999996,-0.0019375999999987,-0.058073,-0.0166255999999994,-0.065038999999999,0.0072039999999999,0,sub_3
0.0398563999999996,-0.0013653999999987,-0.0584744,-0.0153933999999995,-0.077181599999999,0.0057325999999999,0,sub_3
0.0381577999999997,-0.0004385999999987,-0.0579002,-0.0130845999999995,-0.088682799999999,0.0027723999999999,0,sub_3
0.0364159999999996,-0.0003941999999987,-0.0580302,-0.0101195999999994,-0.096988799999999,-0.0006146,0,sub_3
0.0354939999999997,-0.0005723999999987,-0.059082,-0.0084029999999994,-0.099956999999999,-0.0057262,0,sub_3
0.0347847999999996,-0.0021083999999987,-0.06004,-0.0094401999999994,-0.100563399999999,-0.0129966,0,sub_3
0.0347707999999997,-0.0024225999999987,-0.0605188,-0.0143025999999994,-0.098171999999999,-0.0207248,0,sub_3
0.0353651999999997,-0.0023033999999987,-0.0621976,-0.0225809999999994,-0.094921399999999,-0.027196,0,sub_3
0.0353295999999997,-0.0007733999999987,-0.0627952,-0.0310755999999995,-0.090399599999999,-0.0317476,0,sub_3
0.0347867999999997,0.0020896000000012,-0.062718,-0.0365945999999995,-0.085049599999999,-0.0328612,0,sub_3
0.0339473999999997,0.0051084000000012,-0.0618976,-0.0374277999999995,-0.077177199999999,-0.0294588,0,sub_3
0.0323269999999997,0.0065736000000012,-0.0618336,-0.0322837999999995,-0.065079199999999,-0.022388,0,sub_3
0.0318707999999997,0.0068270000000012,-0.0618114,-0.0230475999999995,-0.050220599999999,-0.0131576,0,sub_3
0.0322457999999996,0.0061950000000012,-0.061471,-0.0131777999999995,-0.037279799999999,-0.0043476,0,sub_3
0.0323735999999996,0.0041022000000012,-0.0625048,-0.0050169999999995,-0.026244599999999,0.0029573999999999,0,sub_3
0.0317971999999996,0.0016874000000012,-0.0638494,-0.0004749999999995,-0.017523399999999,0.0059671999999999,0,sub_3
0.0309385999999996,1.160000000127448e-05,-0.0646888,0.0002302000000004,-0.011119399999999,0.0057483999999999,0,sub_3
0.0299027999999996,-0.0005619999999987,-0.0649986,-0.0022909999999995,-0.005558199999999,0.0025189999999999,0,sub_3
0.0289117999999996,-0.0005135999999987,-0.0653776,-0.0052321999999995,-0.000413999999999,-0.0026356,0,sub_3
0.0282263999999996,0.0008122000000012,-0.0645882,-0.0068921999999995,0.0047264000000009,-0.007995,0,sub_3
0.0288009999999996,0.0023874000000012,-0.0639606,-0.0064231999999995,0.0113406000000009,-0.0107776,0,sub_3
0.0295233999999996,0.0030256000000012,-0.0634718,-0.0040415999999995,0.0179412000000009,-0.0118376,0,sub_3
0.0298013999999997,0.0030020000000012,-0.063269,-0.0003921999999995,0.0234652000000009,-0.0111782,0,sub_3
0.0299499999999997,0.0030654000000012,-0.0638598,0.0032486000000004,0.0291938000000009,-0.0083826,0,sub_3
0.0306477999999997,0.0026964000000012,-0.063849,0.0058158000000004,0.0338594000000009,-0.0051658,0,sub_3
0.0310255999999997,0.0026208000000012,-0.0636066,0.0060262000000004,0.0357660000000009,-0.002603,0,sub_3
0.0311923999999997,0.0028132000000012,-0.0635508,0.0040952000000005,0.0355512000000009,-0.0004798,0,sub_3
0.0309411999999996,0.0027700000000012,-0.0633634,0.0013166000000004,0.0357690000000009,0.0007823999999999,0,sub_3
0.0306869999999996,0.0017526000000012,-0.0632276,-0.0016715999999995,0.0359908000000009,0.0011883999999999,0,sub_3
0.0307927999999996,0.0008442000000012,-0.0631682,-0.0044491999999994,0.0353604000000009,0.0013833999999999,0,sub_3
0.0304481999999997,-0.0002989999999987,-0.0634004,-0.0067999999999994,0.0340920000000009,0.0009411999999999,0,sub_3
0.0308685999999997,-0.0011301999999987,-0.0637358,-0.0085049999999994,0.0324020000000009,-0.001205,0,sub_3
0.0307927999999996,-0.0009379999999987,-0.0639806,-0.0104291999999994,0.0281612000000009,-0.0046314,0,sub_3
0.0302543999999996,0.0004670000000012,-0.0637294,-0.0132107999999994,0.0230712000000009,-0.0080626,0,sub_3
0.0292665999999996,0.0014382000000012,-0.0640352,-0.0164189999999994,0.0179828000000009,-0.0114968,0,sub_3
0.0289333999999996,0.0022640000000012,-0.0638038,-0.0179221999999994,0.0137468000000009,-0.0140722,0,sub_3
0.0285731999999996,0.0030200000000012,-0.063563,-0.0175059999999995,0.0112010000000009,-0.0147136,0,sub_3
0.0288657999999996,0.0031444000000012,-0.0636406,-0.0151701999999995,0.0101330000000009,-0.0136344,0,sub_3
0.0298359999999996,0.0024428000000012,-0.0635262,-0.0107083999999995,0.0082020000000009,-0.0116846,0,sub_3
0.0303351999999996,0.0021144000000012,-0.0635154,-0.0064601999999995,0.0066960000000009,-0.0093096,0,sub_3
0.0303989999999996,0.0021570000000012,-0.0636572,-0.0028557999999995,0.0039044000000009,-0.0069308,0,sub_3
0.0319077999999996,0.0027926000000012,-0.0625358,-0.0007507999999995,-0.000372599999999,-0.0047742,0,sub_3
0.0322441999999996,0.0028084000000012,-0.0621218,-0.0001355999999995,-0.004004399999999,-0.0028424,0,sub_3
0.0321839999999996,0.0024220000000012,-0.0612012,-0.0012873999999995,-0.006662599999999,-0.0015702,0,sub_3
0.0320451999999996,0.0019562000000012,-0.060269,-0.0032877999999995,-0.0084647999999989,-0.0005188,0,sub_3
0.0320839999999996,0.0017028000000012,-0.058069,-0.0065579999999995,-0.0089799999999989,-0.000546,0,sub_3
0.0307765999999996,0.0009586000000012,-0.0569474,-0.0093945999999994,-0.0088539999999989,-0.0014256,0,sub_3
0.0300439999999996,0.0014544000000012,-0.055128,-0.0111605999999994,-0.0078795999999989,-0.0022988,0,sub_3
0.0295451999999996,0.0024364000000012,-0.053974,-0.0117919999999994,-0.0065963999999989,-0.0029458,0,sub_3
0.0294525999999996,0.0031438000000012,-0.0524882,-0.0107221999999994,-0.0065973999999989,-0.0035792,0,sub_3
0.0290163999999996,0.0032670000000012,-0.052536,-0.0085883999999994,-0.005968199999999,-0.0029242,0,sub_3
0.0281905999999996,0.0037816000000012,-0.053095,-0.0062691999999995,-0.003957199999999,-0.001625,0,sub_3
0.0278065999999997,0.0035844000000012,-0.053509,-0.0039509999999995,-0.002795599999999,-0.0009658,0,sub_3
0.0279223999999997,0.0031402000000012,-0.0543542,-0.0018431999999995,-0.001630999999999,-0.000949,0,sub_3
0.0284529999999997,0.0026632000000012,-0.0553174,-0.0003735999999995,-0.000250199999999,-0.0011504,0,sub_3
0.0289383999999996,0.0028592000000012,-0.0558788,0.0002366000000004,6.760000000097565e-05,-0.0011428,0,sub_3
0.0290823999999996,0.0034926000000012,-0.0557648,0.0006604000000004,-0.000785199999999,-0.0013524,0,sub_3
0.0290167999999996,0.0038026000000012,-0.0555086,0.0012938000000004,-0.002915399999999,-0.0019862,0,sub_3
0.0278699999999996,0.0043022000000012,-0.0546404,0.0023530000000004,-0.004835599999999,-0.00219,0,sub_3
0.0252875999999996,0.0052144000000012,-0.0533066,0.0025330000000004,-0.007382799999999,-0.002173,0,sub_3
0.0240881999999997,0.0054212000000012,-0.0529176,0.0050812000000004,-0.005251199999999,-0.0021454,0,sub_3
0.0230599999999997,0.0051742000000012,-0.0523516,0.0074180000000004,-0.003116999999999,-0.0025466,0,sub_3
0.0226937999999996,0.0047482000000012,-0.052505,0.0086946000000004,0.0009366000000009,-0.0025302,0,sub_3
0.0234619999999997,0.0045306000000012,-0.0531524,0.0097664000000005,0.0064840000000009,-0.0029444,0,sub_3
0.0262651999999997,0.0037856000000012,-0.0548284,0.0110820000000005,0.0133014000000009,-0.0040122,0,sub_3
0.0277463999999997,0.0034350000000012,-0.0558538,0.0104592000000005,0.0150166000000009,-0.0061552,0,sub_3
0.0300089999999996,0.0030454000000012,-0.0572018,0.0089752000000004,0.0154548000000009,-0.0078752,0,sub_3
0.0316343999999996,0.0029554000000012,-0.0578408,0.0083462000000005,0.0145622000000009,-0.0093532,0,sub_3
0.0319967999999997,0.0024936000000012,-0.058855,0.0074866000000005,0.0108964000000009,-0.009761,0,sub_3
0.0314197999999996,0.0028970000000012,-0.0586664,0.0083186000000005,0.0048768000000009,-0.0090856,0,sub_3
0.0317075999999996,0.0029798000000012,-0.058174,0.0104242000000005,-0.001365399999999,-0.0071192,0,sub_3
