userAcceleration.x,userAcceleration.y,userAcceleration.z,rotationRate.x,rotationRate.y,rotationRate.z,label,subject
-0.0453058000000001,0.0165472000000012,0.0452986,0.0053942000000004,0.0194382000000005,0.0105913999999998,0,sub_13
-0.0438286000000001,0.0162186000000012,0.0454938,0.0059922000000004,0.0121836000000005,0.0127413999999998,0,sub_13
-0.0415780000000001,0.0165604000000012,0.0466354,0.0042672000000004,0.0092026000000005,0.0138013999999998,0,sub_13
-0.0414958000000001,0.0172208000000012,0.04604,0.0049546000000004,0.0103634000000005,0.0121493999999998,0,sub_13
-0.0415868000000001,0.0181168000000012,0.0458,0.0047894000000004,0.0119526000000005,0.0107043999999998,0,sub_13
-0.0433762000000001,0.0184428000000012,0.044886,0.0031220000000004,0.0118418000000006,0.0094645999999999,0,sub_13
-0.0428360000000001,0.0186394000000012,0.0447646,0.0037872000000004,0.0098002000000006,0.0095255999999999,0,sub_13
-0.0430926000000001,0.0189150000000012,0.0439674,0.0053010000000004,0.0071148000000006,0.0100205999999999,0,sub_13
-0.0414706000000001,0.0179554000000012,0.0449703999999999,0.0063468000000004,0.0043338000000006,0.0119541999999999,0,sub_13
-0.0416386000000001,0.0182076000000012,0.0458777999999999,0.0076108000000004,0.0024050000000006,0.0136747999999999,0,sub_13
-0.0415802000000001,0.0183544000000012,0.0462039999999999,0.0080346000000004,0.0019766000000005,0.0138919999999999,0,sub_13
-0.0423072000000001,0.0188354000000012,0.0464127999999999,0.0067766000000004,0.0007478000000005,0.0128627999999999,0,sub_13
-0.0424692000000001,0.0184456000000012,0.0472329999999999,0.0042376000000004,-0.0006895999999994,0.0118251999999999,0,sub_13
-0.0429982000000001,0.0181640000000012,0.04653,0.0031968000000004,-0.0012791999999994,0.0105831999999999,0,sub_13
-0.0420564000000001,0.0176970000000012,0.0456312,0.0032094000000004,-0.0033697999999994,0.0108459999999999,0,sub_13
-0.0406006000000001,0.0167078000000012,0.0448184,0.0032134000000004,-0.0052559999999994,0.0132449999999999,0,sub_13
-0.0402684000000001,0.0152752000000012,0.0421898,0.0063968000000004,-0.0059191999999994,0.0164727999999999,0,sub_13
-0.0379898000000001,0.0143538000000011,0.0396899999999999,0.0119176000000004,-0.0074479999999993,0.0209997999999999,0,sub_13
-0.0343074000000001,0.0142556000000011,0.0399919999999999,0.0150980000000004,-0.0070525999999993,0.0259353999999999,0,sub_13
-0.0307646000000001,0.0142690000000011,0.0415117999999999,0.0168214000000004,-0.0015267999999993,0.0278629999999999,0,sub_13
-0.0322450000000001,0.0162416000000012,0.0425701999999999,0.0168766000000004,0.0080210000000006,0.0265995999999999,0,sub_13
-0.0343198000000001,0.0170176000000012,0.0429411999999999,0.0139426000000004,0.0150310000000006,0.0231823999999999,0,sub_13
-0.0380996000000001,0.0174190000000012,0.0420419999999999,0.0114190000000004,0.0179932000000005,0.0193457999999999,0,sub_13
-0.0394226000000001,0.0174416000000012,0.0421319999999999,0.0097280000000004,0.0162652000000005,0.0155209999999999,0,sub_13
-0.0406942000000001,0.0176356000000012,0.0422285999999999,0.0082406000000004,0.0134670000000005,0.0127673999999999,0,sub_13
-0.0389490000000001,0.0173230000000012,0.0435303999999999,0.0061222000000004,0.0130636000000005,0.0089075999999999,0,sub_13
-0.0383558000000001,0.0187662000000012,0.0451445999999999,0.0025198000000004,0.0156448000000005,0.0058879999999999,0,sub_13
-0.0392650000000001,0.0182640000000012,0.0457527999999999,-0.0017395999999995,0.0166306000000005,0.0032971999999999,0,sub_13
-0.0430092000000001,0.0184252000000012,0.0440436,-0.0025993999999995,0.0146208000000005,0.0009475999999999,0,sub_13
-0.0436664000000001,0.0172216000000012,0.0432904,-0.0028363999999995,0.0096226000000006,-0.0005392,0,sub_13
-0.0412738000000001,0.0164374000000012,0.042527,-0.0022379999999995,0.0035442000000006,0.0009721999999999,0,sub_13
-0.0387704000000001,0.0150048000000012,0.0418402,0.0004980000000004,8.200000000613966e-06,0.0042045999999999,0,sub_13
-0.0378094000000001,0.0164390000000012,0.0422449999999999,0.0049760000000004,0.0023242000000006,0.0072239999999999,0,sub_13
-0.0383626000000001,0.0163830000000012,0.0436419999999999,0.0071182000000004,0.0065684000000006,0.0095837999999999,0,sub_13
-0.0405966000000001,0.0184700000000012,0.0443477999999999,0.0077642000000004,0.0095420000000005,0.0112935999999998,0,sub_13
-0.0438724000000001,0.0195512000000012,0.0452539999999999,0.0066838000000004,0.0104962000000005,0.0114763999999998,0,sub_13
-0.0458606000000001,0.0198814000000012,0.0451379999999999,0.0058082000000004,0.0088954000000005,0.0110227999999998,0,sub_13
-0.0464078000000001,0.0199368000000012,0.0450998,0.0045058000000004,0.0060230000000005,0.0092861999999998,0,sub_13
-0.0457484000000001,0.0212900000000012,0.044737,0.0019272000000004,0.0040074000000005,0.0075393999999998,0,sub_13
-0.0458416000000001,0.0206710000000011,0.0441666,-3.79999999952466e-06,0.0041184000000005,0.0062217999999998,0,sub_13
-0.0464064000000001,0.0197840000000011,0.0422925999999999,0.0021270000000004,0.0026230000000005,0.0053839999999998,0,sub_13
-0.0466902000000001,0.0197138000000011,0.0433105999999999,0.0038368000000004,0.0017708000000005,0.0039015999999998,0,sub_13
-0.0450100000000001,0.0197770000000011,0.0447685999999999,0.0019232000000004,0.0026322000000005,0.0032461999999998,0,sub_13
-0.0433718000000001,0.0191596000000012,0.0444313999999999,0.0019024000000004,0.0038200000000006,0.0040563999999998,0,sub_13
-0.0427242000000001,0.0183974000000012,0.0433699999999999,0.0044372000000004,0.0043580000000006,0.0053127999999998,0,sub_13
-0.0425940000000001,0.0186646000000012,0.0441741999999999,0.0044154000000004,0.0057572000000005,0.0065501999999999,0,sub_13
-0.0422038000000001,0.0196264000000012,0.0443981999999999,0.0033296000000004,0.0071628000000005,0.0071389999999998,0,sub_13
-0.0430802000000001,0.0195868000000012,0.0438404,0.0037318000000004,0.0072848000000005,0.0077397999999998,0,sub_13
-0.0445340000000001,0.0190388000000012,0.0430246,0.0041566000000004,0.0072816000000005,0.0081701999999998,0,sub_13
-0.0446012000000001,0.0181702000000012,0.042268,0.0043624000000004,0.0057888000000005,0.0083871999999998,0,sub_13
-0.0432896000000001,0.0166112000000011,0.0409108,0.0052026000000004,0.0034396000000005,0.0090369999999998,0,sub_13
-0.0420660000000001,0.0166234000000011,0.0408456,0.0055880000000004,0.0016788000000005,0.0087587999999999,0,sub_13
-0.0408392000000001,0.0174362000000011,0.0416223999999999,0.0051418000000004,0.0031236000000005,0.0067613999999999,0,sub_13
-0.0402224000000001,0.0193242000000011,0.0431179999999999,0.0034346000000004,0.0069242000000005,0.0028293999999999,0,sub_13
-0.0413158000000001,0.0203512000000012,0.0435731999999999,-0.0001919999999995,0.0109444000000005,-0.0011164,0,sub_13
-0.0427578000000001,0.0203310000000012,0.0429699999999999,-0.0023439999999995,0.0119718000000005,-0.0037662,0,sub_13
-0.0438800000000001,0.0180104000000012,0.0416913999999999,-0.0025783999999995,0.0077098000000005,-0.0033352,0,sub_13
-0.0431816000000001,0.0174148000000012,0.0414679999999999,-0.0021889999999995,0.0015214000000005,-0.001188,0,sub_13
-0.0412232000000001,0.0167530000000012,0.0418865999999999,-0.0022127999999995,-0.0016827999999994,0.0009523999999998,0,sub_13
-0.0385606000000001,0.0169584000000012,0.0424181999999999,-0.0011813999999995,-0.0002635999999994,0.0021673999999998,0,sub_13
-0.0385824000000001,0.0184564000000012,0.0429661999999999,-0.0007767999999995,0.0028674000000005,0.0020939999999999,0,sub_13
-0.0395608000000001,0.0197438000000012,0.0431285999999999,-0.0014217999999995,0.0079274000000005,8.819999999990572e-05,0,sub_13
-0.0412136000000001,0.0179372000000012,0.0418471999999999,-0.0025115999999995,0.0093652000000005,-0.001489,0,sub_13
-0.0429852000000001,0.0171592000000012,0.0411356,-0.0025575999999995,0.0073834000000005,-0.0013454,0,sub_13
-0.0441626000000001,0.0171758000000012,0.0413204,-0.0025709999999995,0.0046130000000005,-0.0011282,0,sub_13
-0.0448848000000001,0.0174766000000012,0.0421398,-0.0017173999999995,0.0043978000000005,-0.0013356,0,sub_13
-0.0454046000000001,0.0182370000000012,0.0434756,-0.0014981999999995,0.0052510000000005,-0.0017626,0,sub_13
-0.0466944000000001,0.0201404000000012,0.0443476,-0.0027961999999995,0.0069082000000005,-0.0029054,0,sub_13
-0.0450758000000001,0.0197722000000012,0.043429,-0.0034647999999995,0.0064320000000006,-0.0038274,0,sub_13
-0.0435734000000001,0.0189520000000012,0.0425856,-0.0030759999999995,0.0048824000000006,-0.0036726,0,sub_13
-0.0413348000000001,0.0176326000000012,0.0420992,-0.0035435999999995,0.0026966000000006,-0.0035228,0,sub_13
-0.0403106000000001,0.0176224000000012,0.0413334,-0.0042177999999994,0.0020030000000005,-0.0033764,0,sub_13
-0.0399256000000001,0.0176364000000012,0.0406871999999999,-0.0035795999999995,0.0017870000000005,-0.003158,0,sub_13
-0.0421936000000001,0.0178170000000012,0.0406119999999999,-0.0035737999999995,0.0017922000000005,-0.0044398,0,sub_13
-0.0434754000000001,0.0177884000000012,0.0412035999999999,-0.0046415999999995,0.0007340000000005,-0.0053004,0,sub_13
-0.0432006000000001,0.0182008000000012,0.0417545999999999,-0.0055271999999995,-0.0003733999999994,-0.0053596,0,sub_13
-0.0426364000000001,0.0177792000000011,0.0416517999999999,-0.0059889999999995,-0.0016969999999993,-0.0049884,0,sub_13
-0.0423704000000001,0.0174552000000011,0.0420741999999999,-0.0055895999999995,-0.0017435999999993,-0.0050402,0,sub_13
-0.0426976000000001,0.0181284000000011,0.0432677999999999,-0.0056111999999995,-0.0005103999999993,-0.0050966,0,sub_13
-0.0439832000000001,0.0193836000000012,0.0436042,-0.0071223999999995,0.0007316000000006,-0.0060178,0,sub_13
-0.0445144000000001,0.0187820000000011,0.0424512,-0.0086111999999995,0.0011656000000006,-0.0066698,0,sub_13
-0.0436610000000001,0.0170824000000011,0.0413056,-0.0073433999999995,-0.0009719999999993,-0.0060172,0,sub_13
-0.0422842000000001,0.0170032000000011,0.0421819999999999,-0.0062917999999995,-0.0031113999999993,-0.0047252,0,sub_13
-0.0409460000000001,0.0175922000000011,0.0423269999999999,-0.0063225999999995,-0.0025189999999993,-0.0032804,0,sub_13
-0.0403938000000001,0.0181954000000011,0.0428965999999999,-0.0056883999999995,0.0021252000000005,-0.0033318,0,sub_13
-0.0415688000000001,0.0196582000000011,0.0438319999999999,-0.0035615999999995,0.0061268000000005,-0.003799,0,sub_13
-0.0441652000000001,0.0221824000000012,0.0451729999999999,-0.0042027999999995,0.0105676000000005,-0.0051408,0,sub_13
-0.0449636000000001,0.0208278000000012,0.0435134,-0.0067721999999995,0.0128862000000005,-0.0069206,0,sub_13
-0.0452124000000001,0.0195966000000012,0.04256,-0.0074179999999995,0.0116102000000005,-0.0069234,0,sub_13
-0.0441802000000001,0.0179456000000012,0.0420654,-0.0063731999999995,0.0079794000000005,-0.0056296,0,sub_13
-0.0435962000000001,0.0173848000000012,0.0435014,-0.0059559999999995,0.0073328000000005,-0.0041304,0,sub_13
-0.0424348000000001,0.0168656000000012,0.0436656,-0.0057539999999995,0.0094216000000005,-0.0033102,0,sub_13
-0.0436602000000001,0.0182432000000012,0.0440892,-0.0042667999999995,0.0127834000000005,-0.002269,0,sub_13
-0.0446894000000001,0.0183694000000012,0.0437986,-0.0036285999999995,0.0153036000000005,-0.0031554,0,sub_13
-0.0444106000000001,0.0191816000000012,0.0426824,-0.0040695999999995,0.0150578000000005,-0.0040458,0,sub_13
-0.0434296000000001,0.0189480000000012,0.0416826,-0.0051659999999995,0.0122542000000005,-0.004083,0,sub_13
-0.0434322000000001,0.0188704000000012,0.0419618,-0.0051763999999995,0.0101228000000005,-0.0038666,0,sub_13
-0.0426480000000001,0.0186720000000012,0.0425346,-0.0045421999999995,0.0082056000000005,-0.0045006,0,sub_13
-0.0421586000000001,0.0188118000000012,0.0431212,-0.0053993999999995,0.0077808000000005,-0.0040788,0,sub_13
-0.0430840000000001,0.0176186000000012,0.04288,-0.0064805999999995,0.0073180000000005,-0.0026076,0,sub_13
-0.0436348000000001,0.0169732000000012,0.0409892,-0.0045687999999995,0.0068498000000005,-0.0023974,0,sub_13
-0.0422458000000001,0.0170938000000012,0.0416072,-0.0026637999999995,0.0059512000000005,-0.0011186,0,sub_13
-0.0422166000000001,0.0169042000000012,0.0414494,-0.0033085999999995,0.0078296000000005,0.0005661999999999,0,sub_13
-0.0424616000000001,0.0174848000000012,0.0414202,-0.0009613999999995,0.0094896000000005,0.0009901999999999,0,sub_13
-0.0436262000000001,0.0192184000000012,0.042999,0.0007562000000004,0.0111906000000005,0.0003589999999999,0,sub_13
-0.0444232000000001,0.0197772000000012,0.0442662,-0.0007355999999995,0.0116220000000005,0.0003479999999999,0,sub_13
-0.0453256000000001,0.0186634000000012,0.0424436,-0.0009517999999995,0.0107714000000005,0.0001339999999999,0,sub_13
-0.0449274000000001,0.0179844000000012,0.0425614,0.0011768000000004,0.0090296000000005,0.0010045999999999,0,sub_13
-0.0450600000000001,0.0176562000000012,0.0437748,0.0024546000000004,0.0083544000000005,0.0022953999999999,0,sub_13
-0.0448176000000001,0.0171588000000012,0.0448806,0.0033210000000004,0.0104530000000005,0.0029387999999998,0,sub_13
-0.0459980000000001,0.0184576000000012,0.0460622,0.0042068000000004,0.0159636000000005,0.0027233999999998,0,sub_13
-0.0468840000000001,0.0187100000000012,0.0457256,0.0035950000000004,0.0204152000000005,0.0022851999999998,0,sub_13
-0.0479588000000001,0.0185874000000012,0.0453812,0.0035978000000004,0.0206300000000005,0.0018577999999998,0,sub_13
-0.0483228000000001,0.0179378000000012,0.0440822,0.0037978000000004,0.0178586000000005,0.0020763999999998,0,sub_13
-0.0476018000000001,0.0179266000000012,0.0425282,0.0031404000000004,0.0146624000000005,0.0027167999999999,0,sub_13
-0.0458422000000001,0.0167302000000012,0.0403286,0.0029274000000004,0.0118698000000005,0.0040119999999999,0,sub_13
-0.0451030000000001,0.0167700000000011,0.0400578,0.0042118000000004,0.0103484000000005,0.0057433999999998,0,sub_13
-0.0449900000000001,0.0172986000000012,0.039597,0.0057144000000004,0.0101038000000005,0.0076883999999998,0,sub_13
-0.0445886000000001,0.0173086000000011,0.038879,0.0074332000000004,0.0102854000000005,0.0094205999999998,0,sub_13
-0.0436944000000001,0.0174148000000011,0.0397714,0.0093664000000004,0.0100428000000005,0.0105139999999998,0,sub_13
-0.0440970000000001,0.0183904000000011,0.0412016,0.0093596000000004,0.0089758000000005,0.0109425999999998,0,sub_13
-0.0447876000000001,0.0199706000000012,0.041611,0.0076564000000004,0.0089852000000005,0.0100761999999998,0,sub_13
-0.0455776000000001,0.0207110000000012,0.0420316,0.0063800000000004,0.0079322000000005,0.0081457999999998,0,sub_13
-0.0465584000000001,0.0203358000000012,0.0428972,0.0029968000000004,0.0070694000000005,0.0057923999999998,0,sub_13
-0.0474808000000001,0.0188458000000012,0.0412498,0.0010898000000004,0.0040638000000005,0.0051611999999999,0,sub_13
-0.0460548000000001,0.0180108000000012,0.0406676,0.0013060000000004,-1.9599999999406205e-05,0.0058281999999999,0,sub_13
-0.0446002000000001,0.0167686000000012,0.0405366,0.0017346000000004,-0.0041045999999994,0.0067101999999998,0,sub_13
-0.0431338000000001,0.0168740000000012,0.0407644,0.0023968000000004,-0.0041405999999994,0.0071613999999998,0,sub_13
-0.0420678000000001,0.0183812000000012,0.0417204,0.0036788000000004,-0.0028701999999994,0.0080233999999998,0,sub_13
-0.0432044000000001,0.0193368000000012,0.0418178,0.0026206000000004,-0.0001001999999994,0.0088669999999998,0,sub_13
-0.0451836000000001,0.0185444000000012,0.0404828,0.0032656000000004,0.0005384000000005,0.0084433999999998,0,sub_13
-0.0452198000000001,0.0184622000000012,0.0423578,0.0054146000000004,-0.0016419999999993,0.0086953999999998,0,sub_13
-0.0443168000000001,0.0185570000000012,0.0434324,0.0045646000000004,-0.0055197999999993,0.0097831999999998,0,sub_13
-0.0444138000000001,0.0183764000000012,0.042372,0.0022346000000004,-0.0066217999999993,0.0106433999999999,0,sub_13
-0.0445030000000001,0.0193288000000012,0.0422168,0.0037568000000004,-0.0073025999999993,0.0093935999999999,0,sub_13
-0.0445346000000001,0.0203088000000011,0.0439438,0.0035738000000004,-0.0075511999999993,0.0081311999999999,0,sub_13
-0.0446410000000001,0.0196466000000011,0.0426612,-0.0004765999999995,-0.0077457999999994,0.0070347999999999,0,sub_13
-0.0442330000000001,0.0181240000000011,0.0402836,-0.0009089999999995,-0.0092347999999994,0.0068199999999999,0,sub_13
-0.0434360000000001,0.0173160000000011,0.0408088,0.0016418000000004,-0.0115865999999994,0.0066271999999999,0,sub_13
-0.0418326000000001,0.0171266000000011,0.0421402,0.0020792000000004,-0.0124933999999994,0.0074983999999999,0,sub_13
-0.0414890000000001,0.0176426000000012,0.0431168,0.0018930000000004,-0.0097759999999994,0.0083605999999999,0,sub_13
-0.0435714000000001,0.0183688000000012,0.0432564,0.0038500000000004,-0.0055719999999994,0.0085949999999999,0,sub_13
-0.0464942000000001,0.0202364000000012,0.0446442,0.0049584000000004,-0.0017853999999994,0.0073283999999999,0,sub_13
-0.0462128000000001,0.0204052000000012,0.0438148,0.0028508000000004,-0.0009717999999994,0.0064703999999999,0,sub_13
-0.0449076000000001,0.0188622000000012,0.0419503999999999,0.0013468000000004,-0.0028855999999994,0.0068897999999999,0,sub_13
-0.0426304000000001,0.0175774000000012,0.0397877999999999,0.0017534000000004,-0.0056635999999994,0.0086053999999999,0,sub_13
-0.0410292000000001,0.0171002000000011,0.0397613999999999,0.0043072000000004,-0.0056785999999994,0.0101187999999999,0,sub_13
-0.0398654000000001,0.0165418000000011,0.0399697999999999,0.0066746000000004,-0.0017053999999994,0.0105579999999999,0,sub_13
-0.0417634000000001,0.0169982000000011,0.0417175999999999,0.0088354000000004,0.0029110000000005,0.0101403999999999,0,sub_13
-0.0443016000000001,0.0180596000000011,0.0430657999999999,0.0092902000000004,0.0066854000000005,0.0086435999999999,0,sub_13
-0.0462308000000001,0.0192680000000012,0.0436605999999999,0.0084542000000004,0.0072718000000005,0.0062873999999999,0,sub_13
-0.0461486000000001,0.0196284000000012,0.0434904,0.0065390000000004,0.0059412000000005,0.0047805999999999,0,sub_13
-0.0454944000000001,0.0189744000000012,0.0431416,0.0041822000000004,0.0031822000000005,0.0041265999999998,0,sub_13
-0.0449044000000001,0.0191422000000012,0.0425208,0.0041774000000004,0.0014802000000005,0.0034877999999998,0,sub_13
-0.0441434000000001,0.0197184000000012,0.0430487999999999,0.0046126000000004,0.0021230000000005,0.0022079999999998,0,sub_13
-0.0437750000000001,0.0193864000000011,0.0433489999999999,0.0033350000000004,0.0048388000000005,0.0019637999999998,0,sub_13
-0.0424662000000001,0.0185582000000011,0.0413315999999999,0.0039730000000004,0.0062702000000005,0.0015209999999998,0,sub_13
-0.0410732000000001,0.0183630000000012,0.0402243999999999,0.0075772000000004,0.0051260000000005,0.0032387999999999,0,sub_13
-0.0391568000000001,0.0182686000000012,0.0412987999999999,0.0079760000000004,0.0039888000000005,0.0060021999999999,0,sub_13
-0.0387364000000001,0.0177092000000012,0.0409913999999999,0.0077396000000004,0.0037068000000005,0.0085465999999999,0,sub_13
-0.0397222000000001,0.0178340000000012,0.0400653999999999,0.0103040000000004,0.0047622000000005,0.0087767999999998,0,sub_13
-0.0416120000000001,0.0193590000000012,0.0422379999999999,0.0105212000000004,0.0051894000000005,0.0083503999999998,0,sub_13
-0.0424904000000001,0.0194446000000012,0.0422315999999999,0.0058396000000004,0.0060658000000005,0.0063937999999998,0,sub_13
-0.0421954000000001,0.0183520000000012,0.0387197999999999,0.0045470000000004,0.0047648000000005,0.0044327999999998,0,sub_13
-0.0411686000000001,0.0177222000000012,0.0380735999999999,0.0064386000000004,0.0013162000000005,0.0039921999999998,0,sub_13
-0.0392702000000001,0.0174702000000012,0.0390019999999999,0.0059840000000004,-0.0012745999999994,0.0041751999999998,0,sub_13
-0.0383712000000001,0.0170724000000012,0.0390803999999999,0.0049028000000004,-0.0008805999999994,0.0043499999999999,0,sub_13
-0.0407188000000001,0.0178104000000012,0.0402777999999999,0.0055410000000004,0.0018528000000005,0.0041063999999999,0,sub_13
-0.0437946000000001,0.0188722000000012,0.0420033999999999,0.0064184000000004,0.0056908000000005,0.0026121999999999,0,sub_13
-0.0460440000000001,0.0194648000000012,0.0422562,0.0038742000000004,0.0080484000000005,0.0013095999999999,0,sub_13
-0.0457926000000001,0.0181826000000012,0.0405619999999999,0.0021566000000004,0.0054986000000005,0.0010871999999999,0,sub_13
-0.0446738000000001,0.0177078000000012,0.0394597999999999,0.0016784000000004,-0.0011167999999994,0.0023353999999999,0,sub_13
-0.0422678000000001,0.0176388000000012,0.0385875999999999,0.0003476000000004,-0.0075161999999994,0.0035773999999999,0,sub_13
-0.0396968000000001,0.0184562000000012,0.0383375999999999,-0.0007533999999995,-0.0111431999999994,0.0039627999999998,0,sub_13
-0.0376408000000001,0.0191136000000012,0.0383961999999999,-0.0003445999999995,-0.0117901999999994,0.0037141999999998,0,sub_13
-0.0386128000000001,0.0204332000000012,0.0396311999999999,-0.0007767999999995,-0.0096645999999993,0.0034559999999998,0,sub_13
-0.0409542000000001,0.0191402000000012,0.0394471999999999,-0.0003385999999995,-0.0079581999999993,0.0026023999999999,0,sub_13
-0.0418708000000001,0.0179190000000011,0.0400671999999999,0.0020104000000004,-0.0081767999999993,0.0019781999999999,0,sub_13
-0.0436244000000001,0.0177840000000012,0.0415169999999999,0.0011530000000004,-0.0090259999999993,0.0019733999999999,0,sub_13
-0.0448280000000001,0.0178838000000012,0.0413649999999999,7.800000000049503e-05,-0.0077361999999993,0.0004245999999999,0,sub_13
-0.0459558000000001,0.0185788000000012,0.0419827999999999,0.0009262000000004,-0.0062383999999994,-0.0015384,0,sub_13
-0.0469624000000001,0.0204322000000011,0.0435973999999999,-0.0007793999999995,-0.0043011999999994,-0.004588,0,sub_13
-0.0474754000000001,0.0215622000000011,0.0432421999999999,-0.0052693999999995,-0.0049101999999994,-0.0078674,0,sub_13
-0.0454792000000001,0.0198912000000011,0.0401946,-0.0080713999999995,-0.0083007999999994,-0.009636,0,sub_13
-0.0429794000000001,0.0180406000000011,0.0387884,-0.0087469999999995,-0.0155447999999994,-0.0089906,0,sub_13
-0.0393488000000001,0.0171926000000011,0.0385568,-0.0092013999999995,-0.0204485999999994,-0.0077056,0,sub_13
-0.0358936000000001,0.0164018000000011,0.0381566,-0.0077163999999995,-0.0200371999999994,-0.0053456,0,sub_13
-0.0360714000000001,0.0160496000000012,0.0385309999999999,-0.0047403999999995,-0.0147361999999994,-0.0032348,0,sub_13
-0.0388318000000001,0.0168698000000012,0.0404425999999999,-0.0015509999999995,-0.0102847999999994,-0.001976,0,sub_13
-0.0420906000000001,0.0180504000000012,0.0417471999999999,-0.0019927999999995,-0.0073095999999994,-0.0013816,0,sub_13
-0.0451542000000001,0.0175186000000012,0.0404891999999999,-0.0035215999999995,-0.0083801999999994,-0.0003624,0,sub_13
-0.0460438000000001,0.0177482000000012,0.0390973999999999,-0.0042093999999995,-0.0124355999999994,0.0004527999999999,0,sub_13
-0.0440316000000001,0.0181180000000012,0.0388204,-0.0046677999999995,-0.0179793999999993,0.0019521999999999,0,sub_13
-0.0417462000000001,0.0185030000000012,0.0386376,-0.0055385999999995,-0.0205379999999993,0.0032311999999998,0,sub_13
-0.0405890000000001,0.0188254000000012,0.0386197999999999,-0.0051079999999995,-0.0196871999999994,0.0032329999999998,0,sub_13
-0.0401426000000001,0.0197030000000012,0.0393295999999999,-0.0044755999999995,-0.0162839999999994,0.0008439999999999,0,sub_13
-0.0405740000000001,0.0201622000000012,0.0404889999999999,-0.0057585999999995,-0.0120209999999993,-0.0017732,0,sub_13
-0.0416818000000001,0.0195436000000012,0.0404677999999999,-0.0079007999999995,-0.0086089999999993,-0.003968,0,sub_13
-0.0437722000000001,0.0195262000000012,0.0406979999999999,-0.0074893999999995,-0.0066973999999993,-0.006143,0,sub_13
-0.0453008000000001,0.0196276000000012,0.0418874,-0.0060119999999995,-0.0045779999999993,-0.0078834,0,sub_13
