userAcceleration.x,userAcceleration.y,userAcceleration.z,rotationRate.x,rotationRate.y,rotationRate.z,label,subject
0.0011319999999996,0.0048844000000012,-0.0068883999999999,-0.0276073999999994,0.2673064000000007,0.0508465999999998,0,sub_22
0.0051941999999995,0.0084382000000012,-0.0126513999999999,-0.0246383999999994,0.2628236000000007,0.0504457999999998,0,sub_22
0.0077241999999995,0.0098086000000012,-0.0157433999999999,-0.0192895999999994,0.2623934000000007,0.0468515999999999,0,sub_22
0.0050279999999995,0.0128502000000012,-0.0188421999999999,-0.0111659999999994,0.2596202000000007,0.0407161999999999,0,sub_22
0.0026823999999995,0.0143242000000012,-0.0211515999999999,-0.0053877999999994,0.2545226000000007,0.0317899999999999,0,sub_22
0.0009903999999996,0.0159952000000012,-0.0242705999999999,-0.0033965999999994,0.2577620000000007,0.0191947999999999,0,sub_22
-0.0018320000000003,0.0149142000000012,-0.0240385999999999,-0.0056497999999994,0.2676150000000007,0.0080567999999999,0,sub_22
-0.0044328000000003,0.0113320000000012,-0.0238969999999999,-0.0106901999999994,0.2715240000000007,-0.0060838,0,sub_22
-0.0026614000000003,0.0074172000000012,-0.0229403999999999,-0.0199721999999994,0.2803516000000007,-0.0211152,0,sub_22
-0.0018400000000003,0.0046612000000012,-0.0207663999999999,-0.0277519999999994,0.2923646000000007,-0.0348582,0,sub_22
-0.0002342000000003,0.0038946000000012,-0.0166443999999999,-0.0366435999999994,0.2977632000000006,-0.0451822,0,sub_22
0.0022581999999996,0.0050186000000012,-0.0127867999999999,-0.0468325999999994,0.3035752000000006,-0.0512428,0,sub_22
0.0043777999999996,0.0058774000000012,-0.0072477999999999,-0.0565979999999994,0.3159614000000007,-0.050045,0,sub_22
0.0037061999999996,0.0072826000000012,-0.0029061999999999,-0.0651079999999994,0.3276844000000007,-0.0439238,0,sub_22
0.0038435999999996,0.0081008000000012,0.0002832,-0.0734313999999994,0.3366242000000007,-0.034593,0,sub_22
0.0006899999999996,0.0069346000000012,0.0041002,-0.0774835999999994,0.3472500000000007,-0.02438,0,sub_22
-0.0028550000000003,0.0060630000000012,0.0109256,-0.0815599999999994,0.3480708000000007,-0.018007,0,sub_22
-0.0037658000000003,0.0063622000000012,0.0161652,-0.0869155999999994,0.3463506000000007,-0.0144172,0,sub_22
-0.0028502000000003,0.0068322000000012,0.0219556,-0.0937283999999994,0.3533682000000007,-0.0102076,0,sub_22
-0.0006734000000003,0.0095834000000012,0.0301644,-0.0992993999999993,0.3480396000000006,-0.0098192,0,sub_22
-0.0002506000000003,0.0141886000000012,0.0341728,-0.1039573999999994,0.3591004000000007,-0.0062408,0,sub_22
-0.0006930000000003,0.0163228000000012,0.029541,-0.1090333999999994,0.3752856000000007,-0.0001014,0,sub_22
-0.0061402000000003,0.0145608000000012,0.0293906,-0.1130519999999994,0.3889122000000006,0.0056215999999999,0,sub_22
-0.0044612000000003,0.0141292000000012,0.032441,-0.1175653999999994,0.3808352000000007,0.0047457999999999,0,sub_22
-0.0058192000000003,0.0107692000000012,0.030171,-0.1232525999999994,0.4053242000000007,0.0127931999999998,0,sub_22
-0.0040558000000003,0.0077010000000012,0.0277978,-0.1315645999999994,0.4125766000000007,0.0178533999999998,0,sub_22
-0.0017408000000003,0.0080336000000012,0.030284,-0.1360855999999994,0.4083126000000007,0.0225275999999998,0,sub_22
0.0060415999999996,0.0115156000000012,0.0295078,-0.1421155999999994,0.4008570000000008,0.0274087999999998,0,sub_22
0.0056857999999996,0.0128846000000012,0.0257536,-0.1481015999999994,0.4112656000000007,0.0403859999999998,0,sub_22
0.0068525999999996,0.0135822000000012,0.0229724,-0.1503243999999994,0.3993104000000007,0.0482905999999998,0,sub_22
0.0055253999999996,0.0144052000000012,0.0251754,-0.1465957999999994,0.3786138000000007,0.0526159999999999,0,sub_22
0.0034211999999996,0.0136856000000012,0.0244614,-0.1421791999999994,0.3651724000000007,0.0535185999999998,0,sub_22
-0.0108398000000003,0.0140902000000012,0.0212126,-0.1361103999999994,0.3319418000000007,0.0467669999999998,0,sub_22
-0.0055638000000003,0.0155132000000012,0.0256695999999999,-0.1330363999999994,0.2866192000000007,0.0295413999999998,0,sub_22
0.0038807999999996,0.0153518000000012,0.0270417999999999,-0.1348009999999994,0.2619588000000007,0.0175965999999998,0,sub_22
0.0120839999999996,0.0125746000000012,0.0245787999999999,-0.1369951999999994,0.2468464000000007,0.0158915999999999,0,sub_22
0.0173455999999996,0.0089528000000012,0.0264952,-0.1411759999999994,0.2187376000000007,0.0158983999999999,0,sub_22
0.0338407999999995,0.0083462000000012,0.0292605999999999,-0.1453219999999994,0.2042404000000007,0.0218699999999999,0,sub_22
0.0311091999999995,0.0088988000000012,0.0230033999999999,-0.1390367999999994,0.1937172000000007,0.0373097999999999,0,sub_22
0.0198191999999995,0.0114676000000012,0.0189283999999999,-0.1257783999999994,0.1604034000000007,0.0451361999999999,0,sub_22
0.0111945999999995,0.0125560000000012,0.0175719999999999,-0.1116615999999994,0.1194514000000007,0.0442189999999999,0,sub_22
0.0055549999999995,0.0145650000000012,0.0156921999999999,-0.0966117999999994,0.0955432000000007,0.0426455999999999,0,sub_22
-0.0007794000000003,0.0135220000000012,0.0148594,-0.0782981999999994,0.0850488000000007,0.0404367999999999,0,sub_22
-0.0054404000000003,0.0130582000000012,0.0156356,-0.0646643999999994,0.0739470000000007,0.0343503999999999,0,sub_22
-0.0057682000000003,0.0138086000000012,0.0215122,-0.0540119999999994,0.0656194000000007,0.0297353999999999,0,sub_22
-0.0067756000000003,0.0151572000000012,0.0256452,-0.0491035999999994,0.0617836000000007,0.0257153999999999,0,sub_22
-0.0067606000000003,0.0147070000000012,0.0278266,-0.0476443999999994,0.0505012000000007,0.0221081999999999,0,sub_22
-0.0073554000000003,0.0142622000000012,0.0314186,-0.0470887999999994,0.0285672000000007,0.0189355999999999,0,sub_22
-0.0099296000000003,0.0131736000000012,0.0345458,-0.0465215999999994,0.0083412000000007,0.0149063999999999,0,sub_22
-0.0119980000000003,0.0109296000000012,0.0346294,-0.0491405999999994,-0.0086779999999992,0.0108505999999999,0,sub_22
-0.0132292000000003,0.0093526000000012,0.0362217999999999,-0.0496295999999994,-0.0261323999999992,0.0072375999999999,0,sub_22
-0.0144356000000003,0.0082332000000012,0.0370705999999999,-0.0464463999999994,-0.0323127999999992,0.0049175999999999,0,sub_22
-0.0148522000000003,0.0060872000000012,0.0331839999999999,-0.0394135999999994,-0.0327693999999992,0.0064627999999999,0,sub_22
-0.0147510000000003,0.0025552000000012,0.0317387999999999,-0.0285333999999994,-0.0287773999999992,0.0110201999999998,0,sub_22
-0.0140054000000003,0.0068816000000012,0.0246603999999999,-0.0131753999999994,-0.0250155999999992,0.0160363999999998,0,sub_22
-0.0123466000000003,0.0117890000000012,0.0199063999999999,0.0083320000000005,-0.0274633999999992,0.0234535999999998,0,sub_22
-0.0124246000000003,0.0145626000000012,0.0168076,0.0310900000000004,-0.0358837999999992,0.0315281999999998,0,sub_22
-0.0143218000000003,0.0164056000000012,0.017481,0.0491624000000004,-0.0472509999999992,0.0346599999999998,0,sub_22
-0.0149214000000003,0.0211778000000012,0.0135794,0.0602116000000005,-0.0594261999999992,0.0328299999999998,0,sub_22
-0.0161150000000003,0.0181800000000012,0.0180902,0.0644206000000005,-0.0771057999999992,0.0281819999999998,0,sub_22
-0.0172430000000003,0.0162870000000012,0.0195934,0.0592988000000005,-0.0849401999999992,0.0204649999999999,0,sub_22
-0.0180168000000003,0.0173072000000012,0.0168862,0.0520692000000005,-0.0882879999999992,0.0114455999999999,0,sub_22
-0.0174750000000003,0.0196334000000012,0.0135444,0.0465320000000005,-0.0927153999999992,0.0045759999999999,0,sub_22
-0.0182458000000003,0.0177018000000012,0.0137178,0.0435458000000005,-0.0969479999999992,7.399999999991112e-05,0,sub_22
-0.0180300000000003,0.0160864000000012,0.0118786,0.0439974000000005,-0.0935321999999992,-0.0020636,0,sub_22
-0.0173362000000003,0.0133964000000012,0.012572,0.0438012000000005,-0.0894843999999992,-0.0018564,0,sub_22
-0.0155354000000003,0.0111492000000012,0.014077,0.0391174000000005,-0.0852145999999992,2.8399999999911132e-05,0,sub_22
-0.0132404000000003,0.0108430000000012,0.0157186,0.0323210000000005,-0.0783937999999992,0.0025271999999999,0,sub_22
-0.0108168000000003,0.0113672000000012,0.0158205999999999,0.0278678000000005,-0.0711601999999992,0.0063235999999999,0,sub_22
-0.0105268000000003,0.0100354000000012,0.0148597999999999,0.0219144000000005,-0.0668981999999992,0.0086177999999999,0,sub_22
-0.0106518000000003,0.0101740000000012,0.0123999999999999,0.0202188000000005,-0.0679645999999992,0.0077439999999999,0,sub_22
-0.0111472000000003,0.0104802000000012,0.0110292,0.0240632000000005,-0.0724523999999992,0.0052039999999999,0,sub_22
-0.0097052000000003,0.0105686000000012,0.0099162,0.0261758000000005,-0.0794811999999992,0.0028775999999999,0,sub_22
-0.0110818000000003,0.0099268000000012,0.0097912,0.0263882000000005,-0.0807559999999992,0.0018125999999999,0,sub_22
-0.0125652000000003,0.0109552000000012,0.0093156,0.0270370000000005,-0.0779919999999992,0.0026681999999999,0,sub_22
-0.0131366000000003,0.0105942000000012,0.0077824,0.0249042000000005,-0.0756493999999992,0.0047867999999999,0,sub_22
-0.0122340000000003,0.0096320000000012,0.0078848,0.0210788000000005,-0.0709537999999992,0.0060359999999999,0,sub_22
-0.0117960000000003,0.0094412000000012,0.0069,0.0213556000000005,-0.0558319999999992,0.0070867999999999,0,sub_22
-0.0118836000000003,0.0098358000000012,0.0051668,0.0224570000000005,-0.0468925999999992,0.0083647999999999,0,sub_22
-0.0119836000000003,0.0090324000000012,0.0073306,0.0241562000000005,-0.0479661999999992,0.0090189999999999,0,sub_22
-0.0132928000000003,0.0087012000000012,0.0087205999999999,0.0267608000000005,-0.0381747999999992,0.0090245999999999,0,sub_22
-0.0137780000000003,0.0102080000000012,0.0086241999999999,0.0272298000000005,-0.0281653999999992,0.0096559999999998,0,sub_22
-0.0174260000000003,0.0101970000000012,0.0083181999999999,0.0259724000000005,-0.0234721999999992,0.0092139999999998,0,sub_22
-0.0182842000000003,0.0103348000000012,0.0089486,0.0281454000000005,-0.0183519999999992,0.0055907999999998,0,sub_22
-0.0183636000000003,0.0107790000000012,0.0060028,0.0299196000000005,-0.0083249999999992,0.0006763999999998,0,sub_22
-0.0175436000000003,0.0113260000000012,0.003897,0.0312440000000005,-0.0027729999999992,-0.0035944000000001,0,sub_22
-0.0192960000000003,0.0111732000000012,0.0014536,0.0345022000000005,0.0055428000000007,-0.0080688,0,sub_22
-0.0192972000000003,0.0098946000000012,0.0007614,0.0373058000000005,0.0072572000000007,-0.0129652,0,sub_22
-0.0167916000000003,0.0088608000000012,0.0035424,0.0368916000000005,0.0070576000000007,-0.015959,0,sub_22
-0.0142458000000003,0.0098128000000012,0.0036594,0.0356334000000005,0.0117502000000007,-0.0161874,0,sub_22
-0.0129644000000003,0.0103354000000012,0.0035836,0.0341360000000005,0.0117520000000007,-0.0153432,0,sub_22
-0.0118924000000003,0.0099162000000012,0.0070968,0.0321848000000005,0.0062142000000007,-0.014068,0,sub_22
-0.0115924000000003,0.0097510000000012,0.0095596,0.0296158000000004,0.0062156000000007,-0.0121632,0,sub_22
-0.0127422000000003,0.0104226000000012,0.0065014,0.0240710000000004,0.0087840000000007,-0.0102824,0,sub_22
-0.0132168000000003,0.0107436000000012,0.0064828,0.0187204000000004,0.0056050000000007,-0.0098884,0,sub_22
-0.0142906000000003,0.0103754000000012,0.0079252,0.0155082000000004,0.0011498000000007,-0.011828,0,sub_22
-0.0142064000000003,0.0110078000000012,0.0079197999999999,0.0123068000000004,-0.0030839999999992,-0.0159042,0,sub_22
-0.0138918000000003,0.0121112000000012,0.0074875999999999,0.0099596000000005,-0.0071077999999992,-0.0199746,0,sub_22
-0.0134212000000003,0.0119676000000012,0.0083373999999999,0.0099442000000005,-0.0128509999999992,-0.0223174,0,sub_22
-0.0135790000000003,0.0093720000000012,0.0109029999999999,0.0101460000000005,-0.0158327999999992,-0.0227394,0,sub_22
-0.0114278000000003,0.0085982000000012,0.0126957999999999,0.0058728000000005,-0.0134887999999992,-0.0191402,0,sub_22
-0.0093754000000003,0.0083376000000012,0.01273,-0.0001275999999994,-0.0107321999999992,-0.0106398,0,sub_22
-0.0095816000000003,0.0091408000000012,0.0113152,-0.0016547999999994,-0.0094835999999992,-0.0018928000000001,0,sub_22
-0.0103182000000003,0.0092516000000012,0.0110526,7.200000000532475e-06,-0.0144101999999992,0.0032525999999998,0,sub_22
-0.0107610000000003,0.0108836000000012,0.0096344,-0.0004617999999994,-0.0214487999999992,0.0056083999999998,0,sub_22
-0.0122276000000003,0.0120812000000012,0.0106422,0.0022900000000005,-0.0267831999999992,0.0052071999999998,0,sub_22
-0.0149902000000003,0.0111936000000012,0.0106164,0.0095408000000005,-0.0310559999999992,0.0018449999999998,0,sub_22
-0.0143578000000003,0.0095610000000012,0.0129152,0.0105752000000005,-0.0410619999999992,-0.0009122,0,sub_22
-0.0134650000000003,0.0102144000000012,0.013317,0.0075774000000005,-0.0419095999999992,0.0005633999999999,0,sub_22
-0.0139412000000003,0.0102162000000012,0.0144736,0.0088442000000005,-0.0421381999999992,0.0033499999999999,0,sub_22
-0.0144436000000003,0.0099978000000012,0.011955,0.0094536000000005,-0.0468359999999992,0.0054965999999999,0,sub_22
-0.0140644000000003,0.0113582000000012,0.0117924,0.0090020000000005,-0.0515251999999992,0.0063539999999999,0,sub_22
-0.0144620000000003,0.0127100000000012,0.0112786,0.0096468000000005,-0.0517353999999992,0.0050767999999999,0,sub_22
-0.0152476000000003,0.0126458000000012,0.0108986,0.0092278000000005,-0.0549101999999992,0.0001641999999999,0,sub_22
-0.0149004000000003,0.0138170000000012,0.0082426,0.0066674000000005,-0.0608427999999992,-0.0058282,0,sub_22
-0.0129706000000003,0.0137054000000012,0.0100838,0.0062512000000005,-0.0644627999999992,-0.010542,0,sub_22
-0.0115582000000003,0.0124764000000012,0.0101916,0.0028572000000005,-0.0638195999999992,-0.0131456,0,sub_22
-0.0111676000000003,0.0118712000000012,0.0097986,-0.0016073999999994,-0.0621151999999992,-0.0138352,0,sub_22
-0.0106628000000003,0.0108260000000012,0.0096568,-0.0045947999999994,-0.0606459999999992,-0.0141018,0,sub_22
-0.0101356000000003,0.0096764000000012,0.0122406,-0.0056541999999994,-0.0566301999999992,-0.0135036,0,sub_22
-0.0108502000000003,0.0097620000000012,0.0103914,-0.0086367999999994,-0.0515259999999992,-0.0124776,0,sub_22
-0.0115622000000003,0.0104238000000012,0.0082098,-0.0101323999999994,-0.0487671999999992,-0.0122928,0,sub_22
-0.0109494000000003,0.0105118000000012,0.007084,-0.0097105999999994,-0.0468663999999992,-0.0123072,0,sub_22
-0.0103636000000003,0.0119506000000012,0.0080884,-0.0090475999999994,-0.0409063999999992,-0.0114556,0,sub_22
-0.0103742000000003,0.0123382000000012,0.0078128,-0.0113659999999994,-0.0345065999999992,-0.01148,0,sub_22
-0.0108004000000003,0.0117188000000012,0.0074602,-0.0106971999999994,-0.0289659999999992,-0.012337,0,sub_22
-0.0109440000000003,0.0106912000000012,0.0105578,-0.0081117999999994,-0.0236477999999992,-0.0125394,0,sub_22
-0.0107900000000003,0.0103702000000012,0.0128634,-0.0084923999999994,-0.0129953999999993,-0.0121284,0,sub_22
-0.0107196000000003,0.0099642000000012,0.012654,-0.0101657999999994,-0.0040471999999992,-0.0106562,0,sub_22
-0.0114414000000003,0.0104476000000012,0.0137476,-0.0084405999999994,0.0010558000000007,-0.0095826,0,sub_22
-0.0113618000000003,0.0103712000000012,0.016707,-0.0088519999999994,0.0042540000000007,-0.0098032,0,sub_22
-0.0109056000000003,0.0106542000000012,0.0168468,-0.0101119999999994,0.0083082000000006,-0.0102444,0,sub_22
-0.0112098000000003,0.0113362000000012,0.0160352,-0.0096775999999994,0.0089502000000007,-0.0113104,0,sub_22
-0.0111778000000003,0.0111866000000012,0.0162608,-0.0083991999999994,0.0070342000000007,-0.0127944,0,sub_22
-0.0099614000000003,0.0109520000000012,0.0158996,-0.0090219999999994,0.0110836000000007,-0.0125902,0,sub_22
-0.0096552000000003,0.0126580000000012,0.0136618,-0.0109269999999994,0.0149236000000007,-0.0121812,0,sub_22
-0.0099120000000003,0.0136284000000012,0.0129962,-0.0122043999999994,0.0155672000000007,-0.012191,0,sub_22
-0.0101494000000003,0.0128770000000012,0.0137004,-0.0128445999999994,0.0149328000000007,-0.0128356,0,sub_22
-0.0104174000000003,0.0127890000000012,0.013835,-0.0136895999999994,0.0155800000000007,-0.0141242,0,sub_22
-0.0106032000000003,0.0129904000000012,0.0145056,-0.0145535999999994,0.0106930000000007,-0.0166878,0,sub_22
-0.0107578000000003,0.0129074000000012,0.0169646,-0.0143401999999994,0.0094190000000007,-0.0179666,0,sub_22
-0.0115484000000003,0.0129050000000012,0.0181796,-0.0145401999999994,0.0113416000000007,-0.0190386,0,sub_22
-0.0121214000000003,0.0130006000000012,0.018819,-0.0164509999999994,0.0130544000000007,-0.0194814,0,sub_22
-0.0118864000000003,0.0123426000000012,0.0186476,-0.0202857999999994,0.0151950000000007,-0.0186564,0,sub_22
-0.0122080000000003,0.0110924000000012,0.0185916,-0.0230309999999994,0.0243548000000007,-0.0159098,0,sub_22
-0.0146610000000003,0.0085640000000012,0.0184706,-0.0240757999999994,0.0315930000000007,-0.0135762,0,sub_22
-0.0137752000000003,0.0075298000000012,0.015066,-0.0251195999999994,0.0371344000000007,-0.0131634,0,sub_22
-0.0114380000000003,0.0075382000000012,0.012647,-0.0210491999999994,0.0420154000000007,-0.0118594,0,sub_22
-0.0099578000000003,0.0086822000000012,0.0129192,-0.0165531999999994,0.0462574000000007,-0.0109788,0,sub_22
-0.0084340000000003,0.0093586000000012,0.0123566,-0.0139993999999994,0.0453938000000007,-0.010319,0,sub_22
-0.0052762000000003,0.0120364000000012,0.0093974,-0.0133783999999994,0.0417670000000007,-0.009669,0,sub_22
-0.0045810000000003,0.0129858000000012,0.0109924,-0.0125623999999994,0.0345160000000007,-0.0085858,0,sub_22
-0.0054768000000003,0.0131144000000012,0.0106372,-0.0145143999999994,0.0266432000000007,-0.009444,0,sub_22
-0.0062738000000003,0.0123108000000012,0.008581,-0.0149755999999994,0.0162162000000007,-0.0122114,0,sub_22
-0.0063992000000003,0.0118214000000012,0.006955,-0.0132925999999994,0.0081252000000007,-0.0149666,0,sub_22
-0.0063194000000003,0.0097904000000012,0.0077698,-0.0122353999999994,0.0042934000000007,-0.0166636,0,sub_22
-0.0059362000000003,0.0094190000000012,0.0062316,-0.0113951999999994,0.0013076000000007,-0.0166538,0,sub_22
-0.0056278000000003,0.0101834000000012,0.0057776,-0.0103339999999994,0.0006620000000007,-0.0160046,0,sub_22
-0.0052762000000003,0.0110678000000012,0.0053652,-0.0096957999999994,0.0027800000000007,-0.013439,0,sub_22
-0.0058956000000003,0.0108070000000012,0.0050144,-0.0105549999999994,0.0034146000000006,-0.011523,0,sub_22
-0.0059026000000003,0.0119114000000012,0.0049706,-0.0107769999999994,0.0027710000000006,-0.0102418,0,sub_22
-0.0063910000000003,0.0121098000000012,0.0055114,-0.0126897999999994,0.0049066000000006,-0.0098306,0,sub_22
-0.0062214000000003,0.0127752000000012,0.0052788,-0.0167573999999994,0.0017260000000007,-0.0100686,0,sub_22
-0.0061420000000003,0.0127024000000012,0.0068112,-0.0206249999999994,-0.0061357999999992,-0.0120084,0,sub_22
-0.0050898000000003,0.0133282000000012,0.0067434,-0.0261813999999994,-0.0114291999999992,-0.0154588,0,sub_22
-0.0054474000000003,0.0134708000000012,0.0043826,-0.0308937999999994,-0.0197047999999992,-0.019754,0,sub_22
-0.0051310000000003,0.0133436000000012,0.003207,-0.0332763999999994,-0.0320357999999992,-0.0242414,0,sub_22
-0.0056032000000003,0.0115426000000012,0.003021,-0.0335087999999994,-0.0392669999999992,-0.0272248,0,sub_22
-0.0050190000000003,0.0115408000000012,0.002381,-0.0341477999999994,-0.0413859999999992,-0.0295766,0,sub_22
-0.0072624000000003,0.0113400000000012,0.003395,-0.0313645999999994,-0.0431057999999992,-0.030629,0,sub_22
-0.0078540000000003,0.0092646000000012,0.0061374,-0.0296625999999994,-0.0486541999999992,-0.032325,0,sub_22
-0.0066332000000003,0.0072156000000012,0.0091416,-0.0317917999999994,-0.0497243999999992,-0.0317036,0,sub_22
-0.0044652000000003,0.0091714000000012,0.0123654,-0.0360491999999994,-0.0514163999999992,-0.0317272,0,sub_22
-0.0037262000000003,0.0098110000000012,0.0157022,-0.0383977999999994,-0.0548229999999992,-0.0308808,0,sub_22
-0.0018946000000003,0.0099794000000012,0.0171132,-0.0422645999999994,-0.0605597999999992,-0.0296088,0,sub_22
-0.0011064000000003,0.0102724000000012,0.0166508,-0.0473781999999994,-0.0567131999999992,-0.0262214,0,sub_22
-0.0022508000000003,0.0103044000000012,0.0150326,-0.0484375999999994,-0.0535173999999992,-0.0234458,0,sub_22
-0.0021998000000003,0.0066168000000012,0.016266,-0.0463087999999994,-0.0511949999999992,-0.0200156,0,sub_22
-0.0024056000000003,0.0047654000000012,0.0146552,-0.0456581999999994,-0.0460949999999992,-0.0172402,0,sub_22
-0.0027766000000003,0.0053418000000012,0.0118084,-0.0409533999999994,-0.0418579999999992,-0.01529,0,sub_22
-0.0030500000000003,0.0069058000000012,0.0114478,-0.0323601999999994,-0.0427391999999992,-0.0155774,0,sub_22
-0.0027480000000003,0.0090860000000012,0.0122974,-0.0258891999999994,-0.0410563999999992,-0.0158828,0,sub_22
-0.0041092000000003,0.0112354000000012,0.0094608,-0.0236789999999994,-0.0382915999999992,-0.0166468,0,sub_22
-0.0055224000000003,0.0135062000000012,0.0085654,-0.0217107999999994,-0.0425541999999992,-0.0180444,0,sub_22
-0.0049540000000003,0.0142182000000012,0.0132116,-0.0237977999999994,-0.0461667999999992,-0.0186166,0,sub_22
-0.0049234000000003,0.0147726000000012,0.0170988,-0.0276191999999994,-0.0399823999999992,-0.0167284,0,sub_22
-0.0094136000000003,0.0140520000000012,0.0159596,-0.0284649999999994,-0.0378505999999992,-0.0163098,0,sub_22
-0.0141314000000003,0.0140844000000012,0.0169186,-0.0248395999999994,-0.0391381999999992,-0.0171374,0,sub_22
-0.0180626000000003,0.0133614000000012,0.0185846,-0.0201367999999994,-0.0374493999999992,-0.0173204,0,sub_22
-0.0212584000000003,0.0134216000000012,0.0175196,-0.0149957999999994,-0.0336297999999992,-0.0179304,0,sub_22
-0.0236214000000003,0.0141512000000012,0.0176428,-0.0092405999999994,-0.0362015999999992,-0.0191688,0,sub_22
-0.0241320000000003,0.0145360000000012,0.0203396,-0.0068877999999994,-0.0357801999999992,-0.0200074,0,sub_22
-0.0237024000000003,0.0127482000000012,0.0210036,-0.0064007999999994,-0.0332493999999992,-0.0206,0,sub_22
-0.0227196000000003,0.0115404000000012,0.0200444,-0.0069587999999994,-0.0266635999999992,-0.0220596,0,sub_22
-0.0222732000000003,0.0094390000000012,0.0203116,-0.0068975999999994,-0.0237061999999992,-0.022442,0,sub_22
-0.0229510000000003,0.0055774000000012,0.0194514,-0.0087751999999994,-0.0245777999999992,-0.0226194,0,sub_22
-0.0221736000000003,0.0021192000000012,0.0209666,-0.0093953999999994,-0.0299305999999992,-0.0221414,0,sub_22
-0.0211706000000003,0.0024526000000012,0.021468,-0.0100557999999994,-0.0329171999999992,-0.0206466,0,sub_22
-0.0210362000000003,0.0052744000000012,0.0241114,-0.0094501999999994,-0.0371941999999992,-0.0172186,0,sub_22
-0.0213900000000003,0.0098078000000012,0.0245826,-0.0103113999999994,-0.0359247999999992,-0.0142352,0,sub_22
