userAcceleration.x,userAcceleration.y,userAcceleration.z,rotationRate.x,rotationRate.y,rotationRate.z,label,subject
-0.0038616000000002,0.0121418000000012,0.0071363999999999,0.0198062000000006,-0.210394399999999,0.0519836,0,sub_24
-0.0013904000000002,0.0115338000000012,0.0060787999999999,0.0176994000000006,-0.206563599999999,0.0485462,0,sub_24
-0.0012898000000002,0.0106232000000012,0.0066615999999999,0.0187690000000005,-0.206796799999999,0.0464182,0,sub_24
-0.0016286000000002,0.0125022000000012,0.0065137999999999,0.0179442000000005,-0.204857599999999,0.0417094,0,sub_24
-0.0021418000000002,0.0165744000000012,0.0070789999999999,0.0094564000000005,-0.2022385999999991,0.033528,0,sub_24
-0.0006662000000002,0.0176380000000012,0.0077667999999999,-0.0011597999999993,-0.2004557999999991,0.0231966,0,sub_24
0.0006197999999997,0.0157914000000012,0.0058543999999999,-0.0108915999999993,-0.1937913999999991,0.0100912,0,sub_24
0.0029135999999997,0.0119786000000012,0.0012839999999999,-0.0191245999999993,-0.187340399999999,-0.0042853999999999,0,sub_24
0.0061991999999997,0.0074546000000012,-0.003797,-0.0211977999999993,-0.183482799999999,-0.0147693999999999,0,sub_24
0.0093961999999996,0.0025552000000012,-0.0090724,-0.0138801999999993,-0.171804799999999,-0.0177199999999999,0,sub_24
0.0107115999999996,0.0006254000000012,-0.0134308,-0.0042225999999994,-0.155261199999999,-0.0140373999999999,0,sub_24
0.0122381999999996,0.0011164000000012,-0.0143228,0.0034468000000005,-0.148084799999999,-0.0037369999999999,0,sub_24
0.0134653999999996,0.0011926000000012,-0.0143832,0.0106464000000005,-0.146250199999999,0.0108402,0,sub_24
0.0132937999999996,0.0008310000000012,-0.0120066,0.0176486000000005,-0.1420661999999991,0.0241307999999999,0,sub_24
0.0157667999999997,0.0025212000000012,-0.0071114,0.0216736000000005,-0.139790999999999,0.0324937999999999,0,sub_24
0.0183715999999997,0.0044908000000012,-0.0022326,0.0248302000000005,-0.143254999999999,0.0382946,0,sub_24
0.0185065999999997,0.0059400000000012,0.0013795999999999,0.0267462000000005,-0.1403125999999991,0.0415152,0,sub_24
0.0173609999999997,0.0074014000000012,0.0053409999999999,0.0265876000000005,-0.1262753999999991,0.0425704,0,sub_24
0.0171097999999997,0.0088218000000012,0.0082045999999999,0.0236806000000005,-0.107749399999999,0.042319,0,sub_24
0.0141267999999997,0.0079940000000012,0.0094597999999999,0.0216068000000006,-0.0947425999999991,0.0416486,0,sub_24
0.0079603999999997,0.0061826000000012,0.0100313999999999,0.0197542000000005,-0.0819419999999991,0.0390566,0,sub_24
0.0016585999999997,0.0051530000000012,0.0083817999999999,0.0170616000000006,-0.0665801999999991,0.0360274,0,sub_24
-0.0039870000000002,0.0047576000000011,0.0033785999999999,0.0162488000000006,-0.0597499999999991,0.0336625999999999,0,sub_24
-0.0096936000000002,0.0052842000000011,-0.0028228,0.0192228000000006,-0.0650771999999991,0.0313391999999999,0,sub_24
-0.0152800000000002,0.0064212000000011,-0.0088056,0.0241188000000006,-0.0710471999999991,0.0281747999999999,0,sub_24
-0.0172218000000002,0.0081554000000011,-0.014128,0.0296592000000005,-0.075742799999999,0.0254405999999999,0,sub_24
-0.0153102000000002,0.0106610000000012,-0.0159742,0.0362448000000006,-0.085342399999999,0.02272,0,sub_24
-0.0130186000000002,0.0127282000000012,-0.0128942,0.0402982000000005,-0.089390199999999,0.0191202,0,sub_24
-0.0115914000000002,0.0138180000000012,-0.0042182,0.0358852000000006,-0.080190399999999,0.0133082,0,sub_24
-0.0097746000000002,0.0153960000000012,0.0037255999999999,0.0244538000000006,-0.067761599999999,0.0053068,0,sub_24
-0.0088114000000002,0.0166020000000012,0.0086411999999999,0.0102538000000006,-0.056378999999999,-0.0050629999999999,0,sub_24
-0.0093728000000002,0.0170244000000012,0.0109267999999998,-0.0047597999999993,-0.039228199999999,-0.0186503999999999,0,sub_24
-0.0090184000000002,0.0173200000000012,0.0107321999999999,-0.0189103999999993,-0.020586399999999,-0.0328745999999999,0,sub_24
-0.0071788000000002,0.0157340000000012,0.0054519999999999,-0.0262615999999993,-0.005601399999999,-0.0442693999999999,0,sub_24
-0.0041374000000002,0.0123596000000012,-0.000699,-0.0297933999999993,0.0095628000000009,-0.0505097999999999,0,sub_24
-0.0002430000000002,0.0092892000000012,-0.0042136,-0.0307845999999993,0.0253368000000008,-0.0516053999999999,0,sub_24
0.0032187999999997,0.0086716000000012,-0.0036972,-0.0307509999999993,0.0344914000000008,-0.0499075999999999,0,sub_24
0.0045097999999997,0.0036398000000012,-0.0018084,-0.0281567999999993,0.0440614000000008,-0.0477647999999999,0,sub_24
0.0066559999999997,0.0048660000000012,-0.001719,-0.0276583999999993,0.0602512000000008,-0.0475677999999999,0,sub_24
0.0076401999999997,0.0048160000000012,0.0004935999999999,-0.0275665999999993,0.0798558000000008,-0.0484461999999999,0,sub_24
0.0067975999999996,0.0052148000000012,0.0019913999999999,-0.0279379999999993,0.0909414000000008,-0.0497439999999999,0,sub_24
0.0023947999999996,0.0028532000000012,-0.0016474,-0.0263887999999993,0.1030812000000008,-0.0499619999999999,0,sub_24
-0.0009794000000003,0.0058350000000012,-0.0060294,-0.0261253999999993,0.1139472000000008,-0.0501877999999999,0,sub_24
-0.0043782000000003,0.0034652000000012,-0.0073626,-0.0248387999999993,0.1156456000000009,-0.0497537999999999,0,sub_24
-0.0078602000000003,0.0041106000000012,-0.0090722,-0.0231579999999993,0.1098864000000009,-0.0495215999999999,0,sub_24
-0.0103900000000002,0.0051342000000012,-0.0108052,-0.0212205999999993,0.1137138000000009,-0.0493003999999999,0,sub_24
-0.0097674000000002,0.0061872000000012,-0.0105662,-0.0205395999999993,0.1243574000000008,-0.0476011999999999,0,sub_24
-0.0103916000000002,0.0063442000000012,-0.0104512,-0.0198869999999993,0.1303070000000008,-0.0441871999999999,0,sub_24
-0.0129070000000002,0.0073854000000012,-0.0106298,-0.0203145999999993,0.1334898000000008,-0.0405639999999999,0,sub_24
-0.0150958000000002,0.0078280000000012,-0.0114164,-0.0207449999999993,0.1339114000000008,-0.0390735999999999,0,sub_24
-0.0163284000000002,0.0074264000000012,-0.0107218,-0.0205581999999993,0.1277320000000008,-0.0390659999999999,0,sub_24
-0.0162436000000002,0.0076608000000012,-0.009735,-0.0214555999999993,0.1164482000000008,-0.0403415999999999,0,sub_24
-0.0149364000000002,0.0092838000000012,-0.0089872,-0.0257471999999993,0.1096504000000009,-0.0416461999999999,0,sub_24
-0.0136582000000002,0.0101370000000012,-0.0099106,-0.0347349999999993,0.1022306000000008,-0.0431961999999999,0,sub_24
-0.0127512000000002,0.0102694000000012,-0.0101824,-0.0434757999999993,0.1031158000000009,-0.0439007999999999,0,sub_24
-0.0120562000000002,0.0099108000000012,-0.0092312,-0.0504685999999993,0.1114588000000009,-0.0463115999999999,0,sub_24
-0.0098672000000002,0.0098760000000012,-0.00833,-0.0564003999999993,0.1180954000000009,-0.0491397999999999,0,sub_24
-0.0062278000000002,0.0046482000000012,-0.0057278,-0.0597871999999993,0.1223752000000009,-0.0508787999999999,0,sub_24
-0.0040362000000002,0.0076574000000012,-0.0069818,-0.0577981999999993,0.1360100000000009,-0.0523783999999999,0,sub_24
-0.0007726000000003,0.0116676000000011,-0.0081848,-0.0613645999999993,0.1452012000000009,-0.0566879999999999,0,sub_24
1.1399999999685969e-05,0.0108522000000011,-0.0072202,-0.0667117999999993,0.1407518000000009,-0.0582151999999999,0,sub_24
-0.0008006000000003,0.0074684000000011,-0.006201,-0.0636567999999993,0.1499258000000009,-0.0639739999999999,0,sub_24
0.0002449999999996,0.0114170000000011,-0.008335,-0.0656823999999993,0.1674294000000009,-0.0704197999999999,0,sub_24
0.0060875999999996,0.0056036000000012,-0.0024838,-0.0724065999999993,0.1845216000000009,-0.0764699999999999,0,sub_24
0.0086403999999996,0.0005118000000012,0.0020859999999999,-0.0678713999999993,0.1943160000000008,-0.0787999999999999,0,sub_24
0.0081553999999996,0.0028456000000012,-0.000856,-0.0639491999999993,0.2107150000000008,-0.0805017999999999,0,sub_24
0.0065117999999997,0.0047224000000012,-0.0034032,-0.0711485999999993,0.2252010000000008,-0.0788565999999999,0,sub_24
0.0026261999999997,0.0062908000000012,-0.001424,-0.0691835999999993,0.2332796000000009,-0.0811987999999999,0,sub_24
-0.0012928000000002,0.0061778000000012,-0.0033562,-0.0676959999999993,0.2332508000000008,-0.0803297999999999,0,sub_24
-0.0045070000000002,0.0058516000000012,-0.0032748,-0.0659661999999993,0.2425836000000008,-0.0764803999999999,0,sub_24
-0.0026320000000002,0.0033844000000012,-0.0015858,-0.0620759999999993,0.2561766000000009,-0.0743303999999999,0,sub_24
-0.0008404000000002,0.0012454000000012,-0.0002326,-0.0552777999999993,0.2544288000000009,-0.0693667999999999,0,sub_24
-0.0008082000000002,-0.0035215999999987,-0.0014596,-0.0491579999999993,0.2509516000000009,-0.0575691999999999,0,sub_24
-0.0035578000000002,-0.0027989999999987,-0.0015266,-0.0349241999999993,0.2495732000000008,-0.0448631999999999,0,sub_24
-0.0036580000000002,-0.0029677999999987,-0.0033406,-0.0239031999999993,0.2424654000000008,-0.0351633999999999,0,sub_24
-0.0038388000000002,-0.0015213999999988,-0.0024848,-0.0127053999999993,0.2278974000000008,-0.0248117999999999,0,sub_24
-0.0043516000000002,0.0023688000000011,-0.0010966,-0.0025591999999993,0.2141956000000008,-0.0170325999999999,0,sub_24
-0.0040854000000002,0.0074566000000011,-2.800000000006044e-05,0.0035462000000006,0.1977612000000009,-0.0150463999999999,0,sub_24
-0.0028566000000002,0.0087388000000011,-0.0012752,0.0064778000000006,0.1834840000000009,-0.0169307999999999,0,sub_24
-0.0024396000000002,0.0091830000000011,-0.0020898,0.0062260000000006,0.1741138000000009,-0.0177753999999999,0,sub_24
-0.0017080000000002,0.0087684000000011,-0.0040606,0.0019300000000006,0.1679496000000009,-0.0175841999999999,0,sub_24
0.0004275999999997,0.0084186000000011,-0.0030086,-0.0025545999999993,0.1692352000000009,-0.0154807999999999,0,sub_24
0.0012561999999997,0.0054326000000011,-0.0020594,-0.0061703999999993,0.1754122000000009,-0.0118817999999999,0,sub_24
0.0001465999999997,0.0064468000000011,-0.0004966,-0.0085387999999993,0.1758078000000009,-0.0069803999999999,0,sub_24
-0.0029186000000002,0.0069852000000012,-0.001919,-0.0105031999999993,0.1708764000000009,-0.0022833999999999,0,sub_24
-0.0071198000000002,0.0043344000000012,-0.0035234,-0.0097033999999993,0.1604094000000009,-0.0009785999999999,0,sub_24
-0.0104636000000002,0.0030228000000012,-0.0052132,-0.0061829999999993,0.1371530000000009,-0.0004935999999999,0,sub_24
-0.0102148000000002,0.0047168000000012,-0.0056758,-0.0016139999999993,0.1138766000000009,0.0040578,0,sub_24
-0.0068900000000002,0.0044728000000012,-0.002693,0.0012912000000006,0.1010608000000009,0.0096482,0,sub_24
-0.0034176000000002,0.0032572000000012,0.0034853999999999,0.0057140000000006,0.0952648000000009,0.0167364,0,sub_24
-0.0010114000000002,0.0058398000000012,0.0087919999999999,0.0093194000000006,0.1020240000000009,0.0282896,0,sub_24
-0.0017894000000002,0.0080176000000012,0.0096717999999999,0.0104272000000005,0.1236790000000009,0.041524,0,sub_24
-0.0040938000000002,0.0059432000000012,0.0090641999999999,0.0115398000000005,0.1436406000000009,0.051983,0,sub_24
-0.0088644000000002,0.0044020000000012,0.0071571999999999,0.0136916000000005,0.1559344000000009,0.0609634,0,sub_24
-0.0125842000000002,0.0071186000000012,0.0044437999999999,0.0147512000000005,0.1618430000000009,0.0693028,0,sub_24
-0.0175238000000002,0.0072166000000012,0.0026185999999999,0.0151228000000005,0.1560400000000009,0.0765836,0,sub_24
-0.0210240000000002,0.0067442000000012,0.0020015999999999,0.0171554000000006,0.1383304000000009,0.0813192,0,sub_24
-0.0220536000000002,0.0088458000000011,0.0008737999999999,0.0185950000000006,0.1302138000000009,0.0851834,0,sub_24
-0.0216406000000002,0.0080674000000012,0.0014407999999999,0.0201132000000005,0.1404162000000009,0.0898792,0,sub_24
-0.0223046000000002,0.0070224000000012,0.0038953999999999,0.0167512000000005,0.1566020000000008,0.0943194,0,sub_24
-0.0212136000000002,0.0084632000000012,0.0063301999999999,0.0142140000000005,0.1640590000000009,0.0964268,0,sub_24
-0.0244322000000002,0.0103002000000012,0.0034717999999999,0.0125332000000005,0.1689690000000008,0.0953376,0,sub_24
-0.0299094000000002,0.0112776000000012,0.0037845999999999,0.0063284000000005,0.1613364000000008,0.0912414,0,sub_24
-0.0326394000000002,0.0104764000000012,0.0035333999999999,-0.0018955999999993,0.1294320000000008,0.0848116,0,sub_24
-0.0304658000000002,0.0068384000000012,-0.0016744,-0.0028871999999993,0.0934500000000008,0.0795058,0,sub_24
-0.0243420000000002,0.0049922000000012,-0.008723,-0.0034093999999993,0.0740560000000008,0.0814464,0,sub_24
-0.0131316000000002,0.0028096000000012,-0.0104998,-0.0043867999999994,0.0580332000000008,0.0932086,0,sub_24
-0.0085040000000002,-0.0006397999999987,-0.0142792,-0.0015761999999994,0.0334622000000009,0.108214,0,sub_24
-0.0081132000000002,0.0018956000000012,-0.019352,0.0055338000000005,0.0144218000000009,0.1217472,0,sub_24
-0.0080606000000002,0.0056808000000012,-0.0186998,0.0096976000000005,0.0028554000000009,0.1335414,0,sub_24
-0.0074704000000002,0.0063776000000012,-0.0135662,0.0089726000000005,-0.009737799999999,0.1399616,0,sub_24
-0.0068948000000002,0.0058770000000012,-0.0078648,0.0048776000000006,-0.018672399999999,0.1401578,0,sub_24
-0.0010154000000003,0.0087204000000012,-0.0040266,-0.0010687999999993,-0.013533799999999,0.139041,0,sub_24
0.0009667999999996,0.0103764000000012,-0.0018054,-0.0129837999999993,-0.009430199999999,0.135534,0,sub_24
-0.0015652000000002,0.0126850000000012,-0.0020522,-0.0251303999999993,-0.014466799999999,0.1269094,0,sub_24
-0.0053248000000002,0.0140904000000011,-0.0057934,-0.0335927999999993,-0.009067999999999,0.1161602,0,sub_24
-0.0046470000000002,0.0136370000000011,-0.0089492,-0.0422223999999993,0.0074070000000009,0.1062504,0,sub_24
0.0002159999999997,0.0090322000000011,-0.0106364,-0.0472499999999993,0.0202024000000009,0.1000168,0,sub_24
0.0086511999999997,0.0038262000000012,-0.0110146,-0.0478189999999993,0.0380554000000009,0.1038496,0,sub_24
0.0182199999999997,-0.0013479999999987,-0.0121322,-0.0488127999999993,0.0646120000000009,0.1160008,0,sub_24
0.0219917999999997,-0.0015295999999987,-0.0108522,-0.0515799999999993,0.0794446000000009,0.131146,0,sub_24
0.0169231999999997,0.0006764000000012,-0.0101556,-0.0554477999999993,0.0844898000000009,0.1439458,0,sub_24
0.0077133999999997,0.0055620000000012,-0.009329,-0.0642091999999993,0.0891770000000009,0.1515702,0,sub_24
0.0019733999999997,0.0109322000000012,-0.0070862,-0.0748681999999993,0.0894352000000009,0.1495726,0,sub_24
-0.0037792000000002,0.0160328000000012,-0.0041366,-0.0891545999999993,0.0805814000000008,0.1383746,0,sub_24
-0.0066898000000002,0.0163578000000012,-0.0020746,-0.1049069999999993,0.0736672000000008,0.122891,0,sub_24
-0.0060088000000002,0.0133648000000012,0.0016427999999999,-0.1150965999999993,0.0712034000000008,0.1085086,0,sub_24
-0.0039258000000002,0.0109146000000012,0.0049485999999999,-0.1203559999999993,0.0763822000000008,0.0967144,0,sub_24
-0.0047574000000002,0.0067178000000012,0.0061023999999999,-0.1260353999999993,0.0889954000000009,0.0908898,0,sub_24
-0.0055022000000002,0.0007366000000012,0.0032059999999999,-0.1263821999999993,0.1088030000000009,0.0927844,0,sub_24
-0.0048358000000002,-0.0043351999999987,-0.0015206,-0.1220889999999993,0.1213310000000009,0.0996344,0,sub_24
-0.0058920000000002,-0.0043045999999987,-0.0061484,-0.1187489999999993,0.1165844000000008,0.1116272,0,sub_24
-0.0090198000000002,0.0007392000000012,-0.0118626,-0.1137601999999993,0.0979868000000009,0.1227946,0,sub_24
-0.0104682000000002,0.0015324000000012,-0.016631,-0.1124271999999993,0.0698272000000009,0.1307438,0,sub_24
-0.0117030000000002,0.0045430000000012,-0.013051,-0.1136727999999993,0.0340210000000009,0.1350524,0,sub_24
-0.0131308000000002,0.0073018000000012,-0.0065542,-0.1140489999999993,-0.002622399999999,0.1348816,0,sub_24
-0.0127184000000002,0.0072376000000012,-0.002003,-0.1117861999999993,-0.026259999999999,0.1300126,0,sub_24
-0.0114232000000002,-0.0010069999999987,0.0019991999999999,-0.1137419999999993,-0.032438799999999,0.1317146,0,sub_24
-0.0100886000000002,-0.0013907999999987,0.0054991999999999,-0.1169119999999993,-0.022214999999999,0.1350964,0,sub_24
-0.0087994000000002,9.600000000122774e-05,0.0048739999999999,-0.1245487999999993,-0.011962399999999,0.1352428,0,sub_24
-0.0100676000000002,0.0058282000000012,0.0044019999999999,-0.1355929999999993,-0.002965399999999,0.1325894,0,sub_24
-0.0141762000000002,0.0100276000000012,0.0011627999999999,-0.1495887999999993,0.0094688000000009,0.1254242,0,sub_24
-0.0182050000000002,0.0144764000000012,-0.0017816,-0.1674415999999993,0.0081090000000009,0.1079948,0,sub_24
-0.0246036000000002,0.0178694000000012,-0.0010784,-0.1858159999999993,-0.020919799999999,0.0839736,0,sub_24
-0.0314746000000003,0.0199166000000012,0.0002311999999999,-0.2031467999999994,-0.057824599999999,0.0571912,0,sub_24
-0.0343868000000002,0.0178666000000012,-0.0003034,-0.2251859999999993,-0.101091599999999,0.0271796,0,sub_24
-0.0268796000000002,0.0175164000000012,0.0067375999999999,-0.2532965999999994,-0.1667047999999991,-0.0037003999999999,0,sub_24
-0.0141090000000002,0.0223444000000012,0.0180777999999999,-0.2807879999999993,-0.2331879999999991,-0.0307289999999999,0,sub_24
0.0037315999999997,0.0255796000000012,0.0269787999999999,-0.3075105999999993,-0.262847399999999,-0.0496795999999999,0,sub_24
0.0268491999999997,0.0296944000000012,0.0371793999999999,-0.3337187999999993,-0.2635711999999991,-0.0590485999999999,0,sub_24
0.0497139999999997,0.0310008000000012,0.0468801999999999,-0.3539083999999993,-0.2473005999999991,-0.0611331999999999,0,sub_24
0.0595283999999997,0.0288690000000012,0.0468297999999999,-0.3631927999999993,-0.2198009999999991,-0.0569599999999999,0,sub_24
0.0582581999999996,0.0222178000000012,0.0344733999999999,-0.3589153999999993,-0.2083473999999991,-0.0477575999999999,0,sub_24
0.0519609999999997,0.0181106000000012,0.0065169999999999,-0.3371959999999993,-0.257459599999999,-0.0392107999999999,0,sub_24
0.0477475999999997,0.0163960000000012,-0.0356408,-0.2844511999999993,-0.3816783999999991,-0.0297101999999999,0,sub_24
0.0568601999999996,0.0141212000000012,-0.0796382,-0.1984647999999993,-0.5571717999999991,-0.0137159999999999,0,sub_24
0.0855483999999997,0.0072584000000012,-0.11039,-0.1031235999999993,-0.7418523999999992,0.0006464,0,sub_24
0.1261663999999997,-0.0006713999999987,-0.1227824,-0.0166849999999993,-0.871086799999999,0.009748,0,sub_24
0.1731185999999997,-0.0151285999999987,-0.097341,0.0488834000000006,-0.8945799999999992,0.020491,0,sub_24
0.2107215999999997,-0.0360727999999987,-0.0490362,0.0783754000000006,-0.8201809999999992,0.0374796,0,sub_24
0.2329551999999997,-0.0457657999999987,0.0087405999999999,0.0667280000000006,-0.6804769999999991,0.062643,0,sub_24
0.2443251999999997,-0.0417223999999987,0.0491011999999999,0.0278710000000006,-0.4576381999999991,0.100542,0,sub_24
0.2477303999999997,-0.0400015999999987,0.0691365999999999,-0.0208333999999993,-0.1868581999999991,0.146002,0,sub_24
0.2319431999999997,-0.0389885999999987,0.0590201999999999,-0.0693847999999993,0.0688012000000008,0.1897732,0,sub_24
0.2067499999999996,-0.0266663999999987,0.0328085999999999,-0.1099339999999993,0.3342898000000008,0.2194874,0,sub_24
0.1758665999999997,-0.0191551999999987,-0.005962,-0.1203807999999993,0.6274644000000009,0.2258754,0,sub_24
0.1314331999999997,-0.0201119999999987,-0.0378254,-0.0842889999999993,0.8591932000000009,0.2134392,0,sub_24
0.0734353999999996,-0.0152319999999987,-0.0562704,-0.0246009999999993,0.9600890000000007,0.1848848,0,sub_24
0.0186389999999996,-0.0026477999999987,-0.0509672,0.0352146000000006,0.9287152000000009,0.1398482,0,sub_24
-0.0192796000000002,0.0010534000000012,-0.034863,0.0890022000000006,0.7806478000000009,0.0848776,0,sub_24
-0.0450994000000002,0.0034550000000012,-0.0091768,0.1191554000000006,0.5489318000000009,0.0298492,0,sub_24
-0.0401844000000002,0.0088190000000012,0.0160349999999999,0.1255170000000006,0.2925880000000008,-0.0261683999999999,0,sub_24
-0.0155256000000002,0.0198942000000012,0.0370893999999999,0.1304684000000006,0.0615754000000008,-0.0753915999999999,0,sub_24
0.0234127999999997,0.0311374000000012,0.0383931999999999,0.1531536000000006,-0.0956185999999991,-0.1051555999999999,0,sub_24
0.0511021999999997,0.0292756000000012,0.0216567999999999,0.1828166000000006,-0.1574467999999991,-0.1202515999999999,0,sub_24
0.0724069999999997,0.0322874000000012,0.0060519999999999,0.1998332000000006,-0.1323233999999991,-0.1306335999999999,0,sub_24
0.0726659999999996,0.0378382000000012,0.0020169999999999,0.1869818000000006,-0.0574587999999991,-0.1400059999999999,0,sub_24
0.0644221999999997,0.0339644000000012,0.0069895999999999,0.1485890000000006,0.0300712000000008,-0.1510685999999999,0,sub_24
0.0513517999999996,0.0272388000000012,0.0153129999999999,0.1020852000000006,0.1017120000000008,-0.1775497999999999,0,sub_24
0.0369849999999997,0.0339584000000012,0.0291383999999999,0.0566796000000006,0.1188630000000008,-0.2180539999999999,0,sub_24
0.0215063999999997,0.0271602000000012,0.0311915999999999,0.0238306000000006,0.0816400000000008,-0.2581871999999999,0,sub_24
0.0099979999999997,0.0106988000000012,0.0208437999999999,0.0139226000000006,0.0287538000000008,-0.2906625999999999,0,sub_24
0.0072827999999997,-0.0010941999999987,0.0073877999999999,0.0258264000000006,-0.0067651999999991,-0.3161712,0,sub_24
0.0081107999999997,-0.0071145999999987,-0.0047094,0.0496608000000005,-0.0308833999999991,-0.326015,0,sub_24
0.0197663999999997,-0.0122157999999987,-0.0139814,0.0800542000000005,-0.0474349999999991,-0.3157401999999999,0,sub_24
0.0333233999999997,-0.0137627999999987,-0.0219368,0.1078354000000006,-0.0631747999999991,-0.2930931999999999,0,sub_24
0.0422591999999996,-0.0103457999999987,-0.0259566,0.1285028000000006,-0.0874435999999991,-0.2625789999999999,0,sub_24
0.0412487999999996,-0.0030719999999987,-0.0215994,0.1469926000000006,-0.1206565999999991,-0.2312139999999999,0,sub_24
0.0351003999999996,-0.0058509999999987,-0.0136136,0.1619270000000006,-0.1404243999999991,-0.2024547999999999,0,sub_24
0.0248967999999996,-0.0114577999999987,-0.0005252,0.1701568000000005,-0.133320199999999,-0.1746313999999999,0,sub_24
0.0126405999999996,-0.0077557999999987,0.0167029999999999,0.1827308000000005,-0.117038199999999,-0.1546943999999999,0,sub_24
0.0023073999999997,-0.0015209999999987,0.0289783999999999,0.1909904000000006,-0.120091599999999,-0.1441643999999999,0,sub_24
-0.0059484000000002,-0.0036817999999987,0.0299387999999999,0.1900088000000006,-0.141208799999999,-0.1370941999999999,0,sub_24
-0.0137338000000002,-0.0008773999999987,0.0243575999999999,0.1793832000000006,-0.176335199999999,-0.1347735999999999,0,sub_24
-0.0210466000000002,0.0041866000000012,0.0173917999999999,0.1685636000000006,-0.221630199999999,-0.1467553999999999,0,sub_24
-0.0258190000000002,0.0028850000000012,0.0135323999999999,0.1552334000000006,-0.2622035999999991,-0.1651701999999999,0,sub_24
-0.0284342000000002,0.0017688000000012,0.0149751999999999,0.1518012000000005,-0.2851253999999991,-0.1841791999999999,0,sub_24
-0.0183482000000002,0.0045196000000012,0.0116533999999999,0.1510424000000006,-0.2820671999999991,-0.2023477999999999,0,sub_24
-0.0042822000000002,0.0047980000000012,0.0093475999999999,0.1467590000000006,-0.2500455999999991,-0.2143823999999999,0,sub_24
0.0108693999999997,0.0026702000000012,0.0072051999999999,0.1364744000000006,-0.2095391999999991,-0.2119421999999999,0,sub_24
