userAcceleration.x,userAcceleration.y,userAcceleration.z,rotationRate.x,rotationRate.y,rotationRate.z,label,subject
-0.0161910000000002,0.0078680000000011,0.028993,0.0582062000000004,-0.1055739999999992,0.0422256,0,sub_1
-0.0141974000000002,0.0085420000000011,0.030185,0.0592846000000004,-0.1125699999999992,0.0326281999999999,0,sub_1
-0.0131366000000002,0.0102934000000011,0.0247112,0.0554530000000004,-0.1178529999999991,0.0251297999999999,0,sub_1
-0.0142840000000002,0.0098314000000011,0.0234088,0.0521070000000004,-0.1078059999999991,0.0197501999999999,0,sub_1
-0.0194696000000001,0.0065714000000012,0.0205552,0.0464362000000004,-0.0936985999999991,0.0132791999999999,0,sub_1
-0.0231616000000001,0.0021180000000012,0.0122692,0.0343722000000004,-0.0818961999999991,0.0027057999999999,0,sub_1
-0.0261566000000001,0.0022362000000012,0.0027676,0.0215136000000004,-0.0606905999999991,-0.0128173999999999,0,sub_1
-0.0232464000000001,0.0054676000000012,0.0037876,0.0110734000000004,-0.0252127999999991,-0.0298367999999999,0,sub_1
-0.0163204000000001,0.0106506000000012,0.0093104,0.0087186000000004,0.0093680000000008,-0.0427377999999999,0,sub_1
-0.0076330000000001,0.0196188000000012,0.0170108,0.0126680000000004,0.0277122000000007,-0.0500175999999999,0,sub_1
0.0009657999999997,0.0262252000000011,0.0199388,0.0186384000000005,0.0308830000000007,-0.0474343999999999,0,sub_1
0.0054683999999997,0.0238854000000011,0.0184342,0.0221530000000004,0.0203734000000007,-0.0330819999999999,0,sub_1
0.0051325999999997,0.0181376000000011,0.0104074,0.0236458000000004,-0.0078321999999992,-0.0138071999999999,0,sub_1
-0.0014248000000002,0.0111978000000012,-0.0001227999999999,0.0197868000000004,-0.0436751999999992,0.0020214,0,sub_1
-0.0119370000000002,0.0043902000000012,-0.0095179999999999,0.0111208000000004,-0.0632841999999992,0.0115992,0,sub_1
-0.0259966000000002,5.980000000121565e-05,-0.0108119999999999,0.0053986000000004,-0.0553783999999991,0.010907,0,sub_1
-0.0322798000000002,0.0022988000000012,-0.0107891999999999,0.0068648000000004,-0.0257219999999991,-0.0006593999999999,0,sub_1
-0.0307266000000001,0.0054838000000012,-0.0078731999999999,0.0105606000000004,0.0203514000000008,-0.0171449999999999,0,sub_1
-0.0237062000000002,0.0105618000000012,-0.0094813999999999,0.0108640000000004,0.0730344000000008,-0.0319531999999999,0,sub_1
-0.0129872000000002,0.0139232000000012,-0.0130309999999999,0.0047284000000004,0.1193398000000007,-0.0446607999999999,0,sub_1
0.0013329999999997,0.0163470000000012,-0.0113991999999999,-0.0074143999999995,0.1596956000000007,-0.0561203999999999,0,sub_1
0.0125375999999997,0.0128514000000012,-0.0007971999999999,-0.0219057999999995,0.2000584000000008,-0.0673821999999999,0,sub_1
0.0191663999999997,0.0104778000000012,0.0066218,-0.0400315999999994,0.2414890000000008,-0.0761061999999999,0,sub_1
0.0289217999999997,0.0101046000000012,0.0087636,-0.0586493999999994,0.2709800000000008,-0.0822547999999999,0,sub_1
0.0432039999999998,0.0113172000000011,0.0064182,-0.0618093999999994,0.2784548000000008,-0.0839943999999999,0,sub_1
0.0597965999999998,0.0113962000000011,0.0027564,-0.0551017999999994,0.2543458000000008,-0.0813521999999999,0,sub_1
0.0715889999999998,0.0149740000000011,0.0015198,-0.0500669999999995,0.2003746000000007,-0.0686421999999999,0,sub_1
0.0796043999999998,0.0179472000000011,0.0023112,-0.0441221999999995,0.1154908000000007,-0.0518277999999999,0,sub_1
0.0815929999999998,0.0188580000000011,0.007063,-0.0292775999999995,0.0167382000000007,-0.0362317999999999,0,sub_1
0.0709825999999998,0.0203932000000011,0.0094556,-0.0145743999999995,-0.0639125999999992,-0.0185223999999999,0,sub_1
0.0563509999999998,0.0235982000000011,0.0085416,-0.0010949999999995,-0.1296547999999991,0.0015094,0,sub_1
0.0428799999999997,0.0243366000000011,-0.0015057999999999,0.0184442000000004,-0.1813365999999991,0.0166518,0,sub_1
0.0287629999999997,0.0254414000000011,-0.0058527999999999,0.0427814000000004,-0.2132079999999991,0.028598,0,sub_1
0.0097979999999997,0.0243162000000011,-0.0058475999999999,0.0616780000000004,-0.2229067999999991,0.040067,0,sub_1
-0.0078082000000001,0.0198838000000011,0.0005666,0.0688888000000005,-0.2280639999999992,0.0448244,0,sub_1
-0.0264526000000001,0.0139506000000011,0.0031174,0.0708728000000004,-0.2163431999999991,0.0424736,0,sub_1
-0.0383248000000001,0.0102112000000011,0.0051794,0.0691176000000004,-0.1877547999999992,0.0343066,0,sub_1
-0.0426764000000001,0.0063926000000012,0.0035318,0.0627242000000004,-0.1495387999999992,0.022023,0,sub_1
-0.0358940000000001,0.0043694000000012,-0.0001587999999999,0.0520968000000004,-0.1080949999999991,0.0054328,0,sub_1
-0.0204654000000001,0.0024708000000012,-0.0026593999999999,0.0369964000000004,-0.0653555999999992,-0.0116175999999999,0,sub_1
-0.0012004000000002,0.0016054000000012,-0.0010861999999999,0.0179734000000004,-0.0396511999999992,-0.0276047999999999,0,sub_1
0.0148835999999997,0.0030812000000012,0.0017882,-0.0031049999999995,-0.0418585999999992,-0.0414341999999999,0,sub_1
0.0263111999999997,0.0054788000000012,0.004135,-0.0210773999999995,-0.0615739999999992,-0.0505069999999999,0,sub_1
0.0281741999999997,0.0085582000000011,0.006427,-0.0303857999999995,-0.0917927999999991,-0.0511735999999999,0,sub_1
0.0202393999999997,0.0154056000000011,0.007078,-0.0254529999999995,-0.1286689999999992,-0.0474677999999999,0,sub_1
0.0050185999999997,0.0224296000000011,0.0096614,-0.0081087999999995,-0.1521883999999991,-0.0381381999999999,0,sub_1
-0.0135520000000002,0.0238088000000011,0.0111906,0.0159042000000004,-0.1576451999999991,-0.0228043999999999,0,sub_1
-0.0336564000000001,0.0242944000000011,0.0098882,0.0372028000000004,-0.1486097999999991,-0.0062261999999999,0,sub_1
-0.0500222000000001,0.0207360000000011,0.0031986,0.0505122000000004,-0.1197055999999992,0.003646,0,sub_1
-0.0610758000000001,0.0107916000000012,-0.0064481999999999,0.0531428000000004,-0.0594083999999991,0.000807,0,sub_1
-0.0619952000000001,0.0007086000000012,-0.0118895999999999,0.0436938000000004,0.0116146000000008,-0.0098213999999999,0,sub_1
-0.0528918000000001,-0.0015559999999988,-0.0143177999999999,0.0256996000000004,0.0701382000000007,-0.0307471999999999,0,sub_1
-0.0332846000000002,0.0007338000000011,-0.0140743999999999,0.0095482000000004,0.1099368000000008,-0.0550617999999999,0,sub_1
-0.0078820000000002,0.0059302000000011,-0.0067721999999999,-0.0013957999999995,0.1273230000000008,-0.0735397999999999,0,sub_1
0.0163251999999997,0.0145124000000011,0.0022692,-0.0104073999999995,0.1143902000000007,-0.0774375999999999,0,sub_1
0.0300633999999997,0.0215362000000011,0.0044472,-0.0235211999999994,0.0959120000000007,-0.0762295999999999,0,sub_1
0.0321717999999997,0.0224474000000011,0.0030452,-0.0333949999999994,0.0920992000000007,-0.0690355999999999,0,sub_1
0.0251501999999997,0.0173836000000012,-0.0014315999999999,-0.0393697999999994,0.0986984000000007,-0.0624611999999999,0,sub_1
0.0202387999999997,0.0159122000000012,-0.0067839999999999,-0.0384761999999994,0.1089170000000007,-0.0611861999999999,0,sub_1
0.0257333999999997,0.0158044000000012,-0.0074083999999999,-0.0260641999999994,0.1142114000000008,-0.0638837999999999,0,sub_1
0.0375249999999997,0.0166838000000012,-0.0070559999999999,-0.0066817999999995,0.1054126000000008,-0.0648031999999999,0,sub_1
0.0539267999999997,0.0174630000000011,-0.0043957999999999,0.0083474000000004,0.0831944000000007,-0.0614639999999999,0,sub_1
0.0680787999999998,0.0182230000000011,-0.0015961999999999,0.0198994000000004,0.0518070000000007,-0.0532213999999999,0,sub_1
0.0725383999999997,0.0165474000000011,0.0001496,0.0256492000000004,0.0148860000000007,-0.0413801999999999,0,sub_1
0.0645673999999997,0.0161844000000011,-0.0040827999999999,0.0235006000000004,-0.0215865999999992,-0.0283115999999999,0,sub_1
0.0552769999999997,0.0168346000000011,-0.0088463999999999,0.0179486000000004,-0.0559157999999991,-0.0154853999999999,0,sub_1
0.0422515999999997,0.0186496000000011,-0.0169701999999999,0.0120478000000004,-0.0759669999999991,-0.0043879999999999,0,sub_1
0.0287369999999997,0.0198982000000011,-0.0237907999999999,0.0068574000000004,-0.0855609999999992,0.001785,0,sub_1
0.0202347999999997,0.0189062000000011,-0.0292735999999999,0.0025854000000004,-0.0823565999999992,0.0051718,0,sub_1
0.0174491999999997,0.0164216000000011,-0.0279065999999999,0.0015604000000004,-0.0691489999999991,0.008354,0,sub_1
0.0140995999999997,0.0157400000000011,-0.0239933999999999,0.0073470000000004,-0.0589503999999992,0.0122286,0,sub_1
0.0125667999999997,0.0166016000000012,-0.0130355999999999,0.0166698000000004,-0.0687923999999992,0.0163676,0,sub_1
0.0136653999999997,0.0185006000000012,-0.0010465999999999,0.0222750000000004,-0.0948281999999992,0.0241332,0,sub_1
0.0124039999999997,0.0201420000000012,0.0089146,0.0199300000000005,-0.1334171999999991,0.032713,0,sub_1
0.0051469999999997,0.0161128000000012,0.0126784,0.0111778000000005,-0.1755955999999991,0.0386884,0,sub_1
-0.0016846000000002,0.0102816000000012,0.0137118,-0.0011557999999994,-0.2139007999999991,0.0382243999999999,0,sub_1
-0.0119160000000002,0.0093276000000012,0.0055458,-0.0123509999999994,-0.2421487999999991,0.0300673999999999,0,sub_1
-0.0199610000000001,0.0070212000000012,-0.0031285999999999,-0.0223509999999994,-0.2448223999999991,0.0188949999999999,0,sub_1
-0.0272846000000001,0.0064212000000012,-0.0115155999999999,-0.0266813999999995,-0.2162135999999991,0.0119949999999999,0,sub_1
-0.0331204000000001,0.0082324000000012,-0.0103105999999999,-0.0256273999999995,-0.1712395999999991,0.0104514,0,sub_1
-0.0411044000000001,0.0130290000000012,-0.0111947999999999,-0.0222443999999995,-0.1284119999999991,0.0108498,0,sub_1
-0.0443050000000001,0.0129534000000012,-0.0086069999999999,-0.0194875999999995,-0.0821985999999991,0.0133724,0,sub_1
-0.0450004000000001,0.0153592000000012,-0.0045889999999999,-0.0105253999999995,-0.0317473999999991,0.016359,0,sub_1
-0.0428980000000001,0.0171726000000011,0.0071444,0.0022554000000004,0.0108194000000008,0.0163912,0,sub_1
-0.0362006000000001,0.0200692000000011,0.0130512,0.0109268000000004,0.0391690000000007,0.0117224,0,sub_1
-0.0266772000000001,0.0176020000000011,0.021229,0.0152952000000004,0.0577406000000007,0.0051132,0,sub_1
-0.0156268000000001,0.0143152000000011,0.0315328,0.0153358000000004,0.0641780000000007,-0.0002287999999999,0,sub_1
-0.0075830000000002,0.0090372000000011,0.0402046,0.0069596000000004,0.0493408000000008,-0.0060281999999999,0,sub_1
-0.0017684000000002,0.0039442000000012,0.041761,-0.0081261999999995,0.0123734000000008,-0.0129143999999999,0,sub_1
0.0002177999999997,0.0031482000000012,0.037766,-0.0255941999999994,-0.0352619999999991,-0.0200255999999999,0,sub_1
-0.0001548000000002,0.0049972000000012,0.0288164,-0.0436533999999994,-0.0705437999999991,-0.0256613999999999,0,sub_1
-0.0040528000000002,0.0064042000000012,0.0211318,-0.0552441999999994,-0.0894489999999991,-0.0297773999999999,0,sub_1
-0.0098908000000002,0.0100712000000012,0.0140188,-0.0619077999999994,-0.1011089999999991,-0.0332143999999999,0,sub_1
-0.0155008000000002,0.0159962000000012,0.0056896,-0.0646701999999994,-0.0987233999999991,-0.0360013999999999,0,sub_1
-0.0177666000000002,0.0181106000000012,-6.459999999995411e-05,-0.0616043999999995,-0.0801717999999991,-0.0372737999999999,0,sub_1
-0.0167350000000002,0.0183906000000012,0.0003404,-0.0531743999999995,-0.0541853999999991,-0.0376639999999999,0,sub_1
-0.0131972000000002,0.0191908000000012,0.0003068,-0.0445455999999995,-0.0313955999999992,-0.0380489999999999,0,sub_1
-0.0090000000000002,0.0193480000000012,-4.079999999993412e-05,-0.0348513999999995,-0.0103389999999991,-0.0373691999999999,0,sub_1
-0.0056258000000002,0.0169490000000012,0.0003286,-0.0251725999999995,0.0090062000000008,-0.0349777999999999,0,sub_1
-0.0032800000000002,0.0158132000000012,0.0027934,-0.0161689999999995,0.0219568000000007,-0.0313001999999999,0,sub_1
-0.0033952000000002,0.0175614000000012,0.0019618,-0.0087227999999995,0.0264002000000008,-0.0246115999999999,0,sub_1
-0.0043370000000002,0.0165678000000012,-0.0003763999999999,-0.0029763999999995,0.0336144000000007,-0.0166563999999999,0,sub_1
-0.0060908000000002,0.0132388000000012,-0.0017077999999999,0.0019310000000004,0.0427540000000007,-0.0099917999999999,0,sub_1
-0.0083726000000002,0.0110904000000012,-0.0002957999999999,0.0087922000000004,0.0580706000000007,-0.0046037999999999,0,sub_1
-0.0100584000000001,0.0114798000000012,0.0015174,0.0176004000000004,0.0784972000000008,-6.35999999999963e-05,0,sub_1
-0.0107400000000001,0.0110554000000012,0.0065482,0.0260184000000004,0.1031696000000007,0.003167,0,sub_1
-0.0116614000000001,0.0117488000000012,0.01181,0.0348420000000004,0.1237906000000007,0.0068324,0,sub_1
-0.0092990000000002,0.0151148000000012,0.0135516,0.0417220000000004,0.1418514000000008,0.0130516,0,sub_1
-0.0049346000000002,0.0181642000000012,0.0119474,0.0434466000000004,0.1518358000000008,0.0188184,0,sub_1
0.0008341999999997,0.0180182000000012,0.0126176,0.0434614000000004,0.1607626000000007,0.0241482,0,sub_1
0.0083197999999997,0.0166360000000012,0.014397,0.0470762000000004,0.1630746000000008,0.0288712,0,sub_1
0.0167205999999997,0.0154150000000012,0.0152672,0.0512862000000004,0.1540976000000007,0.0323324,0,sub_1
0.0224901999999997,0.0136874000000012,0.0156351999999999,0.0593090000000004,0.1374432000000007,0.0343354,0,sub_1
0.0270179999999997,0.0119300000000012,0.0145019999999999,0.0717518000000004,0.1118644000000007,0.036841,0,sub_1
0.0292135999999997,0.0102740000000012,0.0081277999999999,0.0877810000000004,0.0796580000000007,0.0419434,0,sub_1
0.0273605999999997,0.0130604000000012,-0.0018929999999999,0.1027732000000005,0.0559690000000007,0.0491638,0,sub_1
0.0223165999999997,0.0213260000000012,-0.0077383999999999,0.1163614000000004,0.0520994000000007,0.0563479999999999,0,sub_1
0.0182577999999997,0.0277430000000012,-0.0086881999999999,0.1235958000000005,0.0561454000000007,0.0609132,0,sub_1
0.0194213999999997,0.0247196000000012,-0.0024417999999999,0.1246800000000004,0.0618864000000007,0.0628366,0,sub_1
0.0204495999999997,0.0191538000000012,0.0042862,0.1193364000000004,0.0580770000000008,0.0610954,0,sub_1
0.0199827999999997,0.0130316000000012,0.0086504,0.1071108000000004,0.0383288000000008,0.0552674,0,sub_1
0.0157309999999997,0.0038968000000012,0.0062708,0.0912080000000004,0.0067082000000008,0.0462444,0,sub_1
0.0080109999999997,-0.0014359999999987,-0.0030361999999999,0.0791658000000004,-0.0215125999999991,0.0361756,0,sub_1
-0.0024030000000002,0.0039662000000012,-0.0175963999999999,0.0768040000000005,-0.0339949999999991,0.0246584,0,sub_1
-0.0094966000000002,0.0122050000000012,-0.0282317999999999,0.0786150000000005,-0.0196485999999991,0.0135632,0,sub_1
-0.0086576000000002,0.0139018000000011,-0.0216595999999999,0.0847602000000004,0.0151136000000008,0.0080268,0,sub_1
-0.0025464000000002,0.0113136000000011,-0.0063409999999999,0.1077934000000004,0.0652932000000008,0.0134646,0,sub_1
0.0050481999999997,0.0048500000000011,0.0184398,0.1284072000000005,0.1531664000000008,0.0252466,0,sub_1
-0.0078226000000002,-0.0017465999999988,0.0296842,0.1072366000000004,0.1570192000000008,0.0391934,0,sub_1
-0.0250012000000002,-0.0072461999999987,0.0350882,0.1154002000000004,0.1702454000000008,0.0384002,0,sub_1
-0.0426448000000002,-0.0088421999999987,0.024854,0.1128136000000004,0.1993292000000008,0.0240518,0,sub_1
-0.0540998000000002,-0.0018943999999987,0.013942,0.0763296000000004,0.2204936000000008,-0.0050511999999999,0,sub_1
-0.0663054000000002,0.0098050000000012,-0.0051447999999999,0.0272928000000004,0.1969814000000008,-0.0395257999999999,0,sub_1
-0.0600034000000002,0.0235750000000012,-0.0116311999999999,0.0073078000000004,0.2272742000000008,-0.0747197999999999,0,sub_1
-0.0404966000000002,0.0246448000000012,-0.0136905999999999,-0.0455901999999995,0.2141068000000008,-0.0925913999999999,0,sub_1
-0.0226296000000002,0.0233184000000012,-0.0110339999999999,-0.0861217999999995,0.1646236000000008,-0.0970837999999999,0,sub_1
-0.0093914000000002,0.0138652000000012,-0.0110005999999999,-0.1060405999999995,0.1058684000000008,-0.0918061999999999,0,sub_1
0.0041021999999997,0.0039944000000012,-0.0056855999999999,-0.1116607999999995,0.0494460000000008,-0.0857673999999999,0,sub_1
0.0158039999999997,-0.0061053999999987,-0.0040485999999999,-0.1102059999999995,-0.0008173999999991,-0.0809689999999999,0,sub_1
0.0191593999999997,-0.0031959999999987,-0.0076043999999999,-0.1097691999999995,-0.0429697999999991,-0.0789653999999999,0,sub_1
0.0223377999999997,0.0040102000000011,-0.0139371999999999,-0.1088579999999995,-0.0759571999999991,-0.0782519999999999,0,sub_1
0.0247053999999997,0.0147392000000011,-0.0216267999999999,-0.1026027999999995,-0.1044987999999991,-0.0751569999999999,0,sub_1
0.0283553999999997,0.0248424000000011,-0.0333569999999999,-0.0940043999999995,-0.1273691999999991,-0.0641705999999999,0,sub_1
0.0336907999999997,0.0316174000000012,-0.0400439999999999,-0.0866403999999995,-0.1323693999999992,-0.0455245999999999,0,sub_1
0.0354507999999997,0.0353396000000012,-0.0402289999999999,-0.0747477999999995,-0.1205797999999992,-0.0204583999999999,0,sub_1
0.0330749999999997,0.0289164000000012,-0.0333373999999999,-0.0611459999999995,-0.1036655999999991,0.0078368,0,sub_1
0.0279909999999997,0.0200022000000012,-0.0289465999999999,-0.0524641999999995,-0.0950209999999991,0.0305536,0,sub_1
0.0224815999999997,0.0103212000000012,-0.0231855999999999,-0.0452989999999995,-0.1020937999999992,0.0423834,0,sub_1
0.0192125999999997,0.0058830000000012,-0.0192579999999999,-0.0306821999999995,-0.1225765999999991,0.0446688,0,sub_1
0.0166805999999997,0.0056848000000012,-0.0163269999999999,-0.0122045999999995,-0.1434785999999991,0.0418536,0,sub_1
0.0140259999999997,0.0135730000000012,-0.0190327999999999,0.0039896000000004,-0.1516191999999991,0.0389868,0,sub_1
0.0035911999999997,0.0208530000000012,-0.0132319999999999,0.0177114000000004,-0.1356937999999991,0.0405584,0,sub_1
-0.0115118000000002,0.0239022000000011,-0.0064641999999999,0.0263926000000004,-0.0995197999999991,0.0444178,0,sub_1
-0.0295902000000002,0.0196674000000011,-0.0033479999999999,0.0240372000000004,-0.0505221999999992,0.0477562,0,sub_1
-0.0405632000000002,0.0131642000000011,-0.0061241999999999,0.0138288000000004,0.0027838000000008,0.0461192,0,sub_1
-0.0418040000000002,0.0083078000000012,-0.0085343999999999,0.0034124000000004,0.0520638000000008,0.0391446,0,sub_1
-0.0290784000000002,0.0063366000000012,-0.0137191999999999,-0.0028135999999995,0.0824244000000008,0.0281919999999999,0,sub_1
-0.0095274000000002,0.0075716000000012,-0.0155291999999999,-0.0031517999999995,0.0995334000000008,0.0232821999999999,0,sub_1
0.0076645999999997,0.0120794000000012,-0.0124581999999999,0.0036868000000004,0.1108186000000008,0.0299674,0,sub_1
0.0132349999999997,0.0177618000000012,-0.0097759999999999,0.0121466000000004,0.1097142000000008,0.0433038,0,sub_1
0.0078823999999997,0.0177974000000012,-0.0087113999999999,0.0201706000000004,0.1043588000000007,0.054506,0,sub_1
0.0027033999999997,0.0139606000000012,-0.0065297999999999,0.0297700000000004,0.1126018000000007,0.0633238,0,sub_1
-0.0099600000000002,0.0151250000000012,-0.0045587999999999,0.0265020000000004,0.1536980000000008,0.072008,0,sub_1
-0.0279064000000001,0.0151472000000012,0.0002904,0.0297284000000004,0.1594392000000008,0.0720215999999999,0,sub_1
-0.0309528000000001,0.0028140000000012,0.0204514,0.0443144000000004,0.1768574000000007,0.0725268,0,sub_1
-0.0241448000000001,-0.0029091999999987,0.040363,0.0586674000000004,0.1946836000000008,0.0777304,0,sub_1
-0.0231266000000001,0.0018028000000012,0.044014,0.0591740000000004,0.2138528000000008,0.0787766,0,sub_1
-0.0205644000000001,0.0007626000000012,0.0403478,0.0690336000000004,0.2096156000000008,0.064322,0,sub_1
-0.0116206000000002,-0.0017673999999987,0.037457,0.0662974000000004,0.2391340000000008,0.0375596,0,sub_1
-0.0130424000000001,0.0042416000000012,0.0319338,0.0426376000000004,0.2491918000000008,-0.0062023999999999,0,sub_1
-0.0149074000000001,0.0075550000000012,0.024227,0.0090456000000004,0.2218326000000008,-0.0615227999999999,0,sub_1
-0.0095160000000001,0.0041222000000012,0.0252226,-0.0189457999999995,0.1646020000000008,-0.1107835999999999,0,sub_1
0.0039421999999998,0.0044848000000012,0.0290902,-0.0459969999999995,0.0949476000000008,-0.1442121999999999,0,sub_1
0.0182293999999998,0.0070640000000012,0.0241746,-0.0720751999999995,0.0273280000000008,-0.1545617999999999,0,sub_1
0.0325573999999997,0.0113346000000012,0.0094654,-0.0894341999999995,-0.0259189999999991,-0.1437175999999999,0,sub_1
0.0399499999999997,0.0153032000000012,-0.0039847999999999,-0.0983967999999995,-0.0498449999999991,-0.1200335999999999,0,sub_1
0.0402571999999997,0.0205444000000012,-0.0175177999999999,-0.0981281999999995,-0.0608099999999991,-0.0954469999999999,0,sub_1
0.0367429999999997,0.0241712000000012,-0.0301043999999999,-0.0920621999999995,-0.0660333999999992,-0.0731771999999999,0,sub_1
0.0341299999999997,0.0276192000000012,-0.0377629999999999,-0.0782927999999995,-0.0695663999999991,-0.0540615999999999,0,sub_1
0.0305417999999997,0.0298078000000012,-0.0433379999999999,-0.0566437999999994,-0.0767489999999991,-0.0348855999999999,0,sub_1
0.0276227999999997,0.0313878000000012,-0.0479065999999999,-0.0318019999999994,-0.0837371999999991,-0.0137647999999999,0,sub_1
0.0253675999999997,0.0306750000000012,-0.0492007999999999,-0.0129199999999994,-0.0849623999999991,0.0098706,0,sub_1
0.0219889999999997,0.0241120000000012,-0.0459485999999999,0.0025534000000004,-0.0859609999999991,0.0330554,0,sub_1
0.0182713999999997,0.0190154000000012,-0.0428175999999999,0.0116210000000004,-0.0935203999999992,0.0508631999999999,0,sub_1
0.0168123999999997,0.0168818000000012,-0.0401997999999999,0.0096060000000004,-0.1048493999999991,0.0619756,0,sub_1
0.0166223999999997,0.0158138000000012,-0.0362321999999999,0.0016538000000004,-0.1114567999999992,0.0696224,0,sub_1
0.0163621999999997,0.0148408000000012,-0.0287875999999999,-0.0064931999999995,-0.1140145999999991,0.0770494,0,sub_1
0.0147805999999997,0.0185030000000012,-0.0253513999999999,-0.0174121999999995,-0.1146493999999992,0.0855222,0,sub_1
0.0096479999999997,0.0199862000000012,-0.0214619999999999,-0.0313121999999995,-0.1131459999999991,0.0946116,0,sub_1
0.0008691999999997,0.0181420000000012,-0.0152461999999999,-0.0434871999999995,-0.1078119999999991,0.1032794,0,sub_1
-0.0126002000000002,0.0144492000000012,-0.0080303999999999,-0.0494397999999995,-0.0999219999999991,0.106645,0,sub_1
-0.0291842000000002,0.0127648000000012,-0.0043837999999999,-0.0515387999999995,-0.0933065999999991,0.1057654,0,sub_1
-0.0442140000000002,0.0138346000000012,-0.0017985999999999,-0.0472101999999995,-0.0811725999999991,0.104496,0,sub_1
-0.0553972000000002,0.0165360000000012,0.0034688,-0.0346703999999995,-0.0435107999999991,0.1058144,0,sub_1
-0.0643440000000002,0.0174194000000012,0.0101672,-0.0192889999999995,0.0147852000000008,0.1126816,0,sub_1
-0.0672076000000001,0.0160602000000012,0.015449,-0.0039193999999995,0.0726468000000008,0.1216858,0,sub_1
-0.0624162000000001,0.0132812000000012,0.0247608,0.0121276000000004,0.1328734000000008,0.1247098,0,sub_1
-0.0533710000000001,0.0077214000000012,0.040655,0.0237186000000004,0.1903802000000008,0.1191598,0,sub_1
-0.0405530000000001,0.0005408000000012,0.0560818,0.0339018000000004,0.2134016000000008,0.1074493999999999,0,sub_1
-0.0274276000000001,-0.0008943999999987,0.0658564,0.0397136000000004,0.2045166000000008,0.0865627999999999,0,sub_1
