userAcceleration.x,userAcceleration.y,userAcceleration.z,rotationRate.x,rotationRate.y,rotationRate.z,label,subject
-0.0332492000000002,0.0055698000000012,0.014728,-0.0009743999999995,-0.0012163999999994,0.0070871999999999,0,sub_13
-0.0341840000000002,0.0052298000000012,0.014442,-0.0005517999999995,-0.0001487999999994,0.0072787999999999,0,sub_13
-0.0355096000000002,0.0049828000000012,0.0151194,8.620000000041786e-05,0.0009196000000005,0.0070447999999999,0,sub_13
-0.0365248000000002,0.0040964000000012,0.0144308,-0.0001319999999995,-0.0005691999999994,0.0066179999999999,0,sub_13
-0.0363598000000001,0.0043668000000012,0.0131268,0.0009272000000004,-0.0037625999999993,0.0051339999999999,0,sub_13
-0.0349214000000001,0.0047022000000011,0.0132659999999999,0.0019814000000004,-0.0061083999999993,0.0040691999999999,0,sub_13
-0.0331008000000001,0.0054046000000011,0.0130769999999999,0.0017642000000004,-0.0069565999999993,0.0025663999999999,0,sub_13
-0.0313164000000001,0.0050532000000011,0.0130699999999999,0.0024042000000004,-0.0063189999999994,0.0017085999999999,0,sub_13
-0.0304506000000001,0.0054650000000012,0.0136589999999999,0.0030422000000004,-0.0052587999999994,0.0017047999999999,0,sub_13
-0.0305674000000001,0.0047220000000012,0.0147233999999999,0.0023866000000004,-0.0056913999999994,0.0031893999999998,0,sub_13
-0.0318340000000002,0.0050728000000012,0.0151028,0.0010940000000004,-0.0065467999999994,0.0051043999999998,0,sub_13
-0.0331026000000002,0.0054494000000012,0.016358,0.0002270000000004,-0.0076167999999994,0.0070225999999998,0,sub_13
-0.0335538000000002,0.0063040000000012,0.0161212,-0.0010619999999995,-0.0091053999999994,0.0074427999999998,0,sub_13
-0.0337136000000002,0.0046950000000012,0.0146536,-0.0023341999999995,-0.0075777999999994,0.0059175999999998,0,sub_13
-0.0333260000000002,0.0036812000000012,0.0141006,-0.0018887999999995,-0.0049857999999994,0.0031209999999999,0,sub_13
-0.0334436000000002,0.0030516000000012,0.0139667999999999,-0.0012349999999995,-0.0034597999999994,0.0003271999999999,0,sub_13
-0.0327706000000002,0.0022194000000012,0.0130993999999999,-0.0001619999999995,-0.0021541999999994,-0.0009678,0,sub_13
-0.0324442000000002,0.0020268000000012,0.0134173999999999,0.0011188000000004,-0.0004299999999994,-0.0005528,0,sub_13
-0.0324810000000002,0.0038630000000012,0.0151785999999999,0.0023972000000004,0.0006250000000005,0.0009501999999999,0,sub_13
-0.0338096000000002,0.0058714000000012,0.0159847999999999,0.0023914000000004,0.0010442000000005,0.0026587999999999,0,sub_13
-0.0341954000000002,0.0059424000000012,0.0154345999999999,0.0015428000000004,0.0025370000000005,0.0030783999999999,0,sub_13
-0.0350676000000002,0.0057568000000012,0.0141803999999999,0.0004832000000004,0.0038538000000005,0.0021971999999999,0,sub_13
-0.0360092000000002,0.0048648000000012,0.0145889999999999,-0.0005823999999995,0.0036800000000005,0.0011041999999999,0,sub_13
-0.0366732000000002,0.0040540000000012,0.0143617999999999,-0.0014343999999995,0.0032932000000005,-0.0002006,0,sub_13
-0.0366620000000002,0.0033040000000012,0.0150192,-0.0012051999999995,0.0054622000000005,-0.002142,0,sub_13
-0.0367672000000002,0.0031524000000012,0.0156346,-0.0001349999999995,0.0059192000000005,-0.0030074,0,sub_13
-0.0370222000000002,0.0045052000000012,0.0171075999999999,7.740000000043806e-05,0.0054932000000005,-0.003219,0,sub_13
-0.0371742000000001,0.0056082000000012,0.0157391999999999,0.0002852000000004,0.0042142000000005,-0.0032158,0,sub_13
-0.0357582000000002,0.0051852000000012,0.0150901999999999,6.220000000045799e-05,0.0029332000000005,-0.0023612,0,sub_13
-0.0347644000000001,0.0043522000000012,0.0142757999999999,0.0004652000000004,0.0014452000000005,-0.001093,0,sub_13
-0.0344280000000001,0.0040134000000012,0.0153721999999999,-0.0006149999999995,0.0018818000000005,-0.0002648,0,sub_13
-0.0349210000000001,0.0037188000000012,0.0154918,-0.0012675999999995,0.0025298000000005,0.0005659999999999,0,sub_13
-0.0335894000000002,0.0030048000000012,0.0153354,-0.0016933999999995,0.0050988000000005,0.0003275999999999,0,sub_13
-0.0331422000000002,0.0034390000000012,0.0148048,-0.0016971999999995,0.0063890000000005,-0.0001198,0,sub_13
-0.0338638000000002,0.0044800000000012,0.0147405999999999,-0.0021163999999995,0.0076704000000005,-0.0005516,0,sub_13
-0.0343972000000002,0.0047888000000012,0.0141007999999999,-0.0001999999999995,0.0063870000000005,-0.0009638,0,sub_13
-0.0341770000000001,0.0044322000000012,0.0142377999999999,0.0012936000000004,0.0057452000000005,-0.0015934,0,sub_13
-0.0356478000000001,0.0043204000000012,0.0147385999999999,0.0012820000000004,0.0057528000000005,-0.001189,0,sub_13
-0.0365948000000001,0.0051632000000012,0.0155621999999999,0.0006218000000004,0.0038452000000005,-0.0007868000000001,0,sub_13
-0.0359236000000001,0.0052830000000012,0.0156315999999999,-0.0011043999999995,0.0019422000000005,-0.0006058000000001,0,sub_13
-0.0350698000000001,0.0049500000000011,0.0150795999999999,-0.0028275999999995,0.0011028000000005,1.199999999894298e-06,0,sub_13
-0.0350230000000002,0.0044806000000011,0.0146007999999999,-0.0032695999999995,0.0004720000000005,0.0006167999999998,0,sub_13
-0.0340606000000002,0.0043148000000011,0.0145616,-0.0026437999999995,-0.0023015999999993,0.0010519999999998,0,sub_13
-0.0330562000000002,0.0044900000000012,0.0142034,-0.0028513999999995,-0.0016591999999993,0.0004087999999999,0,sub_13
-0.0325558000000002,0.0047646000000012,0.0135147999999999,-0.0024303999999995,-0.0023023999999993,0.0010533999999999,0,sub_13
-0.0325826000000002,0.0055362000000012,0.0136947999999999,-0.0024379999999995,-0.0025213999999994,0.0025489999999999,0,sub_13
-0.0327782000000002,0.0063322000000012,0.0144029999999999,-0.0030941999999995,-0.0031435999999994,0.0038029999999999,0,sub_13
-0.0333724000000002,0.0066106000000012,0.0135935999999999,-0.0033195999999995,-0.0035515999999994,0.0044187999999998,0,sub_13
-0.0343780000000002,0.0054810000000012,0.0133361999999999,-0.0026953999999995,-0.0050269999999994,0.0048281999999998,0,sub_13
-0.0344996000000002,0.0049876000000012,0.0143909999999999,-0.0022767999999995,-0.0064947999999994,0.0035271999999998,0,sub_13
-0.0345454000000002,0.0048526000000012,0.0152149999999999,-0.0022811999999995,-0.0075333999999994,0.0017953999999998,0,sub_13
-0.0342492000000002,0.0047424000000012,0.0158579999999999,-0.0027145999999995,-0.0092353999999994,0.0015809999999998,0,sub_13
-0.0345084000000002,0.0055560000000012,0.0166667999999999,-0.0046349999999995,-0.0092285999999994,0.0015675999999998,0,sub_13
-0.0338328000000002,0.0058448000000012,0.0160895999999999,-0.0061313999999995,-0.0085713999999994,0.0015361999999998,0,sub_13
-0.0328738000000002,0.0054220000000012,0.0151095999999999,-0.0067875999999995,-0.0102631999999994,0.0021543999999998,0,sub_13
-0.0318202000000002,0.0047154000000012,0.0143679999999999,-0.0072333999999995,-0.0119583999999994,0.0034149999999998,0,sub_13
-0.0320396000000002,0.0041750000000012,0.0137049999999999,-0.0063977999999995,-0.0132327999999994,0.0048975999999999,0,sub_13
-0.0321670000000002,0.0044368000000012,0.0144529999999999,-0.0049163999999995,-0.0136555999999994,0.0059563999999999,0,sub_13
-0.0332254000000001,0.0057486000000012,0.0157352,-0.0051297999999995,-0.0130181999999994,0.0065949999999999,0,sub_13
-0.0353764000000002,0.0056824000000012,0.0156485999999999,-0.0068213999999995,-0.0098155999999994,0.0063653999999999,0,sub_13
-0.0369018000000001,0.0049606000000012,0.0151695999999999,-0.0076633999999995,-0.0089535999999993,0.0046491999999999,0,sub_13
-0.0366820000000001,0.0042300000000012,0.0141117999999999,-0.0078735999999995,-0.0102221999999994,0.0022887999999999,0,sub_13
-0.0366306000000001,0.0033972000000012,0.0139115999999999,-0.0076549999999995,-0.0114905999999994,-0.000496,0,sub_13
-0.0364754000000002,0.0023372000000012,0.0141105999999999,-0.0067981999999995,-0.0125507999999994,-0.0026358,0,sub_13
-0.0362600000000001,0.0023978000000012,0.0139055999999999,-0.0057213999999995,-0.0127569999999993,-0.005416,0,sub_13
-0.0352044000000001,0.0027036000000012,0.0142167999999999,-0.0063379999999995,-0.0097621999999994,-0.0079984,0,sub_13
-0.0337258000000001,0.0028874000000012,0.0141707999999999,-0.0086495999999995,-0.0046297999999994,-0.0107986,0,sub_13
-0.0322436000000001,0.0032412000000012,0.0121931999999999,-0.0107497999999995,0.0007124000000005,-0.0129566,0,sub_13
-0.0304436000000001,0.0026938000000012,0.0106081999999999,-0.0102923999999995,0.0058310000000005,-0.014669,0,sub_13
-0.0279360000000002,0.0020282000000012,0.0103548,-0.0072753999999995,0.0120008000000005,-0.0150832,0,sub_13
-0.0257852000000002,0.0027964000000012,0.0109924,-0.0027511999999995,0.0209236000000005,-0.0154948,0,sub_13
-0.0235488000000002,0.0028362000000012,0.0117898,0.0020066000000004,0.0345320000000005,-0.015697,0,sub_13
-0.0210862000000002,0.0018046000000012,0.013517,0.0069862000000004,0.0504816000000005,-0.0154734,0,sub_13
-0.0212520000000002,0.0006284000000012,0.014996,0.0094132000000004,0.0677202000000005,-0.0156966,0,sub_13
-0.0234942000000002,0.0008536000000011,0.0173465999999999,0.0069162000000004,0.0805052000000005,-0.016803,0,sub_13
-0.0265210000000002,0.0001686000000012,0.0182065999999999,0.0035454000000004,0.0881948000000005,-0.0187592,0,sub_13
-0.0320662000000002,0.0008142000000012,0.0183839999999999,0.0007896000000004,0.0892818000000005,-0.0217708,0,sub_13
-0.0406186000000002,0.0040796000000012,0.0190947999999999,-0.0028523999999995,0.0812056000000005,-0.0252088,0,sub_13
-0.0470054000000002,0.0081932000000012,0.0195177999999999,-0.0063337999999995,0.0626838000000005,-0.0273504,0,sub_13
-0.0515254000000001,0.0113324000000012,0.0185327999999999,-0.0096363999999995,0.0386134000000005,-0.0273472,0,sub_13
-0.0547344000000001,0.0129920000000012,0.0153383999999999,-0.0138193999999995,0.0094292000000005,-0.026489,0,sub_13
-0.0537268000000001,0.0131414000000012,0.0126207999999999,-0.0188767999999995,-0.0233781999999993,-0.0245642,0,sub_13
-0.0459436000000001,0.0097390000000012,0.0105133999999999,-0.0217991999999995,-0.0534209999999993,-0.0215552,0,sub_13
-0.0382338000000001,0.0072762000000012,0.0103606,-0.0204101999999995,-0.0730415999999993,-0.0178884,0,sub_13
-0.0307930000000002,0.0047936000000012,0.0106854,-0.0146893999999995,-0.0784025999999993,-0.0142096,0,sub_13
-0.0263076000000002,0.0022492000000012,0.0143496,-0.0065587999999995,-0.0726801999999993,-0.0105372,0,sub_13
-0.0255596000000002,0.0003914000000012,0.018687,0.0018044000000004,-0.0635463999999994,-0.0077222,0,sub_13
-0.0295548000000002,0.0019890000000012,0.021726,0.0061048000000004,-0.0573769999999994,-0.006,0,sub_13
-0.0351918000000002,0.0032768000000012,0.0228378,0.0046280000000004,-0.0560825999999994,-0.0055938,0,sub_13
-0.0396920000000001,0.0027978000000012,0.0238816,0.0014116000000004,-0.0626625999999994,-0.0058306,0,sub_13
-0.0418554000000001,0.0038596000000012,0.0237344,-0.0035505999999995,-0.0754261999999994,-0.0064898,0,sub_13
-0.0419780000000001,0.0061524000000011,0.0230222,-0.0099977999999995,-0.0879645999999994,-0.0088688,0,sub_13
-0.0405928000000001,0.0040696000000011,0.0207122,-0.0159759999999995,-0.0936763999999994,-0.013817,0,sub_13
-0.0367764000000001,0.0008564000000011,0.0174902,-0.0200261999999995,-0.0983271999999994,-0.0193942,0,sub_13
-0.0309074000000002,0.0008796000000011,0.0135738,-0.0225693999999995,-0.1038075999999994,-0.0236922,0,sub_13
-0.0265464000000002,0.0003200000000012,0.0104022,-0.0233891999999995,-0.1048231999999994,-0.0271294,0,sub_13
-0.0220496000000002,-0.0018777999999987,0.0075724,-0.0201329999999995,-0.0988307999999994,-0.0284106,0,sub_13
-0.0200938000000002,-0.0024127999999987,0.0085092,-0.0132407999999995,-0.0890237999999994,-0.0277486,0,sub_13
-0.0187854000000002,-0.0017293999999987,0.0098626,-0.0050521999999995,-0.0743261999999994,-0.0258018,0,sub_13
-0.0205544000000002,-0.0015417999999987,0.0121152,0.0014380000000004,-0.0547467999999994,-0.0259952,0,sub_13
-0.0219988000000002,-0.0008881999999987,0.0156036,0.0062376000000004,-0.0323883999999994,-0.0270586,0,sub_13
-0.0252378000000001,0.0011208000000012,0.0194456,0.0082724000000004,-0.0140531999999994,-0.0276968,0,sub_13
-0.0273538000000001,0.0043580000000012,0.0211686,0.0070712000000004,-0.0016799999999994,-0.026427,0,sub_13
-0.0295238000000001,0.0055892000000012,0.0231436,0.0030904000000004,0.0087882000000005,-0.0258152,0,sub_13
-0.0306522000000001,0.0051786000000012,0.0244628,0.0001688000000004,0.0188214000000005,-0.0239136,0,sub_13
-0.0317356000000001,0.0053106000000012,0.0236268,-0.0017069999999995,0.0248002000000005,-0.0213586,0,sub_13
-0.0323354000000001,0.0055858000000012,0.0217692,-0.0029861999999995,0.0273520000000005,-0.0190206,0,sub_13
-0.0318392000000001,0.0049182000000012,0.019937,-0.0023441999999995,0.0298978000000005,-0.016883,0,sub_13
-0.0310140000000002,0.0056082000000012,0.0183234,-0.0010677999999995,0.0322240000000005,-0.0136724,0,sub_13
-0.0320828000000002,0.0067264000000012,0.0175852,-0.0004237999999995,0.0331502000000005,-0.009773,0,sub_13
-0.0342540000000002,0.0071288000000012,0.018804,0.0006488000000004,0.0351376000000005,-0.005231,0,sub_13
-0.0359922000000002,0.0063454000000012,0.021142,0.0011014000000004,0.0416014000000005,-0.0006992000000001,0,sub_13
-0.0397758000000002,0.0044784000000012,0.021004,0.0002824000000004,0.0478652000000005,0.0016875999999998,0,sub_13
-0.0423014000000002,0.0013760000000012,0.0192294,0.0003208000000004,0.0526440000000005,0.0017321999999998,0,sub_13
-0.0428642000000002,-0.0012911999999987,0.0157248,0.0016222000000004,0.0556290000000005,2.819999999989515e-05,0,sub_13
-0.0417558000000002,-0.0028523999999987,0.012084,0.0027006000000004,0.0560600000000005,-0.0021012,0,sub_13
-0.0401036000000002,-0.0030771999999987,0.007679,0.0065518000000004,0.0547828000000005,-0.0057046,0,sub_13
-0.0362656000000002,-0.0015915999999987,0.0070604,0.0115114000000003,0.0558278000000005,-0.0083748,0,sub_13
-0.0332292000000001,0.0014642000000012,0.0080921999999999,0.0162460000000004,0.0564390000000005,-0.0089096,0,sub_13
-0.0314662000000001,0.0035912000000012,0.0105303999999999,0.0188334000000003,0.0557726000000005,-0.0077486,0,sub_13
-0.0297846000000001,0.0049004000000012,0.0120847999999999,0.0201300000000003,0.0536158000000005,-0.0057402,0,sub_13
-0.0285406000000001,0.0064016000000012,0.0141925999999999,0.0182242000000004,0.0512562000000005,-0.0035404,0,sub_13
-0.0291402000000001,0.0051956000000012,0.0141363999999999,0.0156320000000004,0.0465686000000005,-0.0012024,0,sub_13
-0.0307592000000001,0.0040900000000012,0.0146735999999999,0.0126094000000003,0.0406058000000005,0.0007067999999999,0,sub_13
-0.0322694000000001,0.0040564000000011,0.0158402,0.0100164000000004,0.0342196000000005,0.0015513999999999,0,sub_13
-0.0328894000000001,0.0035986000000011,0.0153687999999999,0.0059714000000004,0.0269440000000005,0.0013963999999998,0,sub_13
-0.0332530000000001,0.0019896000000011,0.0146653999999999,0.0029874000000004,0.0196596000000005,0.0025307999999998,0,sub_13
-0.0326542000000001,0.0024014000000011,0.0144613999999999,0.0025676000000004,0.0136430000000005,0.0041085999999998,0,sub_13
-0.0333762000000001,0.0041460000000012,0.0145873999999999,0.0042960000000004,0.0103904000000005,0.0052705999999998,0,sub_13
-0.0342056000000002,0.0047232000000012,0.0134975999999999,0.0056148000000004,0.0094888000000005,0.0049311999999998,0,sub_13
-0.0371236000000002,0.0052672000000012,0.0130022,0.0083848000000004,0.0077782000000005,0.0040979999999999,0,sub_13
-0.0396050000000002,0.0054500000000012,0.0134406,0.0100640000000004,0.0011694000000005,0.0036907999999999,0,sub_13
-0.0409906000000002,0.0063828000000012,0.0149398,0.0081054000000004,-0.0077703999999994,0.0032611999999999,0,sub_13
-0.0404670000000001,0.0049478000000012,0.0158096,0.0038448000000004,-0.0151859999999994,0.0027093999999999,0,sub_13
-0.0396314000000001,0.0043060000000012,0.0159706,0.0010808000000004,-0.0211187999999994,0.0030207999999999,0,sub_13
-0.0378104000000001,0.0041358000000012,0.0165668,-0.0008107999999995,-0.0234301999999994,0.0026925999999999,0,sub_13
-0.0372498000000001,0.0033376000000012,0.0153476,-0.0018265999999995,-0.0219051999999994,0.0012973999999999,0,sub_13
-0.0363258000000001,0.0010584000000012,0.013762,-0.0017793999999995,-0.0214483999999994,-0.0003026,0,sub_13
-0.0368824000000001,0.0004034000000012,0.0141468,-0.0003029999999995,-0.0265617999999994,-0.0015676,0,sub_13
-0.0383348000000001,0.0021210000000012,0.0152921999999999,-0.0009757999999995,-0.0338033999999994,-0.001563,0,sub_13
-0.0393094000000001,0.0036562000000012,0.0153651999999999,-0.0027057999999995,-0.0389105999999994,-0.0015684,0,sub_13
-0.0386206000000001,0.0054068000000012,0.0165801999999999,-0.0042079999999995,-0.0418837999999994,-0.0026432,0,sub_13
-0.0367324000000001,0.0042708000000012,0.0165127999999999,-0.0039583999999995,-0.0407053999999994,-0.00403,0,sub_13
-0.0335556000000001,0.0026834000000012,0.0149671999999999,-0.0022093999999995,-0.0367683999999994,-0.0039144,0,sub_13
-0.0300922000000001,0.0006130000000012,0.0147181999999999,0.0005980000000004,-0.0334793999999993,-0.0025086,0,sub_13
-0.0287844000000001,-0.0005027999999987,0.0177259999999999,0.0036082000000004,-0.0314739999999994,-3.1600000000084685e-05,0,sub_13
-0.0297314000000002,-0.0001411999999987,0.0203757999999999,0.0057638000000004,-0.0290419999999994,0.0030797999999998,0,sub_13
-0.0335634000000002,0.0046740000000012,0.0240967999999999,0.0072440000000004,-0.0284225999999994,0.0067213999999998,0,sub_13
-0.0391666000000002,0.0095676000000012,0.0254924,0.0050776000000004,-0.0324759999999994,0.0099161999999998,0,sub_13
-0.0439274000000002,0.0102770000000012,0.0240643999999999,0.0007782000000004,-0.0391115999999994,0.0114701999999998,0,sub_13
-0.0455072000000002,0.0092440000000012,0.0189337999999999,-0.0046119999999995,-0.0514941999999994,0.0125967999999998,0,sub_13
-0.0414970000000002,0.0069860000000012,0.0149927999999999,-0.0106643999999995,-0.0677137999999994,0.0147919999999998,0,sub_13
-0.0376840000000002,0.0048166000000012,0.0113671999999999,-0.0156297999999995,-0.0786141999999994,0.0178423999999998,0,sub_13
-0.0330144000000002,0.0027246000000012,0.0090611999999999,-0.0152003999999995,-0.0771719999999994,0.0198465999999998,0,sub_13
-0.0288124000000001,0.0015128000000012,0.0091058,-0.0106717999999996,-0.0656861999999994,0.0207181999999998,0,sub_13
-0.0266680000000001,0.0014460000000012,0.0103294,-0.0041871999999996,-0.0475971999999994,0.0203129999999998,0,sub_13
-0.0294802000000001,0.0022006000000012,0.0102624,0.0029336000000003,-0.0307871999999994,0.0194865999999998,0,sub_13
-0.0341640000000001,0.0029286000000012,0.0078784,0.0068050000000003,-0.0208963999999993,0.0174195999999998,0,sub_13
-0.0366004000000001,0.0006472000000012,0.0069289999999999,0.0052874000000004,-0.0235553999999993,0.0149035999999998,0,sub_13
-0.0377632000000001,-6.099999999878971e-05,0.0063149999999999,0.0028828000000004,-0.0332439999999993,0.0128177999999998,0,sub_13
-0.0360604000000002,0.0015622000000012,0.0087445999999999,0.0021908000000004,-0.0410235999999993,0.0113823999999998,0,sub_13
-0.0339850000000002,0.0017942000000012,0.0111515999999999,0.0034672000000004,-0.0381571999999993,0.0099469999999998,0,sub_13
-0.0271538000000002,-0.0003265999999987,0.0138923999999999,0.0071500000000004,-0.0272981999999993,0.0084631999999998,0,sub_13
-0.0188550000000002,-0.0003443999999987,0.0172573999999999,0.0132078000000004,-0.0085711999999993,0.0086951999999998,0,sub_13
-0.0140068000000002,0.0022024000000012,0.0203547999999999,0.0180066000000004,0.0163328000000005,0.0104057999999998,0,sub_13
-0.0149078000000002,0.0019012000000012,0.019802,0.0206256000000004,0.0388078000000005,0.0136275999999998,0,sub_13
-0.0163360000000002,0.0018262000000012,0.0197502,0.0225574000000004,0.0512700000000005,0.0172847999999998,0,sub_13
-0.0200534000000002,0.0056522000000012,0.023648,0.0225182000000004,0.0539324000000005,0.0224361999999998,0,sub_13
-0.0273580000000002,0.0106406000000012,0.0259855999999999,0.0179846000000004,0.0527790000000005,0.0267065999999998,0,sub_13
-0.0337390000000002,0.0114462000000012,0.0247285999999999,0.0140710000000004,0.0456638000000005,0.0294933999999998,0,sub_13
-0.0324702000000002,0.0101112000000012,0.0223421999999999,0.0123314000000004,0.0388504000000005,0.0299173999999998,0,sub_13
-0.0294768000000002,0.0085604000000012,0.0199691999999999,0.0123218000000004,0.0360832000000005,0.0292799999999999,0,sub_13
-0.0256898000000002,0.0052212000000012,0.0145591999999999,0.0130030000000004,0.0422714000000005,0.0262857999999999,0,sub_13
-0.0193000000000002,0.0023502000000012,0.0085247999999999,0.0179784000000004,0.0559150000000005,0.0211945999999999,0,sub_13
-0.0130192000000001,0.0004928000000012,0.0052627999999999,0.0233928000000004,0.0740246000000005,0.0178101999999999,0,sub_13
-0.0137638000000001,0.0013752000000012,0.0046783999999999,0.0255790000000004,0.0895742000000005,0.0180381999999999,0,sub_13
-0.0247384000000001,0.0041938000000012,0.0048823999999999,0.0266638000000004,0.0993674000000005,0.0201887999999999,0,sub_13
-0.0357130000000001,0.0064320000000012,0.0065706,0.0287370000000004,0.0942330000000005,0.0249291999999999,0,sub_13
-0.0486224000000001,0.0073086000000012,0.009487,0.0281866000000004,0.0729046000000005,0.0311483999999999,0,sub_13
-0.0564326000000001,0.0069968000000012,0.0148676,0.0241792000000004,0.0398786000000005,0.0352219999999999,0,sub_13
-0.0616100000000001,0.0064510000000012,0.0196865999999999,0.0186684000000004,0.0034542000000005,0.0380075999999999,0,sub_13
-0.0590036000000001,0.0016212000000012,0.0215067999999999,0.0059080000000004,-0.0300817999999994,0.0398843999999999,0,sub_13
-0.0560444000000001,-0.0036609999999987,0.0215283999999999,-0.0091141999999995,-0.0505893999999994,0.0357465999999999,0,sub_13
-0.0523222000000001,-0.0068953999999987,0.0208121999999999,-0.0180679999999995,-0.0568169999999994,0.0250099999999999,0,sub_13
-0.0514918000000002,-0.0051155999999987,0.0202573999999999,-0.0214357999999995,-0.0570881999999994,0.0117409999999999,0,sub_13
-0.0487514000000002,-0.0042607999999987,0.0175253999999999,-0.0231003999999995,-0.0582175999999994,-0.001515,0,sub_13
-0.0430634000000001,-0.0008227999999987,0.0158337999999999,-0.0213435999999995,-0.0588157999999994,-0.0132524,0,sub_13
-0.0362420000000001,0.0019642000000012,0.0151523999999999,-0.0170607999999995,-0.0607267999999994,-0.018561,0,sub_13
-0.0287234000000001,0.0036038000000012,0.0148021999999999,-0.0145003999999995,-0.0603111999999994,-0.0181164,0,sub_13
-0.0213506000000001,0.0042606000000012,0.0118461999999999,-0.0151165999999995,-0.0517995999999994,-0.014927,0,sub_13
-0.0168750000000001,0.0060752000000012,0.0091997999999999,-0.0158859999999995,-0.0303319999999994,-0.011794,0,sub_13
-0.0141662000000001,0.0079486000000012,0.0066671999999999,-0.0123887999999995,-0.0082433999999994,-0.0077774,0,sub_13
-0.0153126000000001,0.0098422000000012,0.0046953999999999,-0.0097921999999995,0.0048938000000005,-0.0022602,0,sub_13
-0.0229134000000001,0.0116106000000012,0.0046581999999999,-0.0096261999999995,0.0024744000000005,0.0062511999999998,0,sub_13
-0.0320904000000001,0.0114892000000012,0.0056443999999999,-0.0093271999999995,-0.0159323999999994,0.0167065999999998,0,sub_13
-0.0408388000000001,0.0109200000000012,0.0088195999999999,-0.0080425999999995,-0.0513485999999994,0.0278703999999998,0,sub_13
-0.0487320000000001,0.0092376000000012,0.0139495999999999,-0.0084745999999995,-0.0920725999999994,0.0358243999999999,0,sub_13
-0.0526636000000001,0.0068120000000012,0.0183899999999999,-0.0086655999999995,-0.1269003999999994,0.0381635999999999,0,sub_13
-0.0514786000000001,0.0037218000000012,0.0203286,-0.0092111999999995,-0.1512649999999994,0.0349319999999999,0,sub_13
-0.0444908000000001,0.0020454000000012,0.0200255999999999,-0.0115937999999995,-0.1606945999999994,0.0280365999999998,0,sub_13
