userAcceleration.x,userAcceleration.y,userAcceleration.z,rotationRate.x,rotationRate.y,rotationRate.z,label,subject
0.0079583999999996,0.0005426000000013,-0.0380745999999999,-0.0060867999999994,-0.0108289999999991,0.0024399999999999,0,sub_5
0.0092699999999996,0.0020848000000013,-0.0356123999999999,-0.0106299999999993,-0.0116717999999991,0.0036673999999999,0,sub_5
0.0101877999999995,0.0027534000000012,-0.0334289999999999,-0.0104279999999993,-0.0140169999999991,0.0038853999999999,0,sub_5
0.0105733999999996,0.0023986000000012,-0.0316481999999999,-0.0063873999999993,-0.0178625999999992,0.0030639999999999,0,sub_5
0.0108027999999996,0.0004898000000012,-0.0307279999999999,0.0012922000000006,-0.0187399999999992,0.0026913999999999,0,sub_5
0.0125329999999995,-3.5799999998705445e-05,-0.0305007999999999,0.0089276000000005,-0.0160473999999992,0.0027269999999999,0,sub_5
0.0146151999999995,-0.0013061999999986,-0.0299577999999999,0.0169774000000005,-0.0169747999999992,0.0019155999999999,0,sub_5
0.0154295999999996,3.320000000129435e-05,-0.0304867999999999,0.0233298000000005,-0.0159779999999992,0.0008763999999999,0,sub_5
0.0160379999999996,0.0018510000000012,-0.0332481999999999,0.0232896000000005,-0.0124047999999992,0.0004299999999999,0,sub_5
0.0161497999999995,0.0051778000000012,-0.0363067999999999,0.0219586000000005,-0.0113827999999992,-0.0002356,0,sub_5
0.0130179999999996,0.0046492000000012,-0.0397673999999999,0.0208794000000005,-0.0141487999999992,-0.0002396,0,sub_5
0.0098013999999996,0.0046208000000012,-0.0430279999999999,0.0183208000000005,-0.0135015999999992,-4.460000000006176e-05,0,sub_5
0.0082907999999996,0.0032760000000012,-0.0455315999999999,0.0153412000000005,-0.0126355999999992,-0.0009212,0,sub_5
0.0078315999999996,0.0022510000000012,-0.0458473999999999,0.0171568000000005,-0.0156957999999992,-0.0028324,0,sub_5
0.0072055999999996,0.0010160000000012,-0.0455075999999999,0.0176902000000005,-0.0196019999999991,-0.0051788,0,sub_5
0.0080605999999996,0.0018898000000012,-0.0438749999999999,0.0165290000000005,-0.0205203999999991,-0.0073272,0,sub_5
0.0082523999999996,0.0029854000000012,-0.0416519999999999,0.0149452000000005,-0.0176141999999991,-0.0064924,0,sub_5
0.0090609999999996,0.0033586000000012,-0.0385115999999999,0.0125010000000005,-0.0132255999999992,-0.0026746,0,sub_5
0.0089251999999996,0.0034406000000013,-0.0359635999999999,0.0065296000000006,-0.0087459999999992,0.0011235999999999,0,sub_5
0.0090287999999996,0.0029406000000013,-0.0346967999999999,0.0012020000000006,-0.0053261999999992,0.0030047999999999,0,sub_5
0.0083653999999996,0.0019940000000013,-0.0316555999999999,-0.0002885999999993,-0.0044695999999992,0.0032069999999998,0,sub_5
0.0082563999999996,0.0004044000000013,-0.0291137999999999,0.0019164000000006,-0.0057869999999992,0.0030045999999999,0,sub_5
0.0088337999999996,-0.0001455999999986,-0.0272679999999999,0.0047692000000006,-0.0064629999999991,0.0017377999999999,0,sub_5
0.0074675999999996,-0.0003529999999986,-0.0280633999999999,0.0140318000000005,-0.0065171999999991,-0.000767,0,sub_5
0.0051631999999996,0.0004022000000013,-0.0301645999999999,0.0269286000000005,-0.0040317999999992,-0.0021816,0,sub_5
0.0038617999999996,0.0005538000000013,-0.0360207999999999,0.0385344000000005,-0.0034609999999992,-0.0031754,0,sub_5
0.0032811999999996,0.0006654000000013,-0.0403223999999999,0.0464158000000005,-0.0083809999999992,-0.005037,0,sub_5
0.0021677999999996,0.0018758000000013,-0.0439245999999999,0.0551190000000006,-0.0190617999999992,-0.0056034,0,sub_5
0.0035867999999996,0.0026542000000013,-0.0458293999999999,0.0559274000000005,-0.0263195999999992,-0.0028112,0,sub_5
0.0061557999999996,0.0029194000000013,-0.0442831999999999,0.0475934000000005,-0.0305679999999992,0.0003525999999998,0,sub_5
0.0079675999999996,0.0041116000000013,-0.0412569999999999,0.0365060000000005,-0.0303325999999992,0.0034913999999998,0,sub_5
0.0092217999999996,0.0046648000000013,-0.0410905999999999,0.0250108000000005,-0.0268955999999992,0.0055551999999998,0,sub_5
0.0089021999999996,0.0034166000000013,-0.0407165999999999,0.0126786000000005,-0.0223801999999992,0.0050477999999998,0,sub_5
0.0081285999999996,0.0021764000000013,-0.0395457999999999,0.0052396000000005,-0.0217141999999992,0.0039387999999998,0,sub_5
0.0067769999999996,0.0004930000000013,-0.0375711999999999,0.0077886000000005,-0.0230063999999992,0.0052401999999998,0,sub_5
0.0075357999999996,-0.0007019999999986,-0.0371987999999999,0.0139764000000005,-0.0209059999999992,0.0074171999999998,0,sub_5
0.0087003999999996,-0.0005517999999986,-0.0353615999999999,0.0188916000000005,-0.0185821999999992,0.0080893999999998,0,sub_5
0.0102401999999996,0.0010156000000013,-0.0346927999999999,0.0236012000000005,-0.0145529999999992,0.0087579999999998,0,sub_5
0.0126081999999996,0.0008908000000013,-0.0350779999999999,0.0272556000000005,-0.0096363999999992,0.0089963999999998,0,sub_5
0.0147393999999996,0.0016756000000013,-0.0376973999999999,0.0236688000000005,-0.0044703999999992,0.0064065999999998,0,sub_5
0.0140067999999996,0.0020676000000013,-0.0373957999999999,0.0170870000000005,-0.0035445999999992,0.0012375999999998,0,sub_5
0.0126175999999996,0.0011908000000013,-0.0381375999999999,0.0137176000000005,0.0009876000000007,-0.0028454000000001,0,sub_5
0.0114127999999996,2.620000000131441e-05,-0.0389949999999999,0.0097088000000005,0.0061594000000007,-0.0065064,0,sub_5
0.0093743999999996,0.0001104000000013,-0.0390229999999999,0.0037794000000005,0.0130108000000007,-0.0097612,0,sub_5
0.0079109999999996,-0.0002643999999986,-0.0388843999999999,-2.279999999942918e-05,0.0196366000000007,-0.011719,0,sub_5
0.0073071999999996,6.76000000012944e-05,-0.0399645999999999,-4.099999999942917e-05,0.0239514000000007,-0.011503,0,sub_5
0.0060041999999996,0.0006776000000012,-0.0416235999999999,-0.0002879999999994,0.0267680000000007,-0.0093638,0,sub_5
0.0054297999999996,0.0019648000000012,-0.0430379999999999,-0.0016075999999994,0.0295832000000007,-0.0059502000000001,0,sub_5
0.0059507999999996,0.0032752000000012,-0.0433521999999999,-0.0008115999999994,0.0255842000000007,-0.0052906000000001,0,sub_5
0.0062035999999996,0.0031452000000012,-0.0425715999999999,0.0029572000000005,0.0168936000000007,-0.0060996,0,sub_5
0.0058597999999996,-0.0005349999999987,-0.0429259999999999,0.0025066000000005,0.0105078000000007,-0.0071628,0,sub_5
0.0080851999999996,-0.0019681999999987,-0.0409217999999999,-7.399999999938861e-05,0.0071036000000007,-0.0061082,0,sub_5
0.0087899999999996,-0.0025241999999987,-0.0404339999999999,0.0011900000000006,0.0045382000000007,-0.0050278,0,sub_5
0.0084643999999996,-0.0031073999999987,-0.0403911999999999,0.0032852000000006,0.0075658000000007,-0.003515,0,sub_5
0.0069963999999996,-0.0023237999999987,-0.0427875999999999,0.0036898000000006,0.0137970000000007,-0.0024456,0,sub_5
0.0063351999999996,0.0011210000000012,-0.0436831999999999,0.0060022000000006,0.0172516000000007,-0.0013592,0,sub_5
0.0050027999999996,0.0018398000000012,-0.0460969999999999,0.0110780000000005,0.0153822000000007,-0.0032378,0,sub_5
0.0043703999999996,4.260000000129447e-05,-0.0460581999999999,0.0161442000000005,0.0098968000000007,-0.0066072,0,sub_5
0.0040855999999996,-0.0009345999999986,-0.0463631999999999,0.0191104000000005,0.0043504000000007,-0.007434,0,sub_5
0.0047421999999996,-0.0001375999999986,-0.0463273999999999,0.0190836000000005,-0.0005541999999992,-0.0063596,0,sub_5
0.0061159999999996,0.0006550000000013,-0.0455775999999999,0.0169356000000005,-0.0018325999999992,-0.0044502,0,sub_5
0.0065013999999996,0.0011052000000013,-0.0446099999999999,0.0134050000000005,-0.0011159999999992,-0.002332,0,sub_5
0.0064013999999996,0.0013376000000013,-0.0427979999999999,0.0081704000000005,0.0002458000000007,-0.0002266,0,sub_5
0.0058357999999996,0.0007366000000013,-0.0411615999999999,0.0040036000000005,0.0003314000000007,0.0003923999999999,0,sub_5
0.0065573999999996,0.0002990000000013,-0.0405051999999999,0.0032524000000005,0.0006190000000007,0.0008211999999999,0,sub_5
0.0073063999999996,0.0002070000000013,-0.0408507999999999,0.0054914000000005,0.0002620000000007,-1.000000000006187e-05,0,sub_5
0.0079409999999996,0.0009942000000013,-0.0399027999999999,0.0086938000000005,-0.0018695999999992,-0.0025486,0,sub_5
0.0084679999999996,0.0013258000000013,-0.0404341999999999,0.0129622000000005,-0.0031569999999992,-0.0040128,0,sub_5
0.0097123999999996,0.0020958000000013,-0.0419191999999999,0.0161646000000005,-0.0027419999999992,-0.003991,0,sub_5
0.0100991999999996,0.0017830000000013,-0.0413707999999999,0.0158308000000005,-0.0041407999999992,-0.0042126,0,sub_5
0.0088847999999996,0.0010088000000013,-0.0386511999999999,0.0144252000000005,-0.0066009999999992,-0.0044402,0,sub_5
0.0079361999999995,0.0006400000000013,-0.0389053999999999,0.0130312000000005,-0.0041703999999992,-0.002324,0,sub_5
0.0076399999999995,0.0010246000000013,-0.0394277999999999,0.0088698000000005,0.0001858000000007,0.0001977999999998,0,sub_5
0.0071037999999995,0.0015712000000013,-0.0383137999999999,0.0066290000000005,0.0032618000000007,0.0014527999999998,0,sub_5
0.0064625999999995,0.0014820000000012,-0.0367073999999999,0.0089818000000005,0.0055930000000007,0.0025345999999998,0,sub_5
0.0072241999999996,0.0014052000000012,-0.0384043999999999,0.0117614000000005,0.0083470000000007,0.0040459999999998,0,sub_5
0.0081665999999996,0.0009150000000012,-0.0380095999999999,0.0115462000000005,0.0072850000000007,0.0034047999999999,0,sub_5
0.0085927999999996,0.0008354000000012,-0.0374357999999999,0.0129442000000005,0.0045590000000007,0.0008593999999999,0,sub_5
0.0082301999999996,0.0010710000000012,-0.0373221999999999,0.0126362000000005,0.0022644000000007,-0.0014848,0,sub_5
0.0078999999999996,0.0021396000000012,-0.0382303999999999,0.0099868000000005,0.0010440000000007,-0.0040604,0,sub_5
0.0084371999999996,0.0013058000000012,-0.0380979999999999,0.0075498000000005,3.4200000000771936e-05,-0.0062076,0,sub_5
0.0079055999999996,0.0015002000000012,-0.0388413999999999,0.0059644000000005,-0.0016167999999992,-0.0085614,0,sub_5
0.0078947999999996,0.0014306000000012,-0.0400843999999999,0.0053216000000005,-0.0035267999999992,-0.0098452,0,sub_5
0.0080715999999996,0.0002174000000013,-0.0412597999999999,0.0051110000000005,-0.0039479999999992,-0.0109144,0,sub_5
0.0083645999999996,-0.0014537999999986,-0.0422487999999999,0.0051062000000005,-0.0045887999999992,-0.0104864,0,sub_5
0.0077351999999996,-0.0008813999999986,-0.0422921999999999,0.0045982000000005,-0.0071549999999992,-0.0098316,0,sub_5
0.0077731999999996,-0.0006145999999986,-0.0419157999999999,0.0053636000000005,-0.0088829999999992,-0.006819,0,sub_5
0.0077681999999996,-0.0009747999999986,-0.0422771999999999,0.0065586000000005,-0.0103977999999992,-0.004231,0,sub_5
0.0080345999999996,-0.0005409999999986,-0.0440835999999999,0.0086090000000005,-0.0121257999999992,-0.0022776,0,sub_5
0.0081199999999996,-0.0005849999999986,-0.0458461999999999,0.0115302000000005,-0.0121439999999992,-0.0024566,0,sub_5
0.0077159999999996,-0.0006183999999986,-0.0480225999999999,0.0136696000000005,-0.0119341999999992,-0.0035102,0,sub_5
0.0087315999999995,-0.0010861999999986,-0.0496383999999999,0.0153794000000005,-0.0121497999999992,-0.0043524,0,sub_5
0.0113265999999995,0.0002518000000013,-0.0505135999999999,0.0149554000000005,-0.0112969999999992,-0.0041428,0,sub_5
0.0141387999999996,0.0014292000000013,-0.0502723999999999,0.0119770000000005,-0.0089447999999992,-0.0037394,0,sub_5
0.0151999999999996,0.0022114000000013,-0.0490507999999999,0.0076472000000005,-0.0066083999999992,-0.0026878,0,sub_5
0.0146827999999996,0.0022952000000013,-0.0474237999999999,0.0022468000000006,-0.0034229999999992,6.439999999991887e-05,0,sub_5
0.0119617999999996,0.0032390000000012,-0.0456347999999999,-0.0055189999999993,-0.0042771999999992,0.0028051999999999,0,sub_5
0.0085479999999996,0.0028462000000012,-0.0413861999999999,-0.0128647999999993,-0.0085339999999992,0.0036305999999998,0,sub_5
0.0040091999999996,0.0007094000000012,-0.0384879999999999,-0.0144755999999993,-0.0202611999999992,0.0027963999999998,0,sub_5
0.0026961999999996,-0.0005163999999987,-0.0348435999999999,-0.0126041999999993,-0.0315579999999992,0.0023965999999998,0,sub_5
0.0042755999999996,-0.0009001999999987,-0.0311267999999999,-0.0083627999999993,-0.0394471999999992,0.0002999999999998,0,sub_5
0.0070659999999996,-0.0023185999999986,-0.0268605999999999,-0.0011561999999993,-0.0394663999999992,-0.0036938000000001,0,sub_5
0.0088889999999996,-0.0033955999999986,-0.0248167999999999,0.0082044000000006,-0.0348067999999992,-0.0074648,0,sub_5
0.0116609999999996,-0.0009747999999986,-0.0237623999999999,0.0107754000000005,-0.0188423999999992,-0.0085202,0,sub_5
0.0127089999999996,0.0003696000000013,-0.0249405999999999,0.0091030000000005,0.0022508000000007,-0.0098256,0,sub_5
0.0121593999999996,0.0007384000000013,-0.0270655999999999,0.0063540000000005,0.0220660000000007,-0.0102824,0,sub_5
0.0108237999999996,0.0010732000000013,-0.0319797999999999,0.0030052000000005,0.0382630000000007,-0.0086174,0,sub_5
0.0093209999999996,0.0008222000000013,-0.0377171999999999,-0.0039823999999994,0.0538260000000007,-0.0050542,0,sub_5
0.0076849999999996,-0.0006359999999986,-0.0410609999999999,-0.0097165999999994,0.0610848000000007,-0.0038218,0,sub_5
0.0048935999999996,-0.0004029999999986,-0.0452225999999999,-0.0121393999999994,0.0587374000000007,-0.00404,0,sub_5
0.0026247999999996,-0.0007865999999986,-0.0499513999999999,-0.0111507999999994,0.0551024000000007,-0.0048736,0,sub_5
0.0014993999999996,-0.0014797999999986,-0.0542063999999999,-0.0086561999999994,0.0527466000000007,-0.007194,0,sub_5
0.0007319999999996,-0.0007959999999986,-0.0560753999999999,-0.0036145999999994,0.0467622000000007,-0.010133,0,sub_5
0.0008193999999996,-0.0006107999999987,-0.0579295999999999,0.0009782000000005,0.0394866000000007,-0.0094414,0,sub_5
0.0028035999999996,-0.0016547999999987,-0.0580227999999999,0.0002950000000005,0.0337212000000007,-0.0055932,0,sub_5
0.0047909999999996,-0.0002189999999987,-0.0558653999999999,-0.0065761999999994,0.0286138000000007,-0.0011482,0,sub_5
0.0060855999999996,0.0012632000000012,-0.0515299999999999,-0.0164439999999994,0.0220230000000007,0.0039187999999998,0,sub_5
0.0069723999999996,0.0016884000000012,-0.0480963999999999,-0.0261621999999994,0.0139436000000007,0.0087965999999999,0,sub_5
0.0079005999999996,0.0007458000000013,-0.0446931999999999,-0.0315985999999994,0.0069230000000007,0.0115663999999998,0,sub_5
0.0085553999999995,-1.799999999866544e-05,-0.0415399999999999,-0.0321205999999994,-0.0003209999999992,0.0126615999999998,0,sub_5
0.0093779999999995,-0.0018435999999986,-0.0394291999999999,-0.0298649999999993,-0.0079955999999992,0.0124947999999998,0,sub_5
0.0094867999999995,-0.0021909999999986,-0.0386147999999999,-0.0248259999999993,-0.0154593999999992,0.0104245999999998,0,sub_5
0.0099691999999995,-0.0023477999999986,-0.0399751999999999,-0.0167341999999993,-0.0237779999999992,0.0057915999999998,0,sub_5
0.0094675999999996,-0.0011357999999986,-0.0413021999999999,-0.0065133999999993,-0.0357157999999991,-0.0013856000000001,0,sub_5
0.0076113999999996,0.0007886000000013,-0.0444221999999999,0.0026472000000005,-0.0470073999999991,-0.0094256,0,sub_5
0.0058443999999996,0.0017352000000013,-0.0483763999999999,0.0122366000000005,-0.0559643999999991,-0.0155428,0,sub_5
0.0060067999999996,-0.0007883999999986,-0.0529353999999999,0.0209126000000005,-0.0608629999999991,-0.0175916,0,sub_5
0.0054575999999996,-0.0024109999999986,-0.0546173999999999,0.0197802000000005,-0.0606285999999992,-0.0160834,0,sub_5
0.0056803999999996,-0.0014359999999986,-0.0546351999999999,0.0084250000000005,-0.0499433999999992,-0.0084644,0,sub_5
0.0071241999999996,-0.0008339999999986,-0.0527783999999999,-0.0052857999999994,-0.0401065999999992,0.0002073999999999,0,sub_5
0.0064321999999996,-0.0014377999999986,-0.0498315999999999,-0.0172877999999994,-0.0319717999999992,0.0067569999999999,0,sub_5
0.0049013999999996,0.0012194000000013,-0.0466029999999999,-0.0285831999999993,-0.0257665999999992,0.0098747999999999,0,sub_5
0.0040137999999996,0.0027294000000013,-0.0445557999999999,-0.0300565999999993,-0.0219237999999992,0.0092185999999999,0,sub_5
0.0022675999999996,0.0016378000000013,-0.0450217999999999,-0.0204767999999994,-0.0259203999999992,0.0028969999999999,0,sub_5
0.0010673999999996,-0.0011873999999986,-0.0465457999999999,-0.0042689999999994,-0.0280181999999992,-0.004449,0,sub_5
0.0014483999999996,-0.0023141999999986,-0.0479311999999999,0.0127818000000005,-0.0316137999999992,-0.0109326,0,sub_5
0.0026331999999996,-0.0035375999999986,-0.0487997999999999,0.0264128000000005,-0.0339293999999992,-0.014878,0,sub_5
0.0036771999999996,-0.0031089999999986,-0.0495165999999999,0.0332044000000005,-0.0336849999999992,-0.0137472,0,sub_5
0.0046085999999996,-0.0029477999999986,-0.0486599999999999,0.0310746000000005,-0.0279447999999992,-0.0088556,0,sub_5
0.0044811999999996,-0.0007545999999986,-0.0474789999999999,0.0210594000000005,-0.0185609999999992,-0.0025282,0,sub_5
0.0044031999999996,0.0010396000000013,-0.0470617999999999,0.0078580000000005,-0.0072433999999992,0.0024925999999999,0,sub_5
0.0034465999999996,0.0019786000000013,-0.0462629999999999,-0.0004461999999994,-0.0008327999999992,0.0049899999999999,0,sub_5
0.0021883999999996,0.0006430000000013,-0.0469267999999999,-0.0021515999999994,0.0034052000000007,0.0049967999999999,0,sub_5
0.0012537999999996,-0.0006791999999986,-0.0470461999999999,0.0025422000000006,0.0042240000000007,0.0020615999999999,0,sub_5
0.0010931999999996,-0.0019497999999986,-0.0470783999999999,0.0112768000000006,0.0009848000000007,-0.0019084,0,sub_5
0.0011605999999996,-0.0009143999999986,-0.0472943999999999,0.0208544000000006,-0.0043887999999992,-0.0056562,0,sub_5
0.0009931999999996,-0.0004839999999986,-0.0479329999999999,0.0274446000000005,-0.0086909999999992,-0.0083578,0,sub_5
0.0014371999999996,7.660000000131413e-05,-0.0475397999999999,0.0308470000000005,-0.0123205999999991,-0.0093976,0,sub_5
0.0031071999999996,0.0009104000000013,-0.0475327999999999,0.0304002000000005,-0.0161565999999991,-0.0087548,0,sub_5
0.0044429999999996,0.0014834000000013,-0.0452577999999999,0.0276226000000005,-0.0198515999999992,-0.0078988,0,sub_5
0.0051445999999996,0.0006666000000013,-0.0441995999999999,0.0254840000000005,-0.0224885999999992,-0.0057578,0,sub_5
0.0064979999999996,0.0009394000000013,-0.0427323999999999,0.0244240000000005,-0.0236337999999992,-0.0046796,0,sub_5
0.0087551999999996,0.0021490000000013,-0.0407573999999999,0.0233534000000005,-0.0286079999999992,-0.0050918,0,sub_5
0.0105357999999996,0.0032130000000013,-0.0392529999999999,0.0246288000000005,-0.0365619999999992,-0.0082614,0,sub_5
0.0106451999999996,0.0023340000000013,-0.0400307999999999,0.0282552000000005,-0.0442145999999992,-0.015704,0,sub_5
0.0125087999999996,0.0008174000000013,-0.0399849999999999,0.0293758000000005,-0.0426851999999992,-0.0261668,0,sub_5
0.0147877999999996,-0.0009681999999986,-0.0418437999999999,0.0281512000000005,-0.0398725999999992,-0.0357928,0,sub_5
0.0121271999999996,-0.0031601999999986,-0.0447873999999999,0.0252532000000005,-0.0355551999999992,-0.0447806,0,sub_5
0.0076533999999996,-0.0035145999999986,-0.0490201999999999,0.0191232000000005,-0.0335889999999992,-0.0490878,0,sub_5
0.0064131999999996,-0.0022207999999986,-0.0522453999999999,0.0122820000000005,-0.0405959999999992,-0.0465518,0,sub_5
0.0011037999999996,-0.0015241999999986,-0.0554845999999999,0.0077112000000005,-0.0618967999999992,-0.0412042,0,sub_5
-0.0071014000000003,-0.0004733999999986,-0.0565353999999999,0.0063496000000005,-0.0823523999999992,-0.0369036,0,sub_5
-0.0117730000000003,0.0002638000000013,-0.0563701999999999,0.0077426000000005,-0.0996351999999992,-0.0317444,0,sub_5
-0.0129052000000003,-0.0005437999999986,-0.0546157999999999,0.0119324000000005,-0.1105413999999992,-0.0252918,0,sub_5
-0.0153666000000003,0.0013704000000013,-0.0532273999999999,0.0174330000000005,-0.1159075999999991,-0.020119,0,sub_5
-0.0148650000000003,0.0042736000000013,-0.0516991999999999,0.0242168000000005,-0.1206389999999991,-0.014938,0,sub_5
-0.0100354000000003,0.0022424000000013,-0.0482639999999999,0.0265354000000005,-0.1269835999999991,-0.0072126,0,sub_5
-0.0053908000000003,0.0009120000000013,-0.0452971999999999,0.0230958000000005,-0.1292737999999992,0.0038857999999998,0,sub_5
-0.0042658000000003,0.0013362000000013,-0.0420915999999999,0.0177348000000005,-0.1336799999999992,0.0130505999999999,0,sub_5
-0.0019458000000003,-0.0007197999999986,-0.0396555999999999,0.0091782000000005,-0.1370097999999992,0.0221917999999999,0,sub_5
0.0005341999999996,-0.0038673999999986,-0.0372433999999999,-0.0027999999999994,-0.1409711999999992,0.0323777999999999,0,sub_5
0.0007179999999996,-0.0030075999999986,-0.0378627999999999,-0.0126947999999993,-0.1497077999999992,0.0412929999999999,0,sub_5
-0.0014514000000003,-0.0008069999999986,-0.0398069999999999,-0.0172579999999993,-0.1646195999999992,0.0446983999999999,0,sub_5
-0.0043220000000003,-0.0023323999999986,-0.0429457999999999,-0.0167029999999993,-0.1811465999999992,0.0458051999999999,0,sub_5
-0.0093904000000003,-0.0042093999999986,-0.0465139999999999,-0.0101811999999993,-0.2002477999999992,0.0461023999999999,0,sub_5
-0.0133016000000003,-0.0054421999999986,-0.0515997999999999,-0.0006713999999993,-0.2223293999999992,0.0432197999999999,0,sub_5
-0.0182948000000003,-0.0064917999999986,-0.0549781999999999,0.0128782000000005,-0.2508039999999992,0.0371687999999999,0,sub_5
-0.0209096000000003,-0.0093013999999986,-0.0574037999999999,0.0276936000000005,-0.2822665999999992,0.0313441999999999,0,sub_5
-0.0203498000000003,-0.0080051999999986,-0.0598981999999999,0.0395246000000005,-0.3136067999999992,0.0263395999999999,0,sub_5
-0.0189830000000003,-0.0057383999999986,-0.0616787999999999,0.0449706000000005,-0.3423635999999992,0.0202187999999999,0,sub_5
-0.0190162000000003,-0.0025783999999986,-0.0612523999999999,0.0500024000000005,-0.3679247999999991,0.0145183999999999,0,sub_5
-0.0184208000000003,-0.0017647999999986,-0.0625925999999999,0.0535618000000005,-0.3873081999999992,0.0102951999999999,0,sub_5
-0.0171336000000003,-0.0002943999999986,-0.0634587999999999,0.0535158000000005,-0.4043251999999991,0.0034801999999999,0,sub_5
-0.0178700000000003,-0.0002267999999986,-0.0627459999999999,0.0541368000000005,-0.4166519999999992,-0.0046182,0,sub_5
-0.0182718000000003,0.0007378000000013,-0.0614095999999999,0.0641624000000005,-0.4219947999999992,-0.0092416,0,sub_5
-0.0151500000000003,0.0007306000000013,-0.0627889999999999,0.0748186000000005,-0.4235285999999992,-0.0078834,0,sub_5
-0.0110546000000003,0.0006414000000013,-0.0609159999999999,0.0818444000000005,-0.4246279999999992,-0.0054828,0,sub_5
-0.0080190000000003,-0.0004767999999986,-0.0595771999999999,0.0895134000000005,-0.4236047999999992,-0.001585,0,sub_5
-0.0048038000000003,-0.0009181999999986,-0.0600043999999999,0.0914394000000005,-0.4193623999999992,0.0014139999999999,0,sub_5
-0.0007984000000003,-0.0021847999999986,-0.0603861999999999,0.0833524000000005,-0.4157077999999992,0.0002847999999999,0,sub_5
-0.0003110000000003,-0.0032373999999986,-0.0573709999999999,0.0742464000000005,-0.4064897999999992,-0.0059864,0,sub_5
-0.0001224000000003,-0.0025331999999986,-0.0572687999999999,0.0694368000000005,-0.3902583999999992,-0.0115956,0,sub_5
0.0022453999999996,0.0006838000000013,-0.0574827999999999,0.0646596000000006,-0.3665709999999992,-0.0170004,0,sub_5
0.0061305999999996,0.0032046000000013,-0.0562297999999999,0.0639318000000005,-0.3452363999999992,-0.0236558,0,sub_5
0.0086977999999996,0.0022260000000013,-0.0538857999999999,0.0689688000000005,-0.3249793999999992,-0.0321924,0,sub_5
0.0112233999999996,0.0014198000000013,-0.0522189999999999,0.0757244000000005,-0.3030203999999992,-0.0415736,0,sub_5
0.0150347999999996,0.0030794000000013,-0.0497601999999999,0.0807766000000006,-0.2795667999999992,-0.0503278,0,sub_5
0.0185431999999996,0.0027770000000013,-0.0456213999999999,0.0875062000000005,-0.2593285999999992,-0.0556478,0,sub_5
0.0210891999999996,0.0011258000000013,-0.0420179999999999,0.0959198000000005,-0.2408143999999992,-0.0575354,0,sub_5
0.0237379999999996,0.0015792000000013,-0.0385847999999999,0.1000448000000005,-0.2229405999999992,-0.055393,0,sub_5
