userAcceleration.x,userAcceleration.y,userAcceleration.z,rotationRate.x,rotationRate.y,rotationRate.z,label,subject
-0.0115282000000002,0.0116416000000012,0.0003833999999999,-0.0099731999999993,0.0647568000000007,0.0194825999999999,0,sub_21
-0.0115486000000002,0.0075036000000012,-0.0014132,-0.0089215999999993,0.0649516000000007,0.0231215999999999,0,sub_21
-0.0099562000000002,0.0024726000000012,-0.0041986,-0.0081121999999993,0.0547238000000007,0.0227132,0,sub_21
-0.0045906000000002,-0.0001573999999987,-0.0089452,-0.0051967999999993,0.0344904000000007,0.0184865999999999,0,sub_21
0.0006465999999997,0.0015136000000012,-0.0139818,-0.0008271999999993,0.0061532000000007,0.0149213999999999,0,sub_21
0.0039993999999997,0.0040560000000012,-0.0147676,0.0030822000000006,-0.0262439999999992,0.0147765999999999,0,sub_21
0.0037181999999997,0.0018962000000012,-0.0139558,0.0051134000000006,-0.0484115999999992,0.0154601999999999,0,sub_21
0.0035985999999997,-0.0005235999999987,-0.0123004,0.0033574000000006,-0.0599079999999992,0.0148215999999999,0,sub_21
0.0021801999999997,0.0011712000000012,-0.0107498,0.0025086000000006,-0.0618105999999992,0.011827,0,sub_21
0.0021723999999997,0.0051262000000012,-0.0099124,0.0023250000000006,-0.0571149999999992,0.009897,0,sub_21
0.0026363999999997,0.0065254000000012,-0.0104036,-0.0010535999999993,-0.0477347999999992,0.011357,0,sub_21
0.0061581999999997,0.0086198000000012,-0.0103564,-0.0065811999999993,-0.0419679999999992,0.0125928,0,sub_21
0.0089939999999997,0.0129982000000012,-0.0109646,-0.0089319999999993,-0.0400533999999992,0.0153514,0,sub_21
0.0098849999999997,0.0145430000000012,-0.012246,-0.0106627999999993,-0.0404931999999992,0.0202538,0,sub_21
0.0082667999999997,0.0125128000000012,-0.0124496,-0.0117143999999993,-0.0364439999999992,0.0208822,0,sub_21
0.0081099999999997,0.0107824000000012,-0.0129378,-0.0120815999999993,-0.0285381999999992,0.0155283999999999,0,sub_21
0.0094373999999997,0.0132096000000012,-0.0140876,-0.0122393999999993,-0.0204243999999992,0.0112439999999999,0,sub_21
0.0107485999999997,0.0141120000000012,-0.0120296,-0.0149893999999993,-0.0178469999999992,0.0084439999999999,0,sub_21
0.0092093999999997,0.0130628000000012,-0.0090012,-0.0173115999999993,-0.0150579999999992,0.0056467999999999,0,sub_21
0.0078015999999997,0.0105254000000012,-0.0086106,-0.0143003999999993,-0.0131373999999992,0.0022469999999999,0,sub_21
0.0073753999999997,0.0109528000000012,-0.0084034,-0.0087153999999993,-0.0103649999999992,-0.0032724,0,sub_21
0.0079423999999997,0.0105848000000012,-0.0037336,-0.0059147999999993,-0.0103507999999992,-0.009235,0,sub_21
0.0061505999999997,0.0093118000000012,-0.001706,-0.0061079999999993,-0.0092711999999992,-0.0126559999999999,0,sub_21
0.0059787999999997,0.0088930000000012,0.0001135999999999,-0.0056811999999993,-0.0111825999999992,-0.0145733999999999,0,sub_21
0.0071981999999997,0.0094242000000012,0.0025777999999999,-0.0067633999999993,-0.0164973999999992,-0.0164969999999999,0,sub_21
0.0078413999999997,0.0095544000000012,0.0042267999999999,-0.0089545999999993,-0.0273633999999992,-0.0145755999999999,0,sub_21
0.0046815999999997,0.0080892000000012,0.0026497999999999,-0.0064563999999993,-0.0359157999999992,-0.009206,0,sub_21
0.0031669999999997,0.0060972000000012,0.0020019999999999,-0.0009139999999993,-0.0408629999999992,-0.0061804,0,sub_21
0.0011431999999997,0.0053386000000012,0.0011199999999999,0.0006126000000006,-0.0402445999999992,-0.0061809999999999,0,sub_21
-0.0012070000000002,0.0063752000000012,-0.000481,-0.0027787999999993,-0.0408917999999992,-0.0051461999999999,0,sub_21
-0.0018634000000002,0.0050384000000012,-0.0016124,-0.0068017999999993,-0.0400435999999992,-0.0045449999999999,0,sub_21
-0.0014230000000002,0.0050764000000012,-0.0032092,-0.0099625999999993,-0.0391907999999992,-0.0058605999999999,0,sub_21
-0.0033398000000002,0.0077358000000012,-0.0054368,-0.0127247999999993,-0.0374731999999992,-0.0067367999999999,0,sub_21
-0.0036514000000002,0.0083450000000012,-0.0078964,-0.0159195999999993,-0.0372447999999992,-0.0078277999999999,0,sub_21
-0.0033084000000002,0.0062290000000012,-0.0071298,-0.0182293999999993,-0.0302007999999992,-0.0091347999999999,0,sub_21
-0.0058370000000002,0.0072538000000012,-0.0052936,-0.0198417999999993,-0.0179339999999992,-0.0088357999999999,0,sub_21
-0.0064870000000002,0.0068998000000012,-0.0062152,-0.0253035999999993,-0.0054491999999992,-0.0064273999999999,0,sub_21
-0.0044598000000002,0.0054740000000012,-0.0081836,-0.0348347999999993,0.0025798000000006,-0.0051099999999999,0,sub_21
-0.0019848000000002,0.0053942000000012,-0.0100226,-0.0426733999999993,0.0082560000000006,-0.0029232,0,sub_21
-0.0017878000000002,0.0055338000000012,-0.0130346,-0.0477763999999993,0.0064614000000006,0.0003605999999999,0,sub_21
-0.0012254000000002,0.0037370000000012,-0.015718,-0.0505981999999993,-0.0033327999999993,0.0012079999999999,0,sub_21
-0.0010686000000002,0.0043938000000012,-0.0169942,-0.0519645999999993,-0.0233519999999993,0.0003694,0,sub_21
-0.0022228000000002,0.0048938000000012,-0.015008,-0.0497201999999993,-0.0467933999999993,-0.0002257999999999,0,sub_21
-0.0063568000000002,0.0056454000000012,-0.0109862,-0.0452671999999993,-0.0572315999999992,-0.0044541999999999,0,sub_21
-0.0118342000000002,0.0049264000000012,-0.004967,-0.0400883999999993,-0.0595333999999992,-0.0128465999999999,0,sub_21
-0.0091090000000002,0.0064994000000012,-0.0038732,-0.0361503999999993,-0.0537319999999992,-0.0218987999999999,0,sub_21
-0.0070776000000002,0.0072834000000012,-0.0001946,-0.0342963999999993,-0.0355711999999992,-0.0296995999999999,0,sub_21
-0.0052932000000002,0.0075038000000012,0.0054883999999999,-0.0309285999999993,-0.0112439999999992,-0.0357885999999999,0,sub_21
-0.0015902000000002,0.0060554000000012,0.0119747999999999,-0.0271703999999993,0.0077442000000007,-0.0390905999999999,0,sub_21
0.0046145999999997,0.0103648000000012,0.0146701999999999,-0.0257835999999993,0.0303276000000007,-0.0401781999999999,0,sub_21
0.0022863999999997,0.0129000000000012,0.0200389999999999,-0.0229223999999993,0.0475836000000007,-0.0423167999999999,0,sub_21
0.0094261999999997,0.0129072000000012,0.0247159999999999,-0.0142227999999993,0.0689472000000007,-0.0479209999999999,0,sub_21
0.0183225999999997,0.0136328000000012,0.0266541999999999,-0.0104277999999993,0.0937258000000007,-0.0507863999999999,0,sub_21
0.0224003999999997,0.0189674000000012,0.0222771999999998,-0.0100535999999993,0.1170250000000006,-0.0536737999999999,0,sub_21
0.0213619999999997,0.0164720000000012,0.0132261999999999,-0.0032695999999993,0.1375508000000007,-0.0612129999999999,0,sub_21
0.0254265999999997,0.0129260000000012,0.0080201999999999,0.0039718000000006,0.1638320000000007,-0.0698245999999999,0,sub_21
0.0299277999999997,0.0145048000000012,0.0035497999999999,0.0047030000000006,0.1804624000000007,-0.0734725999999999,0,sub_21
0.0291657999999997,0.0173102000000012,-0.0019958,0.0102822000000006,0.1828054000000007,-0.0781367999999999,0,sub_21
0.0283927999999997,0.0151864000000012,-0.0043638,0.0179472000000006,0.1751248000000007,-0.0821325999999999,0,sub_21
0.0275265999999997,0.0146058000000012,0.0009243999999999,0.0157952000000006,0.1698112000000007,-0.0834225999999999,0,sub_21
0.0224125999999997,0.0158288000000012,0.0026317999999999,0.0111626000000006,0.1720696000000006,-0.0856278,0,sub_21
0.0103827999999997,0.0142990000000012,0.0015881999999999,0.0070114000000006,0.1847730000000007,-0.0895522,0,sub_21
0.0048385999999996,0.0122284000000012,0.0011657999999999,-0.0011447999999993,0.2085682000000007,-0.0933049999999999,0,sub_21
0.0016195999999996,0.0093656000000012,0.0021561999999999,-0.0130995999999993,0.2430246000000007,-0.0958161999999999,0,sub_21
0.0025711999999997,0.0095854000000012,0.0018025999999999,-0.0208003999999993,0.2746954000000007,-0.0980803999999999,0,sub_21
-0.0004122000000002,0.0129634000000012,0.0014761999999999,-0.0230391999999993,0.2977174000000007,-0.0991935999999999,0,sub_21
-0.0093912000000002,0.0167484000000012,0.0028511999999999,-0.0171657999999993,0.3200780000000007,-0.1017448,0,sub_21
-0.0154514000000002,0.0152594000000012,-0.000497,-0.0050913999999993,0.3487950000000007,-0.1008425999999999,0,sub_21
-0.0109150000000002,0.0151378000000012,-0.0004186,0.0084776000000006,0.3772954000000007,-0.1003569999999999,0,sub_21
-0.0057890000000002,0.0159358000000012,0.0006069999999999,0.0226868000000006,0.4053692000000007,-0.1002937999999999,0,sub_21
-0.0025784000000002,0.0145924000000012,0.0037699999999999,0.0405004000000006,0.4287416000000007,-0.0997721999999999,0,sub_21
0.0050939999999997,0.0094700000000012,0.0096101999999999,0.0555246000000006,0.4474414000000007,-0.1005457999999999,0,sub_21
0.0156851999999997,0.0122928000000012,0.0189233999999998,0.0627068000000006,0.4708842000000007,-0.1084305999999999,0,sub_21
0.0141755999999997,0.0199046000000012,0.0239253999999998,0.0690576000000006,0.4990178000000007,-0.1165408,0,sub_21
0.0126861999999997,0.0225160000000012,0.0272311999999998,0.0719972000000006,0.5305612000000007,-0.1219017999999999,0,sub_21
0.0197421999999997,0.0200892000000012,0.0300479999999998,0.0681702000000006,0.5774614000000007,-0.1256206,0,sub_21
0.0284913999999997,0.0259250000000012,0.0317405999999999,0.0695046000000006,0.6339286000000007,-0.1286747999999999,0,sub_21
0.0287973999999997,0.0248698000000012,0.0406563999999999,0.0820586000000006,0.6733010000000007,-0.1288511999999999,0,sub_21
0.0286411999999997,0.0172788000000012,0.0482363999999998,0.1003314000000006,0.7066742000000007,-0.1255615999999999,0,sub_21
0.0271181999999997,0.0125160000000012,0.0538023999999999,0.1177622000000006,0.7356044000000008,-0.1293223999999999,0,sub_21
0.0241227999999997,0.0151504000000012,0.0585779999999999,0.1219324000000006,0.7558524000000008,-0.1348737999999999,0,sub_21
0.0172307999999997,0.0126580000000012,0.0599031999999999,0.1162930000000006,0.7742300000000008,-0.1436961999999999,0,sub_21
0.0094859999999997,0.0100708000000012,0.0506065999999999,0.1154140000000006,0.7977428000000006,-0.1621058,0,sub_21
0.0086667999999997,0.0028284000000012,0.0301681999999999,0.1185604000000006,0.8061496000000007,-0.1892274,0,sub_21
0.0069669999999997,0.0007204000000012,0.0091867999999999,0.1203096000000006,0.8010882000000006,-0.2037365999999999,0,sub_21
0.0010379999999997,0.0008160000000012,-0.0116574,0.1236248000000006,0.7770098000000007,-0.2058191999999999,0,sub_21
-0.0136046000000002,-0.0009223999999987,-0.0267076,0.1257466000000006,0.7330880000000007,-0.1995523999999999,0,sub_21
-0.0208240000000002,-0.0069489999999987,-0.0382308,0.1212290000000006,0.6904404000000007,-0.1864969999999999,0,sub_21
-0.0231128000000002,-0.0078747999999987,-0.0399676,0.1086224000000006,0.6561140000000008,-0.1694496,0,sub_21
-0.0168408000000002,-0.0033355999999987,-0.0360264,0.0966986000000006,0.6191172000000008,-0.1536749999999999,0,sub_21
-0.0132720000000002,-0.0110075999999987,-0.0299568,0.0928532000000006,0.5712434000000007,-0.1421027999999999,0,sub_21
-0.0009260000000002,-0.0163367999999987,-0.0273774,0.0938598000000006,0.5092978000000008,-0.1321878,0,sub_21
-0.0038688000000002,-0.0089007999999987,-0.0258208,0.0894842000000006,0.4367182000000006,-0.1222969999999999,0,sub_21
-0.0107868000000002,0.0011944000000012,-0.0236098,0.0833900000000006,0.3637100000000007,-0.1102811999999999,0,sub_21
-0.0226340000000002,0.0008234000000012,-0.0230974,0.0777230000000006,0.3001972000000007,-0.0997707999999999,0,sub_21
-0.0239904000000002,-0.0020577999999987,-0.0214598,0.0715472000000006,0.2622674000000007,-0.0929287999999999,0,sub_21
-0.0264884000000002,-0.0034931999999987,-0.0235358,0.0651078000000006,0.2563142000000007,-0.0904023999999999,0,sub_21
-0.0225040000000001,-0.0041951999999987,-0.0277144,0.0625530000000006,0.2612088000000007,-0.0867945999999999,0,sub_21
-0.0228262000000002,-0.0037109999999987,-0.0291466,0.0668138000000006,0.2645832000000007,-0.0818551999999999,0,sub_21
-0.0200178000000002,-0.0103013999999987,-0.0320958,0.0744704000000006,0.2615634000000008,-0.0792339999999999,0,sub_21
-0.0191898000000002,-0.0072963999999987,-0.0365488,0.0795790000000006,0.2553806000000007,-0.0826085999999999,0,sub_21
-0.0134888000000002,0.0046932000000012,-0.0371482,0.0818378000000006,0.2338616000000007,-0.0844881999999999,0,sub_21
-0.0067972000000002,0.0067504000000012,-0.0354378,0.0823408000000006,0.2091222000000007,-0.0786846,0,sub_21
-0.0012484000000002,0.0036932000000012,-0.0341714,0.0775066000000006,0.1865208000000007,-0.0701437999999999,0,sub_21
9.219999999972306e-05,0.0054002000000012,-0.0313992,0.0686432000000006,0.1703218000000007,-0.0607845999999999,0,sub_21
0.0055403999999997,0.0061164000000012,-0.0306944,0.0633372000000006,0.1400428000000007,-0.0498869999999999,0,sub_21
0.0066419999999997,0.0008570000000012,-0.0287672,0.0582504000000006,0.1091316000000007,-0.0409097999999999,0,sub_21
0.0062755999999997,0.0055108000000012,-0.029338,0.0553730000000006,0.0880414000000007,-0.0389799999999999,0,sub_21
0.0056693999999997,0.0049636000000012,-0.0289878,0.0587180000000006,0.0726896000000007,-0.0389367999999999,0,sub_21
0.0060251999999997,0.0042888000000013,-0.0292894,0.0686612000000006,0.0547538000000007,-0.0377761999999999,0,sub_21
0.0052145999999997,0.0030994000000013,-0.0220624,0.0733122000000006,0.0468476000000007,-0.0360243999999999,0,sub_21
0.0031557999999997,-0.0003541999999986,-0.0186608,0.0746126000000006,0.0538636000000007,-0.0334605999999999,0,sub_21
-0.0017586000000002,-0.0024271999999987,-0.015316,0.0714360000000006,0.0598378000000007,-0.0328495999999999,0,sub_21
-0.0018212000000002,0.0004376000000012,-0.0146156,0.0665312000000006,0.0607064000000006,-0.0326713999999999,0,sub_21
0.0012253999999997,0.0040018000000012,-0.0119076,0.0529022000000006,0.0690538000000006,-0.0304271999999999,0,sub_21
-0.0034284000000002,0.0072272000000012,-0.0114174,0.0456802000000006,0.0795060000000007,-0.0272863999999999,0,sub_21
-0.0046622000000002,0.0083904000000012,-0.0157926,0.0435302000000006,0.0788624000000007,-0.0243095999999999,0,sub_21
0.0012337999999997,0.0066566000000012,-0.0160962,0.0419772000000006,0.0673558000000007,-0.0225963999999999,0,sub_21
0.0038977999999997,0.0119770000000012,-0.0161302,0.0389698000000006,0.0633166000000007,-0.0221849999999999,0,sub_21
0.0009255999999997,0.0109902000000012,-0.0136606,0.0431758000000006,0.0543348000000007,-0.0174439999999999,0,sub_21
-0.0011740000000002,0.0097598000000012,-0.0195446,0.0433364000000006,0.0500432000000007,-0.0099597999999999,0,sub_21
-0.0070616000000002,0.0087176000000012,-0.0175514,0.0403262000000006,0.0510942000000007,-0.0037863999999999,0,sub_21
-0.0115522000000002,0.0089828000000012,-0.0132412,0.0386182000000006,0.0566166000000007,0.001963,0,sub_21
-0.0143938000000002,0.0033598000000012,-0.0092878,0.0396544000000006,0.0576466000000007,0.0098738,0,sub_21
-0.0168666000000002,0.0060924000000012,-0.0082172,0.0394200000000006,0.0582652000000007,0.0152126,0,sub_21
-0.0198724000000002,0.0067714000000012,-0.0042534,0.0364060000000006,0.0531588000000007,0.0160526,0,sub_21
-0.0213830000000002,0.0081498000000012,-0.0051398,0.0312764000000006,0.0506226000000007,0.015379,0,sub_21
-0.0242406000000002,0.0073298000000012,-0.0086542,0.0240602000000006,0.0572602000000007,0.0133972,0,sub_21
-0.0193542000000002,0.0049004000000012,-0.008025,0.0176744000000006,0.0617524000000007,0.014415,0,sub_21
-0.0112194000000002,0.0018334000000012,-0.0106996,0.0130070000000006,0.0658244000000007,0.0124542,0,sub_21
-0.0013642000000002,0.0017936000000012,-0.0136892,0.0107030000000006,0.0735102000000007,0.0105054,0,sub_21
0.0049561999999997,0.0069060000000012,-0.0110808,0.0100676000000006,0.0752142000000007,0.0111398,0,sub_21
0.0124185999999997,0.0020356000000012,-0.0124284,0.0108386000000006,0.0626182000000007,0.0169298,0,sub_21
0.0146307999999997,0.0035170000000012,-0.0137848,0.0048134000000006,0.0473154000000007,0.0128482,0,sub_21
0.0111231999999997,0.0085350000000012,-0.0134228,-0.0052561999999993,0.0311866000000007,0.0057484,0,sub_21
0.0070783999999997,0.0117100000000012,-0.0142394,-0.0147125999999993,0.0146074000000007,0.0042082,0,sub_21
0.0094337999999997,0.0104238000000012,-0.0171726,-0.0205109999999993,0.0058942000000007,0.0037515999999999,0,sub_21
0.0097825999999997,0.0129480000000012,-0.0145306,-0.0233049999999993,0.0012176000000007,0.0035243999999999,0,sub_21
0.0073843999999997,0.0118336000000012,-0.0127774,-0.0241967999999993,-0.0039063999999992,0.0069429999999999,0,sub_21
0.0075831999999997,0.0054126000000012,-0.0149702,-0.0212267999999993,-0.0045687999999992,0.0101691999999999,0,sub_21
0.0118505999999997,0.0038354000000012,-0.018695,-0.0154417999999993,-0.0054495999999992,0.0083044,0,sub_21
0.0168647999999997,0.0049052000000012,-0.018502,-0.0082205999999993,-0.0176333999999992,0.0079598,0,sub_21
0.0203147999999997,0.0076852000000012,-0.0181274,-0.0004187999999993,-0.0385723999999992,0.012117,0,sub_21
0.0177615999999997,0.0062908000000012,-0.0176402,0.0046294000000006,-0.0552397999999992,0.0160358,0,sub_21
0.0159045999999997,0.0092116000000012,-0.0145802,0.0011828000000006,-0.0684463999999992,0.0143362,0,sub_21
0.0154151999999997,0.0128706000000012,-0.0079458,-0.0050193999999993,-0.0752279999999992,0.0106697999999999,0,sub_21
0.0130379999999997,0.0154320000000012,-0.0018008,-0.0109659999999993,-0.0715749999999992,0.0080597999999999,0,sub_21
0.0117221999999997,0.0084902000000012,0.0058193999999999,-0.0134639999999993,-0.0619615999999992,0.0037571999999999,0,sub_21
0.0150963999999997,0.0084958000000012,0.0102461999999999,-0.0124849999999993,-0.0425425999999992,-0.0048066,0,sub_21
0.0159661999999997,0.0108472000000012,0.0158873999999999,-0.0097853999999993,-0.0216321999999992,-0.0148558,0,sub_21
0.0196337999999997,0.0102810000000012,0.0160951999999999,-0.0045531999999993,-0.0037263999999992,-0.0216789999999999,0,sub_21
0.0260471999999997,0.0074094000000012,0.0120883999999999,0.0017236000000006,0.0092754000000007,-0.0284883999999999,0,sub_21
0.0356065999999997,0.0160724000000012,0.0078081999999999,0.0013428000000006,0.0146228000000007,-0.0334117999999999,0,sub_21
0.0374995999999997,0.0200466000000012,-0.0012318,-0.0006091999999993,0.0069622000000007,-0.0340565999999999,0,sub_21
0.0408309999999997,0.0198206000000012,-0.0096204,0.0008258000000006,-0.0034927999999992,-0.0314695999999999,0,sub_21
0.0362993999999997,0.0178974000000012,-0.0086308,0.0054990000000006,-0.0094695999999992,-0.0327109999999999,0,sub_21
0.0312545999999997,0.0136430000000012,-0.0056782,0.0101790000000006,-0.0194721999999992,-0.0395021999999999,0,sub_21
0.0320353999999997,0.0088536000000012,0.0014343999999999,0.0140686000000006,-0.0258081999999992,-0.0567721999999999,0,sub_21
0.0401949999999997,0.0085186000000012,0.0128643999999999,0.0139770000000006,-0.0273967999999992,-0.0856127999999999,0,sub_21
0.0508463999999997,0.0080778000000012,0.0208793999999999,0.0046816000000006,-0.0385279999999992,-0.1177099999999999,0,sub_21
0.0686879999999997,0.0129544000000012,0.0247407999999999,-0.0158299999999993,-0.0739185999999992,-0.147291,0,sub_21
0.0874003999999997,0.0202362000000012,0.0334117999999999,-0.0387673999999993,-0.1214661999999992,-0.1715319999999999,0,sub_21
0.0999073999999997,0.0303388000000012,0.0384685999999999,-0.0505823999999993,-0.1611773999999992,-0.1937825999999999,0,sub_21
0.1052709999999997,0.0442484000000012,0.0532969999999999,-0.0335575999999993,-0.1829215999999992,-0.2053861999999999,0,sub_21
0.0830459999999997,0.0476626000000012,0.0764527999999999,0.0179122000000006,-0.1624761999999992,-0.1947979999999999,0,sub_21
0.0552961999999997,0.0422650000000012,0.0961317999999999,0.0905528000000006,-0.1244499999999992,-0.1768203999999999,0,sub_21
0.0313861999999997,0.0368714000000012,0.1024839999999999,0.1654816000000006,-0.0674083999999992,-0.1742337999999999,0,sub_21
0.0088979999999997,0.0262336000000012,0.1025051999999999,0.2284690000000006,-0.0130767999999992,-0.1762135999999999,0,sub_21
-0.0042062000000002,0.0124096000000012,0.0918939999999999,0.2727828000000006,0.0074818000000007,-0.1876807999999999,0,sub_21
0.0101857999999997,0.0110468000000012,0.0733605999999999,0.2927232000000006,-0.0090529999999992,-0.2257625999999999,0,sub_21
0.0118729999999997,0.0112136000000012,0.0501439999999999,0.2983428000000006,-0.0342603999999992,-0.267138,0,sub_21
0.0093173999999997,0.0030610000000012,0.0275391999999999,0.3054076000000006,-0.0932339999999992,-0.283891,0,sub_21
0.0123921999999997,-0.0011349999999987,-0.0016428,0.3160112000000006,-0.2063885999999992,-0.2875174,0,sub_21
0.0170719999999997,-0.0026447999999987,-0.0332142,0.3234942000000006,-0.3277147999999992,-0.2695771999999999,0,sub_21
0.0141999999999997,0.0017190000000012,-0.0542702,0.3426054000000006,-0.4574533999999993,-0.2359489999999999,0,sub_21
0.0108971999999997,-0.0005989999999987,-0.0670962,0.3863910000000006,-0.6024127999999992,-0.2002061999999999,0,sub_21
0.0174745999999997,0.0016758000000012,-0.0810334,0.4262678000000006,-0.7624855999999992,-0.1644711999999999,0,sub_21
0.0200455999999997,0.0050182000000012,-0.0895172,0.4508882000000006,-0.9022507999999992,-0.1322872,0,sub_21
0.0003103999999997,0.0067870000000012,-0.079228,0.4661082000000006,-1.0144295999999993,-0.1175093999999999,0,sub_21
-0.0150260000000002,-0.0078287999999987,-0.0788034,0.4618108000000006,-1.1372401999999993,-0.0911037999999999,0,sub_21
-0.0159732000000002,0.0053930000000012,-0.0618364,0.3946888000000006,-1.206695599999999,-0.0863561999999999,0,sub_21
-0.0521032000000002,0.0102190000000012,-0.0273378,0.3333402000000006,-1.1930209999999994,-0.0962025999999999,0,sub_21
-0.1057386000000002,0.0021396000000012,-0.0072574,0.3070284000000006,-1.1849253999999991,-0.0733231999999999,0,sub_21
-0.1033962000000002,0.0039592000000012,-0.0051398,0.2405058000000006,-1.185051599999999,-0.0374679999999999,0,sub_21
-0.1066748000000002,0.0164234000000012,0.0002683999999999,0.1603808000000005,-1.1072481999999992,-0.0308633999999999,0,sub_21
-0.1144736000000002,0.0147692000000012,0.0010841999999999,0.1179910000000005,-1.0037163999999992,0.0090866,0,sub_21
-0.0961822000000002,0.0119602000000012,-0.0067612,0.0604810000000006,-0.9340359999999992,0.0560248,0,sub_21
-0.0634858000000002,0.0152848000000012,-0.006444,-0.0056905999999993,-0.8301053999999992,0.070171,0,sub_21
-0.0703826000000002,0.0074656000000012,-0.0062292,-0.0234631999999993,-0.6977849999999992,0.0780126,0,sub_21
-0.0702296000000002,-0.0010675999999987,0.0068765999999999,-0.0228057999999993,-0.5798653999999992,0.1013838,0,sub_21
-0.0640690000000002,-0.0056335999999987,0.0165973999999999,-0.0040901999999993,-0.4907261999999992,0.1135952,0,sub_21
-0.0635354000000002,-0.0015857999999987,0.0297447999999999,0.0305234000000006,-0.3866917999999992,0.1167116,0,sub_21
-0.0670642000000002,0.0011324000000012,0.0341661999999999,0.0500824000000006,-0.2723343999999992,0.1088138,0,sub_21
-0.0679622000000002,0.0028142000000012,0.0446603999999998,0.0562666000000006,-0.1455285999999992,0.0939532,0,sub_21
-0.0646346000000002,0.0055598000000012,0.0542471999999998,0.0602818000000006,-0.0263859999999992,0.0793008,0,sub_21
-0.0561118000000002,-0.0013049999999987,0.0535289999999998,0.0492524000000006,0.0687338000000007,0.064574,0,sub_21
-0.0469330000000002,-0.0044917999999987,0.0440631999999998,0.0270068000000006,0.1395942000000007,0.0523638,0,sub_21
-0.0409840000000002,0.0057546000000012,0.0470495999999998,0.0036926000000006,0.2119418000000007,0.042067,0,sub_21
-0.0308364000000002,0.0107936000000012,0.0458705999999998,-0.0153067999999993,0.2503866000000008,0.0348346,0,sub_21
-0.0196502000000002,0.0053246000000012,0.0332371999999999,-0.0414577999999993,0.2643548000000008,0.0275838,0,sub_21
