userAcceleration.x,userAcceleration.y,userAcceleration.z,rotationRate.x,rotationRate.y,rotationRate.z,label,subject
0.0417971999999996,-0.0023131999999987,-0.010401,0.0074316000000004,0.0246790000000009,-0.0218964,0,sub_3
0.0423465999999997,-0.0008703999999987,-0.0092664,0.0087554000000004,0.0172844000000009,-0.0241866,0,sub_3
0.0408137999999997,-0.0035727999999987,-0.0060358,0.0092010000000004,0.0056264000000009,-0.0251956,0,sub_3
0.0381527999999996,-0.0056825999999987,-0.0021218,0.0068812000000004,-0.002830999999999,-0.0249462,0,sub_3
0.0359813999999997,-0.0065957999999987,0.0001053999999999,-0.0001973999999995,-0.010478799999999,-0.0243447999999999,0,sub_3
0.0343777999999996,-0.0069263999999987,0.0023081999999999,-0.0126027999999995,-0.016827999999999,-0.0242095999999999,0,sub_3
0.0363139999999996,-0.0086175999999987,-0.002027,-0.0293385999999995,-0.0173009999999991,-0.0251619999999999,0,sub_3
0.0399605999999996,-0.0069035999999987,-0.0102428,-0.0443301999999995,-0.011592799999999,-0.0282466,0,sub_3
0.0441589999999996,-0.0047015999999987,-0.019944,-0.0557029999999995,-0.008239199999999,-0.0317302,0,sub_3
0.0472121999999996,-0.0032555999999987,-0.0278144,-0.0609101999999994,-0.007261199999999,-0.032604,0,sub_3
0.0469517999999997,-0.0029671999999987,-0.0321864,-0.0586721999999994,-0.008451799999999,-0.030432,0,sub_3
0.0434073999999996,-0.0042115999999987,-0.0312042,-0.0516615999999994,-0.010201199999999,-0.0252534,0,sub_3
0.0400633999999997,-0.0054213999999987,-0.027888,-0.0397635999999994,-0.011349199999999,-0.014914,0,sub_3
0.0374699999999997,-0.0075313999999987,-0.0223226,-0.0240315999999994,-0.0086969999999991,0.0007883999999999,0,sub_3
0.0356797999999996,-0.0083717999999987,-0.0174858,-0.0059513999999995,-0.0035055999999991,0.0188541999999999,0,sub_3
0.0368375999999997,-0.0073677999999987,-0.0150374,0.0122944000000004,0.0025562000000008,0.0371347999999999,0,sub_3
0.0400163999999996,-0.0049523999999987,-0.0127482,0.0269224000000004,0.0088512000000008,0.0534671999999999,0,sub_3
0.0431961999999997,-0.0025519999999987,-0.0114474,0.0334482000000005,0.0113602000000008,0.0646201999999999,0,sub_3
0.0454771999999997,0.0003276000000012,-0.011913,0.0335708000000004,0.0043408000000008,0.0665539999999999,0,sub_3
0.0466903999999996,0.0025506000000012,-0.0108336,0.0313300000000004,-0.0128703999999991,0.0618613999999999,0,sub_3
0.0467263999999996,0.0021696000000012,-0.0080958,0.0278604000000004,-0.0345523999999991,0.0524645999999999,0,sub_3
0.0439573999999996,0.0005724000000012,-0.0043338,0.0199130000000004,-0.059186999999999,0.0394081999999999,0,sub_3
0.0403651999999996,0.0003928000000012,0.0013499999999999,0.0059450000000004,-0.082259599999999,0.0260987999999999,0,sub_3
0.0362453999999996,0.0017390000000012,0.0069213999999999,-0.0105583999999995,-0.096388799999999,0.0161785999999999,0,sub_3
0.0326003999999996,0.0032386000000012,0.0079065999999999,-0.0229627999999995,-0.098184599999999,0.0086209999999999,0,sub_3
0.0296175999999996,0.0049398000000012,0.0082775999999999,-0.0285113999999995,-0.092976599999999,0.0019569999999999,0,sub_3
0.0277507999999996,0.0070676000000012,0.0075941999999999,-0.0261519999999995,-0.0831159999999991,-0.0029484,0,sub_3
0.0270267999999996,0.0065872000000012,0.0065323999999999,-0.0179689999999995,-0.0707703999999991,-0.00718,0,sub_3
0.0267717999999996,0.0043040000000012,0.0047805999999999,-0.0093611999999995,-0.058852199999999,-0.0114082,0,sub_3
0.0272453999999996,0.0011538000000012,0.0052511999999999,-0.0065231999999995,-0.047982399999999,-0.0148206,0,sub_3
0.0287761999999996,-0.0006073999999987,0.0041563999999999,-0.0093013999999995,-0.038335999999999,-0.0163128,0,sub_3
0.0303367999999997,-0.0017329999999987,0.0025107999999999,-0.0129463999999995,-0.030183799999999,-0.0163138,0,sub_3
0.0316555999999997,-0.0016309999999987,-1.860000000005217e-05,-0.0131881999999994,-0.024599199999999,-0.0165014,0,sub_3
0.0333265999999997,-0.0013197999999987,-0.0013054,-0.0106569999999994,-0.019873999999999,-0.0173094,0,sub_3
0.0349199999999997,-0.0010805999999987,-0.0020662,-0.0076969999999994,-0.015148799999999,-0.0185416,0,sub_3
0.0362031999999997,-0.0010945999999987,-0.0035924,-0.0066021999999994,-0.010034999999999,-0.0196088,0,sub_3
0.0379283999999996,-0.0013089999999987,-0.0060206,-0.0070029999999994,-0.004280999999999,-0.0196189999999999,0,sub_3
0.0397739999999996,-0.0015403999999987,-0.00955,-0.0082563999999995,0.0035988000000009,-0.0177149999999999,0,sub_3
0.0415953999999996,-0.0025319999999987,-0.0141422,-0.0086573999999995,0.0129602000000009,-0.0140978,0,sub_3
0.0435779999999996,-0.0036455999999987,-0.0186824,-0.0084303999999994,0.0217862000000009,-0.009329,0,sub_3
0.0451337999999996,-0.0055761999999987,-0.0217862,-0.0065003999999994,0.0295420000000009,-0.0047606,0,sub_3
0.0458189999999996,-0.0073715999999987,-0.0234596,-0.0041521999999994,0.0351664000000009,-0.0004002,0,sub_3
0.0473683999999996,-0.0073533999999987,-0.0232132,-0.0003313999999994,0.0358862000000009,0.0037631999999999,0,sub_3
0.0492843999999996,-0.0066259999999987,-0.020843,0.0051744000000005,0.0319120000000009,0.0081579999999999,0,sub_3
0.0497687999999996,-0.0044193999999987,-0.0185088,0.0100330000000004,0.0254854000000009,0.0126867999999999,0,sub_3
0.0484119999999996,-0.0024279999999987,-0.016292,0.0127570000000004,0.0190652000000009,0.0174143999999999,0,sub_3
0.0469777999999997,-0.0015627999999987,-0.0143986,0.0142162000000004,0.0143610000000009,0.0204217999999999,0,sub_3
0.0449677999999997,-0.0021213999999987,-0.0134738,0.0138280000000004,0.0123876000000009,0.0213269999999999,0,sub_3
0.0424589999999997,-0.0023659999999987,-0.0137822,0.0106852000000004,0.0117142000000009,0.0192203999999999,0,sub_3
0.0408729999999997,-0.0043551999999987,-0.0138654,0.0071252000000004,0.0104142000000008,0.0143339999999999,0,sub_3
0.0413401999999996,-0.0051275999999987,-0.0142852,0.0035662000000004,0.0069932000000008,0.0071003999999999,0,sub_3
0.0427721999999996,-0.0049429999999987,-0.0146698,0.0002060000000004,-4.899999999911503e-05,-0.0005546,0,sub_3
0.0439217999999997,-0.0045407999999987,-0.0159034,-0.0038575999999995,-0.0083191999999991,-0.006768,0,sub_3
0.0450653999999997,-0.0041447999999987,-0.0173466,-0.0070811999999995,-0.0170285999999991,-0.0104114,0,sub_3
0.0454605999999997,-0.0030669999999987,-0.0189146,-0.0088109999999995,-0.025054199999999,-0.0115332,0,sub_3
0.0454937999999996,-0.0020497999999987,-0.019061,-0.0094785999999995,-0.031602599999999,-0.010086,0,sub_3
0.0449597999999997,-0.0016665999999987,-0.019344,-0.0092907999999995,-0.035393599999999,-0.006286,0,sub_3
0.0436715999999997,-0.0017367999999987,-0.0185184,-0.0082417999999995,-0.037270799999999,-0.002269,0,sub_3
0.0421955999999997,-0.0016971999999987,-0.0174112,-0.0076119999999995,-0.037866799999999,0.0013161999999999,0,sub_3
0.0415287999999997,-0.0016679999999987,-0.0159498,-0.0080501999999995,-0.038299999999999,0.0034501999999999,0,sub_3
0.0412871999999997,-0.0025457999999987,-0.015122,-0.0089075999999995,-0.038724799999999,0.0038721999999999,0,sub_3
0.0407995999999996,-0.0030245999999987,-0.0140024,-0.0097619999999995,-0.039783599999999,0.0030129999999999,0,sub_3
0.0403069999999996,-0.0036095999999987,-0.0129522,-0.0110489999999995,-0.042331599999999,0.0019389999999999,0,sub_3
0.0401921999999996,-0.0042825999999987,-0.0127532,-0.0125131999999994,-0.044921799999999,0.0004177999999999,0,sub_3
0.0398381999999996,-0.0044699999999987,-0.0128392,-0.0139743999999994,-0.046448399999999,-0.0006776,0,sub_3
0.0391963999999996,-0.0041009999999987,-0.013213,-0.0154335999999994,-0.046700199999999,-0.00092,0,sub_3
0.0388173999999997,-0.0038289999999987,-0.0133614,-0.0166815999999994,-0.047166599999999,-0.000947,0,sub_3
0.0387959999999997,-0.0033911999999987,-0.0133578,-0.0177141999999994,-0.047207599999999,-0.0009728,0,sub_3
0.0383905999999997,-0.0029489999999987,-0.0130288,-0.0185733999999995,-0.0480583999999991,-0.0005504,0,sub_3
0.0379227999999997,-0.0023491999999987,-0.011962,-0.0179417999999995,-0.049129399999999,0.0003099999999999,0,sub_3
0.0372673999999996,-0.0026367999999987,-0.010869,-0.0168825999999994,-0.049564399999999,0.0015997999999999,0,sub_3
0.0361187999999997,-0.0026767999999987,-0.009979,-0.0144903999999994,-0.047544799999999,0.0026997999999999,0,sub_3
0.0353753999999997,-0.0025927999999987,-0.0097338,-0.0105893999999994,-0.042758199999999,0.0031655999999999,0,sub_3
0.0348147999999997,-0.0022131999999987,-0.0087146,-0.0056079999999994,-0.036053599999999,0.0025683999999999,0,sub_3
0.0336755999999996,-0.0034831999999987,-0.0082028,-0.0018953999999994,-0.026999999999999,0.0017455999999999,0,sub_3
0.0330369999999996,-0.0031337999999987,-0.0082448,0.0022478000000004,-0.016883399999999,0.0011381999999999,0,sub_3
0.0330687999999996,-0.0024981999999987,-0.0083944,0.0059240000000004,-0.006454799999999,0.0007231999999999,0,sub_3
0.0335771999999996,-0.0015085999999987,-0.0076006,0.0087478000000004,0.0037656000000009,-0.0001246,0,sub_3
0.0334039999999996,-0.0013965999999987,-0.008302,0.0090194000000004,0.0131698000000009,-0.0005722,0,sub_3
0.0341071999999996,-0.0004603999999987,-0.0086812,0.0097244000000004,0.0236394000000009,-0.0014454,0,sub_3
0.0350605999999997,-0.0004845999999987,-0.0090778,0.0108570000000004,0.0332596000000009,-0.0033828,0,sub_3
0.0358085999999997,-0.0008333999999987,-0.009069,0.0115516000000004,0.0407492000000009,-0.0048932,0,sub_3
0.0359077999999996,-0.0013489999999987,-0.0099578,0.0130900000000004,0.0465294000000009,-0.0059684,0,sub_3
0.0366175999999996,-0.0004215999999987,-0.0099086,0.0169672000000004,0.0531266000000009,-0.0074452,0,sub_3
0.0374497999999996,0.0003802000000012,-0.010004,0.0206194000000004,0.0565314000000009,-0.0095604,0,sub_3
0.0377801999999996,0.0010324000000012,-0.0098678,0.0234144000000004,0.0588746000000009,-0.011894,0,sub_3
0.0385351999999996,0.0007168000000012,-0.0101904,0.0259960000000004,0.0610064000000009,-0.0144426,0,sub_3
0.0398325999999996,0.0003072000000012,-0.0105376,0.0273056000000004,0.0621182000000009,-0.0170036,0,sub_3
0.0408761999999996,-0.0013501999999987,-0.0103398,0.0266794000000005,0.0606766000000009,-0.0187206,0,sub_3
0.0416197999999996,-0.0028021999999987,-0.010293,0.0247588000000004,0.0577412000000009,-0.0187354,0,sub_3
0.0421361999999996,-0.0036107999999987,-0.0098454,0.0226170000000004,0.0539512000000009,-0.017896,0,sub_3
0.0421111999999996,-0.0039059999999987,-0.0103114,0.0204752000000004,0.0497366000000009,-0.0174833999999999,0,sub_3
0.0413089999999996,-0.0043805999999987,-0.0102758,0.0178898000000004,0.0450550000000008,-0.0166409999999999,0,sub_3
0.0411015999999996,-0.0038761999999987,-0.010114,0.0163732000000004,0.0412202000000008,-0.0153647999999999,0,sub_3
0.0414781999999996,-0.0036967999999987,-0.0095796,0.0157148000000004,0.0382354000000008,-0.0142973999999999,0,sub_3
0.0419841999999996,-0.0039257999999987,-0.0088878,0.0152698000000004,0.0354620000000008,-0.0130151999999999,0,sub_3
0.0424439999999996,-0.0031441999999987,-0.0083636,0.0139994000000004,0.0330128000000008,-0.0111021999999999,0,sub_3
0.0437941999999996,-0.0022015999999987,-0.008443,0.0131616000000004,0.0314160000000009,-0.0096145999999999,0,sub_3
0.0444961999999996,-0.0021695999999987,-0.0088888,0.0118962000000004,0.0291832000000009,-0.0085564,0,sub_3
0.0448281999999996,-0.0021869999999987,-0.0101862,0.0104116000000004,0.0254608000000009,-0.0077116,0,sub_3
0.0447977999999997,-0.0019711999999987,-0.0108726,0.0087060000000004,0.0193980000000009,-0.0075062,0,sub_3
0.0455299999999997,-0.0021801999999987,-0.0104664,0.0065416000000004,0.0121634000000009,-0.0079394,0,sub_3
0.0447561999999997,-0.0026359999999987,-0.0100346,0.0033036000000004,0.0032290000000009,-0.0085916,0,sub_3
0.0438625999999996,-0.0026125999999987,-0.0094704,0.0007588000000004,-0.005533999999999,-0.0094568,0,sub_3
0.0432643999999997,-0.0024715999999987,-0.0085516,-0.0011389999999995,-0.012807999999999,-0.0103194,0,sub_3
0.0431615999999997,-0.0021821999999987,-0.0081436,-0.0026003999999994,-0.017528399999999,-0.0107547999999999,0,sub_3
0.0415443999999997,-0.0033779999999987,-0.0070776,-0.0032005999999994,-0.019698599999999,-0.0103329999999999,0,sub_3
0.0404245999999997,-0.0044395999999987,-0.0062656,-0.0033663999999994,-0.018680599999999,-0.0084165999999999,0,sub_3
0.0400127999999997,-0.0054895999999987,-0.0055442,-0.0031509999999994,-0.016133199999999,-0.006282,0,sub_3
0.0402277999999996,-0.0053487999999986,-0.0048216,-0.0031403999999995,-0.012728599999999,-0.005218,0,sub_3
0.0397995999999997,-0.0051337999999986,-0.0049976,-0.0041957999999995,-0.009319599999999,-0.0043752,0,sub_3
0.0402639999999997,-0.0040195999999987,-0.0060614,-0.0058595999999995,-0.005568199999999,-0.0041804,0,sub_3
0.0412703999999997,-0.0037825999999987,-0.0063868,-0.0064593999999995,-0.002883999999999,-0.0044042,0,sub_3
0.0420231999999997,-0.0037319999999987,-0.0070394,-0.0070649999999995,-0.001265999999999,-0.004413,0,sub_3
0.0414685999999997,-0.0040255999999987,-0.0081062,-0.0070361999999995,0.0001326000000009,-0.0033488,0,sub_3
0.0412551999999997,-0.0038793999999987,-0.0084314,-0.0050869999999995,0.0019488000000009,-0.0018446,0,sub_3
0.0408239999999997,-0.0034517999999987,-0.008556,-0.0018873999999995,0.0034222000000009,-0.000115,0,sub_3
0.0407587999999997,-0.0025413999999987,-0.0093752,0.0010998000000004,0.0051094000000009,0.0016127999999999,0,sub_3
0.0404979999999997,-0.0019095999999987,-0.0103896,0.0036642000000004,0.0076502000000009,0.0033365999999999,0,sub_3
0.0407053999999997,-0.0014383999999987,-0.0109648,0.0059896000000004,0.0095248000000009,0.0046533999999999,0,sub_3
0.0413507999999997,-0.0018293999999987,-0.0112568,0.0072424000000004,0.0099126000000009,0.0057511999999999,0,sub_3
0.0416507999999996,-0.0024967999999987,-0.0113586,0.0084894000000004,0.0090220000000009,0.0068505999999999,0,sub_3
0.0412665999999996,-0.0028279999999987,-0.0111783999999999,0.0095230000000004,0.0079200000000009,0.0077349999999999,0,sub_3
0.0410013999999997,-0.0029627999999987,-0.0107087999999999,0.0105566000000004,0.0063936000000009,0.0081927999999999,0,sub_3
0.0407059999999997,-0.0034287999999987,-0.0102214,0.0109776000000004,0.0053258000000008,0.0084107999999999,0,sub_3
0.0405601999999997,-0.0030865999999987,-0.0103648,0.0111872000000004,0.0046850000000008,0.0086265999999999,0,sub_3
0.0410001999999997,-0.0031097999999987,-0.0103458,0.0102744000000004,0.0039286000000008,0.0082415999999999,0,sub_3
0.0413145999999997,-0.0032239999999987,-0.0102904,0.0089338000000004,0.0025362000000008,0.0074273999999999,0,sub_3
0.0419181999999997,-0.0032171999999987,-0.0103942,0.0071636000000004,0.0005062000000008,0.0066107999999999,0,sub_3
0.0419365999999997,-0.0030051999999987,-0.0107992,0.0056010000000004,-0.002166199999999,0.0064375999999999,0,sub_3
0.0418955999999996,-0.0037995999999987,-0.0109524,0.0042536000000004,-0.004837799999999,0.0058385999999999,0,sub_3
0.0419179999999996,-0.0039969999999987,-0.010807,0.0033886000000004,-0.007391599999999,0.0058357999999999,0,sub_3
0.0414267999999996,-0.0040265999999987,-0.010739,0.0025178000000004,-0.011011399999999,0.0060479999999999,0,sub_3
0.0411955999999996,-0.0036511999999987,-0.0104644,0.0016480000000004,-0.014418199999999,0.0062599999999999,0,sub_3
0.0411441999999996,-0.0034177999999987,-0.0096322,0.0009924000000004,-0.018036999999999,0.0060463999999999,0,sub_3
0.0407553999999996,-0.0030491999999987,-0.0087668,6.860000000049544e-05,-0.021557799999999,0.0058833999999999,0,sub_3
0.0404247999999996,-0.0019677999999987,-0.0088098,-0.0010647999999995,-0.024225599999999,0.0057177999999999,0,sub_3
0.0408313999999996,-0.0007035999999987,-0.0084348,-0.0019741999999995,-0.024550799999999,0.0055507999999999,0,sub_3
0.0405075999999996,-0.0006179999999987,-0.0091322,-0.0041647999999995,-0.024659999999999,0.0058017999999999,0,sub_3
0.0408525999999996,-6.21999999987528e-05,-0.0100292,-0.0070011999999995,-0.025408799999999,0.0066899999999999,0,sub_3
0.0422901999999996,0.0008988000000012,-0.0113176,-0.0100019999999995,-0.027744599999999,0.0073129999999999,0,sub_3
0.0434415999999996,0.0009260000000012,-0.0122238,-0.0145067999999995,-0.033055399999999,0.0072883999999999,0,sub_3
0.0439559999999996,7.640000000124717e-05,-0.0137818,-0.0214059999999995,-0.042034999999999,0.0075151999999999,0,sub_3
0.0448883999999996,-0.0005969999999987,-0.014451,-0.0266039999999995,-0.052935599999999,0.0071155999999999,0,sub_3
0.0450551999999996,-0.0023091999999987,-0.0148748,-0.0315981999999995,-0.066604199999999,0.0060799999999999,0,sub_3
0.0442761999999996,-0.0041119999999987,-0.0150276,-0.0340355999999995,-0.0792239999999991,0.0069835999999999,0,sub_3
0.0436197999999997,-0.0060649999999987,-0.0146734,-0.0341307999999994,-0.091643999999999,0.0091853999999999,0,sub_3
0.0428677999999997,-0.0070929999999987,-0.012859,-0.0322735999999994,-0.102104799999999,0.0128437999999999,0,sub_3
0.0421097999999997,-0.0072073999999987,-0.0114966,-0.0310575999999994,-0.1112909999999991,0.0179915999999999,0,sub_3
0.0420331999999997,-0.0068703999999987,-0.010491,-0.0298299999999994,-0.116647199999999,0.0244163999999999,0,sub_3
0.0416041999999997,-0.0065089999999987,-0.0101904,-0.0298961999999994,-0.1216129999999991,0.0302225999999999,0,sub_3
0.0414793999999997,-0.0057287999999987,-0.0096946,-0.0295251999999994,-0.1248733999999991,0.0353885999999999,0,sub_3
0.0419333999999997,-0.0055239999999987,-0.0101758,-0.0282939999999995,-0.127706399999999,0.0394919999999999,0,sub_3
0.0417891999999997,-0.0057375999999987,-0.0095682,-0.0272625999999994,-0.128829199999999,0.0423097999999999,0,sub_3
0.0409583999999997,-0.0051953999999987,-0.0093986,-0.0266475999999994,-0.128667799999999,0.0440547999999999,0,sub_3
0.0403541999999997,-0.0043513999999987,-0.008928,-0.0272867999999994,-0.127603599999999,0.0449035999999999,0,sub_3
0.0392385999999997,-0.0031729999999987,-0.009173,-0.0283421999999994,-0.125043199999999,0.0448929999999999,0,sub_3
0.0379031999999997,-0.0020943999999987,-0.008986,-0.0289573999999994,-0.120138199999999,0.0442413999999999,0,sub_3
0.0367345999999997,-0.0006861999999987,-0.0095374,-0.0278599999999994,-0.114597399999999,0.0429599999999999,0,sub_3
0.0357539999999997,6.120000000124694e-05,-0.0090584,-0.0259307999999994,-0.107603799999999,0.0412599999999999,0,sub_3
0.0345851999999997,0.0008054000000012,-0.0086252,-0.0233489999999995,-0.098054999999999,0.0393475999999999,0,sub_3
0.0337885999999997,0.0009802000000012,-0.0090218,-0.0211947999999995,-0.0887177999999991,0.0374323999999999,0,sub_3
0.0322349999999996,0.0024322000000012,-0.0088444,-0.0177489999999995,-0.0764039999999991,0.0359497999999999,0,sub_3
0.0296651999999996,0.0030990000000012,-0.0082864,-0.0134457999999995,-0.0626041999999991,0.0351123999999999,0,sub_3
0.0272251999999997,0.0036350000000012,-0.0074856,-0.0065505999999995,-0.048350999999999,0.0345013999999999,0,sub_3
0.0248751999999997,0.0033478000000012,-0.0062512,0.0016208000000004,-0.034742199999999,0.0341137999999999,0,sub_3
0.0216201999999997,0.0022874000000012,-0.0026806,0.0100218000000004,-0.017936599999999,0.0332963999999999,0,sub_3
0.0196237999999997,0.0009702000000012,-0.0004414,0.0162638000000004,-0.002394199999999,0.0311721999999999,0,sub_3
0.0198335999999996,0.0012566000000012,0.0016403999999999,0.0207996000000004,0.0123060000000009,0.0279689999999999,0,sub_3
0.0201811999999996,0.0006116000000012,0.0024079999999999,0.0227778000000004,0.0268056000000009,0.0238935999999999,0,sub_3
0.0207579999999997,0.0004928000000012,0.0019845999999999,0.0222148000000004,0.0426044000000009,0.0168075999999999,0,sub_3
0.0239911999999997,0.0025020000000012,-0.0002226,0.0207974000000004,0.0552224000000009,0.0067287999999999,0,sub_3
0.0277109999999996,0.0035638000000012,-0.0033216,0.0159800000000004,0.0631710000000009,-0.0054926,0,sub_3
0.0307921999999996,0.0031446000000012,-0.0070338,0.0077448000000004,0.0692184000000008,-0.018804,0,sub_3
0.0340159999999996,0.0039848000000012,-0.0117364,0.0001400000000004,0.0735574000000008,-0.0316814,0,sub_3
0.0372159999999996,0.0041142000000012,-0.0146684,-0.0038641999999995,0.0748890000000008,-0.0415386,0,sub_3
0.0381549999999996,0.0026036000000012,-0.0169282,-0.0038373999999995,0.0759738000000009,-0.0464536,0,sub_3
0.0383333999999996,0.0003586000000012,-0.0167296,0.0025828000000004,0.0793638000000009,-0.0472678,0,sub_3
0.0371635999999996,-0.0019973999999987,-0.0156002,0.0149748000000004,0.0859134000000009,-0.0441986,0,sub_3
0.0363861999999996,-0.0036949999999987,-0.0133874,0.0284336000000004,0.0954300000000009,-0.0381346,0,sub_3
0.0366699999999996,-0.0048865999999987,-0.012394,0.0412590000000005,0.1085622000000009,-0.0299434,0,sub_3
0.0378747999999996,-0.0055647999999987,-0.0124096,0.0523850000000005,0.1240414000000008,-0.021126,0,sub_3
0.0401927999999996,-0.0051549999999987,-0.0137834,0.0615926000000005,0.1395290000000008,-0.0127494,0,sub_3
0.0438307999999997,-0.0038393999999987,-0.0160342,0.0669518000000004,0.1520522000000009,-0.0056776,0,sub_3
0.0467605999999996,-0.0033613999999987,-0.017796,0.0682484000000004,0.1592770000000008,-0.002046,0,sub_3
0.0487891999999997,-0.0026305999999987,-0.0192184,0.0661156000000004,0.1597098000000009,-0.0018478,0,sub_3
0.0512419999999997,-0.0024745999999987,-0.0205724,0.0611918000000004,0.1544074000000009,-0.0035846,0,sub_3
0.0525299999999997,-0.0025871999999987,-0.0221298,0.0545466000000004,0.1454908000000009,-0.005756,0,sub_3
0.0538249999999996,-0.0022673999999987,-0.0230566,0.0483100000000004,0.1329492000000009,-0.0074928,0,sub_3
0.0547965999999996,-0.0024499999999987,-0.0236056,0.0435506000000004,0.1191146000000008,-0.0068672,0,sub_3
0.0545723999999996,-0.0040415999999987,-0.023156,0.0400570000000004,0.1044138000000008,-0.0038818,0,sub_3
0.0528897999999996,-0.0060243999999987,-0.0220798,0.0380494000000004,0.0894890000000008,0.0006097999999999,0,sub_3
0.0506639999999996,-0.0070915999999987,-0.0203194,0.0364610000000004,0.0741314000000008,0.0063867999999999,0,sub_3
0.0475473999999996,-0.0092645999999987,-0.0182296,0.0353000000000004,0.0594098000000008,0.0125933999999999,0,sub_3
0.0447279999999996,-0.0106925999999987,-0.0155482,0.0345726000000004,0.0461780000000008,0.0188007999999999,0,sub_3
0.0430239999999996,-0.0105247999999987,-0.0136074,0.0340626000000004,0.0340100000000008,0.0252221999999999,0,sub_3
0.0414093999999996,-0.0096869999999987,-0.010018,0.0333746000000004,0.0236192000000008,0.0313981999999999,0,sub_3
0.0403609999999996,-0.0095153999999987,-0.006362,0.0318464000000004,0.0143044000000008,0.0356439999999999,0,sub_3
0.0398671999999997,-0.0088273999999987,-0.0030718,0.0290488000000004,0.0056400000000008,0.0381709999999999,0,sub_3
0.0400653999999997,-0.0071241999999987,-0.0011894,0.0249776000000004,-0.003650399999999,0.0385535999999999,0,sub_3
