userAcceleration.x,userAcceleration.y,userAcceleration.z,rotationRate.x,rotationRate.y,rotationRate.z,label,subject
-0.0257724000000002,0.0042330000000012,-0.0187966,-0.0023765999999993,0.0219136000000007,0.0004222,0,sub_21
-0.0270636000000002,0.0037426000000012,-0.0187602,-0.0002405999999993,0.0216994000000007,0.0008601999999999,0,sub_21
-0.0255432000000002,0.0037564000000012,-0.0188858,0.0020968000000006,0.0197728000000007,0.0010925999999999,0,sub_21
-0.0242018000000002,0.0026250000000012,-0.0176174,0.0020882000000006,0.0182796000000007,0.0015215999999999,0,sub_21
-0.0228396000000002,0.0020636000000012,-0.0160544,-0.0011455999999993,0.0153104000000007,0.0023533999999999,0,sub_21
-0.0239372000000002,0.0020498000000012,-0.0150154,-0.0043861999999993,0.0110620000000007,0.0034001999999999,0,sub_21
-0.0251510000000002,0.0023972000000012,-0.0142662,-0.0061159999999993,0.0104310000000006,0.0042393999999999,0,sub_21
-0.0259286000000002,0.0023326000000012,-0.0127596,-0.0067797999999993,0.0083102000000006,0.0038061999999999,0,sub_21
-0.0258104000000002,0.0030084000000012,-0.015125,-0.0053127999999993,0.0049062000000006,0.0027485999999999,0,sub_21
-0.0251886000000002,0.0029796000000012,-0.0150016,-0.0025543999999993,0.0019122000000007,0.0031989999999999,0,sub_21
-0.0254180000000002,0.0023206000000012,-0.0143256,-0.0010645999999993,0.0014792000000007,0.0036373999999999,0,sub_21
-0.0257744000000002,0.0014224000000012,-0.0151746,-0.0010769999999993,-0.0025635999999992,0.0023606,0,sub_21
-0.0241246000000002,0.0012618000000012,-0.0171194,-0.0021781999999993,-0.0031687999999992,0.0019236,0,sub_21
-0.0229588000000002,0.0020862000000012,-0.0158288,-0.0041357999999993,-0.0027125999999992,0.0031884,0,sub_21
-0.0229686000000002,0.0032920000000012,-0.0159984,-0.0041911999999993,-0.0069479999999992,0.0038316,0,sub_21
-0.0235414000000002,0.0040906000000012,-0.0176174,-0.0036073999999993,-0.0118227999999992,0.0040528,0,sub_21
-0.0230952000000002,0.0045538000000012,-0.0180618,-0.0038713999999993,-0.0147797999999992,0.0049066,0,sub_21
-0.0244276000000002,0.0036542000000012,-0.0162114,-0.0057993999999993,-0.0154165999999992,0.0059622,0,sub_21
-0.0247082000000002,0.0027650000000012,-0.0168104,-0.0045373999999993,-0.0194691999999992,0.0059762,0,sub_21
-0.0247768000000002,0.0039966000000012,-0.0178838,-0.0028323999999993,-0.0201133999999992,0.0057752,0,sub_21
-0.0253348000000002,0.0042038000000012,-0.017528,-0.0020115999999993,-0.0198733999999992,0.0062068,0,sub_21
-0.0256946000000002,0.0042274000000012,-0.015375,-0.0024737999999993,-0.0204803999999992,0.0064168,0,sub_21
-0.0257576000000002,0.0040356000000012,-0.0144934,-0.0029445999999993,-0.0225803999999992,0.007056,0,sub_21
-0.0267500000000002,0.0039662000000012,-0.014288,-0.0029549999999993,-0.0170127999999992,0.0079022,0,sub_21
-0.0275618000000002,0.0025828000000012,-0.0130772,-0.0025377999999993,-0.0122945999999992,0.0076844,0,sub_21
-0.0274580000000002,0.0027036000000012,-0.0113564,-0.0016611999999993,-0.0080331999999992,0.0068304,0,sub_21
-0.0266180000000002,0.0015214000000012,-0.0118116,0.0004870000000006,-0.0061179999999992,0.0055612,0,sub_21
-0.0262724000000002,0.0026606000000012,-0.0135836,0.0015788000000006,-0.0018555999999992,0.0042814,0,sub_21
-0.0270762000000002,0.0025460000000012,-0.0126874,0.0005148000000006,0.0004972000000007,0.0034178,0,sub_21
-0.0275830000000002,0.0025604000000012,-0.013609,0.0009272000000006,-0.0005657999999992,0.002996,0,sub_21
-0.0268106000000002,0.0025616000000012,-0.0145404,0.0015548000000006,-0.0007789999999992,0.003002,0,sub_21
-0.0281526000000002,0.0039992000000012,-0.0145076,0.0022122000000006,0.0060368000000007,0.0034264,0,sub_21
-0.0281328000000002,0.0033016000000012,-0.0142246,0.0020124000000006,0.0107302000000007,0.0025658,0,sub_21
-0.0268798000000002,0.0032394000000012,-0.0138028,0.0001198000000006,0.0154300000000007,0.001051,0,sub_21
-0.0262130000000002,0.0022358000000012,-0.0141128,-0.0045637999999993,0.0169412000000007,0.0001618,0,sub_21
-0.0253110000000002,0.0024082000000012,-0.0164146,-0.0075413999999993,0.0188700000000007,-7.519999999997307e-05,0,sub_21
-0.0242626000000002,0.0031648000000012,-0.018867,-0.0081959999999993,0.0165252000000007,0.0007778,0,sub_21
-0.0235818000000002,0.0039932000000012,-0.018511,-0.0069235999999993,0.0162674000000007,0.0018542,0,sub_21
-0.0242222000000002,0.0033898000000012,-0.018329,-0.0062959999999993,0.0145220000000007,0.0025008,0,sub_21
-0.0235412000000002,0.0041812000000012,-0.0184254,-0.0062845999999993,0.0178930000000007,0.0029228,0,sub_21
-0.0237508000000002,0.0045464000000012,-0.0181332,-0.0067141999999993,0.0178574000000007,0.0031326,0,sub_21
-0.0232530000000002,0.0037180000000012,-0.0180952,-0.0067275999999993,0.0152646000000007,0.0031348,0,sub_21
-0.0227196000000002,0.0021918000000012,-0.0188536,-0.0080279999999993,0.0110070000000007,0.0033448,0,sub_21
-0.0212662000000002,0.0031320000000012,-0.0206034,-0.0091073999999993,0.0090900000000007,0.0041944,0,sub_21
-0.0224104000000002,0.0039488000000012,-0.0215892,-0.0093417999999993,0.0052524000000007,0.0050524,0,sub_21
-0.0220800000000002,0.0039028000000012,-0.0217318,-0.0087081999999993,0.0028830000000007,0.0052646,0,sub_21
-0.0224618000000002,0.0033032000000012,-0.0214014,-0.0082755999999993,0.0032842000000007,0.0054718,0,sub_21
-0.0233600000000002,0.0037432000000012,-0.0223758,-0.0078477999999993,0.0024078000000007,0.005467,0,sub_21
-0.0240484000000002,0.0036276000000012,-0.0210702,-0.0078523999999993,0.0006788000000007,0.0058874,0,sub_21
-0.0234606000000002,0.0031732000000012,-0.0180632,-0.0072081999999993,0.0006530000000007,0.0060964,0,sub_21
-0.0259234000000002,0.0014568000000012,-0.0152396,-0.0061451999999993,-0.0002029999999992,0.0061048,0,sub_21
-0.0257292000000002,0.0021010000000012,-0.0131736,-0.0065805999999993,-0.0038165999999992,0.0043972,0,sub_21
-0.0257886000000002,0.0024068000000012,-0.0106046,-0.0048581999999993,-0.0033741999999992,0.0037496,0,sub_21
-0.0255542000000002,0.0020398000000012,-0.0098038,-0.0016565999999993,-0.0065571999999992,0.0026895999999999,0,sub_21
-0.0261434000000002,0.0010506000000012,-0.0111854,-0.0001523999999993,-0.0078159999999992,0.0014017999999999,0,sub_21
-0.0249930000000002,0.0014552000000012,-0.0112022,-0.0005675999999993,-0.0090671999999992,-0.0001131999999999,0,sub_21
-0.0260096000000002,0.0009254000000012,-0.01186,0.0002994000000006,-0.0086235999999992,-0.0003393999999999,0,sub_21
-0.0271702000000002,0.0012538000000012,-0.0124018,8.700000000061133e-05,-0.0094707999999992,-0.0014079999999999,0,sub_21
-0.0277202000000002,0.0021492000000012,-0.0138016,0.0013712000000006,-0.0092595999999992,-0.0020401999999999,0,sub_21
-0.0262730000000002,0.0027608000000012,-0.0136786,0.0026572000000006,-0.0079857999999992,-0.0020327999999999,0,sub_21
-0.0254276000000002,0.0028140000000012,-0.0145002,0.0032912000000006,-0.0107275999999992,-0.0018357999999999,0,sub_21
-0.0244932000000002,0.0032174000000012,-0.014251,0.0020338000000006,-0.0066467999999992,-0.0012335999999999,0,sub_21
-0.0241408000000002,0.0036670000000012,-0.0139398,0.0039674000000006,-0.0051319999999992,-0.0010329999999999,0,sub_21
-0.0234784000000002,0.0035214000000012,-0.0162006,0.0061094000000006,-0.0057443999999992,-0.0018963999999999,0,sub_21
-0.0237616000000002,0.0039200000000012,-0.0174846,0.0073884000000006,-0.0076353999999992,-0.0019095999999999,0,sub_21
-0.0243230000000002,0.0032764000000012,-0.0165204,0.0065504000000006,-0.0023137999999992,6.000000000269678e-07,0,sub_21
-0.0261578000000002,0.0031646000000012,-0.0172532,0.0065408000000006,-0.0040199999999992,0.0004302,0,sub_21
-0.0269008000000002,0.0025252000000012,-0.0208538,0.0065398000000006,-0.0046575999999992,3.800000000006923e-06,0,sub_21
-0.0269756000000002,0.0028250000000012,-0.0187694,0.0065626000000006,-0.0023201999999992,-1.879999999999313e-05,0,sub_21
-0.0272584000000002,0.0023570000000012,-0.016642,0.0078684000000006,0.0010762000000007,0.0003934,0,sub_21
-0.0276800000000002,0.0029352000000012,-0.016909,0.0108630000000005,-0.0010665999999992,-0.0006707999999999,0,sub_21
-0.0275144000000002,0.0033904000000012,-0.0146458,0.0130166000000005,-0.0010733999999992,-0.0023847999999999,0,sub_21
-0.0279538000000002,0.0038476000000012,-0.0109562,0.0153990000000005,0.0036012000000006,-0.0028211999999999,0,sub_21
-0.0293964000000002,0.0034038000000012,-0.0104284,0.0173520000000005,0.0102018000000006,-0.0034569999999999,0,sub_21
-0.0289322000000002,0.0032400000000012,-0.013993,0.0173482000000005,0.0074398000000007,-0.0053761999999999,0,sub_21
-0.0258066000000002,0.0034204000000012,-0.0155296,0.0126424000000005,0.0040508000000007,-0.0062593999999999,0,sub_21
-0.0229714000000002,0.0020894000000012,-0.0168276,0.0062300000000006,-0.0015029999999992,-0.0039675999999999,0,sub_21
-0.0230132000000002,0.0026342000000012,-0.0206442,-0.0004071999999993,-0.0100371999999992,-0.0021009999999999,0,sub_21
-0.0240854000000002,0.0038400000000012,-0.023703,-0.0044751999999993,-0.0177239999999992,-0.0012855999999999,0,sub_21
-0.0239966000000002,0.0042574000000012,-0.0241822,-0.0033867999999993,-0.0181821999999992,-0.0010843999999999,0,sub_21
-0.0249190000000002,0.0045812000000012,-0.0247456,0.0024112000000006,-0.0146113999999992,-0.0002146,0,sub_21
-0.0261972000000002,0.0049074000000012,-0.024602,0.0064894000000006,-0.0095115999999992,-0.0004062,0,sub_21
-0.0242886000000002,0.0032674000000012,-0.0218694,0.0064970000000006,-0.0075949999999992,-0.0001948,0,sub_21
-0.0226924000000002,0.0016572000000012,-0.021488,0.0030810000000006,-0.0069479999999992,0.0008487999999999,0,sub_21
-0.0230864000000002,0.0014774000000012,-0.0202436,-0.0028885999999993,-0.0048007999999992,0.0018725999999999,0,sub_21
-0.0235340000000002,0.0011832000000012,-0.0188484,-0.0090471999999993,-0.0045837999999992,0.0022332,0,sub_21
-0.0239272000000002,0.0013688000000012,-0.0195232,-0.0107173999999993,-0.0026779999999992,0.0026228,0,sub_21
-0.0245414000000002,0.0024236000000012,-0.0205948,-0.0098201999999993,7.340000000073468e-05,0.0023884,0,sub_21
-0.0248454000000002,0.0026088000000012,-0.0186904,-0.0097727999999993,0.0036800000000007,0.002147,0,sub_21
-0.0252028000000002,0.0016506000000012,-0.0168924,-0.0116591999999993,0.0043106000000007,0.0018958,0,sub_21
-0.0257530000000002,0.0022104000000012,-0.0152812,-0.0157065999999993,0.0062404000000007,0.0022923999999999,0,sub_21
-0.0263422000000002,0.0030480000000012,-0.0145806,-0.0210379999999993,0.0077470000000007,0.0031077999999999,0,sub_21
-0.0278026000000002,0.0035368000000012,-0.0129646,-0.0263647999999993,0.0096824000000007,0.0032817999999999,0,sub_21
-0.0267430000000002,0.0033934000000012,-0.0133772,-0.0308177999999993,0.0124730000000007,0.0034475999999999,0,sub_21
-0.0252730000000002,0.0035008000000012,-0.0131796,-0.0335553999999993,0.0180240000000007,0.0044765999999999,0,sub_21
-0.0247540000000002,0.0023546000000012,-0.0127816,-0.0354413999999993,0.0216604000000006,0.0040183999999999,0,sub_21
-0.0241820000000002,0.0027658000000012,-0.0146084,-0.0341497999999993,0.0197480000000007,0.0031621999999999,0,sub_21
-0.0237632000000002,0.0027926000000012,-0.0168064,-0.0298525999999993,0.0225096000000007,0.0029617999999999,0,sub_21
-0.0263816000000002,0.0036348000000012,-0.0179784,-0.0221597999999993,0.0244028000000007,0.0023721999999999,0,sub_21
-0.0271148000000002,0.0036660000000012,-0.0159608,-0.0151079999999993,0.0254486000000007,0.0011381999999999,0,sub_21
-0.0274172000000002,0.0038576000000012,-0.014596,-0.0084917999999993,0.0262934000000007,0.0003223999999999,0,sub_21
-0.0269606000000002,0.0023588000000012,-0.011075,-0.0037893999999993,0.0279996000000007,-0.0011486,0,sub_21
-0.0267878000000002,0.0031064000000012,-0.0121708,3.46000000006114e-05,0.0241694000000007,-0.0026187999999999,0,sub_21
-0.0253324000000002,0.0033012000000012,-0.0128282,0.0021508000000005,0.0207686000000007,-0.0034605999999999,0,sub_21
-0.0261396000000002,0.0040946000000012,-0.0174358,0.0038432000000006,0.0190694000000007,-0.0032391999999999,0,sub_21
-0.0262358000000002,0.0043860000000012,-0.0205344,0.0074618000000006,0.0169270000000007,-0.0034247999999999,0,sub_21
-0.0258604000000002,0.0052852000000012,-0.0228174,0.0089402000000006,0.0139372000000007,-0.0029833999999999,0,sub_21
-0.0247636000000002,0.0035508000000012,-0.0202586,0.0101936000000006,0.0081794000000007,-0.0027535999999999,0,sub_21
-0.0241932000000002,0.0029348000000012,-0.0197098,0.0105730000000006,0.0037118000000007,-0.0025287999999999,0,sub_21
-0.0239014000000002,0.0024830000000012,-0.0179114,0.0117962000000006,-0.0037381999999992,-0.0031489999999999,0,sub_21
-0.0240828000000002,0.0021468000000012,-0.0158752,0.0102428000000006,-0.0118177999999992,-0.0037875999999999,0,sub_21
-0.0242646000000002,0.0020740000000012,-0.014805,0.0093304000000006,-0.0194741999999992,-0.0042087999999999,0,sub_21
-0.0253934000000002,0.0027428000000012,-0.0146766,0.0073808000000006,-0.0194611999999992,-0.0035785999999999,0,sub_21
-0.0263124000000002,0.0021528000000012,-0.0139174,0.0048048000000006,-0.0232855999999992,-0.0040189999999999,0,sub_21
-0.0257428000000002,0.0019896000000012,-0.013993,0.0022356000000006,-0.0262551999999992,-0.0051011999999999,0,sub_21
-0.0244442000000002,0.0028930000000012,-0.01596,0.0005306000000006,-0.0256107999999992,-0.0049003999999999,0,sub_21
-0.0239808000000002,0.0030900000000012,-0.0168576,-0.0014041999999993,-0.0238799999999992,-0.0040586,0,sub_21
-0.0243568000000002,0.0032686000000012,-0.0179558,-0.0039809999999993,-0.0227851999999992,-0.0034343999999999,0,sub_21
-0.0244416000000002,0.0034078000000012,-0.0182272,-0.0029321999999993,-0.0221291999999992,-0.0027839999999999,0,sub_21
-0.0244418000000002,0.0040188000000012,-0.017988,-0.0018729999999993,-0.0187051999999992,-0.0017099999999999,0,sub_21
-0.0259988000000002,0.0037578000000012,-0.0177882,0.0002538000000006,-0.0154963999999992,-0.0010553999999999,0,sub_21
-0.0267300000000002,0.0027530000000012,-0.018433,0.0022124000000006,-0.0071931999999992,-0.0012659999999999,0,sub_21
-0.0256890000000002,0.0024548000000012,-0.018724,0.0041586000000006,-0.0027207999999992,-0.0025399999999999,0,sub_21
-0.0234174000000002,0.0029542000000012,-0.0184192,0.0037404000000006,-0.0003773999999992,-0.0021185999999999,0,sub_21
-0.0241328000000002,0.0028026000000012,-0.018269,0.0029150000000005,0.0013250000000007,-0.0006347999999999,0,sub_21
-0.0246484000000002,0.0029564000000012,-0.0197606,0.0040062000000005,0.0013196000000007,1.0000000000006618e-05,0,sub_21
-0.0253496000000002,0.0031244000000012,-0.0188682,0.0059672000000005,0.0038722000000007,-0.0004105999999999,0,sub_21
-0.0249768000000002,0.0029672000000012,-0.017524,0.0079234000000005,0.0062084000000007,2.3600000000006625e-05,0,sub_21
-0.0257558000000002,0.0024032000000012,-0.0163986,0.0077496000000006,0.0089798000000007,1.5000000000006589e-05,0,sub_21
-0.0250500000000002,0.0021922000000012,-0.0159904,0.0064580000000006,0.0060032000000007,-0.0004173999999999,0,sub_21
-0.0259566000000002,0.0015660000000012,-0.0150876,0.0034746000000006,0.0066538000000007,-0.0006527999999999,0,sub_21
-0.0257032000000002,0.0021616000000012,-0.0166452,0.0017522000000006,0.0036752000000007,-0.0002337999999999,0,sub_21
-0.0256998000000002,0.0021594000000012,-0.017296,0.0015870000000006,0.0006470000000007,-0.0002373999999999,0,sub_21
-0.0257706000000002,0.0031724000000012,-0.0179398,0.0014342000000006,0.0008128000000007,0.0001822,0,sub_21
-0.0261774000000002,0.0026274000000012,-0.0167184,0.0010812000000006,0.0037500000000007,0.0003832,0,sub_21
-0.0262104000000002,0.0026268000000012,-0.0163686,0.0002882000000006,0.0032814000000007,0.0001584,0,sub_21
-0.0272456000000002,0.0022208000000012,-0.0158042,-0.0019981999999993,0.0030304000000007,0.0001364,0,sub_21
-0.0270146000000002,0.0026902000000012,-0.0163628,-0.0049835999999993,0.0032546000000007,-9.839999999999346e-05,0,sub_21
-0.0270238000000002,0.0025886000000012,-0.0169308,-0.0058427999999993,0.0017670000000007,-0.0003159999999999,0,sub_21
-0.0273040000000002,0.0037886000000012,-0.0180366,-0.0045691999999993,0.0011200000000007,0.0005482,0,sub_21
-0.0273940000000002,0.0034032000000012,-0.0175394,-0.0032621999999993,0.0019094000000007,0.0016266,0,sub_21
-0.0265814000000002,0.0036988000000012,-0.0172488,-0.0025819999999993,0.0048350000000007,0.0018434,0,sub_21
-0.0271382000000002,0.0031258000000012,-0.0160124,-0.0025389999999993,0.0084020000000007,0.002055,0,sub_21
-0.0273058000000002,0.0026952000000012,-0.0156264,-0.0020827999999993,0.0089848000000007,0.0022732,0,sub_21
-0.0265920000000002,0.0026240000000012,-0.0160538,-0.0012005999999993,0.0089286000000007,0.002068,0,sub_21
-0.0251694000000002,0.0038738000000012,-0.0171534,0.0011514000000006,0.0097734000000007,0.0018696,0,sub_21
-0.0254140000000002,0.0039248000000012,-0.0182642,0.0056342000000006,0.0103960000000007,0.0021138,0,sub_21
-0.0244538000000002,0.0036568000000012,-0.0186632,0.0088310000000006,0.0091082000000007,0.0017104,0,sub_21
-0.0233472000000002,0.0036552000000012,-0.0179382,0.0101092000000006,0.0052794000000007,0.0008786,0,sub_21
-0.0227292000000002,0.0038976000000012,-0.0176692,0.0086106000000006,0.0014578000000007,0.0006684,0,sub_21
-0.0241436000000002,0.0038486000000012,-0.0169752,0.0073206000000006,-0.0034297999999992,0.0004612,0,sub_21
-0.0256892000000002,0.0039696000000012,-0.0165676,0.0056048000000006,-0.0081027999999992,0.0002506,0,sub_21
-0.0285568000000002,0.0041752000000012,-0.0179084,0.0041082000000006,-0.0114981999999992,4.000000000002682e-05,0,sub_21
-0.0290486000000002,0.0035958000000012,-0.01491,-0.0005715999999993,-0.0078615999999992,0.00043,0,sub_21
-0.0311200000000002,0.0020508000000012,-0.0135938,-0.0046141999999993,-0.0052907999999992,0.0003984,0,sub_21
-0.0326094000000002,0.0017356000000012,-0.0140854,-0.0082175999999993,-0.0003761999999992,-6.039999999997324e-05,0,sub_21
-0.0334360000000002,0.0019866000000012,-0.0142088,-0.0111761999999993,0.0049836000000007,-0.0009333999999999,0,sub_21
-0.0318442000000002,0.0003590000000012,-0.0094028,-0.0164693999999993,0.0141822000000007,-0.0007593999999999,0,sub_21
-0.0337198000000002,0.0001566000000013,-0.007934,-0.0202735999999993,0.0220984000000007,-0.0007869999999999,0,sub_21
-0.0345166000000002,0.0010646000000012,-0.0082514,-0.0219287999999993,0.0332036000000007,-0.0010171999999999,0,sub_21
-0.0337120000000002,0.0022650000000012,-0.0105574,-0.0182429999999993,0.0453572000000007,-0.0016387999999999,0,sub_21
-0.0319828000000002,0.0027450000000012,-0.0138516,-0.0083701999999993,0.0578938000000007,-0.0017993999999999,0,sub_21
-0.0300376000000002,0.0044340000000012,-0.0176878,0.0035998000000006,0.0627516000000007,-0.0015081999999999,0,sub_21
-0.0268008000000002,0.0049780000000011,-0.0183522,0.0136398000000006,0.0671830000000007,0.0004791999999999,0,sub_21
-0.0252062000000002,0.0049588000000012,-0.0191308,0.0198300000000006,0.0724818000000007,0.0032991999999999,0,sub_21
-0.0246396000000002,0.0044760000000012,-0.0180394,0.0213192000000006,0.0756690000000007,0.0054481999999999,0,sub_21
-0.0231950000000002,0.0045120000000012,-0.0163236,0.0176654000000006,0.0724886000000007,0.0060737999999999,0,sub_21
-0.0219674000000002,0.0048934000000012,-0.0169512,0.0163560000000006,0.0684484000000007,0.0065031999999999,0,sub_21
-0.0212170000000002,0.0045534000000012,-0.021571,0.0163276000000005,0.0641924000000007,0.0065145999999999,0,sub_21
-0.0190554000000002,0.0047084000000012,-0.0247362,0.0177866000000005,0.0552440000000007,0.0052543999999999,0,sub_21
-0.0161932000000002,0.0044014000000012,-0.0256812,0.0175302000000005,0.0452330000000007,0.0048379999999999,0,sub_21
-0.0159100000000002,0.0038986000000012,-0.0267468,0.0183310000000005,0.0337242000000007,0.0050719999999999,0,sub_21
-0.0164044000000002,0.0043396000000012,-0.0287992,0.0180722000000006,0.0230712000000007,0.0044451999999999,0,sub_21
-0.0158996000000002,0.0045984000000012,-0.0286864,0.0165180000000006,0.0085894000000007,0.0033867999999999,0,sub_21
-0.0160386000000002,0.0040464000000012,-0.02403,0.0136884000000006,-0.0035493999999992,0.0035983999999999,0,sub_21
-0.0173852000000002,0.0035084000000012,-0.0235126,0.0114912000000006,-0.0180313999999992,0.0031765999999999,0,sub_21
-0.0171380000000002,0.0036890000000012,-0.0230854,0.0086778000000006,-0.0276091999999992,0.0023167999999999,0,sub_21
-0.0169922000000002,0.0029042000000012,-0.020826,0.0052304000000006,-0.0346295999999992,0.0027289999999999,0,sub_21
-0.0181126000000002,0.0029878000000012,-0.0208272,0.0034918000000006,-0.0416541999999992,0.0027259999999999,0,sub_21
-0.0190296000000002,0.0034890000000012,-0.0234804,0.0030228000000006,-0.0525123999999992,0.0012412,0,sub_21
-0.0180958000000002,0.0036362000000012,-0.0229292,0.0016954000000006,-0.0616805999999992,0.0006013999999999,0,sub_21
-0.0184550000000002,0.0033844000000012,-0.0217158,-0.0006997999999993,-0.0702093999999992,0.0008079999999999,0,sub_21
-0.0199904000000002,0.0038614000000012,-0.0208708,-0.0037263999999993,-0.0776671999999992,0.0001539999999999,0,sub_21
-0.0210824000000002,0.0031664000000012,-0.0183276,-0.0086425999999993,-0.0785129999999992,-0.0007352,0,sub_21
-0.0214806000000002,0.0023130000000012,-0.0145098,-0.0154637999999993,-0.0753063999999992,-0.001002,0,sub_21
-0.0223530000000002,0.0022820000000012,-0.0115612,-0.0214247999999993,-0.0723027999999992,-0.0010473999999999,0,sub_21
-0.0242580000000002,0.0026966000000012,-0.0105048,-0.0237545999999993,-0.0682473999999992,-0.0008551999999999,0,sub_21
-0.0254348000000002,0.0021684000000012,-0.0125068,-0.0235135999999993,-0.0622819999999992,-0.0010747999999999,0,sub_21
-0.0253748000000002,0.0025452000000012,-0.0118342,-0.0221781999999993,-0.0514341999999992,-0.0017207999999999,0,sub_21
-0.0254850000000002,0.0035886000000012,-0.0121076,-0.0163723999999993,-0.0437945999999992,-0.0031859999999999,0,sub_21
-0.0266574000000002,0.0038784000000012,-0.0130228,-0.0086489999999993,-0.0368009999999992,-0.0046369999999999,0,sub_21
-0.0264472000000002,0.0028840000000012,-0.0145224,-0.0024335999999993,-0.0332099999999992,-0.0063079999999999,0,sub_21
-0.0246522000000002,0.0031190000000012,-0.0147226,0.0042200000000006,-0.0264271999999992,-0.0073387999999999,0,sub_21
-0.0251588000000002,0.0039832000000012,-0.0179182,0.0125532000000006,-0.0245363999999992,-0.0079239999999999,0,sub_21
-0.0251148000000002,0.0042036000000012,-0.0194022,0.0170322000000006,-0.0245537999999992,-0.0074653999999999,0,sub_21
-0.0253562000000002,0.0042018000000012,-0.0219574,0.0183190000000006,-0.0217935999999992,-0.0061781999999999,0,sub_21
-0.0260464000000002,0.0038574000000012,-0.0220578,0.0159908000000006,-0.0165921999999992,-0.0051343999999999,0,sub_21
-0.0287896000000002,0.0032698000000012,-0.0213586,0.0110946000000006,-0.0139349999999992,-0.0049599999999999,0,sub_21
-0.0286102000000002,0.0032232000000012,-0.0206932,0.0072430000000006,-0.0163937999999992,-0.0049853999999999,0,sub_21
-0.0291058000000002,0.0021658000000012,-0.0206302,0.0040440000000006,-0.0150241999999992,-0.0039427999999999,0,sub_21
