userAcceleration.x,userAcceleration.y,userAcceleration.z,rotationRate.x,rotationRate.y,rotationRate.z,label,subject
0.0227579999999997,0.0069616000000012,-0.0251618,-0.0018033999999994,0.1341264000000007,0.000557,0,sub_2
0.0214149999999997,0.0066164000000012,-0.0308928,-0.0058861999999994,0.1343272000000007,0.0071512,0,sub_2
0.0171727999999997,0.0081608000000012,-0.0323608,-0.0032015999999994,0.1215062000000007,0.0142366,0,sub_2
0.0116285999999997,0.0121020000000012,-0.0291212,0.0085052000000005,0.0972190000000007,0.0199372,0,sub_2
0.0047635999999997,0.0153726000000012,-0.021069,0.0261834000000005,0.0699376000000007,0.0233332,0,sub_2
-0.0024254000000002,0.0142004000000012,-0.0111896,0.0475340000000005,0.0479886000000007,0.022048,0,sub_2
-0.0075132000000002,0.0129948000000012,-0.000801,0.0644392000000005,0.0282086000000008,0.0149606,0,sub_2
-0.0066904000000002,0.0094342000000012,0.0065113999999998,0.0720106000000005,0.0165738000000007,0.0037382,0,sub_2
-0.0027220000000002,0.0031000000000012,0.0096951999999998,0.0616502000000005,0.0251828000000007,-0.0089501999999999,0,sub_2
0.0032583999999997,-0.0040487999999987,0.0055625999999998,0.0406710000000005,0.0459688000000007,-0.0206599999999999,0,sub_2
0.0133761999999997,-0.0043177999999987,-0.0047090000000001,0.0138964000000005,0.0641978000000007,-0.0272797999999999,0,sub_2
0.0230655999999997,-0.0020067999999987,-0.0154318,-0.0113143999999994,0.0806764000000007,-0.0253331999999999,0,sub_2
0.0280941999999997,0.0025546000000012,-0.024652,-0.0244069999999994,0.0926168000000007,-0.0179549999999999,0,sub_2
0.0275519999999997,0.0097930000000012,-0.0308644,-0.0158361999999994,0.0844450000000007,-0.0080495999999999,0,sub_2
0.0224167999999997,0.0149596000000012,-0.0323378,0.0063290000000005,0.0611046000000007,0.0004745999999999,0,sub_2
0.0125467999999997,0.0150770000000012,-0.0290246,0.0349078000000005,0.0349942000000007,0.0034923999999999,0,sub_2
0.0052283999999997,0.0127518000000012,-0.0235884,0.0606454000000005,0.0123390000000007,-0.0009989999999999,0,sub_2
0.0028335999999997,0.0064292000000012,-0.0199052,0.0742840000000005,-0.0013047999999992,-0.0107139999999999,0,sub_2
0.0043043999999997,-0.0017429999999987,-0.0169902,0.0685420000000005,-0.0044507999999992,-0.0182275999999999,0,sub_2
0.0112475999999997,-0.0034313999999987,-0.016968,0.0486682000000005,-0.0010025999999992,-0.0232863999999999,0,sub_2
0.0184015999999997,-0.0018097999999987,-0.0175398,0.0209168000000005,0.0133110000000007,-0.0213637999999999,0,sub_2
0.0236399999999997,0.0005832000000012,-0.0192368,-0.0036455999999994,0.0290886000000007,-0.0153613999999999,0,sub_2
0.0242923999999997,0.0058668000000012,-0.0199926,-0.0177995999999993,0.0369362000000007,-0.0067123999999999,0,sub_2
0.0213783999999997,0.0111886000000012,-0.0237044,-0.0178987999999994,0.0355854000000007,-0.0009445999999999,0,sub_2
0.0154933999999997,0.0121306000000012,-0.0248374,-0.0096051999999994,0.0329852000000007,0.0027488,0,sub_2
0.0118723999999997,0.0111372000000012,-0.0250572,0.0022958000000006,0.0225030000000007,0.0030592,0,sub_2
0.0094227999999997,0.0100464000000012,-0.024698,0.0135576000000005,0.0113872000000007,0.0025112,0,sub_2
0.0078177999999997,0.0084288000000012,-0.0250304,0.0216284000000005,0.0024132000000007,0.0019382,0,sub_2
0.0094869999999997,0.0071130000000012,-0.023251,0.0238108000000005,-0.0030937999999992,0.0013052,0,sub_2
0.0108005999999997,0.0066832000000012,-0.0198452,0.0223756000000005,-0.0053965999999992,0.001711,0,sub_2
0.0107561999999997,0.0068888000000012,-0.0156862,0.0211594000000005,-0.0059975999999992,0.0025434,0,sub_2
0.0080629999999997,0.0066368000000012,-0.01191,0.0203960000000005,-0.0010597999999992,0.0031582,0,sub_2
0.0047769999999997,0.0063650000000012,-0.0091352,0.0188010000000005,0.0075082000000007,0.0024808,0,sub_2
0.0022233999999997,0.0064394000000012,-0.006583,0.0177696000000005,0.0136972000000007,0.0007566,0,sub_2
0.0012939999999997,0.0066434000000012,-0.0066568,0.0177810000000005,0.0134952000000007,-0.0020203999999999,0,sub_2
0.0026739999999997,0.0058872000000012,-0.0075294,0.0160820000000005,0.0109534000000007,-0.0050493999999999,0,sub_2
0.0049467999999997,0.0060146000000012,-0.009305,0.0120178000000005,0.0052206000000007,-0.0072361999999999,0,sub_2
0.0070393999999997,0.0061948000000012,-0.0111346,0.0060160000000005,-0.0020063999999992,-0.0070845999999999,0,sub_2
0.0084985999999997,0.0070590000000012,-0.0139566,-0.0008343999999994,-0.0062551999999992,-0.0050199999999999,0,sub_2
0.0080605999999997,0.0081840000000012,-0.0174442,-0.0061787999999994,-0.0064663999999992,-0.0016681999999999,0,sub_2
0.0058139999999997,0.0094788000000012,-0.0215298,-0.0091755999999994,-0.0058277999999992,0.0010874,0,sub_2
0.0045715999999997,0.0098210000000012,-0.0249958,-0.0100395999999994,-0.0062585999999992,0.0030048,0,sub_2
0.0045039999999997,0.0104648000000012,-0.026223,-0.0085659999999994,-0.0098889999999992,0.0038742,0,sub_2
0.0051595999999997,0.0102614000000012,-0.0264786,-0.0050421999999994,-0.0197605999999992,0.0041196,0,sub_2
0.0072407999999997,0.0085816000000012,-0.025555,-0.0019727999999994,-0.0353847999999992,0.0047966,0,sub_2
0.0100815999999997,0.0080500000000012,-0.025023,0.0002334000000005,-0.0527123999999992,0.005897,0,sub_2
0.0133329999999997,0.0067140000000012,-0.0227794,0.0013678000000005,-0.0696159999999992,0.0084848,0,sub_2
0.0153219999999997,0.0058022000000012,-0.0206462,-0.0013221999999994,-0.0816111999999992,0.0123216,0,sub_2
0.0153489999999997,0.0063482000000012,-0.0179298,-0.0060547999999994,-0.0856607999999992,0.0167804,0,sub_2
0.0109969999999997,0.0063672000000012,-0.0146206,-0.0094755999999994,-0.0811985999999992,0.0227328,0,sub_2
0.0041081999999997,0.0072312000000012,-0.0088608,-0.0096523999999994,-0.0684333999999992,0.0274154,0,sub_2
-0.0030826000000002,0.0106934000000012,-0.0029768,-0.0036127999999994,-0.0526933999999992,0.0287192,0,sub_2
-0.0091990000000002,0.0115256000000012,0.0049333999999999,0.0101102000000005,-0.0410103999999991,0.0255954,0,sub_2
-0.0143338000000002,0.0109100000000012,0.0138801999999999,0.0259698000000005,-0.0344249999999992,0.0167246,0,sub_2
-0.0146558000000002,0.0086230000000012,0.0196403999999999,0.0388498000000005,-0.0322787999999992,0.001643,0,sub_2
-0.0109944000000002,0.0035760000000012,0.0185603999999999,0.0431938000000005,-0.0326497999999992,-0.0158449999999999,0,sub_2
-0.0051600000000002,-0.0008155999999987,0.0105477999999999,0.0351624000000005,-0.0319167999999992,-0.0323525999999999,0,sub_2
0.0039663999999997,-0.0031205999999987,-0.0013292,0.0156060000000005,-0.0271141999999992,-0.0442457999999999,0,sub_2
0.0144079999999997,-0.0027241999999986,-0.0147382,-0.0110007999999994,-0.0161409999999992,-0.0472225999999999,0,sub_2
0.0219571999999997,0.0024608000000013,-0.0265268,-0.0376447999999994,-0.0043521999999992,-0.0410139999999999,0,sub_2
0.0242899999999997,0.0105904000000012,-0.033553,-0.0545373999999994,0.0033042000000007,-0.0274665999999999,0,sub_2
0.0207353999999997,0.0161168000000012,-0.0349794,-0.0554567999999994,0.0055734000000007,-0.0125187999999999,0,sub_2
0.0123835999999997,0.0206952000000012,-0.0348342,-0.0391353999999994,-0.0047751999999992,-0.0006391999999999,0,sub_2
0.0025683999999997,0.0201378000000012,-0.0318242,-0.0117343999999994,-0.0247259999999992,0.004493,0,sub_2
-0.0039726000000002,0.0162474000000012,-0.0268778,0.0178376000000005,-0.0431655999999992,0.002802,0,sub_2
-0.0053544000000002,0.0105388000000012,-0.0203764,0.0395632000000005,-0.0581297999999992,-0.0034363999999999,0,sub_2
-0.0016014000000002,0.0057210000000012,-0.0132746,0.0457288000000005,-0.0685689999999992,-0.0089347999999999,0,sub_2
0.0035173999999997,0.0024034000000012,-0.0073918,0.0353072000000005,-0.0629853999999992,-0.0109373999999999,0,sub_2
0.0077509999999997,0.0019512000000012,-0.0057258,0.0165142000000005,-0.0419859999999992,-0.0085155999999999,0,sub_2
0.0097669999999997,0.0033404000000012,-0.0054894,-0.0044065999999994,-0.0180031999999992,-0.0044033999999999,0,sub_2
0.0075603999999997,0.0065284000000012,-0.0051466,-0.0204447999999994,0.0006352000000007,-3.659999999999749e-05,0,sub_2
0.0031669999999997,0.0093092000000012,-0.0088828,-0.0266879999999994,0.0128556000000007,0.002484,0,sub_2
-0.0010912000000002,0.0112646000000012,-0.0132522,-0.0225133999999994,0.0137594000000007,0.0021008,0,sub_2
-0.0032220000000002,0.0125280000000012,-0.0162678,-0.0127325999999994,0.0032966000000008,-0.0005947999999999,0,sub_2
-0.0034162000000002,0.0121562000000012,-0.0174406,3.320000000055501e-05,-0.0067539999999991,-0.0024155999999999,0,sub_2
-0.0010598000000002,0.0103668000000012,-0.0189866,0.0106942000000005,-0.0089201999999992,-0.0027655999999999,0,sub_2
0.0014907999999997,0.0084666000000012,-0.0172636,0.0158276000000005,-0.0048951999999992,-0.0014529999999999,0,sub_2
0.0024155999999997,0.0074962000000012,-0.014144,0.0155940000000005,0.0061280000000007,0.0008864,0,sub_2
0.0021205999999997,0.0067160000000012,-0.0115422,0.0123770000000005,0.0182260000000007,0.0034172,0,sub_2
0.0007731999999997,0.0076248000000012,-0.010638,0.0070102000000005,0.0252242000000007,0.004444,0,sub_2
9.499999999972408e-05,0.0077076000000012,-0.0088616,0.0018442000000005,0.0281788000000007,0.0041956,0,sub_2
-4.280000000025583e-05,0.0080290000000012,-0.008327,-0.0011803999999994,0.0313448000000007,0.0024664,0,sub_2
0.0016699999999997,0.0068152000000012,-0.0087192,-0.0026585999999994,0.0334856000000007,0.0011716,0,sub_2
0.0052459999999997,0.0068928000000012,-0.0113726,-0.0026537999999994,0.0341264000000007,0.0007436,0,sub_2
0.0084441999999997,0.0064142000000012,-0.0129778,-0.0022839999999994,0.0329430000000007,0.000931,0,sub_2
0.0110809999999997,0.0071258000000012,-0.0172796,-0.0012845999999994,0.0308992000000007,0.0026192,0,sub_2
0.0117273999999997,0.0076114000000012,-0.0187742,-0.0002947999999994,0.0273614000000007,0.0049504,0,sub_2
0.0117877999999997,0.0087590000000012,-0.01832,0.0013352000000005,0.0231848000000007,0.0066458,0,sub_2
0.0103651999999997,0.0085588000000012,-0.014537,0.0027614000000005,0.0200786000000007,0.0072702,0,sub_2
0.0094873999999997,0.0086138000000012,-0.0131164,0.0040378000000005,0.0190098000000007,0.0070668,0,sub_2
0.0085487999999997,0.0079636000000012,-0.0110862,0.0048826000000005,0.0166650000000007,0.0066484,0,sub_2
0.0088253999999997,0.0068346000000012,-0.010475,0.0048664000000005,0.0126188000000007,0.006226,0,sub_2
0.0092745999999997,0.0062278000000012,-0.0103774,0.0033594000000005,0.0098536000000007,0.0064326,0,sub_2
0.0092963999999997,0.0055076000000012,-0.010031,0.0003444000000005,0.0086908000000007,0.0070822,0,sub_2
0.0086501999999997,0.0056538000000012,-0.00972,-0.0037373999999994,0.0075318000000007,0.0077244,0,sub_2
0.0080051999999997,0.0063196000000012,-0.0104362,-0.0065369999999994,0.0057334000000007,0.0073082,0,sub_2
0.0068809999999997,0.0072320000000012,-0.0122436,-0.0067713999999994,0.0056280000000007,0.0075488,0,sub_2
0.0059177999999997,0.0075346000000012,-0.0131148,-0.0052999999999994,0.0040304000000007,0.0065212,0,sub_2
0.0061107999999997,0.0077824000000012,-0.0126198,-0.0027461999999994,0.0012570000000007,0.0052608,0,sub_2
0.0066787999999997,0.0071118000000012,-0.0103072,2.2800000000534937e-05,-0.0006667999999992,0.004428,0,sub_2
0.0066827999999997,0.0060996000000012,-0.0078572,0.0008618000000005,0.0016098000000007,0.0040336,0,sub_2
0.0073233999999997,0.0062648000000012,-0.0062852,0.0006330000000005,0.0026160000000007,0.0025652,0,sub_2
0.0081661999999997,0.0065530000000012,-0.007137,0.0006090000000005,0.0027648000000007,0.0021676,0,sub_2
0.0082895999999997,0.0066990000000012,-0.009095,0.0008012000000005,0.0035522000000007,0.0017706,0,sub_2
0.0088261999999997,0.0068880000000012,-0.0112774,0.0005704000000005,0.0060422000000007,0.0022232,0,sub_2
0.0081765999999997,0.0074704000000012,-0.0121932,0.0012172000000005,0.0085922000000007,0.0032928,0,sub_2
0.0071891999999997,0.0079212000000012,-0.0115098,0.0025080000000005,0.0119922000000007,0.0043656,0,sub_2
0.0052189999999997,0.0081882000000012,-0.0109484,0.0040170000000005,0.0153960000000007,0.0043718,0,sub_2
0.0040863999999997,0.0081384000000012,-0.011529,0.0053154000000005,0.0192272000000007,0.0041624,0,sub_2
0.0033803999999997,0.0088612000000012,-0.0118496,0.0070220000000005,0.0216618000000007,0.0037658,0,sub_2
0.0045311999999997,0.0092968000000012,-0.0114542,0.0093552000000005,0.0202628000000007,0.002524,0,sub_2
0.0063063999999997,0.0082136000000012,-0.011709,0.0116940000000005,0.0197176000000007,0.000854,0,sub_2
0.0086551999999997,0.0070502000000012,-0.011559,0.0123250000000005,0.0204506000000007,0.0006658,0,sub_2
0.0097395999999997,0.0067948000000012,-0.0112198,0.0110280000000005,0.0201226000000007,0.0011064,0,sub_2
0.0105061999999997,0.0060114000000012,-0.0116334,0.0084580000000005,0.0180010000000007,0.0010912,0,sub_2
0.0105103999999997,0.0058446000000012,-0.0128156,0.0056726000000005,0.0152418000000007,0.0008616,0,sub_2
0.0095061999999997,0.0071010000000012,-0.0145612,0.0035102000000005,0.0092820000000007,0.0012814,0,sub_2
0.0083539999999997,0.0082730000000012,-0.0156886,0.0030434000000005,0.0026832000000007,0.000869,0,sub_2
0.0078039999999997,0.0086574000000012,-0.0161196,0.0038636000000005,-0.0030651999999992,-0.0001765999999999,0,sub_2
0.0069695999999997,0.0087540000000012,-0.0158554,0.0059698000000005,-0.0071155999999992,-0.0007879999999999,0,sub_2
0.0063959999999997,0.0084374000000012,-0.0155586,0.0076608000000005,-0.0083955999999992,-0.0011921999999999,0,sub_2
0.0064553999999997,0.0078170000000012,-0.0148862,0.0072238000000005,-0.0081773999999992,-0.0013995999999999,0,sub_2
0.0067067999999997,0.0076306000000012,-0.0135296,0.0059388000000005,-0.0094503999999992,-0.0016205999999999,0,sub_2
0.0049221999999997,0.0074386000000012,-0.0125824,0.0044432000000005,-0.0092347999999992,-0.0009901999999999,0,sub_2
0.0034417999999997,0.0078436000000012,-0.0123462,0.0033694000000005,-0.0079903999999992,-0.0010073999999999,0,sub_2
0.0026767999999997,0.0080918000000012,-0.01215,0.0018700000000005,-0.0065315999999992,-0.0010277999999999,0,sub_2
0.0022917999999997,0.0077126000000012,-0.012101,0.0012268000000005,-0.0044365999999992,-0.0010429999999999,0,sub_2
0.0017177999999997,0.0071732000000012,-0.0126948,-0.0004839999999994,-0.0021265999999992,-0.0006387999999999,0,sub_2
0.0024743999999997,0.0075530000000012,-0.0125866,-0.0015537999999994,-0.0006665999999992,-0.0012971999999999,0,sub_2
0.0028527999999997,0.0076034000000012,-0.012621,-0.0030387999999994,0.0008316000000007,-0.0017367999999999,0,sub_2
0.0035945999999997,0.0078920000000012,-0.0132528,-0.0040989999999994,0.0021146000000007,-0.0019595999999999,0,sub_2
0.0046751999999997,0.0078410000000012,-0.0142274,-0.0047371999999994,0.0023306000000007,-0.0021779999999999,0,sub_2
0.0056059999999997,0.0080278000000012,-0.014664,-0.0040993999999994,0.0029320000000007,-0.0021923999999999,0,sub_2
0.0065373999999997,0.0080908000000012,-0.0151206,-0.0041083999999994,0.0031052000000007,-0.0011425999999999,0,sub_2
0.0053735999999997,0.0079158000000012,-0.0131122,-0.0036933999999994,0.0028500000000007,0.0001244,0,sub_2
0.0036781999999997,0.0072034000000012,-0.0116946,-0.0032823999999994,0.0013182000000007,0.0009658,0,sub_2
0.0013779999999997,0.0073258000000012,-0.0107884,-0.0032911999999994,0.0004306000000007,0.0009488,0,sub_2
0.0013419999999997,0.0072168000000012,-0.0114356,-0.0024251999999994,0.0021364000000007,-0.0001153999999999,0,sub_2
0.0018201999999997,0.0070582000000012,-0.0124378,-0.0011361999999994,0.0032006000000007,-0.0009621999999999,0,sub_2
0.0043815999999997,0.0074412000000012,-0.013877,-0.0005075999999994,0.0008540000000007,-0.0007409999999999,0,sub_2
0.0047103999999997,0.0078572000000012,-0.0125602,-0.0013739999999994,0.0014418000000007,0.0003006,0,sub_2
0.0050077999999997,0.0074326000000012,-0.0112014,-0.0009421999999994,0.0058608000000007,0.0011326,0,sub_2
0.0026139999999997,0.0074332000000012,-0.0095892,-9.01999999994456e-05,0.0085748000000007,0.001756,0,sub_2
0.0028573999999997,0.0073998000000012,-0.0092012,0.0005388000000005,0.0087346000000007,0.0019538,0,sub_2
0.0034655999999997,0.0069398000000012,-0.0099192,0.0003268000000005,0.0103940000000007,0.000862,0,sub_2
0.0061249999999997,0.0063456000000012,-0.0117186,0.0009688000000005,0.0101812000000007,0.0002258,0,sub_2
0.0069981999999997,0.0075394000000012,-0.012528,0.0007440000000005,0.0086864000000007,0.0012943999999999,0,sub_2
0.0083887999999997,0.0079298000000012,-0.0128362,-0.0003333999999994,0.0078320000000007,0.0027835999999999,0,sub_2
0.0078939999999997,0.0080298000000012,-0.0128008,0.0003086000000005,0.0084682000000007,0.0030009999999999,0,sub_2
0.0072161999999997,0.0079790000000012,-0.0130424,0.0024202000000005,0.0088248000000007,0.0029993999999999,0,sub_2
0.0069037999999997,0.0082878000000012,-0.0132942,0.0049556000000005,0.0081164000000007,0.0025748,0,sub_2
0.0073165999999997,0.0074436000000012,-0.0125252,0.0066300000000005,0.0050700000000007,0.0015062,0,sub_2
0.0080577999999997,0.0069110000000012,-0.0128864,0.0072412000000005,0.0037284000000007,0.0012826,0,sub_2
0.0075187999999997,0.0067156000000012,-0.0122048,0.0059340000000005,0.0034560000000007,0.0016852,0,sub_2
0.0074167999999997,0.0067580000000012,-0.0115708,0.0048576000000005,0.0019658000000007,0.0023204,0,sub_2
0.0067551999999997,0.0073452000000012,-0.0115908,0.0037898000000005,0.0013322000000007,0.0018864,0,sub_2
0.0076733999999997,0.0078504000000012,-0.01235,0.0039776000000005,0.0015154000000007,0.002093,0,sub_2
0.0078503999999997,0.0086400000000012,-0.0124674,0.0041588000000005,0.0002072000000007,0.0023014,0,sub_2
0.0082419999999997,0.0087190000000012,-0.0134346,0.0041258000000005,-0.0013129999999992,0.0025086,0,sub_2
0.0079063999999997,0.0082924000000012,-0.0128028,0.0041098000000005,0.0007894000000007,0.0024978,0,sub_2
0.0081581999999997,0.0080882000000012,-0.0122202,0.0047340000000005,0.0028894000000007,0.0024914,0,sub_2
0.0079265999999997,0.0077396000000012,-0.012541,0.0045236000000005,0.0031050000000007,0.0020624,0,sub_2
0.0083481999999997,0.0067706000000012,-0.0123264,0.0036730000000005,0.0035350000000007,0.0018424,0,sub_2
0.0072227999999997,0.0065608000000012,-0.0114656,0.0017622000000005,0.0060966000000007,0.0022532,0,sub_2
0.0055779999999997,0.0073886000000012,-0.0124014,0.0002648000000005,0.0079990000000007,0.0024522,0,sub_2
0.0038927999999997,0.0077426000000012,-0.014099,0.0002514000000005,0.0067048000000007,0.0015974,0,sub_2
0.0033821999999997,0.0089544000000012,-0.0158666,0.0021572000000005,0.0045542000000007,0.0001162,0,sub_2
0.0037015999999997,0.0090812000000012,-0.0160748,0.0044898000000005,0.0021898000000007,-0.0015755999999999,0,sub_2
0.0052059999999997,0.0088948000000012,-0.0154616,0.0066004000000005,-0.0006059999999992,-0.0017727999999999,0,sub_2
0.0067025999999997,0.0083242000000012,-0.0136988,0.0061650000000005,-0.0018853999999991,-0.0011333999999999,0,sub_2
0.0072027999999997,0.0079780000000012,-0.0122208,0.0029730000000005,0.0006798000000007,-0.0005179999999999,0,sub_2
0.0066215999999997,0.0062526000000012,-0.0118118,-0.0010685999999994,0.0038880000000007,-0.0001229999999999,0,sub_2
0.0054051999999997,0.0067830000000012,-0.0129246,-0.0034147999999994,0.0040920000000007,-0.0007811999999999,0,sub_2
0.0056875999999997,0.0073132000000012,-0.01421,-0.0040607999999994,0.0013132000000007,-0.0029191999999999,0,sub_2
0.0065875999999997,0.0070548000000012,-0.0158634,-0.0038627999999994,-0.0033867999999992,-0.0048351999999999,0,sub_2
0.0077947999999997,0.0062882000000012,-0.0168338,-0.0034647999999994,-0.0087361999999992,-0.0043989999999999,0,sub_2
0.0079115999999997,0.0068724000000012,-0.0157236,-0.0043393999999994,-0.0111035999999992,-0.0026935999999999,0,sub_2
0.0078187999999997,0.0067306000000012,-0.0148682,-0.0049869999999994,-0.0108959999999992,-0.0007755999999999,0,sub_2
0.0065887999999997,0.0072786000000012,-0.0146984,-0.0034971999999994,-0.0104801999999992,0.000516,0,sub_2
0.0055625999999997,0.0075186000000012,-0.0143786,-0.0002947999999994,-0.0092165999999992,0.0013914,0,sub_2
0.0046355999999997,0.0078298000000012,-0.0135002,0.0016370000000005,-0.0064543999999992,0.001615,0,sub_2
0.0044179999999997,0.0072346000000012,-0.012779,0.0022870000000005,-0.0039271999999992,0.0009726,0,sub_2
0.0045937999999997,0.0068380000000012,-0.0117972,0.0008050000000005,-0.0003299999999992,0.000955,0,sub_2
0.0044809999999997,0.0059974000000012,-0.0108202,-0.0023847999999994,0.0032724000000007,0.0011392,0,sub_2
0.0044601999999997,0.0063946000000012,-0.0103094,-0.0047249999999994,0.0047464000000007,5.000000000002294e-05,0,sub_2
0.0055657999999997,0.0066910000000012,-0.0111748,-0.0043027999999994,0.0034418000000007,-0.0012297999999999,0,sub_2
0.0068217999999997,0.0071638000000012,-0.0124746,-0.0032417999999994,0.0017352000000008,-0.0016473999999999,0,sub_2
0.0072333999999997,0.0071922000000012,-0.0116896,-0.0028197999999994,0.0004562000000008,-0.0018563999999999,0,sub_2
0.0076273999999997,0.0076046000000012,-0.0120692,-0.0032559999999994,0.0012836000000008,-0.0018669999999999,0,sub_2
0.0080149999999997,0.0076428000000012,-0.0126082,-0.0032643999999994,0.0029592000000007,-0.0012345999999999,0,sub_2
0.0070471999999997,0.0077458000000012,-0.0117232,-0.0032787999999994,0.0027198000000007,-0.0012407999999999,0,sub_2
0.0069179999999997,0.0082030000000012,-0.0115788,-0.0022319999999994,-0.0002869999999992,-0.0027315999999999,0,sub_2
0.0075133999999997,0.0079590000000012,-0.0133004,-0.0011909999999994,-0.0045719999999992,-0.0042207999999999,0,sub_2
0.0081589999999997,0.0070240000000012,-0.012689,-0.0005567999999994,-0.0067013999999992,-0.0050681999999999,0,sub_2
0.0078811999999997,0.0063598000000012,-0.0127046,-0.0024761999999994,-0.0069059999999992,-0.0055085999999999,0,sub_2
0.0077349999999997,0.0061388000000012,-0.0130146,-0.0050327999999994,-0.0054081999999992,-0.0048873999999999,0,sub_2
0.0066315999999997,0.0067990000000012,-0.012062,-0.0071777999999994,-0.0030867999999992,-0.0036319999999999,0,sub_2
0.0050481999999997,0.0071360000000012,-0.012215,-0.0069795999999994,-0.0020503999999992,-0.0027859999999999,0,sub_2
0.0037487999999997,0.0076404000000012,-0.0138124,-0.0050761999999994,-0.0020825999999992,-0.0025675999999999,0,sub_2
0.0037357999999997,0.0085982000000012,-0.0140838,-0.0027537999999994,-0.0038207999999992,-0.0023441999999999,0,sub_2
