userAcceleration.x,userAcceleration.y,userAcceleration.z,rotationRate.x,rotationRate.y,rotationRate.z,label,subject
-0.0038006000000001,0.0070948000000012,-0.0061313999999999,0.1095864000000004,-0.1830713999999992,-5.380000000004992e-05,0,sub_11
0.0019245999999997,0.0070994000000012,-0.0071311999999999,0.1174868000000004,-0.1796985999999993,0.0021333999999999,0,sub_11
0.0042453999999997,0.0102160000000012,-0.0078883999999999,0.1213744000000004,-0.1665139999999993,0.0049209999999999,0,sub_11
0.0037415999999997,0.0090460000000012,-0.0101423999999999,0.1235992000000004,-0.1454325999999992,0.0057639999999999,0,sub_11
0.0003859999999997,0.0088886000000012,-0.0141707999999999,0.1247130000000004,-0.1335113999999992,0.0072519999999999,0,sub_11
-0.0034432000000002,0.0108278000000012,-0.0123495999999999,0.1258182000000004,-0.1235075999999992,0.0087423999999999,0,sub_11
-0.0052166000000001,0.0114404000000012,-0.0128803999999999,0.1286708000000004,-0.1054103999999992,0.0093801999999999,0,sub_11
-0.0052098000000001,0.0090432000000012,-0.0126969999999999,0.1336274000000004,-0.0935007999999992,0.0104677999999999,0,sub_11
-0.0032416000000001,0.0089586000000012,-0.0121185999999999,0.1404544000000004,-0.0892815999999992,0.0149965999999999,0,sub_11
-0.0027200000000001,0.0096674000000012,-0.0107579999999999,0.1453928000000004,-0.0763271999999992,0.0212101999999999,0,sub_11
5.199999999813183e-06,0.0093742000000012,-0.0106245999999999,0.1477724000000004,-0.0627255999999992,0.0276185999999999,0,sub_11
0.0001917999999998,0.0098806000000012,-0.0088813999999999,0.1490726000000004,-0.0521019999999992,0.0338095999999999,0,sub_11
-0.0007802000000001,0.0094282000000012,-0.0108523999999999,0.1519202000000004,-0.0329479999999992,0.0365823999999999,0,sub_11
-0.0035704000000001,0.0086272000000012,-0.0116599999999999,0.1511750000000004,-0.0105675999999992,0.0348393999999999,0,sub_11
-0.0051086000000001,0.0073904000000012,-0.0124287999999999,0.1489198000000004,0.0033154000000007,0.0281827999999999,0,sub_11
-0.0070724000000001,0.0084296000000012,-0.0129399999999999,0.1421256000000004,0.0044300000000007,0.0217245999999999,0,sub_11
-0.0089220000000001,0.0098974000000012,-0.0130871999999999,0.1283370000000004,0.0124014000000006,0.0115767999999999,0,sub_11
-0.0105766000000002,0.0128444000000012,-0.0124287999999999,0.1106808000000004,0.0122988000000006,-0.0007242,0,sub_11
-0.0127268000000002,0.0145658000000012,-0.0107415999999999,0.0959600000000004,0.0015298000000007,-0.0121364,0,sub_11
-0.0183848000000002,0.0121052000000012,-0.0103631999999999,0.0818554000000004,-0.0124457999999992,-0.0214038,0,sub_11
-0.0201596000000002,0.0117656000000012,-0.0132707999999999,0.0739854000000004,-0.0206717999999992,-0.035335,0,sub_11
-0.0187218000000002,0.0107554000000012,-0.0160829999999999,0.0762750000000004,-0.0427999999999992,-0.044691,0,sub_11
-0.0141010000000002,0.0060280000000012,-0.0119685999999999,0.0739116000000004,-0.0510819999999992,-0.049397,0,sub_11
-0.0062192000000002,0.0044626000000012,-0.0076197999999999,0.0637522000000004,-0.0337847999999992,-0.0505582,0,sub_11
0.0036069999999997,0.0065198000000012,-0.0023077999999999,0.0572642000000004,-0.0041533999999992,-0.0491458,0,sub_11
0.0066315999999997,0.0049044000000012,0.0038514,0.0525436000000004,0.0416530000000007,-0.0449646,0,sub_11
0.0056129999999997,0.0066148000000012,0.002463,0.0450318000000004,0.0868172000000007,-0.0375974,0,sub_11
-0.0021526000000002,0.0119536000000011,-0.0014085999999999,0.0417424000000004,0.1232262000000007,-0.0289076,0,sub_11
-0.0113370000000002,0.0148966000000011,-0.0039261999999999,0.0511778000000004,0.1457284000000007,-0.0166928,0,sub_11
-0.0203164000000002,0.0123622000000012,-0.0081869999999999,0.0599108000000004,0.1605384000000007,0.0017225999999999,0,sub_11
-0.0290520000000002,0.0089846000000012,-0.0146781999999999,0.0649062000000004,0.1559528000000007,0.0252641999999999,0,sub_11
-0.0372906000000002,0.0050716000000012,-0.0185687999999999,0.0716114000000004,0.1475440000000007,0.0443361999999999,0,sub_11
-0.0415352000000002,0.0030548000000012,-0.0230977999999999,0.0893612000000004,0.1239850000000007,0.0596589999999999,0,sub_11
-0.0472430000000002,-0.0001813999999987,-0.0291365999999999,0.1094600000000004,0.0927804000000006,0.0668895999999999,0,sub_11
-0.0497698000000002,0.0016210000000012,-0.0336697999999999,0.1353352000000004,0.0579618000000006,0.0671149999999999,0,sub_11
-0.0490208000000002,0.0034034000000012,-0.0331601999999999,0.1582558000000004,0.0297608000000007,0.0666703999999999,0,sub_11
-0.0465468000000002,0.0014384000000012,-0.0290587999999999,0.1681904000000004,0.0143638000000007,0.0723143999999999,0,sub_11
-0.0416744000000002,-0.0003497999999987,-0.0261271999999999,0.1596298000000004,0.0148516000000007,0.0852733999999999,0,sub_11
-0.0355248000000002,-0.0020329999999987,-0.0263619999999999,0.1325432000000004,0.0294428000000007,0.1038531999999999,0,sub_11
-0.0327982000000002,-0.0033277999999987,-0.0253043999999999,0.0944408000000004,0.0626048000000007,0.1231867999999999,0,sub_11
-0.0309394000000001,-0.0040689999999987,-0.0253161999999999,0.0642484000000004,0.0915090000000007,0.1348899999999999,0,sub_11
-0.0284366000000001,0.0093086000000012,-0.0129569999999999,0.0659536000000004,0.0832822000000007,0.1338311999999999,0,sub_11
-0.0336414000000001,0.0161974000000012,-0.0093367999999999,0.0744846000000004,0.0703048000000007,0.1217297999999999,0,sub_11
-0.0424974000000001,0.0213276000000012,-0.0100051999999999,0.0793968000000004,0.0526792000000007,0.1029859999999999,0,sub_11
-0.0457346000000001,0.0231632000000012,-0.0118691999999999,0.0820032000000004,0.0395548000000007,0.0795201999999999,0,sub_11
-0.0440950000000001,0.0298982000000012,-0.0151375999999999,0.0753706000000004,0.0128244000000007,0.0566479999999999,0,sub_11
-0.0445752000000002,0.0247340000000012,-0.0271189999999999,0.0436424000000004,0.0081120000000007,0.0372043999999999,0,sub_11
-0.0356476000000002,0.0143652000000012,-0.0269339999999999,0.0115172000000004,0.0146742000000007,0.0224435999999999,0,sub_11
-0.0225068000000002,0.0079474000000012,-0.0236525999999999,-0.0114329999999995,0.0273582000000007,0.0139347999999999,0,sub_11
-0.0144402000000001,0.0059516000000012,-0.0222257999999999,-0.0287171999999995,0.0269934000000007,0.0136007999999999,0,sub_11
-0.0118282000000001,0.0025940000000012,-0.0208539999999999,-0.0408459999999995,0.0410710000000007,0.0201211999999999,0,sub_11
-0.0124716000000001,-0.0028071999999987,-0.0198917999999999,-0.0482785999999995,0.0608632000000006,0.0320079999999999,0,sub_11
-0.0164076000000001,0.0027496000000012,-0.0218177999999999,-0.0491761999999995,0.0629490000000006,0.0439631999999999,0,sub_11
-0.0198680000000001,0.0062534000000012,-0.0199697999999999,-0.0403219999999995,0.0490292000000007,0.0540841999999999,0,sub_11
-0.0214600000000001,0.0062734000000012,-0.0156369999999999,-0.0270175999999995,0.0261540000000007,0.0621113999999999,0,sub_11
-0.0237570000000001,0.0031388000000012,-0.0094887999999999,-0.0160591999999995,0.0037122000000007,0.0703351999999999,0,sub_11
-0.0246044000000002,0.0052448000000012,-0.0064821999999999,-0.0093289999999995,-0.0118891999999992,0.0765977999999999,0,sub_11
-0.0261254000000002,0.0080526000000012,-0.0038215999999999,-0.0068231999999995,-0.0197981999999992,0.0808983999999999,0,sub_11
-0.0305430000000002,0.0131222000000012,-0.0022725999999999,-0.0100197999999995,-0.0197835999999992,0.0800215999999999,0,sub_11
-0.0341488000000002,0.0191838000000012,-0.0032125999999999,-0.0165671999999995,-0.0131225999999992,0.0716351999999999,0,sub_11
-0.0358116000000002,0.0234412000000012,-0.0052997999999999,-0.0236991999999995,-0.0008925999999992,0.0564007999999999,0,sub_11
-0.0355882000000002,0.0230052000000012,-0.0071515999999999,-0.0316731999999995,0.0111382000000007,0.0383835999999999,0,sub_11
-0.0354322000000002,0.0179426000000012,-0.0112177999999999,-0.0398739999999995,0.0214602000000007,0.0216487999999999,0,sub_11
-0.0328864000000001,0.0123586000000012,-0.0157993999999999,-0.0466147999999995,0.0296252000000007,0.0102679999999999,0,sub_11
-0.0264632000000001,0.0091604000000012,-0.0194575999999999,-0.0536167999999995,0.0358386000000007,0.0076473999999999,0,sub_11
-0.0214974000000001,0.0052418000000012,-0.0218055999999999,-0.0606609999999995,0.0411656000000007,0.0135733999999999,0,sub_11
-0.0162512000000001,0.0030156000000012,-0.0246271999999999,-0.0655915999999995,0.0473162000000007,0.0248541999999999,0,sub_11
-0.0105420000000001,0.0045488000000012,-0.0257299999999999,-0.0679797999999995,0.0517440000000007,0.0385049999999999,0,sub_11
-0.0058430000000002,0.0053968000000012,-0.0267283999999999,-0.0673759999999995,0.0559534000000007,0.0508951999999999,0,sub_11
-0.0044956000000002,0.0059984000000012,-0.0272415999999999,-0.0650411999999995,0.0606024000000007,0.0583829999999999,0,sub_11
-0.0014428000000002,0.0078378000000012,-0.0277125999999999,-0.0622625999999995,0.0650532000000007,0.0618149999999999,0,sub_11
0.0024603999999997,0.0084280000000012,-0.0230617999999999,-0.0605391999999995,0.0705790000000007,0.0637427999999999,0,sub_11
0.0059407999999997,0.0055140000000012,-0.0180613999999999,-0.0630497999999995,0.0816668000000006,0.0637111999999999,0,sub_11
0.0062299999999997,0.0043554000000012,-0.0137623999999999,-0.0696001999999995,0.0963888000000006,0.0640739999999999,0,sub_11
0.0049755999999997,0.0053884000000012,-0.0108433999999999,-0.0801787999999995,0.1145434000000007,0.0620539999999999,0,sub_11
0.0030057999999997,0.0063550000000012,-0.0089897999999999,-0.0905543999999995,0.1301414000000006,0.0598251999999999,0,sub_11
-0.0004534000000002,0.0076284000000012,-0.0115091999999999,-0.0996613999999995,0.1429660000000007,0.0573949999999999,0,sub_11
-0.0050114000000002,0.0117934000000012,-0.0128341999999999,-0.1042913999999995,0.1540738000000007,0.0541435999999999,0,sub_11
-0.0072928000000002,0.0138924000000012,-0.0132741999999999,-0.1055025999999995,0.1632642000000007,0.0479275999999999,0,sub_11
-0.0087276000000002,0.0090226000000012,-0.0130045999999999,-0.1016523999999995,0.1634714000000006,0.0460313999999999,0,sub_11
-0.0090452000000002,0.0093918000000011,-0.0093623999999999,-0.1003357999999995,0.1651968000000006,0.0396289999999999,0,sub_11
-0.0079178000000002,0.0094616000000011,-0.0055125999999999,-0.1018015999999995,0.1652266000000007,0.0334231999999999,0,sub_11
-0.0081952000000001,0.0085308000000011,-0.0035135999999999,-0.1079865999999995,0.1620678000000006,0.0295385999999999,0,sub_11
-0.0090640000000001,0.0082878000000011,-0.0014097999999999,-0.1146163999999994,0.1557114000000006,0.0265093999999999,0,sub_11
-0.0130640000000001,0.0106708000000011,0.0012046,-0.1201571999999995,0.1510684000000007,0.0202809999999999,0,sub_11
-0.0170640000000001,0.0082122000000012,-0.0005135999999999,-0.1210335999999995,0.1419264000000007,0.0162273999999999,0,sub_11
-0.0207104000000001,0.0076836000000012,-0.0021159999999999,-0.1170033999999995,0.1304322000000007,0.0100745999999999,0,sub_11
-0.0222678000000001,0.0080532000000012,-0.0050745999999999,-0.1108299999999995,0.1195756000000007,0.0024403999999999,0,sub_11
-0.0220510000000001,0.0084746000000012,-0.0086477999999999,-0.1080407999999995,0.1100974000000007,-0.0041648,0,sub_11
-0.0166770000000002,0.0097856000000012,-0.0124595999999999,-0.1095207999999995,0.1029666000000006,-0.0080254,0,sub_11
-0.0109642000000002,0.0105604000000012,-0.0140085999999999,-0.1135737999999995,0.0964702000000006,-0.0084866,0,sub_11
-0.0069844000000002,0.0087840000000012,-0.0152951999999999,-0.1210061999999995,0.0989290000000006,-0.007701,0,sub_11
-0.0022482000000002,0.0096186000000012,-0.0173953999999999,-0.1286403999999995,0.1030964000000007,-0.0077736,0,sub_11
0.0011363999999997,0.0109332000000012,-0.0181215999999999,-0.1345831999999995,0.1099358000000007,-0.0080376,0,sub_11
0.0011197999999997,0.0117106000000012,-0.0189595999999999,-0.1396495999999995,0.1218856000000007,-0.008302,0,sub_11
-0.0004054000000002,0.0107150000000012,-0.0212295999999999,-0.1459595999999995,0.1402382000000007,-0.0102924,0,sub_11
-0.0025002000000002,0.0118004000000012,-0.0235907999999999,-0.1531471999999995,0.1515698000000007,-0.0139892,0,sub_11
-0.0046916000000002,0.0102322000000012,-0.0242755999999999,-0.1614283999999995,0.1571518000000006,-0.0174724,0,sub_11
-0.0086054000000002,0.0088180000000012,-0.0221875999999999,-0.1692933999999995,0.1584790000000007,-0.02287,0,sub_11
-0.0143718000000002,0.0078086000000012,-0.0195525999999999,-0.1739539999999995,0.1553422000000007,-0.0335808,0,sub_11
-0.0198080000000002,0.0091084000000012,-0.0170595999999999,-0.1765039999999995,0.1445384000000007,-0.0468306,0,sub_11
-0.0236672000000002,0.0102562000000012,-0.0154969999999999,-0.1803763999999995,0.1266988000000007,-0.0577306,0,sub_11
-0.0272148000000002,0.0111638000000012,-0.0122253999999999,-0.1849789999999995,0.0924420000000007,-0.0649828,0,sub_11
-0.0295772000000002,0.0102530000000012,-0.0109957999999999,-0.1864719999999995,0.0423902000000007,-0.0677066,0,sub_11
-0.0332840000000002,0.0099138000000012,-0.0104641999999999,-0.1876043999999995,-0.0183319999999992,-0.0663548,0,sub_11
-0.0362360000000002,0.0087722000000012,-0.0095545999999999,-0.1878393999999995,-0.0705299999999992,-0.0662896,0,sub_11
-0.0342338000000002,0.0053500000000012,-0.0086023999999999,-0.1788091999999995,-0.1088867999999992,-0.072373,0,sub_11
-0.0302852000000002,0.0015360000000012,-0.0122457999999999,-0.1626273999999994,-0.1295575999999992,-0.0852658,0,sub_11
-0.0127226000000002,0.0063460000000012,-0.0192589999999999,-0.1454113999999995,-0.1572637999999992,-0.0979286,0,sub_11
0.0090353999999997,0.0077052000000012,-0.0179531999999999,-0.1258165999999995,-0.1724301999999992,-0.1050362,0,sub_11
0.0206919999999997,0.0066608000000012,-0.0159225999999999,-0.1027357999999994,-0.1678099999999993,-0.1082992,0,sub_11
0.0229709999999998,0.0067846000000012,-0.0199023999999999,-0.0878941999999995,-0.1420795999999993,-0.1088694,0,sub_11
0.0259425999999998,0.0033468000000012,-0.0260145999999999,-0.0817029999999995,-0.0922529999999993,-0.1071808,0,sub_11
0.0274865999999998,-0.0047257999999987,-0.0303527999999999,-0.0840351999999995,-0.0377177999999993,-0.1034214,0,sub_11
0.0268479999999998,-0.0073993999999987,-0.0392323999999999,-0.0967513999999995,-0.0123445999999993,-0.097347,0,sub_11
0.0226813999999998,-0.0033651999999987,-0.0454711999999999,-0.1228739999999995,-0.0146687999999993,-0.0795804,0,sub_11
0.0095955999999998,0.0087516000000012,-0.0425343999999999,-0.1527559999999995,-0.0406521999999993,-0.0560414,0,sub_11
-0.0005354000000001,0.0265442000000012,-0.0313449999999999,-0.1728211999999995,-0.0717609999999993,-0.037982,0,sub_11
-0.0216962000000001,0.0415596000000012,-0.0205521999999999,-0.1778351999999995,-0.0862681999999992,-0.0288118,0,sub_11
-0.0233684000000001,0.0437168000000012,-0.0132713999999999,-0.1711851999999995,-0.0750129999999992,-0.0253614,0,sub_11
-0.0161328000000002,0.0388030000000012,-0.0081693999999999,-0.1563215999999995,-0.0492627999999992,-0.0308454,0,sub_11
0.0037387999999997,0.0251210000000012,-0.0043433999999999,-0.1337343999999995,-0.0160749999999992,-0.0382076,0,sub_11
0.0162395999999997,0.0115774000000012,0.004634,-0.1163189999999995,0.0136902000000007,-0.0376968,0,sub_11
0.0265231999999997,-0.0010223999999987,0.0095294,-0.1133687999999995,0.0575506000000007,-0.0330322,0,sub_11
0.0180647999999997,-0.0034429999999987,0.010187,-0.1189111999999995,0.1093298000000007,-0.0299326,0,sub_11
0.0116479999999997,-0.0033739999999987,0.0072512,-0.1225821999999995,0.1470536000000007,-0.0300064,0,sub_11
-0.0003162000000002,-0.0024939999999987,0.006775,-0.1282397999999995,0.1658394000000007,-0.034343,0,sub_11
-0.0139922000000002,-0.0024951999999987,0.0018376,-0.1324687999999995,0.1658884000000006,-0.0429184,0,sub_11
-0.0295818000000002,-0.0011505999999987,-0.0008971999999999,-0.1296843999999995,0.1557026000000006,-0.0554908,0,sub_11
-0.0433586000000002,0.0010524000000012,-0.0026235999999999,-0.1245855999999995,0.1367792000000006,-0.0695316,0,sub_11
-0.0494734000000002,0.0057814000000012,-0.0038507999999999,-0.1184811999999995,0.1067630000000006,-0.0809874,0,sub_11
-0.0425612000000002,0.0103616000000012,-0.0093727999999999,-0.1087877999999995,0.0735172000000006,-0.0870728,0,sub_11
-0.0322508000000002,0.0144414000000012,-0.0186303999999999,-0.0976123999999995,0.0436512000000006,-0.08717,0,sub_11
-0.0191500000000002,0.0142528000000012,-0.0247361999999999,-0.0877363999999995,0.0163190000000006,-0.0804432,0,sub_11
-0.0060168000000002,0.0113726000000012,-0.0248353999999999,-0.0785003999999995,-0.0063425999999992,-0.0690264,0,sub_11
0.0005209999999997,0.0086154000000012,-0.0235897999999999,-0.0713539999999995,-0.0153765999999992,-0.0537962,0,sub_11
-0.0004962000000002,0.0069144000000012,-0.0218651999999999,-0.0652313999999995,-0.0131219999999992,-0.0368784,0,sub_11
-0.0025260000000002,0.0051082000000012,-0.0178747999999999,-0.0582561999999995,-0.0108711999999992,-0.019741,0,sub_11
-0.0066544000000002,0.0039088000000012,-0.0112897999999999,-0.0486945999999995,-0.0110803999999992,-0.004731,0,sub_11
-0.0134976000000002,0.0034520000000012,-0.0078085999999999,-0.0369801999999995,-0.0129773999999992,0.0043139999999999,0,sub_11
-0.0160638000000002,0.0029950000000012,-0.0036795999999999,-0.0282117999999995,-0.0144029999999992,0.0045783999999999,0,sub_11
-0.0168526000000001,0.0018816000000012,0.0009476,-0.0259917999999995,-0.0095927999999992,-0.0037566,0,sub_11
-0.0165000000000001,0.0002978000000012,0.0039384,-0.0309507999999995,0.0054956000000006,-0.018778,0,sub_11
-0.0138010000000001,0.0009492000000012,0.0007624,-0.0440265999999995,0.0228664000000006,-0.0357696,0,sub_11
-0.0084630000000001,0.0023740000000012,-0.0026545999999999,-0.0602989999999995,0.0436470000000006,-0.050224,0,sub_11
-0.0060374000000001,0.0025920000000012,-0.0072523999999999,-0.0742281999999995,0.0663258000000006,-0.061887,0,sub_11
-0.0038752000000002,0.0038084000000012,-0.0093773999999999,-0.0845567999999995,0.0874826000000006,-0.0690366,0,sub_11
-0.0020758000000002,0.0054730000000012,-0.0106623999999999,-0.0906275999999995,0.1111626000000007,-0.0714596,0,sub_11
0.0005471999999997,0.0056496000000012,-0.0095605999999999,-0.0943503999999995,0.1356840000000007,-0.0732262,0,sub_11
-0.0002330000000002,0.0058150000000012,-0.0077877999999999,-0.0972521999999995,0.1531706000000006,-0.0747644,0,sub_11
-0.0044682000000002,0.0080214000000012,-0.0064323999999999,-0.0944179999999995,0.1684930000000007,-0.0728414,0,sub_11
-0.0115002000000002,0.0091752000000012,-0.0074557999999999,-0.0916557999999995,0.1710196000000007,-0.0676978,0,sub_11
-0.0196192000000002,0.0113234000000012,-0.0102795999999999,-0.0913009999999995,0.1607684000000007,-0.0619136,0,sub_11
-0.0230374000000002,0.0124376000000012,-0.0145657999999999,-0.0886325999999995,0.1430524000000007,-0.0561037999999999,0,sub_11
-0.0231880000000002,0.0131708000000012,-0.0182779999999999,-0.0844841999999995,0.1212874000000006,-0.0513467999999999,0,sub_11
-0.0237784000000002,0.0134312000000012,-0.0176027999999999,-0.0828921999999995,0.0950786000000006,-0.0519431999999999,0,sub_11
-0.0206128000000002,0.0136506000000012,-0.0209331999999999,-0.0754461999999995,0.0863326000000006,-0.0557255999999999,0,sub_11
-0.0161772000000001,0.0127444000000012,-0.0235139999999999,-0.0641449999999995,0.0814058000000006,-0.0588451999999999,0,sub_11
-0.0103350000000001,0.0123548000000012,-0.0226159999999999,-0.0509377999999994,0.0775202000000006,-0.0576798,0,sub_11
-0.0058070000000001,0.0125536000000012,-0.0227109999999999,-0.0407197999999994,0.0778876000000006,-0.0518404,0,sub_11
0.0025019999999998,0.0117732000000012,-0.0215427999999999,-0.0321935999999995,0.0854892000000006,-0.0421766,0,sub_11
0.0080307999999997,0.0121422000000012,-0.0160377999999999,-0.0326145999999995,0.0948326000000006,-0.034073,0,sub_11
0.0113693999999997,0.0106626000000012,-0.0127041999999999,-0.0368437999999995,0.1069770000000006,-0.030486,0,sub_11
0.0074985999999997,0.0104256000000012,-0.0122081999999999,-0.0429539999999995,0.1240438000000006,-0.0307641999999999,0,sub_11
0.0020557999999997,0.0129956000000012,-0.0116603999999999,-0.0516015999999995,0.1438984000000006,-0.0334137999999999,0,sub_11
-0.0035690000000002,0.0176446000000012,-0.0151557999999999,-0.0638793999999995,0.1633390000000007,-0.0358743999999999,0,sub_11
-0.0081052000000002,0.0200174000000012,-0.0196309999999999,-0.0710821999999995,0.1761426000000006,-0.0346591999999999,0,sub_11
-0.0123352000000002,0.0196612000000012,-0.0228801999999999,-0.0746921999999995,0.1865684000000007,-0.0280748,0,sub_11
-0.0161936000000002,0.0176042000000012,-0.0255365999999999,-0.0787615999999995,0.1903886000000007,-0.0208442,0,sub_11
-0.0199384000000002,0.0126260000000012,-0.0270169999999999,-0.0743305999999995,0.1841748000000007,-0.0158916,0,sub_11
-0.0255390000000002,0.0057562000000012,-0.0282441999999999,-0.0639413999999995,0.1709230000000006,-0.0143066,0,sub_11
-0.0289672000000001,0.0016746000000012,-0.0257717999999999,-0.0544105999999995,0.1517282000000007,-0.0176338,0,sub_11
-0.0286696000000001,0.0017166000000012,-0.0210657999999999,-0.0474027999999995,0.1353344000000007,-0.026537,0,sub_11
-0.0263356000000001,0.0031496000000012,-0.0145415999999999,-0.0418551999999995,0.1257660000000006,-0.0361,0,sub_11
-0.0221256000000001,0.0046344000000012,-0.0093187999999999,-0.0439581999999995,0.1245276000000006,-0.0442316,0,sub_11
-0.0154948000000001,0.0044792000000012,-0.0036159999999999,-0.0509515999999995,0.1275656000000007,-0.0519756,0,sub_11
-0.0123182000000001,0.0019030000000012,-0.0018163999999999,-0.0583869999999995,0.1282574000000007,-0.0586514,0,sub_11
-0.0112862000000002,-0.0005191999999987,9.240000000002787e-05,-0.0652169999999995,0.1246720000000007,-0.0618992,0,sub_11
-0.0141802000000002,-0.0019279999999987,-0.0001543999999999,-0.0718573999999995,0.1161840000000007,-0.0647119999999999,0,sub_11
-0.0156788000000002,-0.0003215999999987,-0.0009125999999999,-0.0765881999999995,0.1053458000000007,-0.0675084,0,sub_11
-0.0175330000000002,0.0024392000000012,-0.0024919999999999,-0.0802951999999995,0.0868262000000007,-0.068365,0,sub_11
-0.0157066000000002,0.0078632000000012,-0.0035505999999999,-0.0801853999999995,0.0669986000000007,-0.0651342,0,sub_11
-0.0139468000000001,0.0142034000000012,-0.0062469999999999,-0.0760463999999995,0.0439518000000007,-0.059521,0,sub_11
-0.0092554000000001,0.0198018000000012,-0.0092651999999999,-0.0678753999999995,0.0200224000000007,-0.0498192,0,sub_11
-0.0047342000000001,0.0216872000000012,-0.0131091999999999,-0.0539671999999995,-0.0054337999999992,-0.0362298,0,sub_11
9.179999999979463e-05,0.0213068000000012,-0.0168577999999999,-0.0357839999999995,-0.0264417999999992,-0.019839,0,sub_11
0.0023991999999997,0.0189544000000012,-0.0199125999999999,-0.0180169999999995,-0.0438315999999992,-0.0021738,0,sub_11
0.0051329999999997,0.0150998000000012,-0.0212357999999999,-0.0017117999999995,-0.0539731999999992,0.0156855999999999,0,sub_11
0.0076579999999997,0.0109232000000012,-0.0205257999999999,0.0118644000000004,-0.0560013999999992,0.0315925999999999,0,sub_11
0.0076301999999997,0.0068820000000012,-0.0174173999999999,0.0212154000000004,-0.0513989999999992,0.0446841999999999,0,sub_11
0.0063357999999997,0.0056266000000012,-0.0133671999999999,0.0259324000000004,-0.0411301999999992,0.0558017999999999,0,sub_11
0.0036857999999997,0.0056504000000012,-0.0099921999999999,0.0255686000000004,-0.0255027999999992,0.0632451999999999,0,sub_11
0.0004659999999997,0.0061586000000012,-0.0078747999999999,0.0183930000000004,-0.0104735999999992,0.0663687999999999,0,sub_11
-0.0028392000000002,0.0064024000000012,-0.0064215999999999,0.0076142000000004,0.0048018000000007,0.0643395999999999,0,sub_11
-0.0047434000000002,0.0063942000000012,-0.0058115999999999,-0.0054839999999995,0.0222320000000006,0.0582321999999999,0,sub_11
-0.0062810000000002,0.0053536000000012,-0.0067681999999999,-0.0179377999999995,0.0421308000000006,0.0478647999999999,0,sub_11
-0.0066164000000002,0.0046216000000012,-0.0085121999999999,-0.0280377999999995,0.0618152000000006,0.0358049999999999,0,sub_11
-0.0067770000000001,0.0051048000000012,-0.0113721999999999,-0.0338731999999995,0.0812700000000007,0.0242025999999999,0,sub_11
-0.0064730000000001,0.0046610000000012,-0.0154263999999999,-0.0363137999999995,0.0983614000000007,0.0145495999999999,0,sub_11
-0.0061876000000001,0.0060672000000012,-0.0203645999999999,-0.0349347999999995,0.1120256000000007,0.0062095999999999,0,sub_11
