userAcceleration.x,userAcceleration.y,userAcceleration.z,rotationRate.x,rotationRate.y,rotationRate.z,label,subject
-0.0031616000000001,0.0017342000000012,0.0087752,-0.0579321999999994,-0.0223073999999994,-0.100984,0,sub_14
0.0099593999999998,-0.0048843999999987,0.0145678,-0.0414429999999994,-0.0093677999999994,-0.101099,0,sub_14
0.0250307999999998,-0.0103797999999987,0.0201627999999999,-0.0405977999999994,-0.0060651999999994,-0.0859434,0,sub_14
0.0366411999999998,-0.0136635999999987,0.0190761999999999,-0.0550267999999994,-0.0197963999999994,-0.0601904,0,sub_14
0.0427333999999998,-0.0159583999999987,0.0160773999999999,-0.0808525999999994,-0.0496937999999994,-0.0310780000000001,0,sub_14
0.0442027999999998,-0.0150711999999987,0.0137771999999999,-0.1088283999999994,-0.0870251999999994,-0.0058166,0,sub_14
0.0437599999999998,-0.0139497999999987,0.0141481999999999,-0.1329041999999994,-0.1168899999999994,0.0136939999999999,0,sub_14
0.0412615999999998,-0.0134873999999987,0.0195851999999999,-0.1490193999999994,-0.1281803999999994,0.0272691999999999,0,sub_14
0.0398507999999997,-0.0150163999999987,0.0259695999999999,-0.1588345999999994,-0.1194459999999994,0.0359489999999999,0,sub_14
0.0385211999999997,-0.0151697999999987,0.0317839999999999,-0.1636539999999994,-0.0955839999999994,0.0401575999999998,0,sub_14
0.0352211999999997,-0.0135455999999987,0.0345563999999999,-0.1658651999999994,-0.0642733999999994,0.0402211999999998,0,sub_14
0.0309869999999997,-0.0107139999999987,0.0358505999999999,-0.1687163999999995,-0.0372047999999994,0.0360129999999999,0,sub_14
0.0289849999999997,-0.0094481999999987,0.032916,-0.1699037999999995,-0.0222757999999994,0.0292681999999998,0,sub_14
0.0273163999999998,-0.0084013999999987,0.0311927999999999,-0.1689851999999994,-0.0124717999999994,0.0236127999999998,0,sub_14
0.0258091999999998,-0.0074583999999987,0.0285493999999999,-0.1649053999999994,-0.0086553999999994,0.0207645999999998,0,sub_14
0.0259791999999998,-0.0073255999999987,0.0281897999999999,-0.1576621999999994,-0.0106007999999993,0.0214585999999998,0,sub_14
0.0258365999999998,-0.0076427999999987,0.0286711999999999,-0.1468119999999994,-0.0132131999999993,0.0260241999999998,0,sub_14
0.0252809999999998,-0.0079519999999987,0.0291477999999999,-0.1380981999999994,-0.0126377999999993,0.0344163999999998,0,sub_14
0.0240815999999997,-0.0069775999999987,0.0291031999999999,-0.1281443999999994,-0.0208027999999993,0.0430421999999998,0,sub_14
0.0213793999999997,-0.0058127999999987,0.0296663999999999,-0.1177629999999994,-0.0293929999999993,0.0510305999999998,0,sub_14
0.0182403999999997,-0.0043711999999987,0.0301289999999999,-0.1092645999999994,-0.0311527999999994,0.0575015999999998,0,sub_14
0.0151297999999997,-0.0026061999999987,0.0314031999999999,-0.1007459999999994,-0.0311971999999994,0.0611931999999998,0,sub_14
0.0139529999999997,-0.0028863999999987,0.0329857999999999,-0.0894409999999994,-0.0314523999999994,0.0619133999999998,0,sub_14
0.0139315999999998,-0.0047855999999987,0.0342009999999999,-0.0810859999999994,-0.0244491999999994,0.0615353999999998,0,sub_14
0.0158793999999998,-0.0066887999999987,0.0350545999999999,-0.0759399999999994,-0.0187155999999994,0.0617775999999998,0,sub_14
0.0173489999999998,-0.0074557999999987,0.0363249999999999,-0.0718829999999994,-0.0178783999999994,0.0620183999999999,0,sub_14
0.0184119999999998,-0.0082499999999987,0.0360708,-0.0686649999999994,-0.0140545999999994,0.0620357999999999,0,sub_14
0.0192357999999998,-0.0079041999999987,0.0353034,-0.0645755999999994,-0.0074589999999994,0.0607739999999999,0,sub_14
0.0199867999999998,-0.0079723999999987,0.0347655999999999,-0.0589789999999994,0.0019020000000005,0.0593055999999999,0,sub_14
0.0200289999999998,-0.0069389999999987,0.0364267999999999,-0.0514669999999994,0.0095544000000005,0.0572117999999999,0,sub_14
0.0199743999999998,-0.0062899999999987,0.0366967999999999,-0.0448073999999994,0.0174228000000005,0.0551117999999999,0,sub_14
0.0210195999999998,-0.0058515999999987,0.0370887999999999,-0.0392367999999994,0.0210312000000005,0.0536505999999999,0,sub_14
0.0216277999999998,-0.0057357999999987,0.0370082,-0.0368867999999994,0.0220866000000005,0.0540929999999999,0,sub_14
0.0213361999999998,-0.0052843999999987,0.0372678,-0.0354047999999994,0.0195248000000005,0.0541067999999999,0,sub_14
0.0194603999999998,-0.0048017999999987,0.0377033999999999,-0.0334651999999994,0.0216570000000005,0.0519811999999999,0,sub_14
0.0174047999999998,-0.0052799999999987,0.0369319999999999,-0.0312911999999994,0.0274146000000005,0.0487843999999999,0,sub_14
0.0171447999999998,-0.0059557999999987,0.0351625999999999,-0.0267911999999994,0.0282648000000005,0.0453963999999998,0,sub_14
0.0160561999999998,-0.0053149999999987,0.0367359999999999,-0.0222863999999994,0.0295436000000005,0.0413669999999998,0,sub_14
0.0142159999999998,-0.0029031999999987,0.0389605999999999,-0.0180053999999994,0.0291162000000005,0.0379789999999998,0,sub_14
0.0146723999999998,-0.0039073999999987,0.0358703999999999,-0.0165175999999994,0.0269840000000005,0.0371375999999998,0,sub_14
0.0166231999999998,-0.0047189999999987,0.0326305999999999,-0.0150699999999994,0.0184500000000004,0.0388677999999998,0,sub_14
0.0147843999999998,-0.0041161999999987,0.0334948,-0.0138319999999994,0.0114054000000005,0.0412355999999998,0,sub_14
0.0122987999999998,-0.0022651999999987,0.0319715999999999,-0.0147083999999994,0.0082050000000005,0.0431563999999998,0,sub_14
0.0108777999999998,-0.0021335999999987,0.0299565999999999,-0.0123805999999994,0.0045724000000005,0.0438181999999999,0,sub_14
0.0101967999999998,-0.0012291999999987,0.0319631999999999,-0.0096171999999994,0.0011580000000005,0.0427735999999998,0,sub_14
0.0099213999999998,-0.0007545999999987,0.0367127999999999,-0.0085349999999994,0.0015922000000005,0.0397895999999998,0,sub_14
0.0110385999999998,-0.0011799999999987,0.0356865999999999,-0.0114837999999994,0.0071540000000005,0.0367709999999998,0,sub_14
0.0133197999999998,-0.0027747999999987,0.0345679999999999,-0.0110561999999994,0.0052436000000005,0.0346399999999998,0,sub_14
0.0148129999999998,-0.0036997999999987,0.0348101999999999,-0.0123239999999994,0.0069566000000005,0.0335607999999998,0,sub_14
0.0146803999999998,-0.0033859999999987,0.0361296,-0.0161609999999994,0.0073980000000005,0.0331061999999998,0,sub_14
0.0136599999999998,-0.0026881999999987,0.0364699999999999,-0.0200083999999994,0.0052834000000005,0.0324409999999998,0,sub_14
0.0124031999999998,-0.0029587999999987,0.0356265999999999,-0.0234271999999994,0.0029568000000005,0.0311381999999998,0,sub_14
0.0116579999999998,-0.0009055999999987,0.0376826,-0.0264287999999994,-0.0023505999999994,0.0289875999999998,0,sub_14
0.0111711999999998,0.0011790000000012,0.0369323999999999,-0.0298387999999994,-0.0050937999999993,0.0253353999999998,0,sub_14
0.0108443999999998,0.0028588000000012,0.0332272,-0.0300367999999994,-0.0063527999999993,0.0206353999999998,0,sub_14
0.0131651999999998,0.0021450000000012,0.0308141999999999,-0.0255655999999994,-0.0127429999999994,0.0164019999999998,0,sub_14
0.0154191999999998,0.0021438000000012,0.0322113999999999,-0.0221629999999994,-0.0180701999999994,0.0136551999999999,0,sub_14
0.0166355999999998,-0.0001707999999987,0.0270021999999999,-0.0204491999999994,-0.0184945999999994,0.0117447999999998,0,sub_14
0.0188837999999998,-0.0042709999999987,0.0259381999999999,-0.0183643999999994,-0.0283067999999994,0.0128401999999998,0,sub_14
0.0204023999999998,-0.0078055999999987,0.0260711999999999,-0.0169273999999994,-0.0372745999999994,0.0164937999999998,0,sub_14
0.0184649999999998,-0.0071757999999987,0.0249351999999999,-0.0148161999999994,-0.0406735999999994,0.0197181999999998,0,sub_14
0.0174241999999998,-0.0065433999999987,0.0259313999999999,-0.0101417999999994,-0.0453519999999994,0.0210391999999998,0,sub_14
0.0171363999999998,-0.0055409999999987,0.0290955999999999,-0.0048147999999994,-0.0478997999999994,0.0217211999999998,0,sub_14
0.0160889999999998,-0.0030671999999987,0.0285113999999999,0.0016146000000005,-0.0455389999999994,0.0194133999999999,0,sub_14
0.0162835999999998,-0.0022569999999987,0.0265209999999999,0.0073886000000005,-0.0472215999999994,0.0164653999999998,0,sub_14
0.0182713999999998,-0.0040303999999987,0.0267451999999999,0.0099566000000005,-0.0487089999999994,0.0132803999999998,0,sub_14
0.0204857999999998,-0.0052231999999987,0.0275941999999999,0.0106026000000005,-0.0489183999999993,0.0117895999999998,0,sub_14
0.0228243999999998,-0.0065357999999987,0.0271309999999999,0.0093262000000005,-0.0493347999999993,0.0104993999999998,0,sub_14
0.0250859999999998,-0.0083573999999987,0.0270147999999999,0.0057036000000005,-0.0482569999999993,0.0104727999999998,0,sub_14
0.0264787999999998,-0.0090703999999987,0.0276513999999999,0.0016640000000005,-0.0456835999999993,0.0098001999999999,0,sub_14
0.0272259999999998,-0.0073259999999987,0.0285121999999999,-0.0034433999999994,-0.0424707999999994,0.0099741999999999,0,sub_14
0.0273191999999998,-0.0064341999999987,0.0264935999999999,-0.0049159999999994,-0.0396881999999994,0.0080375999999999,0,sub_14
0.0274025999999998,-0.0079475999999987,0.0265675999999999,-0.0044603999999994,-0.0362689999999994,0.0050453999999999,0,sub_14
0.0290403999999998,-0.0086415999999987,0.0292257999999999,-0.0044467999999994,-0.0356203999999994,0.0026945999999999,0,sub_14
0.0294903999999998,-0.0086187999999987,0.0312547999999999,-0.0029387999999994,-0.0339151999999994,0.0012073999999998,0,sub_14
0.0291207999999998,-0.0101275999999987,0.0282393999999999,-0.0009983999999994,-0.0302965999999994,0.0003615999999998,0,sub_14
0.0292467999999998,-0.0108701999999987,0.0276487999999999,-0.0003669999999994,-0.0307309999999994,0.0018621999999998,0,sub_14
0.0284619999999998,-0.0093855999999987,0.0302501999999999,-0.0010225999999994,-0.0305301999999994,0.0054891999999998,0,sub_14
0.0269043999999998,-0.0087565999999987,0.0292059999999999,-0.0016503999999994,-0.0249995999999994,0.0082549999999998,0,sub_14
0.0281403999999998,-0.0078903999999987,0.0287389999999999,-0.0001405999999994,-0.0196853999999994,0.0099679999999998,0,sub_14
0.0296371999999998,-0.0070185999999987,0.0311021999999999,0.0015740000000005,-0.0171381999999994,0.0108313999999998,0,sub_14
0.0290923999999998,-0.0062665999999987,0.0306233999999999,0.0026544000000005,-0.0139469999999994,0.0110483999999999,0,sub_14
0.0284541999999998,-0.0062837999999987,0.0284197999999999,0.0056532000000005,-0.0128861999999994,0.0095725999999999,0,sub_14
0.0280919999999998,-0.0059151999999987,0.0278961999999999,0.0084166000000004,-0.0158761999999994,0.0089547999999998,0,sub_14
0.0261485999999998,-0.0061513999999987,0.0271503999999999,0.0075450000000004,-0.0199211999999994,0.0089537999999999,0,sub_14
0.0234079999999998,-0.0056393999999987,0.0262327999999999,0.0058382000000004,-0.0201273999999994,0.0087283999999999,0,sub_14
0.0228157999999998,-0.0056847999999987,0.0263497999999999,0.0056228000000004,-0.0207647999999994,0.0085139999999999,0,sub_14
0.0230831999999998,-0.0059055999999987,0.0279033999999999,0.0045444000000004,-0.0228933999999994,0.0089363999999999,0,sub_14
0.0218341999999998,-0.0054181999999987,0.0278593999999999,0.0026260000000004,-0.0222483999999994,0.0091357999999998,0,sub_14
0.0200523999999998,-0.0041933999999987,0.0270415999999999,0.0026318000000005,-0.0220309999999994,0.0080673999999999,0,sub_14
0.0205341999999998,-0.0052353999999987,0.0272739999999999,0.0034718000000005,-0.0250167999999994,0.0080771999999999,0,sub_14
0.0209975999999998,-0.0051817999999987,0.0283207999999999,0.0013400000000005,-0.0243711999999994,0.0082751999999999,0,sub_14
0.0206399999999998,-0.0045033999999987,0.0281705999999999,0.0002828000000005,-0.0216001999999994,0.0089051999999999,0,sub_14
0.0204795999999998,-0.0044881999999987,0.0284299999999999,0.0002876000000005,-0.0205347999999994,0.0089039999999999,0,sub_14
0.0210999999999998,-0.0049071999999987,0.0294147999999999,-0.0005621999999994,-0.0190429999999994,0.0095371999999999,0,sub_14
0.0206627999999998,-0.0038811999999987,0.0295643999999999,-0.0020443999999994,-0.0164809999999994,0.0095235999999999,0,sub_14
0.0197539999999998,-0.0045749999999987,0.0293081999999999,-0.0022509999999994,-0.0156253999999994,0.0088801999999999,0,sub_14
0.0191459999999998,-0.0051153999999987,0.0294669999999999,-0.0060887999999994,-0.0156093999999994,0.0082123999999999,0,sub_14
0.0193517999999998,-0.0048939999999987,0.0304371999999999,-0.0103563999999994,-0.0155945999999994,0.0081825999999999,0,sub_14
0.0187881999999998,-0.0043105999999987,0.0310148,-0.0146179999999994,-0.0147257999999994,0.0077243999999999,0,sub_14
0.0184311999999998,-0.0042281999999987,0.0309991999999999,-0.0188825999999994,-0.0149205999999994,0.0068401999999999,0,sub_14
0.0179313999999998,-0.0029719999999987,0.0317825999999999,-0.0218697999999994,-0.0157589999999994,0.0059657999999999,0,sub_14
0.0179709999999998,-0.0023717999999987,0.0301165999999999,-0.0218669999999994,-0.0166053999999994,0.0044713999999999,0,sub_14
0.0170629999999998,-0.0023867999999987,0.0303085999999999,-0.0220801999999994,-0.0185143999999994,0.0025493999999999,0,sub_14
0.0166523999999997,-0.0029537999999987,0.0327195999999999,-0.0227107999999994,-0.0178669999999994,0.0010485999999999,0,sub_14
0.0159091999999997,-0.0032453999999987,0.0322963999999999,-0.0231211999999994,-0.0157289999999994,-0.0004526,0,sub_14
0.0159949999999998,-0.0044015999999987,0.0305063999999999,-0.0246205999999994,-0.0176385999999994,-0.0011016,0,sub_14
0.0148069999999998,-0.0039775999999987,0.0333433999999999,-0.0267533999999994,-0.0167813999999994,-0.0004766000000001,0,sub_14
0.0138553999999998,-0.0032883999999987,0.0329482,-0.0271657999999994,-0.0129475999999994,0.0001565999999998,0,sub_14
0.0135445999999998,-0.0029169999999987,0.0303687999999999,-0.0269551999999994,-0.0131631999999993,0.0005855999999998,0,sub_14
0.0133015999999998,-0.0030095999999987,0.0312045999999999,-0.0263331999999994,-0.0163645999999994,0.0014487999999998,0,sub_14
0.0124377999999998,-0.0019805999999987,0.0332875999999999,-0.0254593999999994,-0.0139931999999994,0.0008115999999998,0,sub_14
0.0132631999999997,-0.0025371999999987,0.0308974,-0.0241597999999994,-0.0133215999999993,-0.0013160000000001,0,sub_14
0.0146893999999997,-0.0032851999999987,0.0305915999999999,-0.0224651999999994,-0.0188333999999993,-0.0025782000000001,0,sub_14
0.0157043999999997,-0.0043423999999987,0.0313402,-0.0224687999999994,-0.0211485999999994,-0.0025746000000001,0,sub_14
0.0161977999999997,-0.0043725999999987,0.0320481999999999,-0.0235315999999994,-0.0215435999999994,-0.0023672000000001,0,sub_14
0.0163765999999997,-0.0044715999999987,0.0320381999999999,-0.0241811999999994,-0.0219741999999994,-0.0006620000000001,0,sub_14
0.0162257999999998,-0.0047007999999987,0.0335521999999999,-0.0250345999999994,-0.0200613999999994,0.0012523999999998,0,sub_14
0.0162503999999998,-0.0059573999999987,0.033552,-0.0264955999999994,-0.0119635999999994,0.0020863999999999,0,sub_14
0.0157171999999998,-0.0054925999999987,0.0336173999999999,-0.0271041999999994,-0.0049305999999994,0.0020731999999998,0,sub_14
0.0145955999999998,-0.0048541999999987,0.0342159999999999,-0.0260181999999994,-0.0017341999999994,0.0010083999999998,0,sub_14
0.0131211999999998,-0.0047957999999987,0.0350485999999999,-0.0279049999999994,0.0031828000000005,-0.0015748,0,sub_14
0.0119753999999998,-0.0041171999999987,0.0352855999999999,-0.0298109999999994,0.0042632000000005,-0.003726,0,sub_14
0.0107143999999998,-0.0033175999999987,0.0361077999999999,-0.0325895999999994,0.0025710000000005,-0.0043842,0,sub_14
0.0089309999999998,-0.0022353999999987,0.0372651999999999,-0.0356007999999994,-0.0029571999999994,-0.0046118,0,sub_14
0.0079785999999998,-0.0015959999999987,0.0387615999999999,-0.0388215999999994,-0.0067835999999994,-0.0039884,0,sub_14
0.0091065999999998,-0.0020537999999987,0.0359641999999999,-0.0420557999999994,-0.0123193999999994,-0.0020812,0,sub_14
0.0095205999999998,-0.0010107999999987,0.0356509999999999,-0.0395327999999994,-0.0206373999999993,-0.0020528000000001,0,sub_14
0.0094863999999998,0.0001158000000012,0.0370539999999999,-0.0346481999999994,-0.0268287999999993,-0.0030790000000001,0,sub_14
0.0114175999999998,-0.0011303999999987,0.0351503999999999,-0.0280403999999994,-0.0294041999999993,-0.0040978,0,sub_14
0.0139065999999998,-0.0028927999999987,0.0319169999999999,-0.0214353999999994,-0.0317699999999993,-0.0042624,0,sub_14
0.0155869999999998,-0.0028499999999987,0.0336655999999999,-0.0107819999999994,-0.0352161999999993,-0.0041834,0,sub_14
0.0167665999999998,-0.0041185999999987,0.0326721999999999,-0.0048093999999994,-0.0337533999999993,-0.0022208000000001,0,sub_14
0.0177777999999998,-0.0055789999999987,0.0302299999999999,-0.0007629999999994,-0.0333499999999993,-5.660000000011984e-05,0,sub_14
0.0179847999999998,-0.0058785999999987,0.0316593999999999,0.0030750000000005,-0.0318805999999993,0.0021047999999998,0,sub_14
0.0178667999999998,-0.0055061999999987,0.0338305999999999,0.0073664000000005,-0.0255081999999993,0.0031949999999998,0,sub_14
0.0176981999999998,-0.0057983999999987,0.0338619999999999,0.0091030000000005,-0.0182727999999993,0.0038387999999998,0,sub_14
0.0177017999999998,-0.0063769999999987,0.0349714,0.0093318000000005,-0.0138035999999993,0.0049029999999999,0,sub_14
0.0172097999999998,-0.0050241999999987,0.0369394,0.0104236000000005,-0.0069947999999994,0.0061837999999999,0,sub_14
0.0166703999999998,-0.0045125999999987,0.0362089999999999,0.0115134000000005,-0.0012485999999994,0.0068249999999999,0,sub_14
0.0168535999999998,-0.0040399999999987,0.0347497999999999,0.0119220000000005,-0.0036003999999994,0.0085399999999999,0,sub_14
0.0161479999999998,-0.0022727999999987,0.0348767999999999,0.0144690000000005,-0.0053189999999994,0.0098417999999999,0,sub_14
0.0155781999999997,-0.0009139999999987,0.0342299999999999,0.0200118000000005,-0.0055549999999994,0.0107351999999999,0,sub_14
0.0160323999999998,-0.0011069999999987,0.0320255999999999,0.0259776000000005,-0.0074931999999994,0.0107793999999999,0,sub_14
0.0171887999999998,-0.0013295999999987,0.0311043999999999,0.0315090000000005,-0.0102857999999994,0.0116761999999999,0,sub_14
0.0177809999999998,-0.0019699999999987,0.0325448,0.0364496000000005,-0.0074973999999994,0.0119147999999999,0,sub_14
0.0182509999999998,-0.0038533999999987,0.0328907999999999,0.0409674000000005,-0.0040673999999994,0.0119361999999998,0,sub_14
0.0189501999999998,-0.0052869999999987,0.0310598,0.0412332000000005,0.0025742000000005,0.0117101999999998,0,sub_14
0.0200499999999998,-0.0069215999999987,0.0298815999999999,0.0389270000000005,0.0068800000000005,0.0116825999999998,0,sub_14
0.0195029999999998,-0.0076521999999987,0.0304563999999999,0.0368552000000005,0.0148114000000005,0.0105837999999998,0,sub_14
0.0191597999999998,-0.0085577999999987,0.0287629999999999,0.0341294000000005,0.0233516000000005,0.0084173999999998,0,sub_14
0.0188521999999998,-0.0088457999999987,0.0274663999999999,0.0299014000000005,0.0301918000000005,0.0064561999999999,0,sub_14
0.0185365999999998,-0.0085717999999987,0.0293225999999999,0.0267266000000005,0.0344700000000005,0.0049329999999999,0,sub_14
0.0171697999999998,-0.0074863999999987,0.0304665999999999,0.0239910000000005,0.0421532000000005,0.0040495999999999,0,sub_14
0.0180053999999998,-0.0054437999999987,0.0309143999999999,0.0213734000000005,0.0439902000000005,0.0039873999999999,0,sub_14
0.0181079999999998,-0.0031367999999987,0.0314839999999999,0.0193844000000005,0.0445414000000005,0.0052129999999999,0,sub_14
0.0172465999999998,-0.0011937999999987,0.031324,0.0201740000000005,0.0459360000000005,0.0062431999999999,0,sub_14
0.0179399999999998,-0.0019563999999987,0.0305817999999999,0.0226764000000005,0.0481784000000005,0.0068569999999999,0,sub_14
0.0189433999999998,-0.0022885999999987,0.0306295999999999,0.0234698000000005,0.0495762000000005,0.0070325999999999,0,sub_14
0.0180661999999998,-0.0041763999999987,0.0307981999999999,0.0243482000000005,0.0540516000000005,0.0059647999999999,0,sub_14
0.0160205999999998,-0.0054133999999987,0.0322361999999999,0.0252304000000005,0.0576816000000005,0.0031889999999999,0,sub_14
0.0152117999999998,-0.0070337999999987,0.0334407999999999,0.0224584000000005,0.0650728000000005,-0.0002814,0,sub_14
0.0138705999999998,-0.0068163999999987,0.0330303999999999,0.0173316000000005,0.0703434000000005,-0.0041928,0,sub_14
0.0135537999999998,-0.0069215999999987,0.0322509999999999,0.0126240000000005,0.0745448000000005,-0.007459,0,sub_14
0.0141027999999998,-0.0070047999999987,0.0327171999999999,0.0070292000000005,0.0734140000000005,-0.0085882,0,sub_14
0.0150227999999998,-0.0070473999999987,0.0332368,0.0031626000000005,0.0782378000000005,-0.0084312,0,sub_14
0.0154441999999998,-0.0059687999999987,0.0307049999999999,-0.0008991999999994,0.0771842000000005,-0.0078174,0,sub_14
0.0152407999999998,-0.0053591999999987,0.0305623999999999,-0.0043525999999994,0.0707952000000005,-0.0054834,0,sub_14
0.0142143999999998,-0.0047091999999987,0.0344759999999999,-0.0067323999999994,0.0654694000000005,-0.0035704,0,sub_14
0.0129189999999998,-0.0036725999999987,0.0351951999999999,-0.0074709999999994,0.0677324000000005,-0.0033862,0,sub_14
0.0136025999999998,-0.0038539999999987,0.0336523999999999,-0.0082383999999994,0.0633916000000005,-0.0034072,0,sub_14
0.0153289999999998,-0.0049451999999987,0.0368859999999999,-0.0086125999999994,0.0532898000000005,-0.001709,0,sub_14
0.0158077999999998,-0.0052213999999987,0.0413215999999999,-0.0100257999999994,0.0493704000000005,-2.600000000009921e-05,0,sub_14
0.0143335999999998,-0.0053713999999987,0.0413225999999999,-0.0103519999999994,0.0494970000000005,0.0012319999999999,0,sub_14
0.0139515999999998,-0.0065899999999987,0.0422741999999999,-0.0114275999999994,0.0486442000000005,0.0022937999999999,0,sub_14
0.0122157999999998,-0.0076931999999987,0.0447587999999999,-0.0139977999999994,0.0482202000000005,0.0039855999999999,0,sub_14
0.0088099999999998,-0.0087919999999987,0.0461533999999999,-0.0148119999999994,0.0586560000000005,0.0056757999999999,0,sub_14
0.0034527999999998,-0.0089585999999987,0.0453097999999999,-0.0151917999999994,0.0707946000000005,0.0073667999999998,0,sub_14
-0.0005814000000001,-0.0076977999999987,0.0428073999999999,-0.0200807999999994,0.0760048000000005,0.0115629999999998,0,sub_14
-0.0040106000000001,-0.0044407999999987,0.0397687999999999,-0.0275627999999994,0.0756778000000005,0.0174571999999998,0,sub_14
-0.0043394000000001,-0.0013057999999987,0.0350123999999999,-0.0318471999999994,0.0747004000000005,0.0233745999999998,0,sub_14
-0.0016216000000001,-0.0002781999999987,0.0292311999999999,-0.0323177999999994,0.0683808000000005,0.0299663999999998,0,sub_14
0.0045229999999998,-0.0040539999999987,0.0244295999999999,-0.0305131999999994,0.0513790000000005,0.0419289999999998,0,sub_14
0.0101289999999997,-0.0044465999999987,0.0267131999999999,-0.0212361999999994,0.0351200000000005,0.0505603999999998,0,sub_14
0.0138521999999997,-0.0038573999999987,0.0298025999999999,-0.0097573999999994,0.0310096000000005,0.0562005999999998,0,sub_14
0.0160007999999997,-0.0029205999999987,0.0345911999999999,0.0012576000000005,0.0294732000000005,0.0594433999999999,0,sub_14
0.0152391999999997,-0.0006845999999987,0.0387649999999999,0.0075814000000005,0.0256216000000005,0.0596653999999999,0,sub_14
0.0122905999999997,0.0067062000000012,0.0429633999999999,0.0088188000000005,0.0230918000000005,0.0534407999999999,0,sub_14
0.0095499999999998,0.0109298000000012,0.0434115999999999,0.0055446000000005,0.0139722000000005,0.0474067999999999,0,sub_14
0.0074059999999998,0.0101968000000012,0.0439713999999999,0.0039190000000005,-0.0056033999999993,0.0439615999999999,0,sub_14
0.0074865999999998,0.0063526000000012,0.0437037999999999,0.0038174000000005,-0.0277625999999993,0.0444165999999998,0,sub_14
0.0080749999999998,0.0039052000000012,0.0467149999999999,0.0096882000000005,-0.0480345999999993,0.0472609999999998,0,sub_14
0.0098981999999998,0.0015452000000012,0.0503437999999999,0.0245762000000005,-0.0566173999999993,0.0495125999999998,0,sub_14
0.0139057999999997,-0.0002769999999987,0.053075,0.0481936000000005,-0.0521345999999994,0.0496401999999998,0,sub_14
0.0164663999999997,0.0004574000000012,0.0549235999999999,0.0771864000000005,-0.0425407999999994,0.0457395999999998,0,sub_14
0.0144041999999997,0.0036558000000012,0.0563728,0.1006574000000005,-0.0305705999999994,0.0383789999999998,0,sub_14
0.0072957999999998,0.0031764000000012,0.0492774,0.1132272000000004,-0.0223989999999994,0.0313743999999998,0,sub_14
0.0003219999999998,0.0012482000000012,0.0414101999999999,0.1078038000000004,-0.0263223999999993,0.0276777999999998,0,sub_14
-0.0116404000000001,-0.0014599999999987,0.0366953999999999,0.0797848000000005,-0.0400773999999993,0.0285679999999998,0,sub_14
-0.0216702000000001,0.0007852000000012,0.0394134,0.0340234000000005,-0.0582557999999993,0.0321171999999998,0,sub_14
