userAcceleration.x,userAcceleration.y,userAcceleration.z,rotationRate.x,rotationRate.y,rotationRate.z,label,subject
0.0175721999999996,0.0061678000000012,0.0371593999999999,-0.0126169999999994,0.0325928000000007,0.0025437999999999,0,sub_5
0.0206237999999996,0.0062262000000012,0.0361247999999999,-0.0155983999999994,0.0413872000000007,0.0035617999999999,0,sub_5
0.0206849999999996,0.0061144000000012,0.0385943999999998,-0.0179253999999994,0.0527386000000007,0.0039401999999999,0,sub_5
0.0174747999999996,0.0054288000000012,0.0401473999999998,-0.0196129999999994,0.0634502000000007,0.0038965999999999,0,sub_5
0.0113219999999996,0.0033802000000012,0.0428677999999998,-0.0168295999999994,0.0676930000000007,0.0060469999999999,0,sub_5
0.0029539999999996,0.0018404000000012,0.0470993999999999,-0.0098083999999994,0.0659530000000007,0.0088755999999999,0,sub_5
-0.0039548000000003,0.0017552000000012,0.0510133999999999,-0.0021661999999994,0.0593130000000007,0.0110739999999999,0,sub_5
-0.0089180000000003,0.0003012000000012,0.0512331999999999,0.0028476000000005,0.0434124000000007,0.0124035999999999,0,sub_5
-0.0119818000000003,-0.0003227999999987,0.0514891999999999,0.0061418000000005,0.0219896000000007,0.0109509999999999,0,sub_5
-0.0108994000000003,0.0016480000000012,0.0526985999999998,0.0058270000000005,0.0016566000000007,0.0064805999999999,0,sub_5
-0.0095480000000003,0.0025654000000012,0.0525823999999998,0.0023344000000005,-0.0137641999999992,0.0017681999999999,0,sub_5
-0.0087684000000003,0.0008158000000012,0.0517727999999998,-0.0017769999999994,-0.0232223999999992,-0.0016744,0,sub_5
-0.0088414000000003,0.0006172000000012,0.0524397999999998,-0.0015579999999994,-0.0253399999999992,-0.0050884,0,sub_5
-0.0094996000000003,0.0017904000000012,0.0518031999999998,-4.919999999944274e-05,-0.0244827999999992,-0.0076428,0,sub_5
-0.0119664000000003,0.0022278000000012,0.0495719999999998,0.0031330000000005,-0.0291785999999992,-0.0082554,0,sub_5
-0.0129078000000003,0.0030628000000012,0.0480191999999999,0.0073450000000005,-0.0402773999999992,-0.00693,0,sub_5
-0.0098560000000003,0.0038990000000012,0.0467651999999999,0.0113142000000005,-0.0536443999999992,-0.005391,0,sub_5
-0.0045204000000003,0.0044314000000012,0.0435985999999999,0.0129394000000005,-0.0648785999999992,-0.0023756,0,sub_5
-0.0001842000000003,0.0037516000000012,0.0413647999999999,0.0156526000000005,-0.0705805999999992,0.0014949999999999,0,sub_5
0.0030571999999996,0.0035980000000012,0.0409689999999999,0.0167268000000005,-0.0636961999999991,0.0027741999999999,0,sub_5
0.0070495999999996,0.0040940000000012,0.0383295999999999,0.0140166000000005,-0.0471989999999991,0.0010235999999999,0,sub_5
0.0088539999999996,0.0059012000000012,0.0365157999999999,0.0119662000000005,-0.0299291999999991,-0.0002946,0,sub_5
0.0072103999999996,0.0066488000000012,0.0374955999999999,0.0126964000000005,-0.0116021999999991,-0.0020222,0,sub_5
0.0065783999999996,0.0059550000000012,0.0387251999999999,0.0099980000000005,0.0047868000000007,-0.0033526,0,sub_5
0.0060147999999996,0.0048558000000012,0.0379239999999999,0.0070374000000005,0.0141304000000007,-0.0008302,0,sub_5
0.0043883999999996,0.0041618000000012,0.0402215999999999,0.0093720000000005,0.0168422000000007,0.0038741999999999,0,sub_5
0.0031367999999996,0.0036900000000012,0.0418477999999999,0.0123658000000005,0.0214786000000007,0.0062303999999999,0,sub_5
0.0043373999999996,0.0042902000000012,0.0418819999999999,0.0110882000000005,0.0240046000000007,0.0072777999999999,0,sub_5
0.0045733999999996,0.0050492000000012,0.0423517999999999,0.0091718000000005,0.0250758000000007,0.0074765999999999,0,sub_5
0.0055081999999996,0.0054386000000012,0.0439189999999999,0.0076850000000005,0.0259358000000007,0.0068241999999999,0,sub_5
0.0046773999999996,0.0061352000000012,0.0440125999999999,0.0051360000000005,0.0268038000000007,0.0050959999999999,0,sub_5
0.0006879999999997,0.0068188000000012,0.0426953999999999,0.0027828000000005,0.0216102000000007,0.0046463999999999,0,sub_5
-0.0026046000000002,0.0053690000000012,0.0432691999999999,0.0023354000000005,0.0134262000000007,0.0044273999999999,0,sub_5
-0.0048988000000002,0.0036022000000012,0.0437293999999999,0.0042188000000005,0.0024610000000007,0.0050827999999999,0,sub_5
-0.0045012000000002,0.0032918000000012,0.0407991999999999,0.0061032000000005,-0.0074423999999992,0.0065913999999999,0,sub_5
-0.0010016000000003,0.0026230000000012,0.0395239999999999,0.0082096000000005,-0.0145801999999992,0.0089527999999999,0,sub_5
0.0080109999999996,0.0029220000000012,0.0384819999999999,0.0084410000000005,-0.0105327999999992,0.0089491999999999,0,sub_5
0.0160879999999996,0.0061344000000012,0.0333725999999999,0.0027386000000005,0.0009982000000007,0.0073989999999999,0,sub_5
0.0203143999999996,0.0093324000000012,0.0288471999999999,-0.0048487999999994,0.0204188000000007,0.0058255999999999,0,sub_5
0.0195011999999996,0.0078420000000012,0.0296529999999998,-0.0100757999999994,0.0440872000000007,0.0055451999999999,0,sub_5
0.0127505999999996,0.0079180000000012,0.0311193999999998,-0.0133709999999994,0.0669444000000007,0.0078193999999999,0,sub_5
0.0011947999999996,0.0073592000000012,0.0316007999999998,-0.0145687999999994,0.0846690000000007,0.0131057999999999,0,sub_5
-0.0106178000000003,0.0049616000000012,0.0336895999999999,-0.0087733999999994,0.0929896000000007,0.0197351999999999,0,sub_5
-0.0147296000000003,0.0007440000000012,0.0361111999999999,-3.879999999946288e-05,0.0891616000000007,0.0249049999999999,0,sub_5
-0.0138124000000003,-3.999999987343988e-07,0.0371843999999999,0.0076252000000005,0.0821510000000007,0.0277211999999999,0,sub_5
-0.0074634000000003,-0.0003777999999987,0.0387901999999999,0.0127404000000005,0.0808548000000007,0.0277585999999999,0,sub_5
0.0036435999999996,0.0010226000000012,0.0408597999999999,0.0130094000000005,0.0906648000000007,0.0251841999999999,0,sub_5
0.0168323999999996,0.0039694000000012,0.0415023999999999,0.0092608000000005,0.1113436000000007,0.0253449999999999,0,sub_5
0.0251711999999996,0.0081346000000012,0.0411641999999999,0.0043254000000005,0.1522230000000007,0.0265285999999999,0,sub_5
0.0324033999999996,0.0108796000000012,0.0380271999999999,-0.0045959999999994,0.2050602000000007,0.0244643999999999,0,sub_5
0.0359857999999996,0.0095972000000012,0.0357083999999999,-0.0143709999999994,0.2570516000000007,0.0215405999999999,0,sub_5
0.0319053999999996,0.0071700000000012,0.0372183999999998,-0.0192815999999994,0.3021970000000008,0.0214369999999999,0,sub_5
0.0247775999999996,0.0064148000000012,0.0409541999999999,-0.0259211999999994,0.3407506000000008,0.0196207999999999,0,sub_5
0.0171911999999996,0.0052932000000012,0.0425497999999998,-0.0330905999999994,0.3593132000000008,0.0191197999999999,0,sub_5
0.0084851999999996,0.0046790000000012,0.0446193999999998,-0.0349965999999994,0.3629400000000007,0.0195291999999999,0,sub_5
0.0007487999999996,0.0048310000000012,0.0452633999999999,-0.0363155999999994,0.3576496000000008,0.0180247999999999,0,sub_5
-0.0029542000000003,0.0055086000000012,0.0434603999999999,-0.0385265999999994,0.3410814000000007,0.0137511999999999,0,sub_5
-0.0066490000000003,0.0032692000000012,0.0419703999999999,-0.0371677999999994,0.3119296000000007,0.0097321999999999,0,sub_5
-0.0095762000000002,0.0030524000000012,0.0424747999999999,-0.0362365999999994,0.2806564000000007,0.0037901999999999,0,sub_5
-0.0132964000000002,0.0020178000000012,0.0412625999999999,-0.0379109999999994,0.2419252000000007,0.0004033999999999,0,sub_5
-0.0171188000000002,0.0015908000000012,0.0392755999999999,-0.0375009999999994,0.1920636000000007,0.0017519999999999,0,sub_5
-0.0189938000000002,0.0004084000000012,0.0405319999999999,-0.0345083999999994,0.1466688000000007,0.0026857999999999,0,sub_5
-0.0186304000000002,-0.0006341999999987,0.0413601999999999,-0.0295369999999994,0.1119292000000007,0.0012695999999999,0,sub_5
-0.0182600000000002,-0.0019157999999987,0.0405235999999999,-0.0219811999999994,0.0839926000000007,0.0013581999999999,0,sub_5
-0.0177088000000002,-0.0010979999999987,0.0431573999999999,-0.0114571999999994,0.0598576000000007,0.0027289999999999,0,sub_5
-0.0144446000000003,0.0010496000000012,0.0457939999999998,-0.0028047999999994,0.0457462000000007,0.0032193999999999,0,sub_5
-0.0125972000000003,0.0026516000000012,0.0455135999999998,0.0019936000000005,0.0309998000000007,0.0060335999999999,0,sub_5
-0.0135880000000003,0.0029396000000012,0.0470381999999999,0.0042296000000005,0.0145630000000007,0.0075503999999999,0,sub_5
-0.0146992000000002,0.0046796000000012,0.0497335999999999,0.0030632000000005,-0.0027005999999992,0.0056259999999999,0,sub_5
-0.0154864000000002,0.0054898000000012,0.0510025999999999,-0.0012607999999994,-0.0190753999999992,0.0017711999999999,0,sub_5
-0.0176502000000002,0.0042954000000012,0.0506619999999999,-0.0047379999999994,-0.0373689999999992,-0.0025026,0,sub_5
-0.0185520000000002,0.0030672000000012,0.0510601999999999,-0.0039419999999994,-0.0546113999999992,-0.0069614,0,sub_5
-0.0171574000000002,0.0020686000000012,0.0503135999999999,-0.0008037999999994,-0.0691075999999992,-0.007562,0,sub_5
-0.0153848000000002,0.0013546000000012,0.0480569999999999,0.0042538000000005,-0.0806405999999992,-0.004948,0,sub_5
-0.0119126000000002,0.0018780000000012,0.0480397999999999,0.0097622000000005,-0.0872731999999992,-0.0027646,0,sub_5
-0.0078986000000002,0.0027830000000012,0.0479057999999999,0.0125388000000005,-0.0870681999999992,-0.0031726,0,sub_5
-0.0047348000000003,0.0042146000000012,0.0445127999999999,0.0089402000000005,-0.0836347999999992,-0.0061932,0,sub_5
-0.0037670000000003,0.0067098000000012,0.0404629999999999,0.0036194000000005,-0.0838163999999992,-0.0094348,0,sub_5
-0.0003998000000003,0.0068472000000012,0.0395953999999999,-0.0029825999999994,-0.0844187999999992,-0.0128986,0,sub_5
0.0029705999999996,0.0056498000000012,0.0370291999999999,-0.0091607999999994,-0.0850251999999992,-0.0157184,0,sub_5
0.0041713999999996,0.0051960000000012,0.0360595999999999,-0.0099931999999994,-0.0820325999999992,-0.0174372,0,sub_5
0.0061967999999996,0.0043814000000012,0.0369801999999999,-0.0063437999999994,-0.0767205999999992,-0.0169912,0,sub_5
0.0086245999999996,0.0029302000000012,0.0372317999999999,-0.0035593999999994,-0.0720525999999992,-0.0146276,0,sub_5
0.0081113999999996,0.0023752000000012,0.0371585999999999,-0.0007845999999994,-0.0690905999999992,-0.0118346,0,sub_5
0.0063897999999996,0.0032976000000012,0.0384525999999999,0.0015816000000005,-0.0650499999999992,-0.0120368,0,sub_5
0.0065345999999996,0.0028340000000012,0.0392753999999999,-0.0020427999999994,-0.0652469999999992,-0.0129166,0,sub_5
0.0038347999999996,0.0028570000000012,0.0409021999999999,-0.0057113999999994,-0.0724857999999992,-0.0110102,0,sub_5
0.0008633999999996,0.0038966000000012,0.0429567999999999,-0.0048559999999994,-0.0729113999999992,-0.0118582,0,sub_5
-0.0023018000000002,0.0037080000000012,0.0442243999999999,-0.0042091999999994,-0.0737563999999992,-0.0142026,0,sub_5
-0.0057184000000002,0.0020724000000012,0.0448603999999999,-0.0048731999999994,-0.0784437999999992,-0.0135604,0,sub_5
-0.0084718000000002,0.0016132000000012,0.0450817999999999,-0.0010765999999994,-0.0850745999999992,-0.0103206,0,sub_5
-0.0112950000000002,0.0014516000000012,0.0457085999999999,0.0052900000000004,-0.0902205999999992,-0.0077058,0,sub_5
-0.0121318000000002,0.0016392000000012,0.0461239999999999,0.0067366000000005,-0.0981189999999992,-0.0051218,0,sub_5
-0.0119032000000002,0.0024754000000012,0.0457175999999999,0.0090510000000004,-0.1021879999999992,-0.0018958,0,sub_5
-0.0118720000000002,0.0037740000000012,0.0454269999999999,0.0130916000000004,-0.1026385999999992,0.0006967999999999,0,sub_5
-0.0127128000000002,0.0044934000000012,0.0455281999999999,0.0137518000000004,-0.0977423999999992,0.0011223999999999,0,sub_5
-0.0114786000000003,0.0048734000000012,0.0437603999999999,0.0092940000000005,-0.0940987999999992,-0.0004088,0,sub_5
-0.0132168000000003,0.0049170000000012,0.0430343999999999,0.0065712000000005,-0.0904651999999992,-0.0017126,0,sub_5
-0.0143516000000003,0.0044808000000012,0.0430463999999999,0.0036294000000005,-0.0885335999999992,-0.003443,0,sub_5
-0.0147134000000003,0.0040258000000012,0.0427795999999999,-0.0004051999999994,-0.0915017999999992,-0.0043202,0,sub_5
-0.0116576000000003,0.0035894000000012,0.0404133999999999,-0.0023251999999994,-0.0978897999999992,-0.0043236,0,sub_5
-0.0085712000000003,0.0027382000000012,0.0406011999999999,-0.0023103999999994,-0.1006643999999992,-0.003891,0,sub_5
-0.0033730000000003,0.0020702000000012,0.0392123999999999,-0.0008071999999994,-0.0983269999999992,-0.0036698,0,sub_5
0.0019053999999996,0.0032756000000012,0.0362885999999999,0.0003038000000005,-0.0889547999999992,-0.0041014,0,sub_5
0.0061117999999996,0.0038274000000012,0.0336877999999999,0.0012330000000005,-0.0727631999999992,-0.0047566,0,sub_5
0.0077249999999996,0.0049558000000012,0.0329267999999999,0.0015422000000005,-0.0514585999999992,-0.0047818,0,sub_5
0.0097537999999996,0.0059686000000012,0.0313595999999999,0.0014208000000005,-0.0307923999999992,-0.0045954,0,sub_5
0.0110631999999996,0.0063022000000012,0.0314559999999999,-0.0012781999999994,-0.0120425999999992,-0.0025018,0,sub_5
0.0087003999999997,0.0045418000000012,0.0327383999999999,-0.0020943999999994,-0.0001231999999992,0.0011091999999999,0,sub_5
0.0040087999999997,0.0030554000000012,0.0342601999999999,-0.0005749999999994,0.0085948000000007,0.0040995999999999,0,sub_5
-0.0005350000000002,0.0024214000000012,0.0377389999999999,0.0009216000000005,0.0100774000000007,0.0049627999999999,0,sub_5
-0.0045062000000002,0.0017234000000012,0.0397961999999999,0.0009044000000005,0.0064546000000007,0.0051809999999999,0,sub_5
-0.0064316000000002,0.0011500000000012,0.0393885999999999,0.0036334000000005,-0.0080665999999992,0.0047919999999999,0,sub_5
-0.0055700000000003,0.0024800000000012,0.0414757999999999,0.0052774000000005,-0.0270563999999992,0.0039739999999999,0,sub_5
-0.0020430000000003,0.0043646000000012,0.0430817999999999,0.0035246000000005,-0.0426237999999992,0.0027005999999999,0,sub_5
0.0038231999999996,0.0042682000000012,0.0410551999999999,0.0007250000000005,-0.0526521999999992,0.0024807999999999,0,sub_5
0.0082865999999996,0.0044808000000012,0.0405005999999999,0.0019996000000005,-0.0567353999999992,0.0037773999999999,0,sub_5
0.0110937999999996,0.0046326000000012,0.0426339999999999,0.0033220000000005,-0.0475775999999992,0.0035611999999999,0,sub_5
0.0134579999999996,0.0039722000000012,0.0419071999999999,0.0012630000000005,-0.0315885999999992,0.0028853999999999,0,sub_5
0.0152511999999996,0.0028886000000012,0.0401983999999999,0.0023788000000005,-0.0186045999999992,0.0050129999999999,0,sub_5
0.0139741999999996,0.0030976000000012,0.0408997999999999,0.0063116000000005,-0.0046301999999992,0.0073879999999999,0,sub_5
0.0117651999999996,0.0038504000000012,0.0432403999999998,0.0055646000000005,0.0095856000000007,0.0067387999999999,0,sub_5
0.0085403999999996,0.0034950000000012,0.0441479999999998,0.0007396000000005,0.0178526000000007,0.0054277999999999,0,sub_5
0.0050567999999997,0.0028098000000012,0.0448813999999998,-0.0006895999999994,0.0226964000000007,0.0047857999999999,0,sub_5
0.0003403999999997,0.0035676000000012,0.0477813999999999,-0.0012825999999994,0.0230656000000007,0.0035145999999999,0,sub_5
-0.0022800000000002,0.0034942000000012,0.0477799999999999,-0.0042841999999994,0.0179704000000007,0.0015773999999999,0,sub_5
-0.0035300000000002,0.0024004000000012,0.0468237999999999,-0.0051893999999994,0.0058318000000007,0.0009457999999999,0,sub_5
-0.0026026000000002,0.0031526000000012,0.0451273999999999,-0.0026633999999994,-0.0046725999999992,0.0007829999999999,0,sub_5
-0.0016488000000003,0.0042644000000012,0.0438417999999999,8.080000000055516e-05,-0.0143247999999992,0.0004069999999999,0,sub_5
0.0014389999999996,0.0030012000000012,0.0410313999999999,0.0002790000000005,-0.0209843999999991,-0.0002044,0,sub_5
0.0027287999999996,0.0024188000000012,0.0400363999999998,0.0013288000000005,-0.0261631999999991,0.0011109999999999,0,sub_5
0.0033921999999996,0.0033936000000012,0.0392661999999999,0.0036990000000005,-0.0223981999999991,0.0024241999999999,0,sub_5
0.0031551999999996,0.0028086000000012,0.0398627999999998,0.0050168000000005,-0.0147301999999991,0.0017825999999999,0,sub_5
0.0035263999999996,0.0021560000000012,0.0403999999999998,0.0054780000000005,-0.0076983999999992,0.0011357999999999,0,sub_5
0.0035999999999996,0.0041398000000012,0.0409355999999998,0.0065660000000005,-0.0030149999999992,0.0011373999999999,0,sub_5
0.0029991999999996,0.0059038000000012,0.0413637999999999,0.0070100000000005,-3.039999999920641e-05,0.0002821999999999,0,sub_5
0.0048351999999996,0.0050728000000012,0.0396519999999999,0.0036256000000005,0.0030492000000007,-0.0020736,0,sub_5
0.0058367999999996,0.0049674000000012,0.0387485999999999,0.0004304000000005,0.0018626000000007,-0.0033544,0,sub_5
0.0055131999999996,0.0046266000000012,0.0387637999999999,-0.0021273999999994,0.0002470000000007,-0.0044166,0,sub_5
0.0044799999999996,0.0036742000000012,0.0403719999999999,-0.0025295999999994,0.0020388000000007,-0.0069636,0,sub_5
0.0039881999999996,0.0023168000000012,0.0413839999999999,-0.0033555999999994,0.0038346000000007,-0.0101546,0,sub_5
0.0018015999999996,0.0019654000000012,0.0418427999999999,-0.0031623999999994,-0.0010645999999992,-0.0105742,0,sub_5
0.0007219999999996,0.0025974000000012,0.0422647999999998,-0.0010593999999994,-0.0061921999999992,-0.0088438,0,sub_5
0.0018401999999996,0.0038348000000012,0.0419339999999998,0.0023398000000004,-0.0078985999999992,-0.0070978,0,sub_5
0.0028369999999996,0.0041302000000012,0.0405209999999998,0.0018992000000005,-0.0095905999999992,-0.0055924,0,sub_5
0.0033625999999996,0.0044292000000012,0.0403381999999999,0.0008406000000005,-0.0074411999999992,-0.0051644,0,sub_5
0.0036199999999996,0.0055060000000012,0.0415217999999999,0.0002326000000005,-0.0020889999999992,-0.0068738,0,sub_5
0.0034765999999996,0.0056388000000012,0.0412177999999999,-0.0025137999999994,0.0022056000000007,-0.0085968,0,sub_5
0.0021987999999996,0.0048214000000012,0.0420233999999999,-0.0076213999999994,0.0037210000000007,-0.01013,0,sub_5
0.0008631999999996,0.0033508000000012,0.0406525999999999,-0.0099683999999994,0.0037292000000007,-0.0101464,0,sub_5
0.0004717999999996,0.0033670000000012,0.0397035999999999,-0.0095521999999994,0.0022330000000007,-0.009287,0,sub_5
0.0004821999999996,0.0029658000000012,0.0387893999999999,-0.0087167999999994,-0.0005447999999992,-0.0079958,0,sub_5
1.0599999999702903e-05,0.0027392000000012,0.0395319999999999,-0.0066097999999994,-0.0035433999999992,-0.0064844,0,sub_5
0.0001107999999997,0.0032336000000012,0.0383031999999999,-0.0038511999999994,-0.0041997999999992,-0.005185,0,sub_5
0.0008393999999996,0.0039484000000012,0.0374553999999999,-0.0025841999999994,-0.0048493999999992,-0.0043234,0,sub_5
0.0012155999999996,0.0035980000000012,0.0374613999999999,-0.0017419999999994,-0.0059201999999992,-0.0043188,0,sub_5
0.0015235999999996,0.0035708000000012,0.0373749999999999,-0.0013151999999994,-0.0046449999999992,-0.0045338,0,sub_5
0.0022851999999996,0.0043064000000012,0.0365197999999999,-0.0034277999999994,-0.0010113999999992,-0.0056214,0,sub_5
0.0018809999999996,0.0028572000000012,0.0363213999999999,-0.0049289999999994,-0.0018617999999992,-0.0047762,0,sub_5
0.0011557999999996,0.0021562000000012,0.0375889999999999,-0.0030181999999994,-0.0033623999999992,-0.00412,0,sub_5
0.0002723999999996,0.0018614000000012,0.0374901999999999,-0.0023869999999994,-0.0040903999999992,-0.003481,0,sub_5
-0.0001168000000003,0.0012802000000012,0.0373991999999999,-0.0006945999999994,-0.0058881999999992,-0.0026196,0,sub_5
-0.0008620000000003,0.0004126000000012,0.0389501999999999,0.0018456000000005,-0.0085429999999992,-0.001324,0,sub_5
-3.8800000000317056e-05,0.0027252000000012,0.0389539999999999,0.0043926000000005,-0.0103429999999992,-0.0006704,0,sub_5
0.0005353999999996,0.0043878000000012,0.0380399999999999,0.0035370000000005,-0.0099987999999992,-0.0004706,0,sub_5
0.0011297999999996,0.0048786000000012,0.0382631999999999,0.0031190000000005,-0.0082919999999992,-0.0006894,0,sub_5
0.0016119999999997,0.0048658000000012,0.0395669999999999,0.0007920000000005,-0.0040217999999992,-0.0009248,0,sub_5
0.0020819999999996,0.0045814000000012,0.0370335999999999,-0.0017551999999994,-0.0008177999999992,-0.000733,0,sub_5
0.0002581999999996,0.0036170000000012,0.0369237999999999,-0.0021791999999994,0.0018396000000007,-0.000745,0,sub_5
-0.0002098000000003,0.0032104000000012,0.0386737999999999,-0.0008933999999994,0.0040692000000007,-0.0018126,0,sub_5
-0.0001492000000003,0.0038104000000012,0.0386333999999999,-0.0019641999999994,0.0046010000000007,-0.0024674,0,sub_5
-0.0002286000000003,0.0048652000000012,0.0377967999999999,-0.0034769999999994,0.0023620000000007,-0.0024806,0,sub_5
0.0002551999999996,0.0047362000000012,0.0386959999999999,-0.0041305999999994,0.0011860000000007,-0.0027028,0,sub_5
0.0012621999999996,0.0037066000000012,0.0397895999999999,-0.0056203999999994,0.0011946000000007,-0.0035678,0,sub_5
0.0013453999999997,0.0034796000000012,0.0394767999999998,-0.0075407999999994,0.0005648000000007,-0.0042214,0,sub_5
0.0017929999999997,0.0033286000000012,0.0395273999999998,-0.0064845999999994,-0.0010751999999992,-0.0046276,0,sub_5
0.0014957999999997,0.0027590000000012,0.0401815999999998,-0.0035041999999994,-0.0016575999999992,-0.0048082,0,sub_5
0.0014075999999997,0.0030768000000012,0.0415289999999998,-0.0013685999999994,-0.0007437999999992,-0.0054238,0,sub_5
0.0002191999999997,0.0036964000000012,0.0420779999999998,-0.0007333999999994,-0.0004673999999992,-0.0051944,0,sub_5
-0.0012572000000003,0.0032358000000012,0.0435015999999999,0.0001134000000005,-0.0004055999999992,-0.0047496,0,sub_5
-0.0024058000000003,0.0025768000000012,0.0450631999999999,-9.039999999946506e-05,0.0017256000000007,-0.0047538,0,sub_5
-0.0024958000000003,0.0024096000000012,0.0442891999999999,-0.0009667999999994,-0.0023237999999992,-0.0036866,0,sub_5
-0.0036678000000003,0.0030306000000012,0.0435531999999999,0.0002770000000005,-0.0093631999999992,-0.0026008,0,sub_5
-0.0029340000000003,0.0033704000000012,0.0435487999999999,0.0017648000000005,-0.0119199999999992,-0.003869,0,sub_5
-0.0005732000000003,0.0029282000000012,0.0419167999999999,0.0009158000000005,-0.0131507999999992,-0.004276,0,sub_5
0.0001291999999996,0.0037718000000012,0.0399043999999999,0.0011068000000005,-0.0178041999999992,-0.0021076,0,sub_5
0.0010703999999996,0.0045944000000012,0.0399195999999999,0.0032632000000005,-0.0149971999999992,-0.0024986,0,sub_5
0.0024369999999996,0.0038048000000012,0.0407681999999999,0.0028668000000005,-0.0106891999999992,-0.0031232,0,sub_5
0.0037405999999996,0.0031530000000012,0.0389755999999999,0.0013768000000005,-0.0104329999999992,-0.0018274,0,sub_5
0.0035559999999996,0.0047182000000012,0.0384451999999999,0.0030838000000005,-0.0085289999999992,0.0001047999999999,0,sub_5
0.0062977999999996,0.0042482000000012,0.0391759999999999,0.0046168000000005,0.0004132000000007,0.0003177999999999,0,sub_5
0.0070529999999996,0.0039220000000012,0.0394187999999999,0.0038128000000005,0.0104588000000007,0.0018209999999999,0,sub_5
0.0073889999999996,0.0054072000000012,0.0383097999999999,0.0038672000000005,0.0226276000000007,0.0043957999999999,0,sub_5
0.0075393999999996,0.0071990000000012,0.0377099999999999,0.0043684000000005,0.0392692000000007,0.0069679999999999,0,sub_5
0.0057039999999996,0.0051014000000012,0.0388789999999999,0.0029378000000005,0.0533606000000007,0.0095299999999999,0,sub_5
0.0017179999999996,0.0038236000000012,0.0392467999999999,0.0025424000000005,0.0612664000000007,0.0129615999999999,0,sub_5
-0.0069912000000003,0.0018030000000012,0.0431171999999999,0.0044848000000005,0.0680698000000007,0.0148891999999999,0,sub_5
-0.0162310000000003,-0.0002667999999987,0.0455169999999999,0.0055516000000005,0.0667930000000007,0.0136163999999999,0,sub_5
-0.0251210000000003,-0.0023999999999987,0.0489013999999999,0.0071934000000005,0.0469944000000007,0.0083119999999999,0,sub_5
-0.0292594000000003,-0.0017831999999987,0.0477013999999999,0.0075172000000005,0.0125506000000008,-0.0018764,0,sub_5
