userAcceleration.x,userAcceleration.y,userAcceleration.z,rotationRate.x,rotationRate.y,rotationRate.z,label,subject
-0.0001652000000004,0.0035344000000012,0.0057459999999999,0.0111830000000004,0.0045870000000006,0.0051935999999999,0,sub_9
0.0015945999999995,0.0038592000000012,0.0052729999999999,0.0121048000000005,0.0082330000000006,0.0045819999999999,0,sub_9
0.0050485999999995,0.0037160000000012,0.0040665999999999,0.0119598000000005,0.0118826000000006,0.0039629999999999,0,sub_9
0.0080591999999995,0.0047078000000012,0.0021879999999999,0.0111554000000005,0.0114856000000006,0.0035583999999999,0,sub_9
0.0101541999999995,0.0047602000000012,0.0007409999999999,0.0103396000000005,0.0078954000000006,0.0025167999999999,0,sub_9
0.0110271999999995,0.0059072000000012,-0.0009062,0.0092952000000004,0.0011092000000006,0.0016913999999999,0,sub_9
0.0093511999999995,0.0071620000000012,-0.0030618,0.0090492000000004,-0.0067703999999993,0.0010589999999999,0,sub_9
0.0044911999999995,0.0066756000000012,-0.0032566,0.0115838000000004,-0.0125315999999993,0.0010841999999999,0,sub_9
-0.0012194000000004,0.0061472000000012,-0.0034936,0.0163252000000004,-0.0117039999999993,0.0017799999999999,0,sub_9
-0.0059124000000004,0.0064010000000012,-0.0047614,0.0232194000000004,-0.0070471999999993,0.0020585999999999,0,sub_9
-0.0079116000000004,0.0048046000000012,-0.0039244,0.0320484000000004,-0.0006865999999993,0.0008531999999999,0,sub_9
-0.0071782000000004,0.0025380000000013,0.0010337999999999,0.0404516000000004,0.0067372000000006,0.0004979999999999,0,sub_9
-0.0046620000000004,0.0014736000000013,0.0047617999999999,0.0430726000000004,0.0105550000000006,0.0011751999999999,0,sub_9
-0.0031548000000004,-0.0003999999999986,0.0086091999999999,0.0411358000000004,0.0071520000000006,0.0013797999999999,0,sub_9
-0.0008018000000004,-0.0018073999999986,0.0136121999999999,0.0355536000000004,-0.0004983999999993,0.0013505999999999,0,sub_9
-5.480000000041884e-05,-0.0024237999999986,0.0164437999999999,0.0263440000000005,-0.0066507999999993,0.0027895999999999,0,sub_9
-0.0030788000000004,-0.0017701999999986,0.0130943999999999,0.0161004000000005,-0.0117331999999993,0.0042349999999999,0,sub_9
-0.0055154000000004,0.0003684000000012,0.0082381999999999,0.0092966000000005,-0.0127725999999993,0.0039901999999999,0,sub_9
-0.0056900000000004,0.0029586000000012,0.0034933999999999,0.0061556000000004,-0.0059417999999993,0.0037607999999999,0,sub_9
-0.0042066000000004,0.0049554000000012,-0.0010056,0.0058058000000004,0.0064118000000006,0.0052531999999999,0,sub_9
-0.0029296000000004,0.0069190000000012,-0.0053418,0.0075944000000004,0.0200354000000006,0.0069723999999999,0,sub_9
0.0012307999999995,0.0088606000000012,-0.006462,0.0108526000000004,0.0340806000000006,0.0082589999999999,0,sub_9
0.0060981999999995,0.0080736000000012,-0.0064634,0.0136714000000004,0.0455698000000005,0.0097593999999999,0,sub_9
0.0099351999999995,0.0073914000000012,-0.0064304,0.0143232000000005,0.0498218000000006,0.0114675999999999,0,sub_9
0.0103253999999995,0.0066546000000012,-0.0064016,0.0130324000000005,0.0481194000000006,0.0121015999999999,0,sub_9
0.0109539999999995,0.0056228000000012,-0.0056715999999999,0.0106836000000005,0.0445106000000006,0.0120925999999999,0,sub_9
0.0111475999999995,0.0048488000000012,-0.0063577999999999,0.0072660000000005,0.0404796000000006,0.0120767999999999,0,sub_9
0.0097043999999995,0.0055642000000012,-0.0066828,0.0049134000000005,0.0353820000000006,0.0114287999999999,0,sub_9
0.0089679999999995,0.0060752000000012,-0.0071182,0.0053356000000005,0.0294268000000006,0.0097331999999999,0,sub_9
0.0092349999999995,0.0060478000000012,-0.0052222,0.0072580000000004,0.0251698000000006,0.0082593999999999,0,sub_9
0.0085387999999995,0.0059672000000012,-0.0041454,0.0085240000000004,0.0215452000000006,0.0078455999999999,0,sub_9
0.0073287999999995,0.0054158000000012,-0.0024972,0.0095698000000004,0.0162176000000006,0.0072187999999999,0,sub_9
0.0073293999999995,0.0047360000000012,-0.0007054,0.0101804000000004,0.0108926000000006,0.0061521999999999,0,sub_9
0.0066447999999995,0.0040506000000012,0.0021281999999999,0.0088790000000004,0.0079164000000006,0.0054963999999999,0,sub_9
0.0049279999999995,0.0035118000000012,0.0028177999999999,0.0067282000000004,0.0064320000000006,0.0054737999999999,0,sub_9
0.0035557999999995,0.0036344000000012,0.0037705999999999,0.0065100000000004,0.0066494000000006,0.0043943999999999,0,sub_9
0.0036945999999995,0.0040742000000012,0.0044497999999999,0.0067282000000004,0.0081472000000006,0.0024617999999999,0,sub_9
0.0033509999999995,0.0047624000000012,0.0040835999999999,0.0065244000000004,0.0098542000000006,0.0020309999999999,0,sub_9
0.0032357999999995,0.0047798000000012,0.0035175999999999,0.0082410000000004,0.0124032000000006,0.0024669999999999,0,sub_9
0.0039203999999995,0.0051990000000012,0.0038393999999999,0.0112406000000004,0.0149502000000005,0.0022709999999999,0,sub_9
0.0071343999999995,0.0054504000000012,0.0035351999999999,0.0131146000000004,0.0143054000000005,0.0022739999999999,0,sub_9
0.0105845999999995,0.0043262000000012,0.0047531999999999,0.0153932000000004,0.0096076000000006,0.0031393999999999,0,sub_9
0.0125087999999995,0.0032824000000012,0.0076557999999999,0.0193808000000005,0.0055420000000006,0.0042297999999999,0,sub_9
0.0130009999999995,0.0029192000000012,0.0084623999999999,0.0205734000000005,-0.0034131999999993,0.0050931999999999,0,sub_9
0.0125419999999995,0.0022502000000012,0.0069295999999999,0.0211202000000005,-0.0147053999999993,0.0048869999999999,0,sub_9
0.0093503999999995,0.0014758000000012,0.0068539999999999,0.0219392000000005,-0.0234393999999993,0.0038355999999999,0,sub_9
0.0048031999999995,0.0008774000000012,0.0074073999999999,0.0217154000000005,-0.0272677999999993,0.0023435999999999,0,sub_9
0.0025035999999995,0.0011034000000012,0.0054165999999999,0.0178602000000005,-0.0325721999999993,0.0001869999999999,0,sub_9
0.0009461999999996,0.0019462000000012,0.0044669999999999,0.0150902000000005,-0.0340445999999993,-0.0021804,0,sub_9
5.619999999960075e-05,0.0027836000000012,0.0037007999999999,0.0128844000000004,-0.0321119999999993,-0.0034928,0,sub_9
0.0003117999999995,0.0036498000000012,0.0017167999999999,0.0119636000000004,-0.0284817999999993,-0.0041574,0,sub_9
0.0013743999999995,0.0051432000000012,-0.0018676,0.0127478000000004,-0.0250715999999993,-0.0045964,0,sub_9
0.0027177999999995,0.0057938000000012,-0.0029584,0.0146010000000004,-0.0208145999999993,-0.0046016,0,sub_9
0.0051647999999995,0.0059526000000012,-0.0033668,0.0156036000000004,-0.0154909999999993,-0.0041868,0,sub_9
0.0080997999999995,0.0060000000000012,-0.0032638,0.0160418000000004,-0.0116625999999993,-0.0029068,0,sub_9
0.0091623999999995,0.0059032000000012,-0.0035694,0.0160400000000004,-0.0103911999999993,-0.0011994,0,sub_9
0.0088313999999995,0.0056248000000012,-0.003752,0.0155222000000004,-0.0115261999999993,5.219999999993069e-05,0,sub_9
0.0075583999999995,0.0058534000000012,-0.0038376,0.0165008000000005,-0.0126639999999993,0.0006731999999999,0,sub_9
0.0061007999999995,0.0057342000000012,-0.0028234,0.0179138000000005,-0.0129475999999993,0.0004413999999999,0,sub_9
0.0043281999999995,0.0050518000000012,-0.0019702,0.0178390000000005,-0.0127963999999993,-0.0006558,0,sub_9
0.0027093999999995,0.0042754000000012,-0.0013534,0.0154332000000005,-0.0096517999999993,-0.002414,0,sub_9
0.0016409999999996,0.0036858000000012,-0.000696,0.0122672000000005,-0.0032439999999993,-0.0037262,0,sub_9
0.0029995999999996,0.0024416000000012,-0.0005316,0.0078286000000005,0.0044484000000006,-0.0054762,0,sub_9
0.0054049999999995,0.0014184000000012,-0.0020146,0.0016686000000005,0.0093754000000006,-0.0068074,0,sub_9
0.0073559999999995,0.0022222000000012,-0.0032704,-0.0037167999999994,0.0127162000000005,-0.0079534,0,sub_9
0.0097803999999995,0.0036824000000012,-0.0043168,-0.0076267999999994,0.0124282000000005,-0.008657,0,sub_9
0.0129833999999995,0.0051082000000012,-0.005796,-0.0111225999999994,0.0100056000000005,-0.0087142,0,sub_9
0.0129753999999995,0.0071422000000012,-0.0081758,-0.0131411999999994,0.0050170000000005,-0.0076896,0,sub_9
0.0123385999999995,0.0078412000000012,-0.0098714,-0.0119561999999994,-0.0004047999999993,-0.0077102,0,sub_9
0.0117789999999995,0.0074948000000012,-0.0105459999999999,-0.0096167999999994,-0.0021173999999993,-0.0076916,0,sub_9
0.0110507999999995,0.0068394000000012,-0.0096708,-0.0076991999999994,-0.0021265999999993,-0.0070374,0,sub_9
0.0104681999999995,0.0064496000000012,-0.007914,-0.0066419999999994,-0.0044729999999993,-0.0072406,0,sub_9
0.0102637999999995,0.0057578000000012,-0.005093,-0.0068629999999994,-0.0066009999999993,-0.0076668,0,sub_9
0.0092673999999995,0.0058296000000012,-0.0010592,-0.0080213999999994,-0.0100919999999993,-0.0064196,0,sub_9
0.0068957999999995,0.0055416000000012,0.0014769999999999,-0.0100457999999994,-0.0165619999999993,-0.0053882,0,sub_9
0.0051563999999995,0.0052532000000012,0.0027979999999999,-0.0114271999999994,-0.0228193999999993,-0.0047798,0,sub_9
0.0023999999999995,0.0048928000000012,0.0049891999999999,-0.0110823999999994,-0.0243973999999993,-0.0037382,0,sub_9
-0.0003810000000004,0.0038656000000012,0.0064589999999999,-0.0100859999999994,-0.0236331999999993,-0.0029086,0,sub_9
-0.0030874000000004,0.0032142000000012,0.0055409999999999,-0.0100707999999994,-0.0208609999999993,-0.003553,0,sub_9
-0.0030970000000004,0.0024984000000012,0.0058219999999999,-0.0094017999999994,-0.0159569999999993,-0.0050502,0,sub_9
-0.0026556000000004,0.0018198000000012,0.0076539999999999,-0.0092447999999994,-0.0112727999999993,-0.0065726,0,sub_9
-0.0016390000000004,0.0013174000000012,0.0078717999999999,-0.0114443999999994,-0.0084985999999993,-0.0078954,0,sub_9
0.0001277999999995,0.0018892000000012,0.0067601999999999,-0.0151519999999994,-0.0084907999999993,-0.0087978,0,sub_9
0.0022233999999995,0.0029254000000012,0.0054859999999999,-0.0173687999999994,-0.0078539999999993,-0.0084086,0,sub_9
0.0023925999999995,0.0042640000000012,0.0037235999999999,-0.0185285999999994,-0.0080783999999993,-0.0067292,0,sub_9
0.0014101999999995,0.0055672000000012,0.0005253999999999,-0.0178951999999994,-0.0080865999999993,-0.0052292,0,sub_9
0.0004401999999995,0.0060130000000012,-0.0008146,-0.0146965999999994,-0.0076751999999993,-0.0043528,0,sub_9
-0.0007130000000004,0.0058044000000012,-0.0006642,-0.0099917999999994,-0.0047113999999993,-0.0036828,0,sub_9
-0.0013784000000004,0.0048738000000012,0.0011877999999999,-0.0055929999999994,-0.0025673999999993,-0.0030228,0,sub_9
-0.0007482000000004,0.0037662000000012,0.0028825999999999,-0.0026837999999994,0.0002220000000006,-0.0025876,0,sub_9
0.0008617999999995,0.0028964000000012,0.0052693999999999,-0.0017037999999994,0.0015250000000006,-0.0017368,0,sub_9
0.0021059999999995,0.0022424000000012,0.0058885999999999,-0.0030755999999994,0.0015588000000006,-0.0011144,0,sub_9
0.0034719999999995,0.0020040000000012,0.0065329999999999,-0.0048799999999994,-0.0005329999999993,-0.001347,0,sub_9
0.0039333999999995,0.0024292000000012,0.0059919999999999,-0.0072337999999994,-0.0026525999999993,-0.0020018,0,sub_9
0.0040403999999995,0.0032952000000012,0.0051239999999998,-0.0093819999999994,-0.0066897999999993,-0.0028662,0,sub_9
0.0028811999999995,0.0044604000000012,0.0037153999999998,-0.0100317999999994,-0.0098791999999993,-0.003935,0,sub_9
0.0030991999999995,0.0058150000000012,0.0022493999999999,-0.0089745999999994,-0.0122255999999993,-0.0041382,0,sub_9
0.0029445999999995,0.0064182000000012,0.0014115999999999,-0.0064869999999994,-0.0124303999999993,-0.0032604,0,sub_9
0.0025413999999995,0.0056458000000012,0.0010905999999999,-0.0027115999999994,-0.0107231999999993,-0.0021624,0,sub_9
0.0017839999999995,0.0051142000000012,0.0012733999999999,0.0002086000000005,-0.0090145999999993,-0.0006432,0,sub_9
0.0017769999999995,0.0038584000000012,0.0023507999999999,0.0022754000000005,-0.0077273999999993,0.0004433999999999,0,sub_9
0.0002447999999995,0.0032304000000012,0.0034035999999999,0.0032724000000005,-0.0074999999999993,0.0010963999999999,0,sub_9
-0.0008932000000004,0.0028680000000012,0.0031087999999999,0.0032704000000005,-0.0083505999999993,0.0006701999999999,0,sub_9
0.0001451999999995,0.0029054000000012,0.0030583999999999,0.0024112000000005,-0.0108989999999993,-0.0006144,0,sub_9
0.0007229999999995,0.0031868000000012,0.0047443999999999,0.0021742000000005,-0.0119343999999993,-0.001877,0,sub_9
-0.0007190000000004,0.0034696000000012,0.0041579999999999,0.0010760000000005,-0.0138223999999993,-0.0022898,0,sub_9
-0.0010044000000004,0.0033454000000012,0.0017953999999999,0.0006236000000005,-0.0148587999999993,-0.0031264,0,sub_9
-0.0010940000000004,0.0038022000000012,0.0008035999999999,0.0010296000000005,-0.0141961999999993,-0.0033184,0,sub_9
-0.0023670000000004,0.0044216000000012,0.0009623999999999,0.0008042000000005,-0.0109773999999993,-0.0028772,0,sub_9
-0.0031108000000004,0.0043048000000012,-0.000795,-0.0002511999999994,-0.0079925999999993,-0.002461,0,sub_9
-0.0005248000000004,0.0047720000000012,-0.0026974,-0.0008807999999994,-0.0054345999999993,-0.002255,0,sub_9
0.0016473999999995,0.0053574000000012,-0.0027048,-0.0013017999999994,-0.0035181999999993,-0.0016196,0,sub_9
0.0026301999999995,0.0053940000000012,-0.0032546,-0.0025837999999994,-0.0022421999999993,7.899999999995081e-05,0,sub_9
0.0015801999999995,0.0060912000000012,-0.0060776,-0.0032231999999994,-0.0017729999999993,0.0024493999999999,0,sub_9
0.0011133999999995,0.0071872000000012,-0.0086968,-0.0021507999999994,-0.0008809999999993,0.0041901999999999,0,sub_9
0.0005387999999995,0.0077672000000012,-0.0092352,0.0002164000000005,0.0023534000000006,0.0050823999999999,0,sub_9
0.0003657999999995,0.0068048000000012,-0.0087384,0.0019482000000005,0.0062308000000006,0.0055423999999999,0,sub_9
-0.0001108000000004,0.0057648000000012,-0.0085862,0.0024064000000005,0.0105430000000006,0.0049245999999999,0,sub_9
0.0002909999999995,0.0049598000000012,-0.0074512,0.0017856000000005,0.0139574000000005,0.0040613999999999,0,sub_9
0.0014953999999995,0.0040338000000012,-0.0031116,0.0005352000000005,0.0197176000000005,0.0031907999999999,0,sub_9
0.0023721999999995,0.0032564000000012,-0.000359,-0.0039283999999994,0.0227194000000006,0.0023011999999999,0,sub_9
0.0034863999999995,0.0039328000000012,-0.000213,-0.0087923999999994,0.0242766000000006,0.0012237999999999,0,sub_9
0.0055839999999995,0.0046384000000012,8.279999999994542e-05,-0.0102531999999994,0.0234784000000006,0.0001731999999999,0,sub_9
0.0078935999999995,0.0047354000000012,0.0017207999999999,-0.0102145999999994,0.0235288000000006,-0.0012952,0,sub_9
0.0092183999999995,0.0054008000000012,-0.0011716,-0.0119107999999994,0.0180432000000006,-0.0021278,0,sub_9
0.0096187999999995,0.0058120000000012,-0.0025766,-0.0108253999999994,0.0144646000000006,-0.0027296,0,sub_9
0.0090139999999995,0.0051360000000012,-0.0018486,-0.0074123999999994,0.0142396000000006,-0.0027054,0,sub_9
0.0085599999999995,0.0048900000000012,-0.0010766,-0.0057033999999994,0.0144474000000006,-0.0029072,0,sub_9
0.0092547999999995,0.0048420000000012,-0.0016504,-0.0052507999999994,0.0119334000000006,-0.0033048,0,sub_9
0.0104705999999995,0.0042754000000012,-0.000458,-0.0043713999999994,0.0096302000000006,-0.003486,0,sub_9
0.0114287999999995,0.0042716000000012,0.0011749999999999,-0.0045561999999994,0.0088186000000006,-0.0028222,0,sub_9
0.0114747999999995,0.0056372000000012,0.0002779999999999,-0.0073147999999994,0.0050334000000006,-0.0021726,0,sub_9
0.0114863999999995,0.0065614000000012,-0.0013676,-0.0094399999999994,-0.0002453999999993,-0.0015166,0,sub_9
0.0107111999999995,0.0069440000000012,-0.0018608,-0.0090295999999994,-0.0030199999999993,-0.0006556,0,sub_9
0.0091859999999995,0.0073264000000012,-0.0019566,-0.0071141999999994,-0.0036675999999993,-0.0002142,0,sub_9
0.0082647999999995,0.0071002000000012,-0.0035924,-0.0047795999999994,-0.0068699999999993,-0.000621,0,sub_9
0.0085811999999995,0.0059840000000012,-0.002992,-0.0015657999999994,-0.0093843999999993,-0.0012186,0,sub_9
0.0081941999999995,0.0046482000000012,-0.000671,0.0008060000000005,-0.0091269999999993,-0.0016122,0,sub_9
0.0075705999999995,0.0040938000000012,0.0006361999999999,-3.519999999949137e-05,-0.0116279999999993,-0.0020248,0,sub_9
0.0071875999999995,0.0042500000000012,0.0003695999999999,-0.0017383999999994,-0.0160433999999993,-0.0024408,0,sub_9
0.0058767999999995,0.0039336000000012,0.0016731999999999,-0.0027929999999994,-0.0181189999999993,-0.002428,0,sub_9
0.0040429999999995,0.0040084000000012,0.0026847999999999,-0.0049305999999994,-0.0185391999999993,-0.0020152,0,sub_9
0.0029979999999995,0.0052264000000012,0.0015543999999999,-0.0066443999999994,-0.0200245999999993,-0.0020252,0,sub_9
0.0017681999999995,0.0057306000000012,0.0003023999999999,-0.0055775999999994,-0.0198159999999993,-0.0018044,0,sub_9
0.0002663999999995,0.0055100000000012,-3.500000000007429e-05,-0.0038525999999994,-0.0157739999999993,-0.0017976,0,sub_9
0.0002425999999995,0.0055366000000012,-0.0009468,-0.0029613999999994,-0.0112553999999993,-0.0022116,0,sub_9
0.0013679999999995,0.0061100000000012,-0.0012126,-0.0012167999999994,-0.0069519999999993,-0.002833,0,sub_9
0.0021169999999995,0.0067010000000012,0.0005177999999999,-0.0003409999999994,-0.0045689999999993,-0.0019626,0,sub_9
0.0035127999999995,0.0064444000000012,0.0017171999999999,-0.0016007999999994,-0.0030289999999993,-0.0015332,0,sub_9
0.0064003999999995,0.0036482000000012,0.0016855999999999,-0.0030787999999994,-0.0042511999999993,-0.002811,0,sub_9
0.0099097999999995,0.0018766000000012,0.0010363999999999,-0.0050019999999994,-0.0070055999999993,-0.0049574,0,sub_9
0.0118319999999995,0.0007820000000012,-0.001233,-0.0090857999999994,-0.0165669999999993,-0.0079646,0,sub_9
0.0153893999999995,-0.0001767999999987,-0.0056476,-0.0144311999999994,-0.0269687999999993,-0.012687,0,sub_9
0.0169669999999995,0.0006126000000012,-0.0108914,-0.0221209999999994,-0.0358745999999993,-0.0165732,0,sub_9
0.0157093999999995,0.0038930000000012,-0.014853,-0.0289581999999994,-0.0441473999999993,-0.0195996,0,sub_9
0.0121817999999995,0.0065746000000012,-0.0175632,-0.0330215999999994,-0.0513689999999993,-0.0215398,0,sub_9
0.0094031999999995,0.0084924000000012,-0.0204296,-0.0359903999999994,-0.0507179999999993,-0.0217734,0,sub_9
0.0052117999999995,0.0098094000000012,-0.0225598,-0.0361855999999994,-0.0445471999999993,-0.0196464,0,sub_9
0.0028325999999995,0.0107192000000012,-0.0197002,-0.0306263999999994,-0.0394633999999993,-0.0170504,0,sub_9
0.0016907999999995,0.0114704000000012,-0.0160706,-0.0246479999999994,-0.0335393999999993,-0.0118888,0,sub_9
0.0009323999999995,0.0114006000000012,-0.0133058,-0.0201653999999994,-0.0263385999999993,-0.00503,0,sub_9
-0.0006694000000004,0.0104462000000012,-0.0083454,-0.0126711999999994,-0.0202433999999993,0.0012151999999999,0,sub_9
-0.0023326000000004,0.0081958000000012,-0.0028048,-0.0051779999999994,-0.0162707999999993,0.0055405999999999,0,sub_9
-0.0042384000000004,0.0053236000000012,-0.0005224,-0.0010957999999994,-0.0129205999999993,0.0085609999999999,0,sub_9
-0.0048480000000004,0.0022536000000012,0.0032079999999999,0.0006632000000005,-0.0067819999999993,0.0089977999999999,0,sub_9
-0.0044946000000004,0.0005038000000012,0.0064407999999999,7.420000000053079e-05,-0.0027581999999993,0.0074979999999999,0,sub_9
-0.0021474000000004,-0.0003097999999987,0.0084409999999999,-0.0037461999999994,0.0002440000000006,0.0059719999999999,0,sub_9
-0.0005272000000004,0.0004296000000012,0.0098967999999999,-0.0082039999999994,0.0040996000000006,0.0046539999999999,0,sub_9
0.0003771999999995,0.0014080000000012,0.0105377999999999,-0.0109595999999994,0.0070964000000006,0.0035625999999998,0,sub_9
0.0002655999999995,0.0030370000000012,0.0099785999999999,-0.0113595999999994,0.0060218000000006,0.0027129999999999,0,sub_9
0.0004319999999995,0.0039798000000012,0.0104963999999999,-0.0081281999999994,0.0062112000000006,0.0023143999999999,0,sub_9
-0.0003244000000004,0.0044544000000012,0.0119703999999999,-0.0021173999999994,0.0080936000000006,0.0023603999999998,0,sub_9
0.0007533999999995,0.0040854000000012,0.0118747999999999,0.0038782000000004,0.0063550000000006,0.0021971999999999,0,sub_9
0.0029081999999995,0.0025742000000012,0.0135733999999999,0.0090220000000004,0.0046210000000006,0.0016007999999999,0,sub_9
0.0043883999999995,0.0005760000000012,0.0137819999999999,0.0103012000000004,0.0037668000000006,0.0009697999999999,0,sub_9
0.0044209999999995,-0.0003453999999987,0.0119135999999999,0.0085846000000004,0.0003690000000006,-0.0003198,0,sub_9
0.0044755999999995,-0.0011927999999987,0.0083751999999999,0.0045104000000004,-0.0068495999999993,-0.0031164,0,sub_9
0.0032165999999995,9.220000000128568e-05,0.0049279999999999,-0.0014463999999994,-0.0110581999999993,-0.0057078,0,sub_9
0.0014797999999995,0.0029092000000012,-0.0014482,-0.0058863999999994,-0.0093097999999993,-0.0074416,0,sub_9
0.0001011999999995,0.0063678000000012,-0.0079774,-0.0062721999999994,-0.0058779999999993,-0.0074402,0,sub_9
0.0002787999999995,0.0088034000000012,-0.0127026,-0.0038833999999994,-0.0011817999999993,-0.0063526,0,sub_9
0.0008203999999995,0.0105526000000012,-0.015176,0.0008640000000005,0.0077604000000006,-0.003545,0,sub_9
0.0008609999999995,0.0104634000000012,-0.0157154,0.0079350000000005,0.0179478000000006,0.0001231999999999,0,sub_9
0.0011743999999995,0.0104662000000012,-0.0142464,0.0141342000000004,0.0240902000000006,0.0037905999999999,0,sub_9
0.0014615999999996,0.0093136000000012,-0.008884,0.0201566000000004,0.0294366000000006,0.0074813999999999,0,sub_9
0.0001311999999996,0.0068948000000012,-0.0033764,0.0242530000000004,0.0339358000000006,0.0115869999999999,0,sub_9
-0.0021096000000003,0.0051002000000012,-0.000222,0.0268460000000004,0.0350366000000006,0.0144045999999999,0,sub_9
-0.0031626000000003,0.0029324000000013,0.0023085999999999,0.0292220000000004,0.0340128000000006,0.0159415999999999,0,sub_9
-0.0040050000000003,0.0007856000000013,0.0054945999999999,0.0277660000000004,0.0332220000000006,0.0157423999999999,0,sub_9
-0.0047004000000004,-0.0006177999999986,0.0054203999999999,0.0230688000000004,0.0311140000000006,0.0142167999999999,0,sub_9
-0.0051468000000004,0.0006748000000013,0.0031181999999999,0.0179516000000004,0.0281644000000006,0.0103391999999999,0,sub_9
-0.0047894000000003,0.0017088000000013,0.0007691999999999,0.0126250000000004,0.0258556000000006,0.0062457999999999,0,sub_9
-0.0048456000000003,0.0030282000000012,-0.0008562,0.0064564000000004,0.0265308000000006,0.0025699999999999,0,sub_9
-0.0025784000000003,0.0048240000000012,-0.0035586,0.0031348000000004,0.0279416000000006,0.0004473999999999,0,sub_9
0.0001215999999996,0.0060126000000012,-0.0053758,0.0025882000000004,0.0293434000000006,-0.0018694,0,sub_9
0.0049381999999996,0.0055528000000012,-0.0052336,0.0039608000000005,0.0317988000000006,-0.0028922,0,sub_9
0.0083133999999995,0.0048242000000012,-0.0032638,0.0051144000000004,0.0344620000000006,-0.0024214,0,sub_9
0.0111593999999995,0.0046932000000012,-0.0017186,0.0054010000000004,0.0354186000000006,-0.0006726,0,sub_9
0.0117235999999995,0.0042866000000012,-0.001688,0.0045418000000004,0.0356288000000006,0.0008165999999999,0,sub_9
0.0122073999999995,0.0045826000000012,-0.0046062,0.0034644000000004,0.0343500000000006,0.0018789999999999,0,sub_9
