userAcceleration.x,userAcceleration.y,userAcceleration.z,rotationRate.x,rotationRate.y,rotationRate.z,label,subject
-0.0025748000000003,0.0104832000000012,-0.043329,0.0005910000000005,0.0307288000000008,-0.0020416,0,sub_5
-0.0023810000000003,0.0109192000000012,-0.0447732,-0.0040711999999994,0.0354836000000008,-0.0022436,0,sub_5
-0.0033768000000003,0.0096946000000012,-0.0451492,-0.0070417999999994,0.0374602000000008,-0.0017894,0,sub_5
-0.0048376000000003,0.0093048000000012,-0.0457186,-0.0097951999999994,0.0407126000000008,-0.000908,0,sub_5
-0.0061546000000003,0.0093672000000012,-0.045917,-0.0095741999999994,0.0428406000000008,-0.0004818,0,sub_5
-0.0072320000000003,0.0093060000000012,-0.0467392,-0.0078825999999994,0.0406990000000008,0.0008145999999999,0,sub_5
-0.0074890000000003,0.0085742000000012,-0.0460762,-0.0051707999999994,0.0411770000000008,0.0026031999999999,0,sub_5
-0.0077458000000003,0.0086200000000012,-0.0456852,-0.0041707999999994,0.0418688000000008,0.0056613999999999,0,sub_5
-0.0083062000000003,0.0083774000000012,-0.0450346,-0.0006045999999994,0.0427690000000008,0.0076689999999999,0,sub_5
-0.0091306000000003,0.0092432000000012,-0.0437028,0.0019072000000005,0.0451696000000008,0.0083853999999999,0,sub_5
-0.0092012000000003,0.0095824000000012,-0.0423954,0.0014422000000005,0.0488632000000008,0.0080111999999999,0,sub_5
-0.0103288000000003,0.0100226000000012,-0.0413282,-4.279999999944467e-05,0.0503616000000008,0.0075715999999999,0,sub_5
-0.0110688000000003,0.0106690000000012,-0.0411002,0.0001848000000005,0.0512226000000008,0.0052219999999999,0,sub_5
-0.0108726000000003,0.0113386000000012,-0.0400096,-0.0010829999999994,0.0514504000000008,0.0026491999999999,0,sub_5
-0.0101564000000003,0.0100992000000012,-0.0398422,-0.0036443999999994,0.0495486000000007,0.0009245999999999,0,sub_5
-0.0096910000000003,0.0101656000000012,-0.039794,-0.0050509999999994,0.0476868000000007,-0.0001032,0,sub_5
-0.0082092000000003,0.0110920000000012,-0.0403128,-0.0051755999999994,0.0453978000000007,-0.0019762,0,sub_5
-0.0065936000000003,0.0102374000000012,-0.0414648,-0.0065763999999994,0.0443898000000007,-0.0034324,0,sub_5
-0.0054796000000003,0.0094620000000012,-0.042234,-0.0071343999999994,0.0431574000000007,-0.002746,0,sub_5
-0.0045388000000003,0.0097150000000012,-0.0427354,-0.0061929999999994,0.0436224000000008,-0.001624,0,sub_5
-0.0047204000000003,0.0093976000000012,-0.042624,-0.0055499999999994,0.0461692000000008,0.0002999999999999,0,sub_5
-0.0053398000000003,0.0083274000000012,-0.0432182,-0.0051127999999994,0.0504210000000008,0.0022203999999999,0,sub_5
-0.0059676000000003,0.0086862000000012,-0.043319,-0.0027723999999994,0.0512556000000008,0.0045857999999999,0,sub_5
-0.0074342000000003,0.0096326000000012,-0.0427338,-0.0009551999999994,0.0529174000000008,0.0048549999999999,0,sub_5
-0.0094366000000003,0.0101174000000012,-0.0420702,-0.0012813999999994,0.0520318000000008,0.0046851999999999,0,sub_5
-0.0098074000000003,0.0099354000000012,-0.042693,-0.0022457999999994,0.0503010000000008,0.0032301999999999,0,sub_5
-0.0106188000000003,0.0094776000000012,-0.0423842,-0.0015193999999994,0.0460036000000008,0.0028583999999999,0,sub_5
-0.0116802000000003,0.0098858000000012,-0.0414148,-0.0022713999999994,0.0446958000000008,0.0020451999999999,0,sub_5
-0.0119194000000003,0.0089146000000012,-0.0421488,-0.0033467999999994,0.0425698000000008,0.0018267999999999,0,sub_5
-0.0113058000000003,0.0086600000000012,-0.0423912,-0.0025085999999994,0.0393700000000008,0.0020503999999999,0,sub_5
-0.0124840000000003,0.0086516000000012,-0.041448,-0.0010301999999994,0.0357438000000008,0.0018515999999999,0,sub_5
-0.0134380000000003,0.0088688000000012,-0.0407598,-0.0007109999999994,0.0319932000000008,0.0010369999999999,0,sub_5
-0.0145388000000003,0.0082996000000012,-0.039539,0.0002464000000005,0.0278144000000008,0.0002271999999999,0,sub_5
-0.0155136000000003,0.0084880000000012,-0.0382994,0.0005570000000005,0.0223586000000007,-0.0003718,0,sub_5
-0.0162668000000003,0.0085842000000012,-0.0384252,0.0002360000000005,0.0186104000000007,-0.001191,0,sub_5
-0.0157134000000003,0.0088962000000012,-0.03881,0.0005494000000005,0.0142182000000007,-0.001364,0,sub_5
-0.0147276000000003,0.0094958000000012,-0.0396586,0.0001132000000005,0.0116648000000007,-0.001791,0,sub_5
-0.0134952000000003,0.0098686000000012,-0.0405032,-0.0009611999999994,0.0095396000000007,-0.002223,0,sub_5
-0.0123172000000003,0.0102336000000012,-0.0408448,-0.0016051999999994,0.0080530000000007,-0.0028666,0,sub_5
-0.0115634000000003,0.0103390000000012,-0.0411958,-0.0033635999999994,0.0073866000000007,-0.0035012,0,sub_5
-0.0108234000000003,0.0104574000000012,-0.0428208,-0.0047029999999994,0.0054388000000008,-0.0037038,0,sub_5
-0.0104168000000003,0.0105206000000012,-0.0442054,-0.0056099999999994,0.0041312000000008,-0.0045454,0,sub_5
-0.0103842000000003,0.0099316000000012,-0.0455812,-0.0060959999999994,0.0019682000000008,-0.0049556,0,sub_5
-0.0107638000000003,0.0103910000000012,-0.0463852,-0.0068105999999994,-0.0019053999999991,-0.003656,0,sub_5
-0.0108368000000003,0.0108444000000012,-0.0467656,-0.0051313999999994,-0.0066043999999991,-0.0021428,0,sub_5
-0.0112956000000003,0.0101628000000012,-0.044676,-0.0021671999999994,-0.0100305999999991,-0.0004086,0,sub_5
-0.0111882000000003,0.0094564000000012,-0.0420502,0.0016418000000005,-0.0138917999999991,0.0028275999999999,0,sub_5
-0.0106814000000003,0.0088410000000012,-0.040088,0.0069330000000005,-0.0142699999999991,0.0060733999999999,0,sub_5
-0.0105806000000003,0.0083836000000012,-0.03774,0.0130874000000005,-0.0129449999999991,0.0088957999999999,0,sub_5
-0.0114410000000003,0.0079146000000012,-0.0348066,0.0169138000000005,-0.0084117999999991,0.0106295999999999,0,sub_5
-0.0113252000000003,0.0086778000000012,-0.0341542,0.0160576000000005,-0.0030029999999991,0.0106203999999999,0,sub_5
-0.0107566000000003,0.0091276000000012,-0.0345514,0.0132974000000005,0.0039124000000008,0.0084595999999999,0,sub_5
-0.0109384000000003,0.0106428000000012,-0.0350128,0.0075766000000005,0.0099100000000008,0.0054209999999999,0,sub_5
-0.0095362000000003,0.0112734000000012,-0.03601,-5.3999999999444426e-05,0.0171968000000008,0.0012989999999999,0,sub_5
-0.0084494000000003,0.0108472000000012,-0.0385272,-0.0070723999999994,0.0210830000000008,-0.00132,0,sub_5
-0.0082908000000003,0.0103938000000012,-0.0407142,-0.0100377999999994,0.0253786000000008,-0.0032704,0,sub_5
-0.0088834000000003,0.0107374000000012,-0.0425176,-0.0115287999999994,0.0262566000000008,-0.0043514,0,sub_5
-0.0090504000000003,0.0097636000000012,-0.0446476,-0.0126205999999994,0.0220158000000008,-0.0043548,0,sub_5
-0.0096600000000003,0.0093782000000012,-0.0473172,-0.0111655999999994,0.0147834000000008,-0.0043366,0,sub_5
-0.0093770000000003,0.0101210000000012,-0.04879,-0.0080015999999994,0.0066762000000008,-0.004304,0,sub_5
-0.0097872000000003,0.0102818000000012,-0.048365,-0.0057013999999994,-0.0024983999999991,-0.0029942,0,sub_5
-0.0103218000000003,0.0093318000000012,-0.0470692,-0.0023237999999994,-0.0084841999999991,-0.0008266,0,sub_5
-0.0101320000000003,0.0091250000000012,-0.0452168,0.0031874000000005,-0.0132043999999991,0.0026361999999999,0,sub_5
-0.0107458000000003,0.0079912000000012,-0.0437084,0.0099910000000005,-0.0158047999999991,0.0058855999999999,0,sub_5
-0.0109602000000003,0.0077838000000012,-0.0416308,0.0153174000000005,-0.0154143999999991,0.0084797999999999,0,sub_5
-0.0107664000000003,0.0082950000000012,-0.0406028,0.0189616000000005,-0.0109641999999991,0.0095615999999999,0,sub_5
-0.0104820000000003,0.0093666000000012,-0.038742,0.0196302000000005,-0.0050079999999992,0.0095525999999999,0,sub_5
-0.0103854000000003,0.0099988000000012,-0.0376332,0.0173316000000005,0.0043718000000007,0.0084501999999999,0,sub_5
-0.0106846000000003,0.0095648000000012,-0.0354626,0.0133302000000005,0.0148308000000007,0.0071269999999999,0,sub_5
-0.0116522000000003,0.0084504000000012,-0.0336268,0.0095394000000005,0.0244374000000007,0.0055927999999999,0,sub_5
-0.0130010000000003,0.0077908000000012,-0.0319314,0.0074334000000005,0.0297746000000007,0.0047165999999999,0,sub_5
-0.0144180000000003,0.0071504000000012,-0.0332338,0.0078750000000005,0.0310914000000007,0.0038629999999999,0,sub_5
-0.0158200000000003,0.0070290000000012,-0.0337106,0.0100074000000005,0.0277192000000007,0.0019589999999999,0,sub_5
-0.0158344000000003,0.0086304000000012,-0.0361888,0.0123358000000005,0.0205114000000007,6.139999999998404e-05,0,sub_5
-0.0148166000000003,0.0100134000000012,-0.0387602,0.0146564000000005,0.0111748000000007,-0.0022608,0,sub_5
-0.0131508000000003,0.0097406000000012,-0.0418448,0.0152740000000004,0.0026962000000007,-0.004596,0,sub_5
-0.0105432000000003,0.0096360000000012,-0.0439826,0.0154556000000005,-0.0056085999999991,-0.0058658,0,sub_5
-0.0087712000000003,0.0099592000000012,-0.0460816,0.0171260000000005,-0.0130739999999991,-0.0052036,0,sub_5
-0.0079000000000003,0.0099450000000012,-0.0474196,0.0196520000000005,-0.0188431999999991,-0.0032558,0,sub_5
-0.0075172000000003,0.0095160000000012,-0.0482316,0.0219754000000005,-0.0217383999999991,-3.220000000003602e-05,0,sub_5
-0.0062624000000003,0.0091936000000012,-0.0489062,0.0262202000000005,-0.0240027999999991,0.0036313999999999,0,sub_5
-0.0060890000000003,0.0098264000000012,-0.0478546,0.0294010000000005,-0.0258363999999991,0.0070731999999999,0,sub_5
-0.0055654000000003,0.0102196000000012,-0.0467184,0.0294080000000005,-0.0238153999999991,0.0083515999999999,0,sub_5
-0.0053822000000003,0.0098272000000012,-0.044575,0.0272938000000005,-0.0202903999999991,0.0083313999999999,0,sub_5
-0.0056932000000003,0.0099982000000012,-0.0433236,0.0247516000000005,-0.0168699999999991,0.0076681999999999,0,sub_5
-0.0056154000000003,0.0108052000000012,-0.0414002,0.0194364000000005,-0.0134389999999991,0.0067719999999999,0,sub_5
-0.0051170000000003,0.0108368000000012,-0.0414166,0.0130668000000005,-0.0076591999999991,0.0054381999999999,0,sub_5
-0.0046056000000003,0.0109352000000012,-0.0411672,0.0069086000000005,-0.0021757999999991,0.0034575999999999,0,sub_5
-0.0057732000000003,0.0106284000000012,-0.0417228,0.0009696000000005,0.0041608000000008,0.0010499999999999,0,sub_5
-0.0070682000000003,0.0092110000000012,-0.0412936,-0.0043369999999994,0.0090030000000008,-0.0011376,0,sub_5
-0.0093764000000003,0.0080124000000012,-0.0408224,-0.0068849999999994,0.0112754000000008,-0.002448,0,sub_5
-0.0114922000000003,0.0071840000000012,-0.0400554,-0.0066763999999994,0.0105520000000008,-0.0028808,0,sub_5
-0.0130316000000003,0.0070016000000012,-0.0397692,-0.0041387999999994,0.0069152000000008,-0.001363,0,sub_5
-0.0111602000000003,0.0077214000000012,-0.0404624,-0.0016109999999994,0.0017844000000008,0.0007977999999999,0,sub_5
-0.0085050000000003,0.0089976000000012,-0.0424218,0.0009274000000005,-0.0022759999999991,0.0016753999999999,0,sub_5
-0.0051248000000003,0.0103794000000012,-0.044122,0.0013500000000005,-0.0040333999999991,0.0008207999999999,0,sub_5
-0.0028988000000003,0.0115528000000012,-0.0447314,-0.0014039999999994,-0.0013019999999991,-0.0009164,0,sub_5
-0.0017034000000003,0.0105388000000012,-0.045496,-0.0064857999999994,0.0061232000000008,-0.0022486,0,sub_5
-0.0029036000000003,0.0100098000000012,-0.0436532,-0.0096539999999994,0.0137478000000008,-0.0018586,0,sub_5
-0.0043630000000003,0.0095294000000012,-0.04184,-0.0113371999999994,0.0207230000000008,-0.0001754,0,sub_5
-0.0063222000000003,0.0088096000000012,-0.0407058,-0.0102529999999994,0.0264642000000007,0.0017475999999999,0,sub_5
-0.0075100000000002,0.0077786000000012,-0.0400206,-0.0074771999999994,0.0283660000000007,0.0032599999999999,0,sub_5
-0.0089340000000002,0.0082184000000012,-0.038933,-0.0051613999999994,0.0278714000000007,0.0036879999999999,0,sub_5
-0.0088094000000002,0.0084288000000012,-0.0395324,-0.0058307999999994,0.0269646000000007,0.0032411999999999,0,sub_5
-0.0087696000000002,0.0094266000000012,-0.0392124,-0.0090567999999994,0.0271312000000007,0.0029885999999999,0,sub_5
-0.0090192000000003,0.0092992000000012,-0.0392666,-0.0129229999999994,0.0281488000000007,0.0035851999999999,0,sub_5
-0.0089606000000003,0.0087338000000012,-0.0404144,-0.0176187999999994,0.0332226000000007,0.0028889999999999,0,sub_5
-0.0083700000000003,0.0087014000000012,-0.0404384,-0.0223023999999994,0.0357948000000007,0.0030665999999999,0,sub_5
-0.0092524000000003,0.0094358000000012,-0.041815,-0.0265697999999994,0.0366586000000008,0.0038901999999999,0,sub_5
-0.0098314000000003,0.0081010000000012,-0.0434506,-0.0293397999999994,0.0381570000000008,0.0045099999999999,0,sub_5
-0.0106796000000003,0.0084520000000012,-0.0448962,-0.0299789999999994,0.0381600000000008,0.0042917999999999,0,sub_5
-0.0118198000000003,0.0103250000000012,-0.0431736,-0.0289867999999994,0.0357762000000008,0.0060029999999999,0,sub_5
-0.0125098000000003,0.0108930000000012,-0.0451018,-0.0264885999999994,0.0359448000000008,0.0075077999999999,0,sub_5
-0.0124726000000003,0.0098778000000012,-0.0449272,-0.0207907999999994,0.0352524000000007,0.0083951999999999,0,sub_5
-0.0120296000000003,0.0103874000000012,-0.0444356,-0.0146795999999994,0.0307272000000007,0.0084355999999999,0,sub_5
-0.0109332000000003,0.0102926000000012,-0.0433614,-0.0126137999999994,0.0281336000000007,0.0084453999999999,0,sub_5
-0.0112548000000003,0.0091324000000012,-0.0448674,-0.0117583999999994,0.0274958000000007,0.0073839999999999,0,sub_5
-0.0110764000000003,0.0089024000000012,-0.0437884,-0.0109077999999994,0.0257926000000007,0.0063239999999999,0,sub_5
-0.0105064000000003,0.0085088000000012,-0.0439816,-0.0126119999999994,0.0262256000000008,0.0060977999999999,0,sub_5
-0.0115552000000003,0.0083472000000012,-0.0439242,-0.0139693999999994,0.0268758000000008,0.0067129999999999,0,sub_5
-0.0131736000000003,0.0082642000000012,-0.0426844,-0.0131785999999994,0.0298656000000008,0.0064855999999999,0,sub_5
-0.0122604000000003,0.0082218000000012,-0.0414422,-0.0121925999999994,0.0294432000000007,0.0069047999999999,0,sub_5
-0.0128920000000003,0.0080732000000012,-0.0415988,-0.0109971999999994,0.0277436000000007,0.0068997999999999,0,sub_5
-0.0141208000000003,0.0086050000000012,-0.0399502,-0.0091529999999994,0.0262616000000007,0.0051899999999999,0,sub_5
-0.0146052000000003,0.0085978000000012,-0.0381922,-0.0093643999999994,0.0249908000000007,0.0034809999999999,0,sub_5
-0.0141830000000003,0.0083950000000012,-0.0391026,-0.0106609999999994,0.0201002000000007,0.0021963999999999,0,sub_5
-0.0155260000000002,0.0087638000000012,-0.0387766,-0.0107259999999994,0.0147784000000007,0.0009115999999999,0,sub_5
-0.0156764000000003,0.0087238000000012,-0.0379734,-0.0103497999999994,0.0113776000000007,-0.0016544,0,sub_5
-0.0154348000000002,0.0091252000000012,-0.0377488,-0.0104107999999994,0.0062714000000007,-0.0035804,0,sub_5
-0.0145366000000002,0.0087206000000012,-0.0393314,-0.0102517999999994,0.0024436000000007,-0.0057202,0,sub_5
-0.0148422000000002,0.0095344000000012,-0.0396974,-0.0088153999999994,-0.0013913999999992,-0.0072101999999999,0,sub_5
-0.0142138000000003,0.0097512000000012,-0.0407364,-0.0075407999999994,-0.0035229999999992,-0.0080531999999999,0,sub_5
-0.0131912000000003,0.0098452000000012,-0.0412272,-0.0075561999999994,-0.0065073999999991,-0.0076221999999999,0,sub_5
-0.0122412000000003,0.0095856000000012,-0.0421212,-0.0073495999999994,-0.0075751999999991,-0.0071921999999999,0,sub_5
-0.0120216000000003,0.0104680000000012,-0.0429218,-0.0058589999999994,-0.0080073999999991,-0.0069675999999999,0,sub_5
-0.0118594000000003,0.0102340000000012,-0.0429396,-0.0047951999999994,-0.0057109999999991,-0.0069725999999999,0,sub_5
-0.0118992000000003,0.0095556000000012,-0.0413484,-0.0047981999999994,-0.0036231999999991,-0.0071985999999999,0,sub_5
-0.0130318000000003,0.0097660000000012,-0.0416022,-0.0045991999999994,-0.0034561999999991,-0.0067798,0,sub_5
-0.0136782000000003,0.0099134000000012,-0.0417648,-0.0031333999999994,-0.0058519999999991,-0.0059214,0,sub_5
-0.0133016000000003,0.0098750000000012,-0.0410594,-0.0025133999999994,-0.0069647999999991,-0.005498,0,sub_5
-0.0124348000000003,0.0094640000000012,-0.0409694,-0.0021085999999994,-0.0108055999999991,-0.0044222,0,sub_5
-0.0116522000000003,0.0099094000000012,-0.0422076,-0.0023467999999994,-0.0150709999999991,-0.0031364,0,sub_5
-0.0105020000000003,0.0097882000000012,-0.0418854,-0.0029535999999994,-0.0160277999999991,-0.0025146,0,sub_5
-0.0090892000000003,0.0088702000000012,-0.0418396,-0.0039717999999994,-0.0137863999999991,-0.0021136,0,sub_5
-0.0092406000000003,0.0084792000000012,-0.0412496,-0.0039299999999994,-0.0121911999999991,-0.0008496,0,sub_5
-0.0093730000000003,0.0090406000000012,-0.0404146,-0.0045167999999994,-0.0086737999999991,-0.0002334,0,sub_5
-0.0092882000000003,0.0088526000000012,-0.0406218,-0.0042557999999994,-0.0064377999999991,0.0003901999999999,0,sub_5
-0.0095790000000003,0.0087666000000012,-0.0406396,-0.0027649999999994,-0.0055967999999991,0.0018949999999999,0,sub_5
-0.0102712000000003,0.0096130000000012,-0.0413514,-0.0023383999999994,-0.0049617999999991,0.0025381999999999,0,sub_5
-0.0100026000000003,0.0102720000000012,-0.041416,-0.0023267999999994,-0.0032539999999991,0.0016815999999999,0,sub_5
-0.0094492000000003,0.0104828000000012,-0.0422778,-0.0024763999999994,-0.0029589999999991,0.0014391999999999,0,sub_5
-0.0090618000000003,0.0107394000000012,-0.0428594,-0.0026299999999994,-0.0026673999999991,0.0020513999999999,0,sub_5
-0.0084316000000003,0.0107902000000012,-0.043182,-0.0031977999999994,-0.0006655999999991,0.0015901999999999,0,sub_5
-0.0079276000000003,0.0104606000000012,-0.042229,-0.0037607999999994,0.0021892000000008,0.0009141999999999,0,sub_5
-0.0078642000000003,0.0103376000000012,-0.0425524,-0.0041133999999994,0.0054650000000008,0.0013073999999999,0,sub_5
-0.0088634000000003,0.0098784000000012,-0.0426576,-0.0032551999999994,0.0080126000000008,0.0028055999999999,0,sub_5
-0.0096712000000003,0.0098778000000012,-0.0421538,-0.0021671999999994,0.0129082000000007,0.0030205999999999,0,sub_5
-0.0107970000000003,0.0097606000000012,-0.041936,-0.0008629999999994,0.0178056000000007,0.0025961999999999,0,sub_5
-0.0115806000000003,0.0096236000000012,-0.0410984,0.0002184000000005,0.0209978000000007,0.0025997999999999,0,sub_5
-0.0124592000000003,0.0087986000000012,-0.0404252,0.0009208000000005,0.0204352000000007,0.0027959999999999,0,sub_5
-0.0130166000000003,0.0086750000000012,-0.0393376,0.0007764000000005,0.0196694000000007,0.0012773999999999,0,sub_5
-0.0139290000000003,0.0082484000000012,-0.038398,0.0006242000000005,0.0171992000000007,-0.0002392,0,sub_5
-0.0146442000000003,0.0083464000000012,-0.0381966,0.0004422000000005,0.0098218000000008,-4.060000000001675e-05,0,sub_5
-0.0152936000000003,0.0088808000000012,-0.0392514,0.0015368000000005,0.0018000000000008,0.0003813999999999,0,sub_5
-0.0149046000000003,0.0091134000000012,-0.040634,0.0021462000000005,-0.0045955999999991,0.0008211999999999,0,sub_5
-0.0135092000000003,0.0087304000000012,-0.0418208,0.0031882000000005,-0.0095021999999992,0.0014757999999999,0,sub_5
-0.0112888000000003,0.0089824000000012,-0.0432666,0.0042926000000005,-0.0136399999999991,0.0023421999999999,0,sub_5
-0.0095302000000003,0.0091318000000012,-0.0440134,0.0049972000000005,-0.0126593999999991,0.0023445999999999,0,sub_5
-0.0088390000000003,0.0095992000000012,-0.04447,0.0050730000000005,-0.0095443999999991,0.0019125999999999,0,sub_5
-0.0088160000000003,0.0098888000000012,-0.0450542,0.0042926000000005,-0.0062165999999991,0.0023287999999999,0,sub_5
-0.0095558000000003,0.0108180000000012,-0.0454426,0.0039502000000005,-0.0005459999999991,0.0025313999999999,0,sub_5
-0.0112086000000003,0.0107816000000012,-0.0445888,0.0035552000000005,0.0062742000000008,0.0023061999999999,0,sub_5
-0.0120846000000003,0.0108288000000012,-0.0443978,0.0029362000000005,0.0113880000000008,0.0027225999999999,0,sub_5
-0.0127368000000003,0.0099252000000012,-0.0438626,0.0033772000000005,0.0156432000000008,0.0037883999999999,0,sub_5
-0.0127878000000003,0.0099056000000012,-0.043287,0.0046784000000005,0.0203258000000008,0.0037913999999999,0,sub_5
-0.0132022000000003,0.0094796000000012,-0.0429758,0.0045116000000005,0.0211438000000008,0.0046519999999999,0,sub_5
-0.0136730000000003,0.0101066000000012,-0.0436248,0.0043446000000005,0.0217496000000007,0.0052991999999999,0,sub_5
-0.0144844000000003,0.0099800000000012,-0.0431098,0.0046110000000005,0.0225722000000007,0.0046673999999999,0,sub_5
-0.0144558000000003,0.0099036000000012,-0.0424544,0.0035800000000005,0.0202008000000007,0.0046713999999999,0,sub_5
-0.0156948000000003,0.0098238000000012,-0.0407834,0.0029738000000005,0.0169774000000007,0.0042521999999999,0,sub_5
-0.0156102000000003,0.0094306000000012,-0.0403022,0.0036032000000005,0.0133584000000007,0.0029793999999999,0,sub_5
-0.0142762000000003,0.0091476000000012,-0.0401874,0.0050776000000005,0.0084554000000007,0.0023549999999999,0,sub_5
-0.0130334000000003,0.0093556000000012,-0.0403366,0.0065386000000005,0.0020552000000007,0.0032279999999999,0,sub_5
-0.0126068000000003,0.0097884000000012,-0.0405928,0.0078394000000005,-0.0015783999999991,0.0032455999999999,0,sub_5
-0.0115488000000003,0.0100696000000012,-0.0416904,0.0087116000000005,-0.0054243999999991,0.0034739999999999,0,sub_5
-0.0110534000000003,0.0102762000000012,-0.0411848,0.0093742000000005,-0.0079929999999991,0.0041263999999999,0,sub_5
-0.0118292000000003,0.0105120000000012,-0.0410166,0.0081106000000005,-0.0124697999999991,0.0041269999999999,0,sub_5
-0.0121452000000003,0.0102980000000012,-0.0417462,0.0068642000000005,-0.0141727999999991,0.0030557999999999,0,sub_5
-0.0109582000000003,0.0102182000000012,-0.0437068,0.0055906000000005,-0.0145867999999991,0.0011245999999999,0,sub_5
-0.0091016000000003,0.0101842000000012,-0.0435138,0.0053868000000005,-0.0130921999999991,0.0004803999999999,0,sub_5
-0.0078464000000003,0.0104962000000012,-0.0425676,0.0047668000000005,-0.0094645999999991,-0.000383,0,sub_5
-0.0076022000000003,0.0099278000000012,-0.0413868,0.0037468000000005,-0.0045905999999991,2.939999999998317e-05,0,sub_5
-0.0075518000000003,0.0102616000000012,-0.0412822,0.0035604000000005,-0.0037691999999991,0.0008801999999999,0,sub_5
-0.0086648000000003,0.0098890000000012,-0.0394016,0.0035672000000005,-0.0067859999999991,0.0023779999999999,0,sub_5
-0.0103664000000003,0.0089338000000012,-0.0386158,0.0040034000000005,-0.0106505999999991,0.0023843999999999,0,sub_5
-0.0120026000000003,0.0085240000000012,-0.038409,0.0057026000000005,-0.0177181999999992,0.0030445999999999,0,sub_5
-0.0120368000000003,0.0092352000000012,-0.0388558,0.0076086000000005,-0.0217693999999991,0.0022085999999999,0,sub_5
-0.0113988000000003,0.0088734000000012,-0.0396928,0.0073952000000005,-0.0226175999999991,0.0013535999999999,0,sub_5
-0.0105712000000003,0.0090194000000012,-0.0407792,0.0059418000000005,-0.0170871999999992,0.0004783999999999,0,sub_5
-0.0099160000000003,0.0100592000000012,-0.042192,0.0034206000000005,-0.0111295999999991,0.0002361999999999,0,sub_5
