userAcceleration.x,userAcceleration.y,userAcceleration.z,rotationRate.x,rotationRate.y,rotationRate.z,label,subject
0.0099793999999996,0.0163590000000013,0.0497236,0.0243260000000005,0.0012436000000007,0.0278947999999998,0,sub_8
0.0115979999999996,0.0216134000000013,0.0560228,0.0289046000000005,0.0178664000000007,0.0227779999999998,0,sub_8
0.0144069999999996,0.0256864000000013,0.0639172,0.0383926000000005,0.0332006000000006,0.0159879999999998,0,sub_8
0.0159677999999996,0.0249864000000013,0.0715268,0.0487554000000005,0.0506726000000006,0.0066375999999998,0,sub_8
0.0133009999999996,0.0267826000000013,0.0692378,0.0540436000000005,0.0703594000000006,-0.0031578000000001,0,sub_8
0.0105101999999996,0.0279560000000013,0.0662422,0.0501598000000005,0.0913540000000006,-0.0123780000000001,0,sub_8
0.0135195999999996,0.0251306000000013,0.0573492,0.0441440000000005,0.1134188000000006,-0.0209734000000001,0,sub_8
0.0194185999999996,0.0194950000000013,0.0446638,0.0353056000000005,0.1275984000000006,-0.0265876000000001,0,sub_8
0.0241425999999996,0.0158140000000013,0.0311944,0.0255186000000005,0.1264182000000006,-0.0264202000000001,0,sub_8
0.0321981999999996,0.0101778000000013,0.0229528,0.0155874000000005,0.1066146000000007,-0.0204822000000001,0,sub_8
0.0395307999999996,0.0075364000000013,0.01512,0.0109052000000005,0.0691040000000006,-0.0132030000000001,0,sub_8
0.0414659999999996,0.0085624000000013,0.0102732,0.0072506000000005,0.0245522000000006,-0.0041984000000001,0,sub_8
0.0370673999999996,0.0108294000000013,0.008863,0.0021042000000005,-0.0193561999999993,0.0050087999999998,0,sub_8
0.0297093999999996,0.0116622000000013,0.0106726,-0.0040733999999994,-0.0589853999999993,0.0105711999999998,0,sub_8
0.0214899999999996,0.0131020000000013,0.0154064,-0.0073831999999994,-0.0824133999999993,0.0114327999999998,0,sub_8
0.0141719999999996,0.0123344000000013,0.020553,-0.0076253999999994,-0.0892285999999993,0.0110125999999998,0,sub_8
0.0107259999999996,0.0137268000000012,0.0258252,-0.0086691999999994,-0.0872947999999993,0.0077981999999998,0,sub_8
0.0100077999999996,0.0172074000000012,0.0297482,-0.0105165999999994,-0.0785229999999993,0.0002963999999998,0,sub_8
0.0126373999999996,0.0202708000000012,0.0324108,-0.0095577999999994,-0.0623047999999993,-0.0069816000000001,0,sub_8
0.0176369999999996,0.0190696000000012,0.0364266,-0.0064929999999994,-0.0488775999999993,-0.0108230000000001,0,sub_8
0.0222491999999995,0.0167762000000012,0.0392844,-0.0019603999999994,-0.0380251999999993,-0.0114462000000001,0,sub_8
0.0259489999999996,0.0115796000000013,0.0387918,0.0008316000000005,-0.0337745999999993,-0.0112186000000001,0,sub_8
0.0286409999999996,0.0071090000000013,0.0390296,0.0010258000000005,-0.0369753999999993,-0.0101450000000001,0,sub_8
0.0322105999999996,0.0081862000000013,0.0384366,-0.0026551999999994,-0.0463473999999993,-0.007595,0,sub_8
0.0347771999999996,0.0092510000000013,0.038129,-0.0091083999999994,-0.0621015999999993,-0.0052534,0,sub_8
0.0362769999999996,0.0087392000000013,0.0386046,-0.0200625999999994,-0.0833751999999993,-0.0040044000000001,0,sub_8
0.0328579999999996,0.0077436000000013,0.0405012,-0.0308005999999994,-0.1040105999999993,-0.0027548000000001,0,sub_8
0.0300347999999996,0.0104454000000013,0.0408744,-0.0389637999999994,-0.1208225999999993,-0.0008510000000001,0,sub_8
0.0257889999999996,0.0094346000000012,0.0421956,-0.0443309999999993,-0.1318951999999992,0.0019193999999998,0,sub_8
0.0204669999999996,0.0094068000000012,0.0454016,-0.0469231999999993,-0.1365827999999992,0.0042573999999998,0,sub_8
0.0156853999999996,0.0104814000000012,0.0487384,-0.0432871999999993,-0.1327681999999992,0.0062005999999998,0,sub_8
0.0128041999999996,0.0136442000000012,0.0522484,-0.0351157999999993,-0.1183105999999993,0.0066665999999998,0,sub_8
0.0125477999999996,0.0143882000000012,0.0560962,-0.0241311999999993,-0.0942787999999992,0.0079943999999998,0,sub_8
0.0128147999999996,0.0162698000000013,0.0605507999999999,-0.0112325999999994,-0.0690753999999992,0.0069663999999998,0,sub_8
0.0126513999999996,0.0171756000000013,0.0640432,-0.0017335999999994,-0.0432107999999992,0.0033499999999998,0,sub_8
0.0122673999999996,0.0183364000000013,0.0661026,0.0049916000000005,-0.0181851999999992,-0.0011390000000001,0,sub_8
0.0143237999999996,0.0170194000000013,0.0665074,0.0057232000000005,0.0040856000000007,-0.0041710000000001,0,sub_8
0.0157819999999996,0.0132622000000013,0.0651032,-0.0005921999999994,0.0236174000000006,-0.0087442000000001,0,sub_8
0.0159693999999996,0.0089074000000013,0.0610654,-0.0154217999999994,0.0415890000000006,-0.0146392000000001,0,sub_8
0.0186741999999996,0.0105234000000013,0.0500376,-0.0304819999999994,0.0550898000000006,-0.0211710000000001,0,sub_8
0.0261683999999996,0.0143662000000013,0.0388886,-0.0436555999999994,0.0613392000000006,-0.0274668000000001,0,sub_8
0.0346033999999996,0.0180446000000013,0.0292722,-0.0454433999999994,0.0597654000000006,-0.0311012000000001,0,sub_8
0.0423781999999996,0.0196088000000013,0.0201462,-0.0383165999999994,0.0502670000000006,-0.0320994000000001,0,sub_8
0.0463215999999996,0.0189538000000013,0.0105062,-0.0280323999999994,0.0318068000000006,-0.0324232000000001,0,sub_8
0.0485557999999996,0.0149212000000012,0.005762,-0.0203333999999994,0.0084528000000006,-0.0321178000000001,0,sub_8
0.0464645999999996,0.0097582000000012,0.0026128,-0.0156493999999994,-0.0191595999999993,-0.0299052,0,sub_8
0.0387261999999996,0.0076998000000012,0.0054774,-0.0160131999999994,-0.0485763999999992,-0.0258108000000001,0,sub_8
0.0301715999999996,0.0081628000000012,0.0101858,-0.0148911999999994,-0.0767319999999992,-0.0187168000000001,0,sub_8
0.0221497999999996,0.0129102000000012,0.0233367999999999,-0.0061099999999994,-0.0938363999999992,-0.0081620000000001,0,sub_8
0.0119431999999996,0.0159908000000012,0.0414725999999999,0.0121370000000005,-0.0941407999999992,0.0020099999999998,0,sub_8
0.0020885999999996,0.0180640000000013,0.0594122,0.0321936000000005,-0.0754739999999992,0.0083247999999998,0,sub_8
-0.0036944000000003,0.0181120000000013,0.0713985999999999,0.0472472000000005,-0.0384351999999993,0.0066761999999998,0,sub_8
-0.0055868000000003,0.0182008000000013,0.082834,0.0538580000000005,0.0118718000000006,-0.0023122000000001,0,sub_8
-0.0021894000000003,0.0156094000000013,0.0865398,0.0511594000000005,0.0643402000000007,-0.0141488000000001,0,sub_8
0.0066775999999996,0.0151402000000013,0.0824506,0.0403038000000005,0.1085176000000006,-0.0234680000000001,0,sub_8
0.0175487999999996,0.0149296000000013,0.075262,0.0293668000000005,0.1386172000000007,-0.0287104000000001,0,sub_8
0.0287669999999996,0.0145240000000013,0.06565,0.0219468000000005,0.1501448000000007,-0.0279224000000001,0,sub_8
0.0369453999999996,0.0139966000000013,0.0544336,0.0180448000000005,0.1426766000000006,-0.0217444000000001,0,sub_8
0.0438105999999996,0.0136914000000013,0.0433497999999999,0.0183286000000005,0.1179328000000006,-0.0146604000000001,0,sub_8
0.0465837999999996,0.0143776000000013,0.0369388,0.0185636000000005,0.0808380000000007,-0.0090564000000001,0,sub_8
0.0458525999999996,0.0152396000000013,0.0346987999999999,0.0179488000000005,0.0435374000000006,-0.0045264000000001,0,sub_8
0.0395005999999996,0.0172584000000013,0.0364861999999999,0.0150244000000005,0.0124320000000006,-0.0021568,0,sub_8
0.0306417999999996,0.0197464000000013,0.0414298,0.0149362000000005,-0.0082297999999993,-0.003199,0,sub_8
0.0211685999999996,0.0217136000000013,0.0485828,0.0185512000000005,-0.0127097999999993,-0.0048772,0,sub_8
0.0110017999999996,0.0209636000000013,0.0552476,0.0265102000000005,5.180000000069435e-05,-0.0063334,0,sub_8
0.0030601999999996,0.0206668000000013,0.060383,0.0351486000000005,0.0219708000000006,-0.0073694,0,sub_8
0.0002461999999996,0.0186182000000013,0.0636456,0.0453046000000005,0.0496352000000006,-0.0079750000000001,0,sub_8
0.0004615999999996,0.0161964000000013,0.0639924,0.0518342000000005,0.0785862000000006,-0.0075392000000001,0,sub_8
0.0026343999999996,0.0138554000000013,0.06258,0.0538696000000005,0.1024482000000006,-0.0092646,0,sub_8
0.0101073999999996,0.0123654000000013,0.059717,0.0516012000000005,0.1180168000000006,-0.0112232,0,sub_8
0.0180821999999996,0.0128280000000013,0.0553414,0.0471560000000005,0.1244300000000006,-0.012758,0,sub_8
0.0250037999999996,0.0148998000000013,0.0512259999999999,0.0420160000000005,0.1203990000000006,-0.012575,0,sub_8
0.0304719999999996,0.0176064000000012,0.0477043999999999,0.0372596000000005,0.1078402000000006,-0.0113104000000001,0,sub_8
0.0347329999999996,0.0191792000000012,0.045662,0.0335344000000005,0.0893046000000006,-0.0081080000000001,0,sub_8
0.0351609999999996,0.0206704000000012,0.0441068,0.0321496000000005,0.0699060000000006,-0.0042472000000001,0,sub_8
0.0329083999999996,0.0175146000000012,0.0448778,0.0305562000000005,0.0498756000000006,-0.0020962000000001,0,sub_8
0.0312091999999996,0.0140942000000013,0.0460566,0.0274760000000005,0.0294322000000006,-0.0018780000000001,0,sub_8
0.0291917999999996,0.0106302000000013,0.0488338,0.0239710000000005,0.0109018000000006,-0.0001696000000001,0,sub_8
0.0266067999999996,0.0074210000000013,0.0508866,0.0224016000000005,-0.0014679999999993,0.0043217999999998,0,sub_8
0.0253239999999996,0.0054168000000013,0.0518306,0.0229870000000005,-0.0080969999999993,0.0098889999999998,0,sub_8
0.0264269999999996,0.0066338000000012,0.0515368,0.0240174000000005,-0.0091939999999993,0.0169477999999998,0,sub_8
0.0297857999999996,0.0084258000000012,0.0496568,0.0259204000000005,-0.0060331999999993,0.0240073999999998,0,sub_8
0.0347099999999996,0.0088900000000012,0.0458126,0.0267642000000005,-0.0039227999999993,0.0282835999999998,0,sub_8
0.0394579999999996,0.0102876000000012,0.0395916,0.0231082000000005,-0.0079673999999993,0.0306133999999998,0,sub_8
0.0424967999999996,0.0119924000000012,0.0344442,0.0160008000000005,-0.0205213999999993,0.0327163999999998,0,sub_8
0.0434069999999996,0.0134116000000013,0.030468,0.0103746000000005,-0.0398935999999993,0.0340139999999998,0,sub_8
0.0403027999999996,0.0141880000000013,0.028484,0.0064314000000005,-0.0643857999999993,0.0355433999999998,0,sub_8
0.0325787999999996,0.0159960000000013,0.0301366,0.0039846000000005,-0.0865463999999992,0.0387893999999998,0,sub_8
0.0241917999999996,0.0174726000000013,0.0347894,0.0022048000000005,-0.1031681999999993,0.0416055999999998,0,sub_8
0.0155433999999996,0.0172766000000013,0.0379586,4.800000000056911e-05,-0.1112561999999992,0.0418445999999998,0,sub_8
0.0080901999999996,0.0154524000000013,0.0393812,-0.0033237999999994,-0.1059017999999993,0.0377547999999998,0,sub_8
0.0019193999999996,0.0141870000000013,0.0406328,-0.0059941999999994,-0.0905215999999992,0.0300251999999998,0,sub_8
0.0008471999999996,0.0141876000000013,0.0406446,-0.0101331999999994,-0.0710821999999993,0.0207845999999998,0,sub_8
0.0011777999999996,0.0144490000000013,0.0383994,-0.0163771999999994,-0.0454559999999993,0.0113077999999998,0,sub_8
-0.0004818000000003,0.0165082000000012,0.0413392,-0.0213877999999994,-0.0196935999999993,0.0042637999999998,0,sub_8
-0.0051300000000003,0.0215646000000012,0.0523078,-0.0191965999999994,0.0002674000000006,0.0032595999999998,0,sub_8
-0.0169632000000003,0.0269232000000012,0.064073,-0.0065365999999994,0.0280552000000006,0.0072323999999998,0,sub_8
-0.0325190000000003,0.0303198000000013,0.075646,0.0149636000000005,0.0758410000000006,0.0108139999999998,0,sub_8
-0.0394888000000003,0.0306252000000013,0.0897556,0.0485182000000005,0.1425646000000006,0.0099689999999999,0,sub_8
-0.0355660000000003,0.0278528000000013,0.0936292,0.0830642000000005,0.2240796000000006,0.0013463999999999,0,sub_8
-0.0228784000000003,0.0266972000000013,0.0840266,0.1054854000000005,0.3077922000000007,-0.0135594,0,sub_8
0.0023475999999996,0.0298252000000013,0.0713024,0.1128890000000005,0.3698400000000006,-0.0321744,0,sub_8
0.0366923999999996,0.0284678000000013,0.0542999999999999,0.1110360000000005,0.3933736000000006,-0.0485980000000001,0,sub_8
0.0602737999999996,0.0260392000000013,0.0410069999999999,0.0942282000000005,0.3728268000000007,-0.0575920000000001,0,sub_8
0.0755453999999996,0.0260162000000013,0.0416469999999999,0.0860096000000005,0.3211268000000006,-0.0622132000000001,0,sub_8
0.0828363999999996,0.0116456000000013,0.0206872,0.0637320000000005,0.2328080000000007,-0.0613308000000001,0,sub_8
0.0890885999999996,-0.0017481999999986,0.0080374,0.0499144000000005,0.1373904000000007,-0.0507662000000001,0,sub_8
0.0890453999999996,-0.0101571999999986,0.0054044,0.0404524000000005,0.0474282000000006,-0.0293524000000001,0,sub_8
0.0897053999999996,-0.0091851999999986,0.0047124,0.0358882000000005,-0.0391643999999993,-0.0023540000000001,0,sub_8
0.0853439999999996,-0.0058273999999986,-0.0016969999999999,0.0142160000000005,-0.1270047999999993,0.0317903999999998,0,sub_8
0.0779329999999996,0.0045224000000013,0.02155,0.0063032000000005,-0.1906099999999993,0.0672815999999998,0,sub_8
0.0619621999999996,0.0058148000000013,0.037868,-0.0078745999999994,-0.2322151999999993,0.0943687999999998,0,sub_8
0.0436295999999996,0.0112232000000013,0.044343,-0.0152739999999994,-0.2518409999999993,0.1069471999999998,0,sub_8
0.0272763999999996,0.0104980000000013,0.043418,-0.0154919999999994,-0.2560885999999993,0.1037463999999998,0,sub_8
0.0200917999999996,0.0055364000000013,0.0408536,-0.0128577999999994,-0.2545463999999993,0.0888075999999998,0,sub_8
0.0206741999999996,0.0077272000000013,0.0389166,-0.0144467999999994,-0.2463719999999993,0.0706263999999999,0,sub_8
0.0252421999999996,0.0160028000000013,0.0352082,-0.0231403999999994,-0.2482025999999993,0.0564673999999998,0,sub_8
0.0305249999999996,0.0202438000000013,0.0329564,-0.0404475999999994,-0.2634419999999993,0.0463247999999998,0,sub_8
0.0313233999999996,0.0202096000000013,0.035488,-0.0590647999999994,-0.2763689999999993,0.0451429999999998,0,sub_8
0.0301815999999996,0.0215066000000013,0.0384284,-0.0710499999999994,-0.2782695999999993,0.0512573999999998,0,sub_8
0.0271875999999996,0.0194548000000013,0.042421,-0.0766475999999994,-0.2842359999999993,0.0563533999999998,0,sub_8
0.0217729999999996,0.0168178000000013,0.0527708,-0.0754143999999994,-0.2931945999999993,0.0578689999999998,0,sub_8
0.0128789999999996,0.0132964000000013,0.0644498,-0.0728673999999994,-0.2970349999999992,0.0570369999999998,0,sub_8
0.0082673999999996,0.0140538000000013,0.0661318,-0.0804949999999994,-0.2897455999999992,0.0522741999999998,0,sub_8
0.0061281999999996,0.0174444000000013,0.0638334,-0.0955197999999994,-0.2726057999999992,0.0414651999999998,0,sub_8
0.0149163999999996,0.0280988000000013,0.0555438,-0.1043089999999994,-0.2516255999999993,0.0238579999999998,0,sub_8
0.0303401999999996,0.0305632000000013,0.0422514,-0.1020093999999993,-0.2340851999999992,0.0044099999999998,0,sub_8
0.0441787999999996,0.0276178000000013,0.0307238,-0.0948797999999993,-0.2280897999999993,-0.009221,0,sub_8
0.0506503999999996,0.0242750000000013,0.0260982,-0.0855287999999993,-0.2411001999999992,-0.0138392,0,sub_8
0.0483447999999996,0.0183024000000013,0.024904,-0.0713679999999993,-0.2652489999999993,-0.0077274,0,sub_8
0.0316677999999996,0.0036280000000013,0.0285598,-0.0578749999999993,-0.2847517999999993,0.0092697999999999,0,sub_8
0.0119229999999996,-0.0045075999999986,0.0339546,-0.0522289999999994,-0.2920889999999992,0.0276919999999999,0,sub_8
0.0002147999999996,-0.0038151999999986,0.0388216,-0.0494849999999994,-0.2861835999999993,0.0403085999999998,0,sub_8
-0.0039548000000003,-0.0004291999999986,0.0436004,-0.0415451999999994,-0.2672851999999993,0.0493129999999998,0,sub_8
-0.0024274000000003,0.0035650000000013,0.0492962,-0.0314313999999994,-0.2441143999999993,0.0536267999999998,0,sub_8
0.0041869999999996,0.0102828000000013,0.052387,-0.0232245999999994,-0.2209249999999993,0.0549361999999998,0,sub_8
0.0092509999999996,0.0180034000000013,0.053462,-0.0150089999999994,-0.1975157999999993,0.0545363999999998,0,sub_8
0.0139573999999996,0.0227484000000013,0.0524814,-0.0136251999999994,-0.1753593999999993,0.0536629999999998,0,sub_8
0.0199805999999996,0.0231932000000013,0.0505018,-0.0145799999999994,-0.1567943999999992,0.0472231999999998,0,sub_8
0.0264897999999996,0.0228032000000012,0.0478194,-0.0204517999999994,-0.1424649999999993,0.0386181999999998,0,sub_8
0.0314291999999996,0.0199980000000012,0.0455944,-0.0267493999999994,-0.1321649999999992,0.0257423999999998,0,sub_8
0.0362397999999996,0.0160892000000013,0.0440314,-0.0371423999999994,-0.1284657999999993,0.0154099999999998,0,sub_8
0.0380207999999996,0.0120000000000013,0.0466852,-0.0430765999999994,-0.1279845999999993,0.0068221999999999,0,sub_8
0.0371615999999996,0.0089356000000013,0.0486552,-0.0445557999999994,-0.1294521999999993,0.0021135999999999,0,sub_8
0.0314481999999996,0.0069346000000013,0.047622,-0.0415561999999993,-0.1300881999999993,-0.001283,0,sub_8
0.0256105999999996,0.0089910000000013,0.0468188,-0.0362065999999994,-0.1243637999999993,0.0010969999999998,0,sub_8
0.0222941999999996,0.0105896000000013,0.0477072,-0.0265491999999994,-0.1077961999999993,0.0054161999999998,0,sub_8
0.0218041999999996,0.0121952000000013,0.0465068,-0.0196977999999994,-0.0923651999999993,0.0093267999999998,0,sub_8
0.0230989999999996,0.0163692000000013,0.045662,-0.0188235999999993,-0.0790377999999993,0.0117027999999998,0,sub_8
0.0268281999999996,0.0199732000000013,0.0462382,-0.0181503999999994,-0.0614545999999992,0.0155673999999998,0,sub_8
0.0280663999999996,0.0214628000000013,0.048453,-0.0157691999999994,-0.0459985999999992,0.0170965999999998,0,sub_8
0.0260067999999996,0.0217258000000013,0.049401,-0.0127383999999994,-0.0343557999999992,0.0126531999999998,0,sub_8
0.0219031999999996,0.0217568000000013,0.0498514,-0.0077261999999994,-0.0196381999999992,0.0041235999999998,0,sub_8
0.0164683999999996,0.0206078000000013,0.0517718,-0.0001259999999994,0.0006124000000007,-0.005036,0,sub_8
0.0124789999999996,0.0188070000000013,0.0533136,0.0083326000000005,0.0227742000000006,-0.0133374,0,sub_8
0.0111635999999996,0.0156424000000013,0.0517858,0.0133802000000005,0.0479212000000006,-0.0193164,0,sub_8
0.0120417999999996,0.0129552000000013,0.0500622,0.0177780000000005,0.0751838000000006,-0.0210298,0,sub_8
0.0137113999999996,0.0120824000000013,0.0474548,0.0217232000000005,0.1009396000000006,-0.0184716,0,sub_8
0.0170305999999996,0.0118966000000013,0.0421994,0.0254360000000005,0.1234960000000006,-0.0148426,0,sub_8
0.0218961999999996,0.0116898000000013,0.036783,0.0284866000000005,0.1392446000000006,-0.0131324,0,sub_8
0.0267463999999996,0.0119160000000013,0.0324356,0.0283038000000005,0.1462752000000007,-0.012929,0,sub_8
0.0320985999999996,0.0141966000000013,0.026619,0.0248822000000005,0.1435218000000006,-0.0140176,0,sub_8
0.0379317999999996,0.0153048000000013,0.021968,0.0225034000000005,0.1333162000000007,-0.0172258000000001,0,sub_8
0.0434625999999996,0.0144388000000013,0.0200484,0.0213770000000005,0.1156546000000006,-0.0216976000000001,0,sub_8
0.0467365999999996,0.0135518000000013,0.020735,0.0180890000000005,0.0918218000000006,-0.0261766000000001,0,sub_8
0.0493415999999996,0.0131576000000013,0.0222122,0.0145716000000005,0.0650044000000006,-0.0300124000000001,0,sub_8
0.0480531999999996,0.0111234000000013,0.0278878,0.0114664000000005,0.0360506000000007,-0.0327744000000001,0,sub_8
0.0455597999999996,0.0091080000000012,0.0336114,0.0077212000000005,0.0083724000000007,-0.0342606000000001,0,sub_8
0.0414809999999996,0.0094886000000012,0.0392914,0.0067766000000005,-0.0105915999999992,-0.0329610000000001,0,sub_8
0.0317835999999996,0.0076252000000013,0.0463923999999999,0.0088500000000005,-0.0180797999999992,-0.0269548000000001,0,sub_8
0.0224255999999996,0.0058268000000013,0.0531359999999999,0.0096660000000005,-0.0179037999999992,-0.0184036000000001,0,sub_8
0.0186021999999996,0.0079086000000013,0.0543479999999999,0.0071210000000005,-0.0049369999999992,-0.0088240000000001,0,sub_8
0.0188683999999996,0.0112604000000013,0.0539015999999999,0.0020594000000005,0.0157172000000006,-0.0014082000000001,0,sub_8
0.0221055999999996,0.0129726000000013,0.0510116,-0.0091965999999994,0.0285358000000006,-0.0004350000000001,0,sub_8
0.0306705999999996,0.0161588000000013,0.0446098,-0.0221709999999994,0.0303156000000006,-0.0080054,0,sub_8
0.0378105999999996,0.0182208000000013,0.0381784,-0.0298351999999994,0.0246284000000006,-0.0176656,0,sub_8
0.0417863999999996,0.0158212000000013,0.0337796,-0.0351973999999993,0.0099806000000006,-0.02623,0,sub_8
0.0409507999999996,0.0127992000000013,0.0298494,-0.0365369999999993,-0.0078925999999992,-0.0309166,0,sub_8
0.0387149999999996,0.0112852000000013,0.0291006,-0.0346741999999993,-0.0200459999999992,-0.0302472,0,sub_8
0.0361703999999996,0.0101536000000013,0.0296824,-0.0302585999999993,-0.0271223999999992,-0.0227298,0,sub_8
0.0341659999999996,0.0091644000000013,0.0319534,-0.0249797999999993,-0.0301611999999992,-0.0132886,0,sub_8
0.0327173999999996,0.0079590000000013,0.036235,-0.0169167999999993,-0.0308661999999992,-0.003831,0,sub_8
0.0320073999999996,0.0059420000000013,0.0410232,-0.0137517999999993,-0.0302723999999992,0.0047359999999999,0,sub_8
0.0308541999999996,0.0069326000000013,0.0415696,-0.0144187999999994,-0.0296573999999993,0.0113535999999998,0,sub_8
0.0304919999999996,0.0094904000000013,0.041423,-0.0163381999999994,-0.0281643999999993,0.0126201999999998,0,sub_8
0.0307079999999996,0.0123790000000013,0.0399238,-0.0195195999999994,-0.0266507999999993,0.0098185999999999,0,sub_8
0.0319635999999995,0.0162886000000013,0.0378946,-0.0226903999999994,-0.0249155999999993,0.0048803999999999,0,sub_8
0.0329639999999995,0.0198882000000013,0.0365408,-0.0226721999999993,-0.0263847999999993,-0.0006722,0,sub_8
0.0337555999999995,0.0189840000000013,0.0377512,-0.0201183999999993,-0.0319169999999993,-0.0047066,0,sub_8
0.0339789999999996,0.0164246000000013,0.0402922,-0.0195069999999993,-0.0391595999999992,-0.0055476,0,sub_8
0.0339407999999996,0.0145800000000013,0.041677,-0.0191147999999993,-0.0461943999999992,-0.0048948000000001,0,sub_8
0.0322461999999996,0.0124932000000013,0.0429589999999999,-0.0210657999999994,-0.0523687999999992,-0.0042596000000001,0,sub_8
0.0309261999999996,0.0112420000000013,0.0439535999999999,-0.0225793999999994,-0.0551399999999992,-0.0025576000000001,0,sub_8
0.0304615999999996,0.0113116000000013,0.0449473999999999,-0.0238615999999994,-0.0532273999999992,-0.0002188000000001,0,sub_8
0.0308993999999996,0.0129152000000013,0.0451788,-0.0249237999999994,-0.0508851999999993,0.0010525999999998,0,sub_8
0.0307963999999996,0.0127620000000013,0.0448866,-0.0259867999999994,-0.0483315999999993,0.0027509999999998,0,sub_8
0.0302751999999996,0.0133810000000013,0.0448892,-0.0253485999999994,-0.0464257999999993,0.0051029999999998,0,sub_8
0.0303203999999996,0.0139280000000013,0.0451252,-0.0242885999999994,-0.0466477999999993,0.0063925999999998,0,sub_8
0.0296933999999996,0.0152942000000013,0.0438044,-0.0246943999999994,-0.0485405999999993,0.0068365999999998,0,sub_8
0.0280367999999996,0.0155852000000013,0.0422998,-0.0240399999999994,-0.0519283999999993,0.0072897999999998,0,sub_8
