userAcceleration.x,userAcceleration.y,userAcceleration.z,rotationRate.x,rotationRate.y,rotationRate.z,label,subject
0.0119643999999996,0.0100334000000012,-0.0477422,0.0003706000000005,-0.0029397999999992,-0.0074356,0,sub_5
0.0117711999999996,0.0099772000000012,-0.0486224,0.0014356000000005,-0.0029451999999992,-0.0070008,0,sub_5
0.0120513999999996,0.0099922000000012,-0.0483108,0.0012420000000005,-0.0026361999999992,-0.0067748,0,sub_5
0.0131035999999996,0.0095700000000012,-0.0492092,0.0006236000000005,-0.0018997999999992,-0.0065522,0,sub_5
0.0141129999999996,0.0092234000000012,-0.050113,0.0021332000000005,-0.0020247999999992,-0.0058864,0,sub_5
0.0148621999999996,0.0098696000000012,-0.0494502,0.0038638000000005,-0.0006581999999992,-0.0054348,0,sub_5
0.0159021999999996,0.0097428000000012,-0.0491542,0.0038990000000005,0.0024222000000007,-0.0058518,0,sub_5
0.0168133999999996,0.0090128000000012,-0.0493548,0.0039020000000005,0.0043346000000007,-0.0045724,0,sub_5
0.0164415999999996,0.0090862000000012,-0.0498208,0.0049878000000005,0.0059386000000007,-0.003701,0,sub_5
0.0153947999999996,0.0094882000000012,-0.04928,0.0047840000000005,0.0052042000000007,-0.0030492,0,sub_5
0.0157517999999996,0.0094222000000012,-0.0498056,0.0035162000000005,0.0042638000000007,-0.003259,0,sub_5
0.0157229999999996,0.0093102000000012,-0.0499896,0.0028750000000005,0.0005508000000007,-0.0032472,0,sub_5
0.0150441999999996,0.0093546000000012,-0.0500892,0.0030996000000005,-0.0010321999999992,-0.003873,0,sub_5
0.0157473999999996,0.0094556000000012,-0.0480838,0.0035254000000005,-0.0016711999999992,-0.0042964,0,sub_5
0.0169365999999996,0.0097350000000012,-0.049196,0.0037492000000005,-0.0001771999999992,-0.0051512,0,sub_5
0.0173963999999996,0.0103812000000012,-0.0495244,0.0054514000000005,-0.0014605999999992,-0.0053514,0,sub_5
0.0180751999999996,0.0117436000000012,-0.0510222,0.0058810000000005,-0.0012473999999992,-0.005776,0,sub_5
0.0187293999999996,0.0127514000000012,-0.051688,0.0052568000000005,-0.0028139999999992,-0.0066188,0,sub_5
0.0186929999999996,0.0126256000000012,-0.0534842,0.0033600000000005,-0.0018227999999992,-0.0066192,0,sub_5
0.0190321999999996,0.0110496000000012,-0.0541656,0.0021004000000005,-0.0001995999999992,-0.0053342,0,sub_5
0.0181067999999996,0.0109164000000012,-0.0530546,0.0029772000000005,0.0024796000000007,-0.0036082,0,sub_5
0.0180689999999996,0.0107512000000012,-0.0518224,0.0040712000000005,0.0060102000000006,-0.0018818,0,sub_5
0.0177783999999996,0.0107096000000012,-0.051433,0.0045026000000005,0.0089838000000006,4.019999999996595e-05,0,sub_5
0.0173761999999996,0.0107074000000012,-0.0519008,0.0049332000000005,0.0104712000000006,0.0006821999999999,0,sub_5
0.0172431999999996,0.0107732000000012,-0.05009,0.0053734000000005,0.0123914000000006,-0.0003854,0,sub_5
0.0176381999999996,0.0095682000000012,-0.050742,0.0030498000000005,0.0119152000000006,-0.0008066,0,sub_5
0.0172423999999996,0.0093522000000012,-0.0504156,0.0022246000000005,0.0118624000000006,-0.0018588,0,sub_5
0.0161469999999996,0.0083666000000012,-0.0494806,0.0026814000000005,0.0124436000000006,-0.0026892,0,sub_5
0.0165709999999996,0.0077414000000012,-0.0479864,0.0039898000000005,0.0128078000000006,-0.0032998,0,sub_5
0.0155947999999996,0.0093690000000012,-0.0482816,0.0059276000000005,0.0116750000000006,-0.0030494,0,sub_5
0.0147049999999996,0.0102858000000012,-0.0484754,0.0059428000000005,0.0138106000000006,-0.004334,0,sub_5
0.0143383999999996,0.0096524000000012,-0.0487796,0.0042406000000005,0.0138208000000007,-0.0054142,0,sub_5
0.0161577999999996,0.0098668000000012,-0.04889,0.0021358000000005,0.0150796000000007,-0.0071122,0,sub_5
0.0164103999999996,0.0112242000000012,-0.0499834,0.0004384000000005,0.0133490000000007,-0.0075216,0,sub_5
0.0173577999999996,0.0107712000000012,-0.0501068,0.0004502000000005,0.0126752000000007,-0.0072796,0,sub_5
0.0181681999999996,0.0114736000000012,-0.049399,0.0023766000000005,0.0107164000000007,-0.0070224,0,sub_5
0.0185473999999996,0.0115500000000012,-0.0489694,0.0032302000000005,0.0081196000000007,-0.0061308,0,sub_5
0.0185025999999996,0.0108534000000012,-0.0509862,0.0053438000000005,0.0053356000000007,-0.0044032,0,sub_5
0.0192665999999996,0.0097494000000012,-0.0507946,0.0089646000000005,0.0042560000000007,-0.0039492,0,sub_5
0.0213233999999996,0.0098478000000012,-0.052507,0.0102332000000005,0.0019070000000007,-0.0037236,0,sub_5
0.0234551999999996,0.0092172000000012,-0.0544904,0.0121400000000005,0.0001908000000007,-0.0024262,0,sub_5
0.0242597999999996,0.0101260000000012,-0.0547582,0.0136476000000005,0.0033548000000007,-0.001536,0,sub_5
0.0243927999999996,0.0107484000000012,-0.0543732,0.0132204000000005,0.0039662000000007,-1.5200000000034024e-05,0,sub_5
0.0238745999999996,0.0110612000000012,-0.055013,0.0123712000000005,0.0060686000000007,0.0019281999999999,0,sub_5
0.0209281999999996,0.0110050000000012,-0.0538134,0.0117450000000005,0.0083912000000007,0.0019499999999999,0,sub_5
0.0178653999999996,0.0115172000000012,-0.0513758,0.0090062000000005,0.0134984000000007,3.079999999998622e-05,0,sub_5
0.0163667999999996,0.0106262000000012,-0.0511522,0.0070944000000005,0.0143616000000007,-0.0010518,0,sub_5
0.0148497999999996,0.0104670000000012,-0.0506782,0.0064638000000005,0.0156456000000007,-0.0019124,0,sub_5
0.0128017999999996,0.0109128000000012,-0.0498698,0.0043434000000005,0.0171504000000006,-0.0034246,0,sub_5
0.0119931999999996,0.0101938000000012,-0.0493542,0.0024326000000005,0.0190754000000006,-0.003654,0,sub_5
0.0128015999999996,0.0098422000000012,-0.051245,0.0004966000000005,0.0173630000000006,-0.0034216,0,sub_5
0.0123025999999996,0.0099740000000012,-0.050815,-0.0012403999999994,0.0128782000000006,-0.002757,0,sub_5
0.0117881999999996,0.0099402000000012,-0.050885,-0.0021065999999994,0.0113766000000006,-0.0029446,0,sub_5
0.0124891999999996,0.0101602000000012,-0.0509898,-0.0016819999999994,0.0122144000000006,-0.0031264,0,sub_5
0.0138709999999996,0.0110038000000012,-0.0519318,-0.0025289999999994,0.0151862000000007,-0.003106,0,sub_5
0.0140409999999996,0.0110380000000012,-0.0525206,-0.0022925999999994,0.0209352000000007,-0.0024708,0,sub_5
0.0146939999999996,0.0116706000000012,-0.0535964,-0.0024619999999994,0.0307364000000007,-0.0024845999999999,0,sub_5
0.0174647999999996,0.0121078000000012,-0.0545832,-0.0058293999999994,0.0432984000000007,-0.0033548,0,sub_5
0.0188905999999996,0.0114350000000012,-0.0544972,-0.0098455999999994,0.0541570000000007,-0.0040134,0,sub_5
0.0186173999999996,0.0109128000000012,-0.0534992,-0.0119461999999994,0.0643682000000006,-0.0042307999999999,0,sub_5
0.0175735999999996,0.0107596000000012,-0.0520558,-0.0144745999999994,0.0739436000000006,-0.0048775999999999,0,sub_5
0.0178095999999996,0.0104132000000012,-0.0532444,-0.0161607999999994,0.0798982000000006,-0.0065819999999999,0,sub_5
0.0163021999999996,0.0104908000000012,-0.0525498,-0.0153179999999994,0.0762784000000006,-0.0078531999999999,0,sub_5
0.0165143999999996,0.0104272000000012,-0.053599,-0.0153429999999994,0.0690416000000006,-0.0095533999999999,0,sub_5
0.0181967999999996,0.0111718000000012,-0.0545094,-0.0151717999999994,0.0581812000000006,-0.0110338,0,sub_5
0.0207009999999996,0.0114792000000012,-0.0550296,-0.0163045999999994,0.0466392000000006,-0.011642,0,sub_5
0.0216869999999996,0.0109796000000012,-0.0546084,-0.0163609999999994,0.0384974000000006,-0.0109652,0,sub_5
0.0230025999999996,0.0107322000000012,-0.0550672,-0.0170315999999994,0.0358978000000006,-0.0105136,0,sub_5
0.0246467999999996,0.0109490000000012,-0.055967,-0.0172831999999994,0.0315924000000006,-0.0100566,0,sub_5
0.0252457999999996,0.0106494000000012,-0.0564456,-0.0177481999999994,0.0270756000000006,-0.0098146,0,sub_5
0.0262965999999995,0.0104702000000012,-0.0567764,-0.0166947999999994,0.0240892000000006,-0.0098034,0,sub_5
0.0269485999999996,0.0108982000000012,-0.056465,-0.0152185999999994,0.0204612000000006,-0.0095748,0,sub_5
0.0267879999999996,0.0111808000000012,-0.05639,-0.0131067999999994,0.0164024000000007,-0.0087002,0,sub_5
0.0257091999999996,0.0110330000000012,-0.0547206,-0.0123009999999994,0.0144312000000007,-0.0063172,0,sub_5
0.0249609999999996,0.0104528000000012,-0.0540502,-0.0114923999999994,0.0128868000000007,-0.0041484,0,sub_5
0.0238707999999996,0.0099642000000012,-0.0527418,-0.0085451999999994,0.0111270000000007,-0.0032462,0,sub_5
0.0229047999999996,0.0096184000000012,-0.0517442,-0.0079507999999994,0.0080972000000007,-0.002359,0,sub_5
0.0226881999999996,0.0095960000000012,-0.0506528,-0.0075765999999994,0.0040012000000007,-0.0010446,0,sub_5
0.0214339999999996,0.0093580000000012,-0.0502806,-0.0046113999999994,-0.0002729999999992,-0.0003776,0,sub_5
0.0195007999999996,0.0095856000000012,-0.0490106,-0.0007925999999994,-0.0045499999999992,0.0002955999999999,0,sub_5
0.0177483999999996,0.0095048000000012,-0.0497554,0.0008894000000005,-0.0092463999999992,0.0011679999999999,0,sub_5
0.0168885999999996,0.0091468000000012,-0.049422,0.0027612000000005,-0.0129279999999992,0.0007779999999999,0,sub_5
0.0161845999999996,0.0088018000000012,-0.0490986,0.0037940000000005,-0.0146841999999992,-0.0009024,0,sub_5
0.0150853999999996,0.0095596000000012,-0.0492134,0.0039646000000005,-0.0177181999999992,-0.0019462,0,sub_5
0.0148357999999995,0.0100370000000012,-0.0497528,0.0020130000000005,-0.0186125999999992,-0.003435,0,sub_5
0.0144735999999995,0.0100618000000012,-0.049288,0.0002634000000005,-0.0214277999999992,-0.004279,0,sub_5
0.0141819999999995,0.0097566000000012,-0.0498962,0.0011046000000005,-0.0246249999999992,-0.0046964,0,sub_5
0.0136023999999995,0.0098774000000012,-0.0502368,0.0030038000000005,-0.0282577999999992,-0.0036102,0,sub_5
0.0142745999999995,0.0100462000000012,-0.049827,0.0038478000000005,-0.0303911999999992,-0.0036016,0,sub_5
0.0151263999999996,0.0097884000000012,-0.0501592,0.0036162000000005,-0.0313349999999992,-0.0037966,0,sub_5
0.0158167999999996,0.0093738000000012,-0.0499922,0.0040236000000005,-0.0316451999999992,-0.0031334,0,sub_5
0.0154881999999996,0.0099818000000012,-0.0503904,0.0027260000000005,-0.0313111999999993,-0.0022694,0,sub_5
0.0143863999999996,0.0099476000000012,-0.0496442,0.0010046000000005,-0.0313975999999992,-0.002476,0,sub_5
0.0146357999999996,0.0089852000000011,-0.0505486,0.0005606000000005,-0.0325519999999992,-0.0030996,0,sub_5
0.0152641999999996,0.0092220000000011,-0.0501778,0.0016236000000005,-0.0338321999999992,-0.0035177999999999,0,sub_5
0.0161643999999996,0.0102028000000011,-0.0505026,0.0009902000000005,-0.0329751999999992,-0.0041642,0,sub_5
0.0173823999999996,0.0095784000000011,-0.0495526,0.0006028000000005,-0.0306041999999992,-0.0056368,0,sub_5
0.0197723999999996,0.0091038000000012,-0.049763,0.0006412000000005,-0.0278111999999992,-0.0064659999999999,0,sub_5
0.0204637999999996,0.0090076000000012,-0.0490772,3.560000000054398e-05,-0.0241705999999992,-0.0055915999999999,0,sub_5
0.0213189999999996,0.0092284000000012,-0.050119,-0.0009977999999994,-0.0207415999999992,-0.00472,0,sub_5
0.0221201999999996,0.0091904000000012,-0.0510222,-0.0001077999999994,-0.0177411999999992,-0.0049026,0,sub_5
0.0231927999999996,0.0100630000000012,-0.0528256,0.0005352000000005,-0.0162553999999992,-0.0040453999999999,0,sub_5
0.0228793999999996,0.0106786000000012,-0.0535948,0.0007514000000005,-0.0149803999999992,-0.0034046,0,sub_5
0.0231141999999996,0.0107982000000012,-0.054521,0.0005582000000005,-0.0105055999999992,-0.0034116,0,sub_5
0.0210429999999996,0.0105914000000012,-0.0539342,0.0012554000000005,-0.0077111999999992,-0.0025182,0,sub_5
0.0174693999999996,0.0106024000000012,-0.0538654,0.0006752000000005,-0.0036365999999992,-0.0009946,0,sub_5
0.0150239999999996,0.0104644000000012,-0.052548,0.0009618000000005,0.0027810000000007,-0.0001088,0,sub_5
0.0106129999999996,0.0087900000000012,-0.0517914,0.0001758000000005,0.0100462000000007,0.0029049999999999,0,sub_5
0.0038881999999996,0.0056396000000012,-0.047504,0.0029892000000005,0.0123934000000007,0.0072319999999999,0,sub_5
0.0001443999999996,0.0028428000000012,-0.0440228,0.0083062000000005,0.0098130000000007,0.0085541999999999,0,sub_5
0.0026267999999996,0.0032958000000012,-0.0383378,0.0155166000000005,0.0014726000000007,0.0101107999999999,0,sub_5
0.0072175999999996,0.0035140000000012,-0.0342378,0.0237874000000005,-0.0060285999999992,0.0140237999999999,0,sub_5
0.0158613999999996,0.0029632000000012,-0.0306014,0.0331394000000005,-0.0090645999999992,0.0192203999999999,0,sub_5
0.0266939999999996,0.0056886000000012,-0.0304484,0.0398010000000005,-0.0032591999999992,0.0237739999999999,0,sub_5
0.0355121999999996,0.0088168000000012,-0.0333458,0.0422566000000005,0.0161966000000007,0.0282807999999999,0,sub_5
0.0385117999999996,0.0090186000000012,-0.0392564,0.0413308000000005,0.0414228000000007,0.0312609999999999,0,sub_5
0.0379341999999996,0.0106618000000012,-0.0488382,0.0344296000000005,0.0617884000000007,0.0295055999999999,0,sub_5
0.0375287999999996,0.0148592000000012,-0.0603884,0.0232438000000005,0.0730290000000007,0.0223907999999999,0,sub_5
0.0380039999999996,0.0180790000000012,-0.0703434,0.0094302000000005,0.0750368000000007,0.0118231999999999,0,sub_5
0.0416697999999996,0.0185832000000012,-0.0794364,-0.0050493999999994,0.0719308000000007,0.0018983999999999,0,sub_5
0.0463407999999996,0.0193936000000012,-0.0868184,-0.0167645999999994,0.0681700000000007,-0.0065106,0,sub_5
0.0518647999999996,0.0203478000000012,-0.0897892,-0.0252373999999994,0.0716070000000007,-0.012104,0,sub_5
0.0546783999999995,0.0208618000000012,-0.089486,-0.0300789999999994,0.0784298000000007,-0.0151126,0,sub_5
0.0523413999999996,0.0195960000000012,-0.0888964,-0.0325705999999994,0.0892788000000007,-0.0146918,0,sub_5
0.0448727999999995,0.0190298000000012,-0.0873252,-0.0333773999999994,0.0960706000000007,-0.0133992,0,sub_5
0.0367383999999996,0.0176806000000012,-0.0855056,-0.0342215999999994,0.0941290000000006,-0.0125232,0,sub_5
0.0274625999999996,0.0150700000000012,-0.0817384,-0.0327865999999994,0.0817640000000007,-0.0118563999999999,0,sub_5
0.0180765999999996,0.0130452000000012,-0.0740492,-0.0300809999999994,0.0662032000000006,-0.0122448,0,sub_5
0.0107051999999996,0.0123172000000012,-0.0675424,-0.0297299999999994,0.0461876000000006,-0.0154212,0,sub_5
0.0083153999999996,0.0110466000000012,-0.0607266,-0.0302413999999994,0.0221786000000006,-0.0181464,0,sub_5
0.0077501999999996,0.0099188000000012,-0.053722,-0.0307249999999994,0.0018016000000007,-0.0234396,0,sub_5
0.0127791999999996,0.0092422000000012,-0.0482718,-0.0322437999999994,-0.0128139999999992,-0.0300294,0,sub_5
0.0196009999999996,0.0086368000000012,-0.0473264,-0.0348005999999994,-0.0184879999999992,-0.0340742,0,sub_5
0.0273537999999996,0.0082188000000012,-0.0451526,-0.0356179999999994,-0.0118311999999992,-0.0329952,0,sub_5
0.0320283999999996,0.0077952000000012,-0.0430336,-0.0342753999999994,0.0056202000000007,-0.0293762,0,sub_5
0.0348589999999996,0.0070654000000012,-0.0417106,-0.0307989999999994,0.0260350000000007,-0.0227552,0,sub_5
0.0350757999999995,0.0066104000000012,-0.0400232,-0.0253937999999994,0.0494214000000007,-0.0150562,0,sub_5
0.0354343999999996,0.0055568000000012,-0.0379808,-0.0195475999999994,0.0713934000000007,-0.010748,0,sub_5
0.0358655999999996,0.0049992000000012,-0.0379596,-0.0132821999999994,0.0893250000000007,-0.0087818,0,sub_5
0.0360395999999996,0.0060212000000012,-0.0362608,-0.0070323999999994,0.1038478000000007,-0.0068114,0,sub_5
0.0324107999999996,0.0065020000000012,-0.0350032,-0.0035641999999994,0.1187978000000006,-0.0027244,0,sub_5
0.0247527999999996,0.0055276000000012,-0.0359222,-0.0026877999999994,0.1256652000000007,0.0002865999999999,0,sub_5
0.0154489999999996,0.0065528000000012,-0.037321,-0.0005867999999994,0.1207480000000006,0.0026575999999999,0,sub_5
0.0088303999999996,0.0067698000000012,-0.040101,0.0014720000000005,0.1032736000000007,0.0018397999999999,0,sub_5
0.0032335999999996,0.0055418000000012,-0.0446922,0.0032928000000005,0.0789874000000006,-0.0002527999999999,0,sub_5
0.0021487999999996,0.0059334000000012,-0.0495108,0.0082570000000005,0.0493996000000007,-0.0036131999999999,0,sub_5
0.0019899999999996,0.0073210000000012,-0.0567364,0.0102204000000005,0.0198104000000007,-0.0040035999999999,0,sub_5
0.0101215999999996,0.0074328000000012,-0.064324,0.0094456000000005,-0.0027349999999992,-0.0052765999999999,0,sub_5
0.0172821999999996,0.0081236000000012,-0.0686462,0.0087148000000005,-0.0154799999999992,-0.0065619999999999,0,sub_5
0.0240435999999996,0.0138370000000012,-0.0724818,0.0073888000000005,-0.0192701999999992,-0.0089312,0,sub_5
0.0279513999999996,0.0165792000000012,-0.0754788,0.0018690000000005,-0.0147697999999992,-0.0106848,0,sub_5
0.0341467999999996,0.0160344000000012,-0.0744788,0.0008616000000005,-0.0036787999999992,-0.0128424,0,sub_5
0.0317623999999996,0.0139590000000012,-0.0714922,0.0040612000000005,0.0068390000000007,-0.010726,0,sub_5
0.0278735999999996,0.0125624000000012,-0.0676278,0.0095726000000005,0.0124366000000007,-0.005596,0,sub_5
0.0239587999999996,0.0079882000000012,-0.0611148,0.0156906000000005,0.0099382000000007,-0.0010922,0,sub_5
0.0227041999999996,0.0057152000000012,-0.0542514,0.0220064000000005,0.0023328000000007,0.0017101999999999,0,sub_5
0.0201801999999996,0.0063684000000012,-0.0486546,0.0261742000000005,-0.0084609999999992,0.0045015999999999,0,sub_5
0.0190945999999996,0.0075482000000012,-0.0447698,0.0282418000000005,-0.0201981999999992,0.0075221999999999,0,sub_5
0.0199789999999996,0.0078080000000012,-0.0440982,0.0281928000000005,-0.0285175999999992,0.0100961999999999,0,sub_5
0.0211643999999996,0.0084912000000012,-0.044942,0.0269058000000005,-0.0287311999999992,0.0113691999999999,0,sub_5
0.0221313999999996,0.0096910000000012,-0.0463412,0.0256544000000005,-0.0223351999999992,0.0113523999999999,0,sub_5
0.0227607999999996,0.0107144000000012,-0.0474164,0.0227626000000005,-0.0118741999999992,0.0098367999999999,0,sub_5
0.0236411999999996,0.0120076000000012,-0.049533,0.0166914000000005,0.0024362000000007,0.0074393999999999,0,sub_5
0.0223487999999996,0.0121142000000012,-0.0501334,0.0118996000000005,0.0165292000000007,0.0050511999999999,0,sub_5
0.0197311999999996,0.0122968000000012,-0.0495678,0.0096546000000005,0.0274182000000007,0.0024711999999999,0,sub_5
0.0174021999999996,0.0113018000000012,-0.0520274,0.0078124000000005,0.0325552000000007,-0.000526,0,sub_5
0.0156355999999996,0.0096226000000012,-0.0531428,0.0095012000000005,0.0276524000000007,-0.0013626,0,sub_5
0.0136719999999996,0.0087766000000012,-0.0516702,0.0139408000000005,0.0174144000000007,-0.0023868,0,sub_5
0.0143627999999996,0.0092872000000012,-0.050678,0.0168714000000005,0.0037728000000007,-0.003417,0,sub_5
0.0170955999999996,0.0083066000000012,-0.0511636,0.0183662000000005,-0.0139133999999992,-0.0016182,0,sub_5
0.0190813999999996,0.0074132000000012,-0.0492634,0.0198630000000005,-0.0313857999999992,-3.340000000003375e-05,0,sub_5
0.0203607999999996,0.0073972000000012,-0.0495676,0.0216058000000005,-0.0443737999999992,-0.00123,0,sub_5
0.0215151999999996,0.0088622000000012,-0.0515146,0.0235464000000005,-0.0611955999999992,-0.0028476,0,sub_5
0.0208827999999996,0.0105578000000012,-0.052548,0.0246556000000005,-0.0743875999999992,-0.0057575999999999,0,sub_5
0.0215197999999996,0.0099640000000012,-0.0540272,0.0227036000000005,-0.0845945999999992,-0.0089629999999999,0,sub_5
0.0227649999999996,0.0099320000000012,-0.0547198,0.0224490000000005,-0.0946039999999992,-0.0098065999999999,0,sub_5
0.0239581999999996,0.0111560000000012,-0.0542618,0.0220550000000005,-0.1019487999999992,-0.010398,0,sub_5
0.0248323999999996,0.0098058000000012,-0.0532236,0.0212688000000005,-0.1020467999999992,-0.0114286,0,sub_5
0.0259657999999996,0.0080324000000012,-0.0545143999999999,0.0209074000000005,-0.1012989999999992,-0.0111756,0,sub_5
0.0260599999999996,0.0103496000000012,-0.0547274,0.0235428000000005,-0.0992799999999992,-0.0117576,0,sub_5
0.0261681999999996,0.0119926000000012,-0.0563104,0.0232062000000005,-0.0942659999999993,-0.0127916,0,sub_5
0.0271643999999996,0.0113646000000012,-0.0583726,0.0217518000000005,-0.0863743999999992,-0.0136664,0,sub_5
0.0293853999999996,0.0121978000000012,-0.0614134,0.0196536000000005,-0.0789083999999992,-0.014118,0,sub_5
0.0305449999999996,0.0134044000000012,-0.0628238,0.0173392000000005,-0.0718685999999993,-0.0143568,0,sub_5
0.0293825999999996,0.0121364000000012,-0.0652502,0.0135254000000005,-0.0652531999999992,-0.013751,0,sub_5
0.0271023999999996,0.0114810000000012,-0.064727,0.0122758000000005,-0.0624865999999992,-0.0122232,0,sub_5
0.0248417999999995,0.0120544000000012,-0.0629908,0.0116376000000005,-0.0652649999999992,-0.0098296,0,sub_5
0.0222707999999995,0.0115046000000012,-0.0611258,0.0118624000000005,-0.0665523999999992,-0.0080728,0,sub_5
0.0214651999999995,0.0102326000000012,-0.0596002,0.0127292000000005,-0.0678403999999992,-0.0067388,0,sub_5
0.0225073999999996,0.0096262000000012,-0.0582364,0.0155212000000005,-0.0684941999999992,-0.0058194,0,sub_5
0.0236005999999996,0.0103522000000012,-0.0569804,0.0165976000000005,-0.0663673999999992,-0.0058146,0,sub_5
0.0255373999999996,0.0104862000000012,-0.0577134,0.0161958000000005,-0.0606143999999992,-0.0056112,0,sub_5
0.0271267999999996,0.0103992000000012,-0.0581334,0.0153596000000005,-0.0552909999999992,-0.0041284,0,sub_5
0.0272051999999996,0.0107754000000012,-0.0578756,0.0147434000000005,-0.0491135999999992,-0.003286,0,sub_5
0.0269593999999996,0.0111866000000012,-0.0569708,0.0126026000000005,-0.0441081999999992,-0.0039326,0,sub_5
0.0275033999999996,0.0104788000000012,-0.0575764,0.0104550000000005,-0.0405941999999992,-0.0045774,0,sub_5
0.0264469999999996,0.0105406000000012,-0.056332,0.0095752000000005,-0.0394297999999992,-0.0047828,0,sub_5
0.0248319999999996,0.0103842000000012,-0.0551628,0.0095526000000005,-0.0380527999999992,-0.0056234,0,sub_5
0.0241277999999996,0.0094440000000012,-0.0554938,0.0108066000000005,-0.0373203999999992,-0.0062408,0,sub_5
0.0222921999999996,0.0095742000000012,-0.0563402,0.0144166000000005,-0.0392581999999992,-0.0042904,0,sub_5
