userAcceleration.x,userAcceleration.y,userAcceleration.z,rotationRate.x,rotationRate.y,rotationRate.z,label,subject
-0.0063414000000003,0.0015336000000012,0.0104361999999999,0.0076416000000005,-0.0429939999999993,0.0006773999999999,0,sub_10
-0.0089906000000003,-2.579999999870377e-05,0.0113425999999999,0.0088754000000005,-0.0447227999999993,0.0014757999999999,0,sub_10
-0.0115708000000003,-0.0015853999999987,0.0128867999999999,0.0088328000000005,-0.0468679999999993,0.0009837999999999,0,sub_10
-0.0117204000000004,-0.0023891999999987,0.0128837999999999,0.0071072000000004,-0.0441051999999993,4.6599999999955705e-05,0,sub_10
-0.0111088000000004,-0.0028225999999987,0.0124703999999999,0.0043120000000004,-0.0411291999999993,-4.380000000004429e-05,0,sub_10
-0.0096612000000004,-0.0014655999999987,0.0120033999999999,0.0007010000000004,-0.0387677999999993,-0.0013538,0,sub_10
-0.0081228000000004,-0.0003895999999987,0.0122979999999999,-0.0029059999999995,-0.0347053999999994,-0.0018114,0,sub_10
-0.0068956000000004,0.0014472000000012,0.0112651999999999,-0.0045679999999995,-0.0320655999999994,-0.0003976,0,sub_10
-0.0079796000000004,0.0032502000000012,0.0097037999999999,-0.0041079999999995,-0.0315655999999994,0.0014609999999999,0,sub_10
-0.0078746000000004,0.0038328000000012,0.0092801999999999,-0.0042669999999995,-0.0276491999999993,0.0020289999999999,0,sub_10
-0.0084314000000004,0.0026468000000012,0.0092393999999999,-0.0041981999999995,-0.0201133999999994,0.0030211999999999,0,sub_10
-0.0095222000000004,0.0027036000000012,0.0087175999999999,0.0007580000000004,-0.0170689999999994,0.0040531999999999,0,sub_10
-0.0081972000000004,0.0027942000000012,0.0076695999999999,0.0050226000000005,-0.0151765999999994,0.0066441999999999,0,sub_10
-0.0055710000000004,0.0031900000000012,0.0083669999999999,0.0075726000000005,-0.0124361999999993,0.0117859999999999,0,sub_10
-0.0054290000000004,0.0040258000000012,0.0092905999999998,0.0111780000000004,-0.0107709999999993,0.0184319999999999,0,sub_10
-0.0056600000000004,0.0044468000000013,0.0099375999999999,0.0148518000000004,-0.0130289999999993,0.0248177999999999,0,sub_10
-0.0073148000000004,0.0034264000000013,0.0104549999999999,0.0149212000000005,-0.0139805999999993,0.0273311999999999,0,sub_10
-0.0089738000000004,0.0004304000000013,0.0113565999999998,0.0135256000000004,-0.0140527999999993,0.0242783999999999,0,sub_10
-0.0105302000000003,-0.0014269999999986,0.0127995999999998,0.0108682000000005,-0.0132555999999993,0.0180109999999999,0,sub_10
-0.0118362000000003,-0.0022251999999986,0.0131943999999999,0.0077830000000005,-0.0128819999999994,0.0115275999999999,0,sub_10
-0.0116226000000003,-0.0020265999999987,0.0132633999999999,0.0056770000000004,-0.0130619999999994,0.0051037999999999,0,sub_10
-0.0093346000000003,-0.0013327999999987,0.0135945999999998,0.0024956000000005,-0.0117605999999994,0.0020889999999999,0,sub_10
-0.0082654000000003,0.0006870000000012,0.0131967999999999,-0.0002647999999994,-0.0089803999999994,0.0018525999999999,0,sub_10
-0.0081160000000003,0.0007388000000012,0.0123431999999999,-0.0026033999999994,-0.0074789999999994,0.0014069999999999,0,sub_10
-0.0071742000000003,0.0012038000000012,0.0106817999999999,-0.0048313999999994,-0.0071001999999993,-0.0009798,0,sub_10
-0.0072442000000003,0.0013154000000012,0.0096339999999999,-0.0070489999999994,-0.0050145999999994,-0.0040096,0,sub_10
-0.0070136000000003,0.0019970000000012,0.0081837999999999,-0.0075633999999994,-0.0029381999999993,-0.006173,0,sub_10
-0.0071080000000003,0.0021786000000012,0.0077537999999999,-0.0072347999999994,-0.0021473999999993,-0.0072606,0,sub_10
-0.0056458000000004,0.0029734000000012,0.0070219999999999,-0.0069137999999994,-0.0013633999999993,-0.006639,0,sub_10
-0.0050010000000004,0.0033044000000012,0.0062783999999999,-0.0073339999999994,0.0018270000000006,-0.0049368,0,sub_10
-0.0043738000000004,0.0034800000000012,0.0060203999999999,-0.0069109999999994,0.0033076000000006,-0.0025858,0,sub_10
-0.0049932000000004,0.0028250000000012,0.0051985999999999,-0.0049329999999995,0.0018954000000006,-0.0017286,0,sub_10
-0.0049658000000004,0.0021336000000012,0.0052745999999999,-0.0033749999999995,0.0015518000000005,-0.0013028,0,sub_10
-0.0053106000000004,0.0026232000000012,0.0054997999999999,-0.0024561999999995,0.0024844000000005,0.0001849999999999,0,sub_10
-0.0058778000000004,0.0031382000000012,0.0050885999999999,-0.0009085999999995,0.0017070000000005,0.0025339999999999,0,sub_10
-0.0054584000000004,0.0027146000000012,0.0053203999999999,0.0008532000000004,0.0015662000000005,0.0053109999999999,0,sub_10
-0.0054218000000004,0.0024998000000012,0.0059623999999999,0.0010600000000004,0.0013472000000005,0.0065945999999999,0,sub_10
-0.0057134000000004,0.0027794000000012,0.0062865999999999,0.0006304000000004,0.0004972000000005,0.0063789999999999,0,sub_10
-0.0054236000000004,0.0020084000000012,0.0065873999999999,0.0002056000000004,7.580000000059813e-05,0.0055219999999999,0,sub_10
-0.0051560000000003,0.0010248000000012,0.0080875999999999,0.0008872000000004,-0.0005627999999994,0.0048793999999999,0,sub_10
-0.0053984000000003,0.0020422000000012,0.0081461999999999,0.0015594000000004,-0.0046049999999994,0.0029591999999999,0,sub_10
-0.0047186000000003,0.0024704000000012,0.0088573999999998,0.0001044000000004,-0.0062993999999994,0.0018757999999999,0,sub_10
-0.0030930000000003,0.0029154000000012,0.0090087999999998,-0.0013447999999995,-0.0050179999999994,0.0024975999999999,0,sub_10
-0.0041286000000003,0.0031410000000012,0.0095457999999999,-0.0015185999999994,-0.0043817999999994,0.0035565999999999,0,sub_10
-0.0047484000000003,0.0033126000000012,0.0092151999999999,-0.0013109999999994,-0.0060851999999994,0.0031327999999999,0,sub_10
-0.0059108000000003,0.0024502000000012,0.0087121999999999,-0.0013071999999994,-0.0060817999999994,0.0022781999999999,0,sub_10
-0.0054334000000003,0.0024760000000012,0.0082047999999999,-0.0004497999999994,-0.0060813999999993,0.0014295999999999,0,sub_10
-0.0056018000000003,0.0021500000000012,0.0086793999999999,0.0008314000000005,-0.0065093999999993,0.0007981999999999,0,sub_10
-0.0057502000000003,0.0015850000000012,0.0081757999999999,0.0010540000000005,-0.0075305999999993,0.0001277999999999,0,sub_10
-0.0060502000000004,0.0017054000000012,0.0078745999999999,-0.0002091999999994,-0.0070541999999993,-0.0007684,0,sub_10
-0.0054018000000004,0.0030598000000012,0.0080383999999999,-0.0023173999999995,-0.0038085999999993,-0.0008196,0,sub_10
-0.0066576000000004,0.0034178000000012,0.0071423999999999,-0.0027243999999994,-0.0012105999999994,-0.0002172,0,sub_10
-0.0077658000000004,0.0033986000000012,0.0062839999999999,-0.0020711999999995,-0.0005321999999994,-3.220000000004261e-05,0,sub_10
-0.0085158000000004,0.0032444000000012,0.0066375999999999,-0.0005755999999995,-0.0011721999999994,-0.0010892,0,sub_10
-0.0081834000000004,0.0027262000000012,0.0070761999999999,-0.0005621999999995,0.0007496000000005,-0.0021598,0,sub_10
-0.0079374000000003,0.0013304000000012,0.0065697999999999,-0.0005501999999995,0.0022988000000005,-0.003264,0,sub_10
-0.0068204000000003,0.0012022000000012,0.0072679999999999,-0.0026767999999995,0.0034268000000006,-0.0037418,0,sub_10
-0.0059820000000003,0.0013770000000012,0.0084857999999999,-0.0052317999999994,0.0034936000000006,-0.0048622,0,sub_10
-0.0057616000000003,0.0013472000000012,0.0086005999999999,-0.0079867999999994,0.0056950000000006,-0.0068414,0,sub_10
-0.0061886000000003,0.0019208000000012,0.0076505999999999,-0.0086177999999994,0.0057584000000006,-0.008803,0,sub_10
-0.0052580000000004,0.0021720000000012,0.0064687999999999,-0.0098845999999994,0.0081090000000006,-0.0094557999999999,0,sub_10
-0.0038818000000004,0.0024424000000012,0.0066383999999999,-0.0096663999999994,0.0110832000000005,-0.0075351999999999,0,sub_10
-0.0025066000000004,0.0015280000000012,0.0061751999999999,-0.0049875999999994,0.0108410000000006,-0.0042976,0,sub_10
-0.0028606000000004,0.0012114000000012,0.0067717999999999,-0.0013851999999994,0.0061676000000005,-0.0010778,0,sub_10
-0.0024674000000003,0.0003340000000012,0.0068913999999999,0.0035004000000005,0.0004312000000005,0.0004431999999999,0,sub_10
-0.0032282000000003,0.0011506000000012,0.0062991999999999,0.0071172000000005,-0.0046537999999994,3.159999999995701e-05,0,sub_10
-0.0038562000000003,0.0011256000000012,0.0052813999999999,0.0099054000000005,-0.0058941999999994,-0.0021,0,sub_10
-0.0045420000000003,0.0021622000000012,0.0056099999999999,0.0086452000000005,-0.0045687999999994,-0.0029812,0,sub_10
-0.0034434000000003,0.0020926000000012,0.0064887999999999,0.0101320000000004,-0.0067019999999994,-0.003609,0,sub_10
-0.0039388000000004,0.0024104000000012,0.0071705999999999,0.0107606000000004,-0.0098973999999994,-0.0042416,0,sub_10
-0.0039886000000004,0.0026590000000012,0.0074493999999999,0.0118208000000004,-0.0120291999999993,-0.0048724,0,sub_10
-0.0030954000000004,0.0032484000000012,0.0073017999999999,0.0113932000000004,-0.0124527999999993,-0.0050884,0,sub_10
-0.0023460000000004,0.0036560000000012,0.0071195999999999,0.0101342000000004,-0.0094381999999993,-0.0053341999999999,0,sub_10
-0.0028644000000004,0.0039318000000012,0.0064885999999999,0.0080264000000004,-0.0045065999999994,-0.0047338,0,sub_10
-0.0036216000000004,0.0033236000000012,0.0069683999999999,0.0041982000000004,-0.0025517999999994,-0.0041416,0,sub_10
-0.0038082000000004,0.0023888000000012,0.0078485999999999,0.0016416000000004,-0.0035797999999994,-0.004605,0,sub_10
-0.0046218000000004,0.0028640000000012,0.0073119999999999,0.0001624000000004,-0.0041777999999994,-0.0069842,0,sub_10
-0.0056392000000004,0.0025340000000012,0.0065703999999999,-0.0013177999999994,-0.0041605999999994,-0.0099856,0,sub_10
-0.0050040000000004,0.0019652000000013,0.0065221999999999,-0.0025759999999994,-0.0024387999999994,-0.0132014,0,sub_10
-0.0047346000000004,0.0018942000000013,0.0058797999999999,-0.0029765999999994,0.0001554000000005,-0.0151464,0,sub_10
-0.0051796000000004,0.0015148000000013,0.0048739999999999,-0.0040297999999994,0.0004066000000005,-0.0166656,0,sub_10
-0.0052024000000004,0.0004572000000013,0.0048363999999999,-0.0053097999999994,-0.0012631999999993,-0.0171158,0,sub_10
-0.0050648000000004,0.0004084000000013,0.0039599999999999,-0.0053093999999994,-0.0029375999999993,-0.0175568,0,sub_10
-0.0041914000000004,0.0015150000000012,0.0026419999999999,-0.0051003999999994,-0.0046169999999993,-0.0169282,0,sub_10
-0.0025278000000004,0.0023938000000012,0.0017933999999999,-0.0048927999999994,-0.0046227999999993,-0.0156448,0,sub_10
-0.0009284000000004,0.0028544000000012,0.0029551999999999,-0.0044813999999995,-0.0042135999999993,-0.0117968,0,sub_10
-0.0006072000000004,0.0025638000000012,0.0039985999999999,-0.0025925999999995,-0.0061583999999993,-0.0066536,0,sub_10
-0.0012704000000004,0.0022948000000012,0.0041569999999999,0.0007882000000004,-0.0110679999999993,-0.0023566,0,sub_10
-0.0020496000000004,0.0015162000000012,0.0029807999999999,0.0043920000000004,-0.0157577999999993,1.8999999999937165e-05,0,sub_10
-0.0026858000000004,0.0011874000000012,0.0027361999999999,0.0073654000000004,-0.0181025999999993,0.0026007999999999,0,sub_10
-0.0034264000000004,0.0006076000000012,0.0031659999999999,0.0095034000000004,-0.0163963999999993,0.0051715999999999,0,sub_10
-0.0044350000000004,0.0001498000000012,0.0037429999999999,0.0103612000000004,-0.0155343999999993,0.0068799999999999,0,sub_10
-0.0044066000000004,-0.0004453999999987,0.0057673999999999,0.0090656000000004,-0.0183021999999994,0.0075153999999999,0,sub_10
-0.0054344000000004,-8.599999999870351e-05,0.0073765999999999,0.0079892000000004,-0.0206411999999993,0.0072971999999999,0,sub_10
-0.0064684000000004,0.0001804000000012,0.0077439999999999,0.0082026000000004,-0.0219151999999993,0.0060185999999999,0,sub_10
-0.0067774000000004,0.0006992000000012,0.0064993999999999,0.0086390000000004,-0.0236057999999993,0.0021781999999999,0,sub_10
-0.0055556000000004,0.0018694000000012,0.0074085999999999,0.0065450000000004,-0.0210271999999993,-0.0012508,0,sub_10
-0.0046432000000004,0.0031254000000012,0.0075629999999999,0.0042462000000004,-0.0141959999999993,-0.0023366,0,sub_10
-0.0033158000000004,0.0035570000000012,0.0087793999999999,0.0004268000000004,-0.0114151999999993,-0.001505,0,sub_10
-0.0026582000000003,0.0026036000000012,0.0086123999999998,-0.0038231999999995,-0.0107583999999993,-0.0019558,0,sub_10
-0.0023626000000003,0.0027368000000012,0.0076893999999998,-0.0063593999999995,-0.0081917999999993,-0.0019696,0,sub_10
-0.0030574000000003,0.0029072000000012,0.0048685999999999,-0.0059297999999995,-0.0069173999999993,-0.0013274,0,sub_10
-0.0033568000000003,0.0025202000000012,0.0043561999999999,-0.0057173999999994,-0.0067067999999994,-0.0008988,0,sub_10
-0.0036616000000003,0.0022980000000012,0.0041731999999999,-0.0063487999999994,-0.0045749999999994,-0.0006924,0,sub_10
-0.0039460000000003,0.0021310000000012,0.0049217999999999,-0.0059345999999994,-0.0047753999999994,-0.0004628,0,sub_10
-0.0053684000000003,0.0015108000000012,0.0049365999999999,-0.0063825999999994,-0.0066779999999994,-2.3400000000063127e-05,0,sub_10
-0.0063536000000004,0.0015216000000012,0.0039043999999999,-0.0057531999999994,-0.0075139999999994,-0.0008596,0,sub_10
-0.0047010000000004,0.0018108000000013,0.0024843999999999,-0.0057581999999994,-0.0064329999999994,-0.001062,0,sub_10
-0.0026514000000004,0.0016452000000013,0.0024831999999999,-0.0046963999999994,-0.0038701999999994,0.0002367999999999,0,sub_10
-0.0019688000000004,0.0028708000000013,0.0030463999999999,-0.0023501999999994,-0.0028181999999994,0.0015337999999999,0,sub_10
-0.0014806000000004,0.0039840000000012,0.0029337999999999,0.0010628000000005,-0.0055895999999994,-0.0010026,0,sub_10
-3.8800000000391866e-05,0.0045520000000012,0.0025367999999999,0.0032212000000005,-0.0053393999999994,-0.0077922,0,sub_10
0.0012723999999996,0.0058042000000012,0.0012837999999999,0.0043418000000004,-0.0001791999999994,-0.0160906,0,sub_10
0.0041359999999996,0.0084618000000012,0.0005149999999999,0.0045944000000005,0.0032736000000005,-0.0228974,0,sub_10
0.0098915999999996,0.0100260000000012,0.0010465999999999,0.0037330000000004,0.0032932000000006,-0.0226574,0,sub_10
0.0133557999999995,0.0104396000000012,0.0022499999999999,0.0036504000000004,-0.0046081999999994,-0.0136424,0,sub_10
0.0150045999999995,0.0094214000000012,0.0028951999999999,0.0037354000000004,-0.0195771999999994,5.059999999993889e-05,0,sub_10
0.0127593999999995,0.0078788000000012,0.0018125999999999,0.0059444000000004,-0.0373207999999994,0.0131209999999999,0,sub_10
0.0085121999999995,0.0050030000000012,0.0011275999999999,0.0109562000000004,-0.0535631999999994,0.0212951999999999,0,sub_10
0.0031671999999995,0.0029950000000012,0.0002425999999999,0.0174988000000004,-0.0678677999999994,0.0230683999999999,0,sub_10
0.0015177999999995,0.0021084000000012,1.979999999993116e-05,0.0234186000000005,-0.0817001999999994,0.0208181999999999,0,sub_10
6.139999999958784e-05,0.0026658000000012,0.0009821999999999,0.0327486000000005,-0.0978821999999993,0.0170993999999999,0,sub_10
-0.0005310000000004,0.0040394000000012,0.0023613999999999,0.0393220000000005,-0.1087339999999994,0.0148499999999999,0,sub_10
-0.0017040000000004,0.0044784000000012,0.0019677999999999,0.0446112000000004,-0.1180991999999994,0.0149397999999999,0,sub_10
-0.0026312000000004,0.0048366000000012,0.0032157999999999,0.0467250000000005,-0.1212773999999994,0.0156403999999999,0,sub_10
-0.0051756000000004,0.0045096000000012,0.0053741999999999,0.0484484000000004,-0.1189345999999994,0.0143675999999999,0,sub_10
-0.0077030000000004,0.0037496000000012,0.0057535999999999,0.0474188000000005,-0.1116827999999994,0.0132827999999999,0,sub_10
-0.0093196000000004,0.0023760000000012,0.0064425999999999,0.0478714000000004,-0.1078417999999993,0.0113581999999999,0,sub_10
-0.0091614000000004,0.0020542000000012,0.0071711999999999,0.0468244000000005,-0.1011703999999994,0.0098663999999999,0,sub_10
-0.0079444000000004,0.0011518000000012,0.0064879999999999,0.0455534000000005,-0.0970537999999993,0.0081625999999999,0,sub_10
-0.0062060000000004,0.0013462000000012,0.0063165999999999,0.0440672000000004,-0.0920893999999993,0.0077379999999999,0,sub_10
-0.0042138000000004,0.0010868000000012,0.0085801999999999,0.0434144000000005,-0.0920263999999994,0.0068983999999999,0,sub_10
-0.0021260000000003,0.0012012000000012,0.0106795999999999,0.0444320000000004,-0.0985799999999994,0.0075743999999999,0,sub_10
-0.0017072000000003,0.0013612000000012,0.0123491999999999,0.0448184000000004,-0.1056197999999993,0.0095089999999999,0,sub_10
-0.0032122000000003,0.0013994000000012,0.0135043999999999,0.0445744000000004,-0.1092537999999993,0.0127165999999999,0,sub_10
-0.0058310000000003,0.0007294000000012,0.0138379999999999,0.0439190000000004,-0.1092043999999993,0.0155047999999999,0,sub_10
-0.0089326000000003,0.0002828000000012,0.0133609999999999,0.0426532000000004,-0.1021237999999993,0.0187067999999999,0,sub_10
-0.0115386000000003,-0.0005443999999987,0.0125961999999999,0.0392748000000004,-0.0901361999999993,0.0221013999999999,0,sub_10
-0.0130888000000003,-0.0014291999999987,0.0130837999999999,0.0380178000000004,-0.0811379999999993,0.0253009999999999,0,sub_10
-0.0147026000000003,-0.0017907999999987,0.0137173999999999,0.0382522000000004,-0.0744807999999993,0.0265913999999999,0,sub_10
-0.0146778000000003,-0.0014767999999987,0.0147179999999999,0.0374246000000004,-0.0689375999999994,0.0263647999999999,0,sub_10
-0.0141386000000003,-0.0004907999999987,0.0148905999999999,0.0359646000000004,-0.0625363999999993,0.0252781999999999,0,sub_10
-0.0146526000000004,0.0002002000000012,0.0152847999999999,0.0349428000000004,-0.0546411999999993,0.0231245999999999,0,sub_10
-0.0150690000000003,0.0006010000000012,0.0152127999999999,0.0324368000000005,-0.0443979999999993,0.0211711999999999,0,sub_10
-0.0144434000000003,-0.0003369999999987,0.0172673999999999,0.0280040000000004,-0.0353833999999993,0.0196551999999999,0,sub_10
-0.0137528000000003,-0.0022537999999986,0.0172773999999999,0.0182588000000004,-0.0214497999999993,0.0180957999999999,0,sub_10
-0.0129904000000003,-0.0039435999999986,0.0168633999999999,0.0102014000000004,-0.0122077999999994,0.0161269999999999,0,sub_10
-0.0115306000000003,-0.0029307999999986,0.0164103999999998,0.0074698000000004,-0.0063871999999994,0.0127041999999999,0,sub_10
-0.0091354000000003,-0.0011309999999986,0.0158885999999999,0.0098448000000004,-0.0056901999999994,0.0074007999999999,0,sub_10
-0.0047910000000004,0.0014228000000012,0.0142295999999999,0.0134952000000004,-0.0039847999999994,0.0040057999999999,0,sub_10
-0.0028898000000004,0.0026096000000012,0.0151935999999999,0.0217976000000005,-0.0091237999999994,0.0032157999999999,0,sub_10
-0.0008286000000004,0.0024118000000012,0.0159625999999999,0.0236842000000005,-0.0107065999999994,0.0028049999999999,0,sub_10
0.0006725999999995,-0.0007183999999987,0.0163869999999999,0.0193914000000005,-0.0122601999999993,0.0004279999999999,0,sub_10
7.839999999958782e-05,-0.0026115999999987,0.0135037999999999,0.0102362000000005,-0.0056927999999994,-0.003916,0,sub_10
-0.0026174000000004,-0.0029893999999987,0.0083131999999999,0.0002476000000005,0.0042906000000005,-0.0093386,0,sub_10
-0.0027056000000004,-0.0018887999999987,0.0020481999999999,-0.0101695999999994,0.0144860000000005,-0.0141234,0,sub_10
-0.0012274000000004,0.0013538000000012,-0.0005768,-0.0177877999999994,0.0243304000000005,-0.0184622,0,sub_10
-0.0019890000000004,0.0036422000000012,-0.0046696,-0.0237161999999995,0.0345778000000005,-0.0185166,0,sub_10
-0.0020466000000004,0.0044954000000012,-0.0063604,-0.0247983999999995,0.0341434000000005,-0.0155326,0,sub_10
-0.0014570000000004,0.0072590000000012,-0.0087782,-0.0223773999999994,0.0337878000000005,-0.0102018,0,sub_10
-0.0017612000000004,0.0098734000000012,-0.0120876,-0.0199161999999994,0.0421682000000005,-0.0050956,0,sub_10
-0.0014574000000004,0.0095436000000012,-0.0148336,-0.0151413999999994,0.0447812000000005,0.0017431999999999,0,sub_10
-0.0002034000000004,0.0103094000000012,-0.0131574,-0.0084595999999994,0.0429194000000005,0.0071055999999999,0,sub_10
0.0009871999999995,0.0112490000000012,-0.011241,-0.0060145999999994,0.0455560000000006,0.0100825999999999,0,sub_10
0.0020471999999995,0.0090752000000012,-0.009042,-0.0100445999999994,0.0513210000000005,0.0104741999999999,0,sub_10
0.0030653999999995,0.0076780000000012,-0.006989,-0.0140965999999994,0.0519736000000006,0.0106585999999999,0,sub_10
0.0018775999999995,0.0065822000000012,-0.0056848,-0.0196183999999994,0.0573210000000006,0.0101857999999999,0,sub_10
0.0018673999999995,0.0054754000000012,-0.0063208,-0.0266231999999995,0.0639562000000006,0.0086327999999999,0,sub_10
0.0014233999999995,0.0040818000000012,-0.0049324,-0.0325273999999995,0.0686722000000006,0.0066161999999999,0,sub_10
-0.0008142000000004,0.0038936000000012,-0.0043334,-0.0288835999999995,0.0599382000000006,0.0031881999999999,0,sub_10
-0.0023854000000004,0.0038844000000012,-0.002183,-0.0186519999999995,0.0445790000000006,-0.0008262,0,sub_10
-0.0034410000000004,0.0024556000000012,-0.0009892,-0.0039719999999995,0.0242946000000006,-0.0024532,0,sub_10
-0.0046444000000003,6.86000000012961e-05,0.0033209999999999,0.0149456000000004,0.0014226000000006,1.1999999999957876e-05,0,sub_10
-0.0066464000000003,-0.0008061999999987,0.0066823999999999,0.0287344000000005,-0.0152489999999993,0.0014115999999999,0,sub_10
-0.0073782000000003,-0.0030367999999987,0.0104493999999999,0.0304088000000004,-0.0237719999999993,0.0001523999999999,0,sub_10
-0.0060018000000003,-0.0044349999999987,0.0116197999999999,0.0236284000000005,-0.0233203999999993,-0.004248,0,sub_10
-0.0049694000000003,-0.0025927999999987,0.0119029999999998,0.0100834000000004,-0.0123907999999994,-0.0123408,0,sub_10
-0.0031680000000004,-0.0002929999999987,0.0102839999999999,-0.0083327999999995,0.0032566000000005,-0.0238922,0,sub_10
-0.0005484000000004,0.0012312000000012,0.0072779999999999,-0.0208253999999995,0.0095012000000005,-0.0334672,0,sub_10
0.0024029999999995,0.0038878000000012,0.0049943999999999,-0.0265339999999995,0.0099534000000005,-0.0389282,0,sub_10
0.0035745999999995,0.0052848000000012,0.0034033999999999,-0.0256977999999995,0.0054788000000005,-0.0395574,0,sub_10
0.0034615999999995,0.0060954000000012,0.0002587999999999,-0.0208371999999995,-0.0034925999999994,-0.0380164,0,sub_10
0.0033019999999995,0.0075352000000012,-0.0034798,-0.0163975999999994,-0.0094865999999993,-0.034773,0,sub_10
0.0036717999999995,0.0082234000000012,-0.0046234,-0.0133797999999994,-0.0090171999999994,-0.028408,0,sub_10
0.0030341999999995,0.0081622000000012,-0.004199,-0.0101581999999994,-0.0079203999999994,-0.019265,0,sub_10
0.0011269999999995,0.0066720000000012,-0.0015454,-0.0084397999999994,-0.0093731999999994,-0.0105566,0,sub_10
-0.0001488000000004,0.0037818000000013,0.0005739999999999,-0.0071433999999994,-0.0116691999999994,-0.0037728,0,sub_10
-0.0018764000000004,0.0011622000000013,0.0020281999999999,-0.0045685999999995,-0.0169419999999994,0.0004599999999999,0,sub_10
-0.0028222000000004,-5.659999999868375e-05,0.0015461999999999,-0.0020377999999995,-0.0222823999999994,0.0017663999999999,0,sub_10
-0.0020190000000004,-0.0006013999999986,0.0011021999999999,-0.0005259999999994,-0.0173907999999994,0.0026253999999999,0,sub_10
-0.0005500000000004,0.0003316000000013,-0.000127,-0.0019801999999994,-0.0058917999999994,0.0053779999999999,0,sub_10
-0.0003038000000004,0.0024244000000012,0.0016331999999999,-0.0047425999999994,0.0021918000000005,0.0109031999999999,0,sub_10
-0.0004198000000004,0.0039774000000012,0.0029299999999999,-0.0065261999999994,0.0084820000000005,0.0176957999999999,0,sub_10
-0.0016490000000004,0.0049392000000012,0.0027933999999999,-0.0055503999999994,0.0111422000000006,0.0240849999999999,0,sub_10
-0.0041832000000004,0.0049794000000012,0.0024825999999999,-0.0028915999999994,0.0044384000000006,0.0264385999999999,0,sub_10
-0.0065730000000004,0.0040146000000012,0.0025309999999999,0.0019086000000005,-0.0054489999999994,0.0238973999999999,0,sub_10
-0.0078364000000003,0.0032140000000012,0.0013367999999999,0.0061022000000005,-0.0125457999999993,0.0166481999999999,0,sub_10
-0.0077182000000003,0.0020062000000012,0.0006113999999999,0.0052822000000004,-0.0165447999999994,0.0051107999999999,0,sub_10
-0.0044426000000003,-0.0001797999999987,0.0020753999999999,-0.0027617999999995,-0.0158225999999994,-0.0086196,0,sub_10
0.0002877999999995,-0.0020371999999987,0.0042127999999999,-0.0135775999999995,-0.0123305999999993,-0.0200228,0,sub_10
