userAcceleration.x,userAcceleration.y,userAcceleration.z,rotationRate.x,rotationRate.y,rotationRate.z,label,subject
0.0378555999999998,-0.0058451999999987,0.0165147999999999,0.0024018000000005,-0.0176095999999994,0.0111125999999999,0,sub_14
0.0383409999999998,-0.0053861999999987,0.0156827999999999,0.0077628000000005,-0.0127551999999994,0.0118023999999999,0,sub_14
0.0387085999999998,-0.0065005999999987,0.0157301999999999,0.0118446000000005,-0.0074709999999994,0.0126961999999998,0,sub_14
0.0390231999999998,-0.0064701999999987,0.0164247999999999,0.0146414000000005,-0.0030353999999994,0.0137957999999999,0,sub_14
0.0376073999999998,-0.0052855999999987,0.0171615999999999,0.0161446000000005,0.0001508000000005,0.0148703999999999,0,sub_14
0.0363599999999998,-0.0054361999999987,0.0169935999999999,0.0185032000000005,0.0039724000000005,0.0161637999999999,0,sub_14
0.0359659999999998,-0.0062033999999987,0.0173797999999999,0.0222370000000005,0.0069254000000005,0.0181603999999999,0,sub_14
0.0348481999999998,-0.0050861999999987,0.0182327999999999,0.0257556000000005,0.0090286000000005,0.0197293999999999,0,sub_14
0.0333867999999998,-0.0047995999999987,0.0189689999999999,0.0292712000000005,0.0102806000000005,0.0210857999999998,0,sub_14
0.0336427999999998,-0.0052837999999987,0.0198647999999999,0.0319372000000005,0.0121756000000005,0.0222217999999999,0,sub_14
0.0340249999999998,-0.0049637999999987,0.0221721999999999,0.0335344000000005,0.0138604000000005,0.0235641999999999,0,sub_14
0.0343849999999998,-0.0048539999999987,0.0241445999999999,0.0345994000000005,0.0144916000000005,0.0246389999999998,0,sub_14
0.0333057999999998,-0.0039241999999987,0.0242683999999999,0.0356692000000005,0.0147028000000005,0.0242187999999998,0,sub_14
0.0320115999999998,-0.0030533999999987,0.0236973999999999,0.0341766000000005,0.0136478000000005,0.0229277999999998,0,sub_14
0.0299715999999998,-0.0014121999999987,0.0244589999999999,0.0308336000000005,0.0103956000000005,0.0206153999999998,0,sub_14
0.0285719999999998,-0.0002969999999987,0.0242977999999999,0.0247138000000005,0.0054528000000006,0.0172173999999998,0,sub_14
0.0268643999999998,0.0007952000000012,0.0240447999999999,0.0166718000000005,-0.0001213999999993,0.0135931999999998,0,sub_14
0.0265395999999998,0.0004872000000012,0.0241091999999999,0.0088364000000005,-0.0065511999999993,0.0106123999999998,0,sub_14
0.0274887999999998,0.0006486000000012,0.0238567999999999,0.0027186000000005,-0.0114921999999993,0.0067871999999998,0,sub_14
0.0291481999999998,0.0003792000000012,0.0226655999999999,-0.0023927999999994,-0.0137999999999994,0.0022677999999999,0,sub_14
0.0317605999999998,-0.0014959999999987,0.0217063999999999,-0.0068649999999994,-0.0152619999999994,-0.0011798,0,sub_14
0.0341379999999998,-0.0036053999999987,0.0209837999999999,-0.0100617999999994,-0.0154595999999994,-0.00227,0,sub_14
0.0366689999999998,-0.0050395999999987,0.0193475999999999,-0.0124627999999994,-0.0146239999999994,-0.0022298,0,sub_14
0.0381431999999998,-0.0063047999999987,0.0175805999999999,-0.0129491999999994,-0.0142243999999994,-0.0013214000000001,0,sub_14
0.0389849999999998,-0.0067675999999987,0.0161123999999999,-0.0117305999999994,-0.0140447999999994,-0.000187,0,sub_14
0.0386681999999998,-0.0062887999999987,0.0153869999999999,-0.0096573999999994,-0.0132307999999994,0.0013797999999999,0,sub_14
0.0382987999999998,-0.0055447999999987,0.0149683999999999,-0.0080041999999994,-0.0126213999999994,0.0012347999999998,0,sub_14
0.0380373999999998,-0.0056061999999987,0.0154231999999999,-0.0062971999999994,-0.0128393999999994,0.0010331999999998,0,sub_14
0.0375921999999998,-0.0061501999999987,0.0162437999999999,-0.0050237999999994,-0.0134863999999994,0.0018975999999998,0,sub_14
0.0371005999999998,-0.0065697999999987,0.0170517999999999,-0.0043959999999994,-0.0145605999999994,0.0036125999999998,0,sub_14
0.0373059999999997,-0.0066695999999987,0.0174213999999999,-0.0041969999999994,-0.0166959999999994,0.0046849999999998,0,sub_14
0.0381009999999997,-0.0063675999999987,0.0171591999999999,-0.0046387999999994,-0.0177275999999994,0.0055727999999998,0,sub_14
0.0384519999999997,-0.0054477999999987,0.0171115999999999,-0.0046383999999994,-0.0168373999999994,0.0049659999999998,0,sub_14
0.0383931999999997,-0.0045907999999987,0.0174409999999999,-0.0059115999999994,-0.0157245999999994,0.0030679999999998,0,sub_14
0.0387447999999997,-0.0053853999999987,0.0183165999999999,-0.0084649999999994,-0.0137583999999994,0.0020143999999998,0,sub_14
0.0383807999999998,-0.0057491999999986,0.0188925999999999,-0.0097381999999994,-0.0109477999999994,0.0018233999999999,0,sub_14
0.0361813999999998,-0.0048067999999986,0.0195941999999999,-0.0092999999999994,-0.0092415999999994,0.0009697999999999,0,sub_14
0.0344741999999998,-0.0042799999999987,0.0204161999999999,-0.0105753999999994,-0.0088083999999994,0.0003193999999999,0,sub_14
0.0339871999999998,-0.0041711999999987,0.0215557999999999,-0.0116659999999994,-0.0066455999999994,-0.0001282,0,sub_14
0.0339305999999998,-0.0033031999999987,0.0226785999999999,-0.0110381999999994,-0.0027809999999994,-0.0014204,0,sub_14
0.0337643999999998,-0.0024215999999987,0.0236611999999999,-0.0108255999999994,0.0025808000000005,-0.0037858,0,sub_14
0.0342701999999998,-0.0030479999999987,0.0247431999999999,-0.0099737999999994,0.0083640000000005,-0.0055062,0,sub_14
0.0346033999999998,-0.0036369999999987,0.0244267999999999,-0.0074159999999994,0.0145646000000005,-0.0065744,0,sub_14
0.0346023999999997,-0.0043383999999987,0.0234029999999999,-0.0041941999999994,0.0192406000000005,-0.0065578,0,sub_14
0.0334593999999998,-0.0042957999999987,0.0219103999999999,-0.0009877999999994,0.0205078000000005,-0.006537,0,sub_14
0.0321101999999998,-0.0038843999999987,0.0211637999999999,0.0024252000000005,0.0202828000000005,-0.0065128,0,sub_14
0.0308639999999998,-0.0037433999999987,0.0206313999999999,0.0049914000000005,0.0211278000000005,-0.0069234,0,sub_14
0.0303833999999998,-0.0033815999999987,0.0219509999999999,0.0070442000000005,0.0219704000000005,-0.0069622,0,sub_14
0.0303193999999998,-0.0028815999999987,0.0237159999999999,0.0091038000000005,0.0240922000000005,-0.0072162,0,sub_14
0.0300979999999998,-0.0033669999999987,0.0245759999999999,0.0115938000000005,0.0277012000000005,-0.0068282,0,sub_14
0.0300117999999998,-0.0035831999999987,0.0242415999999999,0.0142888000000005,0.0300286000000005,-0.0057962,0,sub_14
0.0299393999999998,-0.0037079999999987,0.0238965999999999,0.0165494000000005,0.0308652000000005,-0.0045516000000001,0,sub_14
0.0297303999999998,-0.0031769999999987,0.0227441999999999,0.0182544000000005,0.0306454000000005,-0.0043258000000001,0,sub_14
0.0297611999999998,-0.0027579999999987,0.0217399999999999,0.0186734000000005,0.0289394000000005,-0.0043208,0,sub_14
0.0300763999999998,-0.0021177999999987,0.0218055999999999,0.0175430000000005,0.0268336000000005,-0.0041570000000001,0,sub_14
0.0300079999999998,-0.0026575999999987,0.0224655999999999,0.0166344000000005,0.0266444000000005,-0.0039942,0,sub_14
0.0302075999999998,-0.0025243999999987,0.0218331999999999,0.0165802000000005,0.0268776000000005,-0.0036122,0,sub_14
0.0298273999999998,-0.0024977999999987,0.0221765999999999,0.0163080000000005,0.0264706000000005,-0.0028036,0,sub_14
0.0286953999999998,-0.0026827999999987,0.0224755999999999,0.0168884000000005,0.0258476000000005,-0.0019888,0,sub_14
0.0278381999999998,-0.0023663999999987,0.0225911999999999,0.0177322000000005,0.0237140000000005,-0.0019802,0,sub_14
0.0279713999999998,-0.0019279999999987,0.0229291999999999,0.0174996000000005,0.0198780000000005,-0.0015496,0,sub_14
0.0278611999999998,-0.0018443999999987,0.0243187999999999,0.0159782000000005,0.0145534000000005,-0.0006988,0,sub_14
0.0277679999999998,-0.0020335999999987,0.0247369999999999,0.0135854000000005,0.0094902000000005,-0.000103,0,sub_14
0.0275031999999998,-0.0018905999999987,0.0253741999999999,0.0111868000000005,0.0037854000000005,0.0011345999999999,0,sub_14
0.0266065999999998,-0.0013753999999987,0.0252135999999999,0.0089978000000005,-0.0019235999999994,0.0032281999999999,0,sub_14
0.0261537999999997,-0.0010031999999987,0.0238353999999999,0.0066040000000005,-0.0069875999999994,0.0040375999999999,0,sub_14
0.0264221999999997,-0.0012305999999987,0.0227471999999999,0.0050772000000005,-0.0103449999999994,0.0035689999999999,0,sub_14
0.0265701999999998,-0.0003697999999987,0.0226787999999999,0.0042102000000005,-0.0135369999999994,0.0033533999999999,0,sub_14
0.0266823999999998,-3.1999999987555878e-06,0.0226641999999999,0.0022926000000005,-0.0143765999999994,0.0018453999999999,0,sub_14
0.0278971999999998,-0.0006391999999987,0.0231035999999999,-0.0008945999999994,-0.0135045999999993,-0.0003144,0,sub_14
0.0276207999999998,-0.0003547999999987,0.0246919999999999,-0.0040787999999994,-0.0130131999999993,-0.0018566,0,sub_14
0.0270283999999998,0.0006414000000012,0.0250457999999999,-0.0079137999999994,-0.0144387999999993,-0.0029738,0,sub_14
0.0263873999999998,-0.0001677999999987,0.0248627999999999,-0.0117467999999994,-0.0154381999999993,-0.0040916,0,sub_14
0.0268105999999998,-0.0005625999999987,0.0244687999999999,-0.0153741999999994,-0.0177183999999994,-0.0047788,0,sub_14
0.0269925999999998,-0.0006405999999987,0.0239139999999999,-0.0183623999999994,-0.0202139999999994,-0.0054614,0,sub_14
0.0278847999999998,-0.0007875999999987,0.0226297999999999,-0.0207171999999994,-0.0225467999999994,-0.0061158,0,sub_14
0.0287279999999998,-0.0015073999999987,0.0218609999999999,-0.0222203999999994,-0.0246719999999994,-0.0061236,0,sub_14
0.0297217999999998,-0.0024337999999987,0.0212275999999999,-0.0235025999999994,-0.0253057999999994,-0.0063454,0,sub_14
0.0310493999999998,-0.0025971999999987,0.0203043999999999,-0.0237079999999994,-0.0253083999999994,-0.0063488000000001,0,sub_14
0.0315775999999998,-0.0024591999999987,0.0192617999999999,-0.0230629999999994,-0.0257409999999994,-0.0061322000000001,0,sub_14
0.0322459999999997,-0.0028249999999987,0.0184455999999999,-0.0221997999999994,-0.0259577999999994,-0.0067690000000001,0,sub_14
0.0332817999999998,-0.0034385999999987,0.0180483999999999,-0.0213279999999994,-0.0242571999999994,-0.0074080000000001,0,sub_14
0.0342613999999998,-0.0037415999999987,0.0171833999999999,-0.0196083999999994,-0.0229891999999994,-0.007186,0,sub_14
0.0341025999999998,-0.0042775999999987,0.0162077999999999,-0.0174689999999994,-0.0217183999999994,-0.0071728000000001,0,sub_14
0.0345661999999998,-0.0047883999999987,0.0154613999999999,-0.0151151999999994,-0.0202351999999994,-0.0071582000000001,0,sub_14
0.0349955999999998,-0.0052597999999987,0.0144597999999999,-0.0116945999999994,-0.0179069999999994,-0.0062826,0,sub_14
0.0352925999999998,-0.0053957999999987,0.0137343999999999,-0.0083027999999994,-0.0162797999999994,-0.0056092,0,sub_14
0.0360535999999998,-0.0054641999999987,0.0129375999999999,-0.0059731999999994,-0.0137955999999994,-0.0051578,0,sub_14
0.0373207999999997,-0.0054925999999987,0.0131667999999999,-0.0051351999999994,-0.0108801999999994,-0.0047174,0,sub_14
0.0378911999999997,-0.0057427999999987,0.0143189999999999,-0.0045037999999994,-0.0066847999999994,-0.0044938,0,sub_14
0.0377441999999997,-0.0054391999999987,0.0153847999999999,-0.0045095999999994,-0.0022723999999994,-0.0047022,0,sub_14
0.0376987999999997,-0.0053113999999987,0.0161787999999999,-0.0042761999999994,0.0022010000000005,-0.0047062,0,sub_14
0.0370293999999998,-0.0053739999999987,0.0166421999999999,-0.0034053999999994,0.0058208000000005,-0.0049184000000001,0,sub_14
0.0357885999999998,-0.0051463999999987,0.0166351999999999,-0.0016839999999994,0.0090108000000005,-0.0049104,0,sub_14
0.0351331999999998,-0.0045889999999987,0.0155695999999999,-0.0006065999999994,0.0113506000000005,-0.0049058000000001,0,sub_14
0.0351525999999998,-0.0044519999999987,0.0151881999999999,-8.1999999994864e-06,0.0129746000000005,-0.0051068,0,sub_14
0.0345681999999998,-0.0044353999999987,0.0158005999999999,0.0008066000000005,0.0150248000000005,-0.0055206,0,sub_14
0.0343745999999998,-0.0040725999999987,0.0170431999999999,0.0011936000000005,0.0170756000000005,-0.0057236,0,sub_14
0.0340671999999998,-0.0042861999999987,0.0180359999999999,0.0007308000000005,0.0197694000000005,-0.0061472,0,sub_14
0.0335835999999998,-0.0040917999999987,0.0196275999999999,0.0002662000000005,0.0222494000000005,-0.0063568,0,sub_14
0.0325999999999998,-0.0041027999999987,0.0210481999999999,-0.0010073999999994,0.0239574000000005,-0.0061544,0,sub_14
0.0311385999999998,-0.0027169999999987,0.0207813999999999,-0.0020703999999994,0.0250256000000005,-0.0059496,0,sub_14
0.0305163999999998,-0.0025693999999987,0.0195233999999999,-0.0027453999999994,0.0247848000000005,-0.0059484,0,sub_14
0.0301441999999998,-0.0030393999999987,0.0182409999999999,-0.0036433999999994,0.0230508000000005,-0.0053056,0,sub_14
0.0301701999999998,-0.0041421999999987,0.0167597999999999,-0.0032573999999994,0.0217402000000005,-0.0050818,0,sub_14
0.0291401999999998,-0.0030767999999987,0.0161119999999999,-0.0018015999999994,0.0200040000000005,-0.0059182,0,sub_14
0.0299955999999998,-0.0039729999999987,0.0156167999999999,-0.0014087999999994,0.0184872000000005,-0.0074032,0,sub_14
0.0301587999999998,-0.0039309999999987,0.0166303999999999,-0.0016193999999994,0.0187028000000005,-0.0078322,0,sub_14
0.0294225999999998,-0.0018091999999987,0.0175717999999999,-0.0020441999999994,0.0187060000000005,-0.0082626,0,sub_14
0.0283899999999997,-2.659999999875557e-05,0.0181559999999999,-0.0039683999999994,0.0174360000000005,-0.0087018000000001,0,sub_14
0.0284237999999998,-0.0014505999999987,0.0180173999999999,-0.0056593999999994,0.0170452000000005,-0.0084844000000001,0,sub_14
0.0280373999999998,-0.0014839999999987,0.0184499999999999,-0.0062875999999994,0.0166472000000005,-0.0074050000000001,0,sub_14
0.0269715999999998,-0.0008943999999987,0.0180411999999999,-0.0069203999999994,0.0147596000000005,-0.0067510000000001,0,sub_14
0.0269669999999998,-0.0019707999999987,0.0180295999999999,-0.0067015999999994,0.0124430000000005,-0.0060904000000001,0,sub_14
0.0271459999999998,-0.0023779999999987,0.0182931999999999,-0.0058397999999994,0.0109754000000005,-0.0052128000000001,0,sub_14
0.0277325999999998,-0.0017241999999986,0.018725,-0.0060637999999994,0.0101180000000005,-0.0037176000000001,0,sub_14
0.0280567999999997,-0.0011049999999986,0.0190599999999999,-0.0069297999999994,0.0086246000000005,-0.0024398000000001,0,sub_14
0.0279297999999997,-0.0014205999999986,0.0195385999999999,-0.0065067999999994,0.0081952000000005,-0.002009,0,sub_14
0.0275301999999998,-0.0015495999999986,0.0197027999999999,-0.0058187999999994,0.0091078000000005,-0.0017682,0,sub_14
0.0264411999999998,-0.0014053999999987,0.0200295999999999,-0.0055603999999994,0.0098074000000005,-0.0011028,0,sub_14
0.0255457999999998,-0.0007837999999987,0.0204283999999999,-0.0050913999999994,0.0094426000000005,-0.0008618,0,sub_14
0.0246379999999998,-0.0008591999999987,0.0204943999999999,-0.0041935999999994,0.0092900000000005,-0.0008318,0,sub_14
0.0246899999999998,-0.0008361999999987,0.0208661999999999,-0.0037303999999994,0.0080712000000005,-0.0001624,0,sub_14
0.0247533999999998,-0.0008025999999987,0.0205829999999999,-0.0022481999999994,0.0061460000000005,0.0004913999999999,0,sub_14
0.0259321999999998,-0.0010281999999987,0.0202125999999999,8.080000000053358e-05,0.0027264000000005,0.0011529999999999,0,sub_14
0.0267135999999998,-0.0015679999999987,0.0196423999999999,0.0026250000000005,-5.559999999942208e-05,0.0020287999999999,0,sub_14
0.0276575999999998,-0.0020205999999987,0.0197779999999999,0.0038908000000005,-0.0024069999999994,0.0028953999999999,0,sub_14
0.0287245999999998,-0.0020497999999987,0.0194889999999999,0.0043492000000005,-0.0032271999999994,0.0033529999999999,0,sub_14
0.0303989999999997,-0.0026175999999987,0.0194687999999999,0.0043836000000005,-0.0036189999999994,0.0035935999999998,0,sub_14
0.0309945999999998,-0.0037787999999987,0.0189389999999999,0.0037808000000005,-0.0031571999999994,0.0040421999999999,0,sub_14
0.0321099999999998,-0.0049661999999987,0.0187307999999999,0.0036038000000005,-0.0020611999999994,0.0053475999999999,0,sub_14
0.0320537999999998,-0.0048063999999987,0.0190653999999999,0.0034240000000005,-0.0013919999999994,0.0068669999999999,0,sub_14
0.0321375999999998,-0.0041257999999987,0.0195249999999999,0.0034172000000005,-0.0016101999999994,0.0081491999999999,0,sub_14
0.0319553999999998,-0.0035557999999987,0.0200457999999999,0.0029876000000005,-0.0016111999999994,0.0087869999999999,0,sub_14
0.0329299999999998,-0.0026941999999987,0.0204869999999999,0.0028006000000005,-0.0014217999999994,0.0094555999999999,0,sub_14
0.0326783999999998,-0.0017473999999987,0.0202439999999999,0.0026166000000005,-0.0022907999999994,0.0084163999999999,0,sub_14
0.0331887999999998,-0.0015357999999987,0.0194561999999999,0.0035022000000005,-0.0033733999999994,0.0065303999999999,0,sub_14
0.0341599999999998,-0.0032349999999986,0.0186187999999999,0.0043860000000005,-0.0048817999999994,0.0046449999999998,0,sub_14
0.0354959999999998,-0.0047687999999987,0.0182311999999999,0.0059012000000005,-0.0066125999999994,0.0044733999999998,0,sub_14
0.0360829999999998,-0.0058539999999987,0.0186371999999999,0.0075986000000005,-0.0085369999999994,0.0047013999999998,0,sub_14
0.0366413999999998,-0.0066263999999986,0.0191697999999999,0.0095074000000005,-0.0094027999999994,0.0064249999999998,0,sub_14
0.0384585999999998,-0.0076065999999987,0.0195425999999999,0.0107762000000005,-0.0100539999999994,0.0083575999999998,0,sub_14
0.0394087999999998,-0.0073847999999986,0.0200761999999999,0.0125110000000005,-0.0079925999999994,0.0103249999999998,0,sub_14
0.0385935999999998,-0.0057965999999986,0.0204423999999999,0.0136240000000005,-0.0040027999999994,0.0101491999999999,0,sub_14
0.0370801999999998,-0.0043685999999987,0.0206811999999999,0.0149620000000005,0.0010574000000005,0.0084779999999998,0,sub_14
0.0362577999999998,-0.0042713999999987,0.0209481999999999,0.0148140000000005,0.0067662000000005,0.0057273999999999,0,sub_14
0.0341003999999997,-0.0040457999999987,0.0211607999999999,0.0135894000000005,0.0109848000000005,0.0036119999999999,0,sub_14
0.0311579999999998,-0.0033381999999987,0.0217409999999999,0.0108300000000004,0.0122806000000005,0.0016681999999999,0,sub_14
0.0301481999999998,-0.0035289999999986,0.0218249999999999,0.0072056000000004,0.0114470000000005,0.0001483999999999,0,sub_14
0.0300331999999998,-0.0041815999999986,0.0217491999999999,0.0029372000000005,0.0104000000000005,-0.0007346,0,sub_14
0.0294985999999998,-0.0034997999999986,0.0223529999999999,-2.359999999948649e-05,0.0090728000000005,-0.0009372000000001,0,sub_14
0.0289455999999998,-0.0027133999999986,0.0228989999999999,-0.0012685999999994,0.0092328000000005,-0.001557,0,sub_14
0.0289761999999998,-0.0021487999999987,0.0231041999999999,-0.0003731999999994,0.0102400000000005,-0.002804,0,sub_14
0.0286179999999997,-0.0023933999999987,0.0236673999999999,0.0013766000000005,0.0118818000000005,-0.0036184,0,sub_14
0.0278629999999997,-0.0017365999999987,0.0236345999999999,0.0033378000000004,0.0130968000000005,-0.0044308,0,sub_14
0.0271769999999997,-0.0014313999999987,0.0233283999999999,0.0046238000000004,0.0130976000000005,-0.0057038,0,sub_14
0.0269397999999997,-0.0011047999999987,0.0227885999999999,0.0050602000000004,0.0135290000000005,-0.0074104,0,sub_14
0.0269469999999997,-0.0007353999999987,0.0225309999999999,0.0042182000000004,0.0143910000000005,-0.0091266,0,sub_14
0.0265975999999998,-0.0005151999999987,0.0228649999999999,0.0033986000000004,0.0152086000000005,-0.0112534,0,sub_14
0.0263519999999997,-0.0010483999999987,0.0234341999999999,0.0017264000000005,0.0166666000000005,-0.0129596,0,sub_14
0.0261383999999997,-0.0010547999999987,0.0239243999999999,-0.0010125999999994,0.0183406000000005,-0.0144598,0,sub_14
0.0250279999999998,-0.0005459999999987,0.0243909999999999,-0.0037515999999994,0.0202268000000005,-0.0157468,0,sub_14
0.0244301999999998,-0.0003717999999987,0.0247601999999999,-0.0064867999999994,0.0223286000000005,-0.0176748000000001,0,sub_14
0.0243569999999997,0.0005292000000012,0.0239161999999999,-0.0086079999999994,0.0238326000000005,-0.0189734000000001,0,sub_14
0.0243323999999998,0.0010592000000012,0.0240275999999999,-0.0100851999999994,0.0259744000000005,-0.020482,0,sub_14
0.0247265999999998,0.0019724000000012,0.0239575999999999,-0.0111241999999994,0.0300346000000005,-0.022631,0,sub_14
0.0251689999999998,0.0019342000000012,0.0238045999999999,-0.0123657999999994,0.0344984000000005,-0.0252126,0,sub_14
0.0248767999999998,0.0018532000000012,0.0230707999999999,-0.0133929999999994,0.0398110000000005,-0.0271528,0,sub_14
0.0241857999999998,0.0020560000000012,0.0228741999999999,-0.0148413999999994,0.0464034000000005,-0.0290976,0,sub_14
0.0228619999999998,0.0030738000000012,0.0219747999999999,-0.0158667999999994,0.0512932000000005,-0.0318918,0,sub_14
0.0213923999999998,0.0033484000000012,0.0204933999999999,-0.0156233999999994,0.0538342000000005,-0.0344604000000001,0,sub_14
0.0208893999999998,0.0037088000000012,0.0195471999999999,-0.0149669999999994,0.0553318000000005,-0.0365942000000001,0,sub_14
0.0211779999999998,0.0041550000000012,0.0195899999999999,-0.0141105999999993,0.0544826000000005,-0.0380826000000001,0,sub_14
0.0220949999999998,0.0037222000000012,0.0192791999999999,-0.0149611999999994,0.0532148000000005,-0.0400096000000001,0,sub_14
0.0232961999999998,0.0026320000000012,0.0187409999999999,-0.0162571999999994,0.0517294000000005,-0.0413170000000001,0,sub_14
0.0246757999999998,0.0011760000000012,0.0183179999999999,-0.0175569999999994,0.0496040000000005,-0.0424098000000001,0,sub_14
0.0257769999999998,-0.0004163999999987,0.0170263999999999,-0.0186501999999994,0.0466230000000005,-0.0428592,0,sub_14
0.0265839999999998,-0.0021551999999987,0.0152115999999999,-0.0195319999999994,0.0430030000000005,-0.04352,0,sub_14
0.0275985999999998,-0.0033071999999987,0.0137843999999999,-0.0193601999999994,0.0374576000000005,-0.0431028,0,sub_14
0.0284523999999998,-0.0033023999999987,0.0128935999999999,-0.0187545999999994,0.0314832000000005,-0.0413818,0,sub_14
0.0298191999999998,-0.0040635999999987,0.0124057999999999,-0.0187911999999994,0.0259336000000005,-0.0388112,0,sub_14
0.0316453999999998,-0.0048875999999987,0.0120861999999999,-0.0198867999999994,0.0223044000000005,-0.0360368000000001,0,sub_14
0.0332545999999998,-0.0048355999999987,0.0128901999999999,-0.0205665999999994,0.0214256000000005,-0.0337076,0,sub_14
0.0332539999999998,-0.0040299999999987,0.0135047999999999,-0.0201631999999994,0.0224674000000005,-0.0330824,0,sub_14
0.0344733999999998,-0.0043521999999987,0.0145811999999999,-0.0193137999999994,0.0258590000000005,-0.03438,0,sub_14
0.0352437999999998,-0.0045203999999987,0.0149953999999999,-0.0182529999999994,0.0292482000000005,-0.035249,0,sub_14
0.0350235999999998,-0.0046167999999987,0.0162575999999999,-0.0165683999999994,0.0298620000000005,-0.0352552,0,sub_14
0.0348373999999998,-0.0046351999999987,0.0160779999999999,-0.0167961999999994,0.0277280000000005,-0.0341858000000001,0,sub_14
0.0354343999999998,-0.0048765999999987,0.0163411999999999,-0.0183185999999994,0.0238882000000005,-0.0316278000000001,0,sub_14
0.0352417999999998,-0.0052415999999987,0.0158287999999999,-0.0192057999999994,0.0189806000000005,-0.0290638000000001,0,sub_14
0.0354919999999998,-0.0053561999999987,0.0154795999999999,-0.0190163999999994,0.0155632000000005,-0.0271352000000001,0,sub_14
0.0359353999999998,-0.0050169999999987,0.0150349999999999,-0.0167083999999994,0.0137994000000005,-0.0249746000000001,0,sub_14
0.0361623999999998,-0.0055269999999987,0.0142739999999999,-0.0114101999999994,0.0124522000000005,-0.0230074000000001,0,sub_14
0.0364989999999997,-0.0067331999999987,0.0128391999999999,-0.0033313999999994,0.0123744000000005,-0.0212360000000001,0,sub_14
0.0373729999999998,-0.0073971999999987,0.0114727999999999,0.0053798000000005,0.0120754000000005,-0.0179644000000001,0,sub_14
0.0379659999999998,-0.0075955999999987,0.0115989999999999,0.0130174000000005,0.0109254000000005,-0.0140582,0,sub_14
0.0379997999999998,-0.0073639999999987,0.0112101999999999,0.0189756000000005,0.0100412000000005,-0.0112382000000001,0,sub_14
0.0379655999999998,-0.0069121999999987,0.0111203999999999,0.0234410000000005,0.0093752000000005,-0.0084288000000001,0,sub_14
0.0374313999999998,-0.0067281999999987,0.0127213999999999,0.0251316000000005,0.0091424000000005,-0.0049984000000001,0,sub_14
0.0363995999999998,-0.0060153999999987,0.0143065999999999,0.0234102000000005,0.0091356000000005,-0.0018058000000001,0,sub_14
