userAcceleration.x,userAcceleration.y,userAcceleration.z,rotationRate.x,rotationRate.y,rotationRate.z,label,subject
-0.0063324000000002,0.0047116000000012,0.0150913999999999,-0.0007409999999993,0.0457530000000007,-0.0013671999999999,0,sub_20
-0.0042542000000002,0.0040436000000012,0.0137645999999999,-0.0024195999999993,0.0534400000000007,8.320000000002639e-05,0,sub_20
-0.0026360000000002,0.0054326000000012,0.0128255999999999,-0.0045325999999993,0.0585754000000007,0.0006794,0,sub_20
4.799999999972274e-05,0.0061798000000012,0.0112483999999999,-0.0064395999999993,0.0605040000000007,-0.0004045999999999,0,sub_20
0.0030931999999997,0.0073410000000012,0.0099043999999999,-0.0077169999999993,0.0600866000000007,-0.0014811999999999,0,sub_20
0.0039957999999997,0.0087166000000012,0.0091361999999999,-0.0077207999999993,0.0592344000000007,-0.0014801999999999,0,sub_20
0.0038387999999997,0.0092410000000012,0.0090255999999999,-0.0062425999999993,0.0575180000000007,0.0002416,0,sub_20
0.0029355999999997,0.0089982000000012,0.0091007999999999,-0.0045175999999993,0.0545138000000007,0.0021632,0,sub_20
0.0019375999999997,0.0090996000000012,0.0095657999999999,-0.0032163999999993,0.0517258000000007,0.0036544,0,sub_20
0.0006339999999997,0.0083380000000012,0.0093151999999999,-0.0023351999999993,0.0495820000000007,0.0042872,0,sub_20
-0.0005700000000002,0.0078674000000012,0.0092819999999999,-0.0016615999999993,0.0474440000000007,0.0036368,0,sub_20
-0.0015948000000002,0.0076294000000012,0.0095541999999999,-0.0016213999999993,0.0459508000000007,0.0021264,0,sub_20
-0.0018176000000002,0.0069802000000012,0.0102881999999999,-0.0024691999999993,0.0457466000000007,0.0006252,0,sub_20
-0.0018474000000002,0.0068184000000012,0.0103399999999999,-0.0039579999999993,0.0459684000000007,-0.0002401999999999,0,sub_20
-0.0016086000000002,0.0068142000000012,0.0110955999999999,-0.0056621999999993,0.0466134000000007,-0.0002527999999999,0,sub_20
-0.0011850000000002,0.0065910000000012,0.0110453999999999,-0.0069219999999993,0.0472378000000007,0.000367,0,sub_20
-0.0002526000000002,0.0066544000000012,0.0108429999999999,-0.0069063999999994,0.0472170000000007,0.0014238,0,sub_20
0.0005067999999997,0.0075372000000012,0.0100163999999999,-0.0051903999999994,0.0454866000000007,0.002281,0,sub_20
0.0011775999999997,0.0072920000000012,0.0096099999999999,-0.0026209999999994,0.0431164000000007,0.0025042,0,sub_20
0.0014575999999997,0.0073800000000012,0.0095405999999999,-0.0015431999999993,0.0403290000000007,0.0018628,0,sub_20
0.0019105999999997,0.0078420000000012,0.0101763999999999,-0.0019805999999993,0.0371382000000007,0.0010092,0,sub_20
0.0018715999999997,0.0077492000000012,0.0104263999999999,-0.0034847999999993,0.0341632000000007,0.0003616,0,sub_20
0.0020413999999997,0.0078754000000012,0.0103731999999999,-0.0051823999999993,0.0329354000000007,0.0001356,0,sub_20
0.0019419999999997,0.0083948000000012,0.0099447999999999,-0.0064501999999993,0.0323452000000007,-8.839999999997393e-05,0,sub_20
0.0022693999999997,0.0086734000000012,0.0093387999999999,-0.0047347999999994,0.0311046000000007,-7.719999999997393e-05,0,sub_20
0.0026607999999997,0.0082038000000012,0.0093909999999999,-0.0017389999999994,0.0300716000000007,0.0001564,0,sub_20
0.0028701999999997,0.0084154000000012,0.0099625999999999,0.0008320000000005,0.0292540000000007,0.0001732,0,sub_20
0.0026499999999997,0.0078906000000012,0.0109495999999999,0.0014626000000006,0.0269090000000007,-3.319999999999391e-05,0,sub_20
0.0027563999999997,0.0075966000000012,0.0116639999999999,0.0016626000000006,0.0245622000000007,0.000612,0,sub_20
0.0025185999999997,0.0077034000000012,0.0119597999999999,0.0005882000000006,0.0237102000000007,0.0014602,0,sub_20
0.0023911999999997,0.0080142000000012,0.0119631999999999,-0.0004731999999993,0.0233052000000007,0.0021048,0,sub_20
0.0028211999999997,0.0074338000000012,0.0117927999999999,-0.0008983999999993,0.0220456000000007,0.002755,0,sub_20
0.0034953999999997,0.0075448000000012,0.0113445999999999,-0.0002537999999994,0.0212094000000007,0.0031986,0,sub_20
0.0037971999999997,0.0076892000000012,0.0118029999999999,-0.0004607999999994,0.0201656000000007,0.0029956,0,sub_20
0.0039277999999997,0.0075586000000012,0.0120279999999999,-0.0008849999999994,0.0184826000000007,0.0030054,0,sub_20
0.0044209999999997,0.0077842000000012,0.0120119999999999,-0.0019633999999994,0.0163540000000007,0.003428,0,sub_20
0.0041775999999997,0.0086578000000012,0.0118153999999999,-0.0024015999999994,0.0142234000000007,0.0038548,0,sub_20
0.0036331999999997,0.0098180000000012,0.0115303999999998,-0.0017739999999994,0.0116636000000007,0.004076,0,sub_20
0.0030375999999997,0.0099240000000012,0.0114643999999998,0.0007730000000005,0.0090964000000007,0.0045243999999999,0,sub_20
0.0025235999999997,0.0100316000000012,0.0123239999999998,0.0041972000000005,0.0066412000000007,0.0037045999999999,0,sub_20
0.0019673999999997,0.0095664000000012,0.0128425999999998,0.0071976000000005,0.0041900000000007,0.0022407999999999,0,sub_20
0.0014923999999997,0.0086498000000012,0.0134047999999998,0.0084910000000005,0.0017448000000007,0.0007649999999999,0,sub_20
0.0012897999999997,0.0077518000000012,0.0137933999999999,0.0078660000000005,0.0003690000000007,-8.460000000001398e-05,0,sub_20
0.0011935999999997,0.0074460000000012,0.0132417999999999,0.0063902000000005,-0.0001525999999992,-0.0007275999999999,0,sub_20
0.0018469999999997,0.0071444000000012,0.0119089999999999,0.0051070000000005,-0.0003629999999992,-0.0003089999999999,0,sub_20
0.0017367999999997,0.0075926000000012,0.0116383999999999,0.0042448000000005,-0.0012163999999992,0.0007542,0,sub_20
0.0016525999999997,0.0086372000000012,0.0107421999999999,0.0046824000000005,-0.0026731999999992,0.0014014,0,sub_20
0.0015369999999997,0.0084520000000012,0.0104943999999999,0.0057620000000005,-0.0043425999999992,0.0014124,0,sub_20
0.0015829999999997,0.0078620000000012,0.0109991999999999,0.0061998000000005,-0.0062237999999992,0.0016328,0,sub_20
0.0006823999999997,0.0081960000000012,0.0112009999999999,0.0055736000000005,-0.0076741999999992,0.0016314,0,sub_20
-8.02000000002774e-05,0.0078122000000012,0.0103589999999999,0.0051664000000005,-0.0080593999999992,0.0014168,0,sub_20
-0.0008396000000002,0.0072736000000012,0.0103417999999999,0.0049540000000005,-0.0069967999999992,0.0022686,0,sub_20
-0.0017554000000002,0.0074250000000012,0.0100961999999999,0.0055960000000005,-0.0052997999999992,0.0035528,0,sub_20
-0.0029326000000002,0.0076550000000012,0.0096245999999999,0.0066696000000005,-0.0035997999999992,0.0037716,0,sub_20
-0.0031922000000002,0.0075328000000012,0.0097009999999999,0.0073182000000005,-0.0018967999999992,0.0035604,0,sub_20
-0.0031954000000002,0.0073506000000012,0.0102987999999999,0.0073510000000005,0.0002474000000007,0.0033426,0,sub_20
-0.0030806000000002,0.0070502000000012,0.0105795999999999,0.0061064000000005,0.0023986000000007,0.0024749999999999,0,sub_20
-0.0019872000000002,0.0070776000000012,0.0103325999999999,0.0048590000000005,0.0036984000000007,0.0013949999999999,0,sub_20
-0.0002330000000002,0.0071592000000012,0.0095601999999999,0.0042440000000005,0.0045648000000007,0.0016017999999999,0,sub_20
0.0004637999999997,0.0072752000000012,0.0087025999999999,0.0042662000000005,0.0054264000000007,0.0024539999999999,0,sub_20
0.0008791999999997,0.0079242000000012,0.0084805999999999,0.0049034000000005,0.0056340000000007,0.0033127999999999,0,sub_20
0.0015285999999997,0.0076392000000012,0.0083377999999999,0.0057540000000005,0.0056286000000007,0.0039598,0,sub_20
0.0016801999999997,0.0072096000000012,0.0089761999999999,0.0053272000000005,0.0060546000000007,0.0043834,0,sub_20
0.0011039999999997,0.0077086000000012,0.0098103999999999,0.0036410000000005,0.0071484000000007,0.0043664,0,sub_20
0.0013539999999997,0.0075714000000012,0.0101573999999999,0.0019540000000005,0.0076048000000007,0.0039228,0,sub_20
0.0014197999999997,0.0074764000000012,0.0099467999999999,0.0002670000000006,0.0078488000000007,0.003266,0,sub_20
0.0016611999999997,0.0081962000000012,0.0095993999999999,-0.0007787999999993,0.0078792000000007,0.0021864,0,sub_20
0.0015775999999997,0.0089296000000012,0.0087437999999999,-0.0011883999999993,0.0074798000000007,0.0015394,0,sub_20
0.0023771999999997,0.0089816000000012,0.0082455999999999,-0.0009777999999993,0.0062034000000007,0.0009016,0,sub_20
0.0026153999999997,0.0091758000000012,0.0085163999999999,-0.0001299999999993,0.0047100000000007,0.0006958,0,sub_20
0.0030507999999997,0.0088500000000012,0.0084991999999999,0.0011526000000005,0.0028478000000007,0.000485,0,sub_20
0.0032973999999997,0.0085178000000012,0.0088559999999999,0.0026436000000005,0.0001318000000007,0.0004906,0,sub_20
0.0034489999999997,0.0079766000000012,0.0090943999999999,0.0039212000000005,-0.0027957999999992,0.000281,0,sub_20
0.0029725999999997,0.0073362000000012,0.0100679999999999,0.0045616000000005,-0.0048699999999992,0.0002796,0,sub_20
0.0025059999999997,0.0070230000000012,0.0102869999999999,0.0043552000000005,-0.0058741999999992,-0.0001563999999999,0,sub_20
0.0026275999999996,0.0070602000000012,0.0101099999999999,0.0032854000000005,-0.0062975999999992,5.020000000000588e-05,0,sub_20
0.0027905999999996,0.0068452000000012,0.0092925999999999,0.0026424000000005,-0.0065101999999991,0.0004732,0,sub_20
0.0027643999999997,0.0066722000000012,0.0090509999999999,0.0030664000000005,-0.0067265999999991,0.0009038,0,sub_20
0.0023763999999997,0.0071642000000012,0.0084323999999999,0.0036970000000005,-0.0074661999999991,0.001115,0,sub_20
0.0025705999999997,0.0074614000000012,0.0086975999999999,0.0043228000000005,-0.0092711999999991,0.0013278,0,sub_20
0.0026137999999997,0.0080346000000012,0.0094615999999999,0.0045256000000005,-0.0110711999999991,0.000683,0,sub_20
0.0020031999999997,0.0083648000000012,0.0096967999999999,0.0036664000000005,-0.0115901999999992,0.0002426,0,sub_20
0.0018913999999997,0.0087334000000012,0.0098293999999999,0.0015288000000005,-0.0112541999999992,0.0002196,0,sub_20
0.0022045999999997,0.0081304000000012,0.0096913999999999,3.720000000056621e-05,-0.0112473999999992,-0.0002179999999999,0,sub_20
0.0020265999999997,0.0075604000000012,0.0090125999999999,-0.0014553999999994,-0.0114535999999992,-0.0006555999999999,0,sub_20
0.0012253999999997,0.0070780000000012,0.0086245999999999,-0.0018839999999994,-0.0118781999999992,-0.0006581999999999,0,sub_20
0.0007341999999997,0.0072232000000012,0.0091251999999999,-0.0025279999999994,-0.0127281999999992,-0.0006615999999999,0,sub_20
0.0003601999999997,0.0078232000000012,0.0092461999999999,-0.0019077999999994,-0.0136357999999992,-0.0008801999999999,0,sub_20
2.6399999999742517e-05,0.0085522000000012,0.0094667999999999,-0.0010715999999994,-0.0136927999999992,-0.0008845999999999,0,sub_20
-0.0007232000000002,0.0087078000000012,0.0095463999999999,0.0006192000000005,-0.0129029999999992,-0.0002431999999999,0,sub_20
-0.0011788000000002,0.0085566000000012,0.0098331999999999,0.0023130000000005,-0.0118985999999992,-2.919999999995408e-05,0,sub_20
-0.0017210000000002,0.0080316000000012,0.0107093999999999,0.0042182000000005,-0.0113209999999992,0.0001868,0,sub_20
-0.0018548000000002,0.0072912000000012,0.0120075999999999,0.0044354000000005,-0.0106815999999992,-2.619999999995408e-05,0,sub_20
-0.0023238000000002,0.0069300000000012,0.0128405999999999,0.0031648000000005,-0.0091831999999992,-0.0006779999999999,0,sub_20
-0.0017596000000002,0.0066606000000012,0.0124863999999999,0.0010228000000005,-0.0070847999999992,-0.0015643999999999,0,sub_20
-0.0011442000000002,0.0062708000000012,0.0115211999999999,-0.0009079999999994,-0.0047765999999992,-0.0018087999999999,0,sub_20
-0.0002804000000002,0.0066216000000012,0.0097965999999999,-0.0017765999999994,-0.0033251999999991,-0.0018309999999999,0,sub_20
0.0003385999999997,0.0065360000000012,0.0083995999999999,-0.0013677999999994,-0.0023051999999991,-0.0016297999999999,0,sub_20
0.0012321999999997,0.0062202000000012,0.0073205999999999,-0.0001131999999994,-0.0021437999999991,-0.0005672,0,sub_20
0.0014899999999997,0.0064892000000012,0.0074239999999999,0.0013756000000005,-0.0023653999999991,0.0002981999999999,0,sub_20
0.0020417999999997,0.0067750000000012,0.0074559999999999,0.0013690000000005,-0.0034323999999991,0.0007269999999999,0,sub_20
0.0024827999999997,0.0069134000000012,0.0076283999999999,0.0005156000000005,-0.0036415999999991,0.0005075999999999,0,sub_20
0.0021187999999997,0.0074108000000012,0.0078523999999999,-0.0009971999999994,-0.0038839999999991,0.0004827999999999,0,sub_20
0.0020001999999997,0.0075168000000012,0.0082823999999999,-0.0022917999999994,-0.0034861999999991,3.1600000000005864e-05,0,sub_20
0.0017301999999997,0.0069934000000012,0.0088797999999999,-0.0042303999999994,-0.0037261999999991,-0.0002097999999999,0,sub_20
0.0017671999999997,0.0067434000000012,0.0091545999999999,-0.0051001999999994,-0.0033315999999991,-0.0002307999999999,0,sub_20
0.0017333999999997,0.0063684000000012,0.0097761999999999,-0.0061861999999994,-0.0029387999999991,0.0003878,0,sub_20
0.0020209999999997,0.0058068000000012,0.0097531999999999,-0.0078931999999994,-0.0025083999999991,0.0008026,0,sub_20
0.0019709999999997,0.0059236000000012,0.0094287999999999,-0.0098173999999993,-0.0035661999999991,0.0005768,0,sub_20
0.0022653999999997,0.0067140000000012,0.0094325999999999,-0.0111003999999993,-0.0048375999999992,-7.139999999999421e-05,0,sub_20
0.0022333999999997,0.0075932000000012,0.0097059999999999,-0.0123815999999993,-0.0054705999999992,-0.0005067999999999,0,sub_20
0.0025963999999997,0.0082962000000012,0.0091945999999999,-0.0132523999999993,-0.0054737999999992,-0.0011637999999999,0,sub_20
0.0027741999999997,0.0090210000000012,0.0092967999999999,-0.0122015999999993,-0.0056951999999992,-0.0022341999999999,0,sub_20
0.0031189999999997,0.0097010000000012,0.0089167999999999,-0.0105125999999993,-0.0057081999999992,-0.0026593999999999,0,sub_20
0.0029831999999997,0.0096004000000012,0.0078617999999999,-0.0075445999999994,-0.0055143999999992,-0.0026487999999999,0,sub_20
0.0030247999999997,0.0091934000000012,0.0071345999999999,-0.0041515999999994,-0.0061725999999991,-0.0030613999999999,0,sub_20
0.0031453999999997,0.0082760000000012,0.0066849999999999,-0.0001049999999994,-0.0081033999999991,-0.0032441999999999,0,sub_20
0.0032815999999997,0.0078604000000012,0.0062089999999999,0.0030878000000005,-0.0098189999999991,-0.0032195999999999,0,sub_20
0.0028189999999997,0.0073134000000012,0.0072775999999999,0.0050014000000005,-0.0111047999999991,-0.0029909999999999,0,sub_20
0.0030485999999997,0.0073202000000012,0.0089357999999999,0.0047726000000005,-0.0121473999999991,-0.0034237999999999,0,sub_20
0.0028259999999997,0.0074346000000012,0.0099983999999999,0.0028434000000005,-0.0121169999999991,-0.0042971999999999,0,sub_20
0.0020473999999997,0.0077048000000012,0.0103761999999999,-0.0001469999999993,-0.0110167999999991,-0.0053929999999999,0,sub_20
0.0014915999999997,0.0076318000000012,0.0100347999999999,-0.0029257999999993,-0.0099189999999991,-0.0060599999999999,0,sub_20
0.0018753999999997,0.0075558000000012,0.0085793999999999,-0.0037861999999993,-0.0094663999999992,-0.0069263999999999,0,sub_20
0.0019339999999997,0.0074634000000012,0.0076839999999999,-0.0035689999999993,-0.0092515999999992,-0.0075659999999999,0,sub_20
0.0023849999999997,0.0071988000000012,0.0066233999999999,-0.0020771999999993,-0.0096829999999991,-0.0075549999999999,0,sub_20
0.0027809999999997,0.0076704000000012,0.0065559999999999,-0.0010237999999994,-0.0098669999999991,-0.0071215999999999,0,sub_20
0.0029675999999997,0.0077392000000012,0.0064775999999999,0.0002420000000005,-0.0102647999999991,-0.0066865999999999,0,sub_20
0.0028707999999997,0.0079562000000012,0.0064109999999999,0.0004418000000005,-0.0102335999999991,-0.0060457999999999,0,sub_20
0.0021827999999997,0.0080164000000012,0.0064923999999999,0.0010684000000005,-0.0104159999999991,-0.0056155999999999,0,sub_20
0.0017565999999997,0.0083992000000012,0.0067853999999999,0.0012662000000005,-0.0110229999999991,-0.0051877999999999,0,sub_20
0.0016041999999997,0.0084804000000012,0.0069113999999998,0.0021168000000005,-0.0118773999999991,-0.0053943999999999,0,sub_20
0.0014101999999997,0.0085544000000012,0.0074499999999998,0.0027550000000005,-0.0125179999999991,-0.0056027999999999,0,sub_20
0.0013033999999997,0.0079536000000012,0.0082381999999998,0.0031856000000005,-0.0123037999999991,-0.0062409999999999,0,sub_20
0.0018277999999997,0.0074028000000012,0.0081259999999998,0.0031866000000005,-0.0120905999999991,-0.0062411999999999,0,sub_20
0.0015201999999997,0.0070442000000012,0.0083367999999998,0.0031844000000005,-0.0114207999999991,-0.0062425999999999,0,sub_20
0.0008665999999997,0.0066726000000012,0.0086783999999998,0.0031792000000005,-0.0109655999999991,-0.0058165999999999,0,sub_20
0.0004701999999997,0.0064650000000012,0.0089471999999998,0.0027502000000005,-0.0100819999999991,-0.0056075999999999,0,sub_20
0.0005647999999997,0.0070364000000012,0.0089755999999998,0.0025308000000005,-0.0098391999999991,-0.0051827999999999,0,sub_20
0.0002367999999997,0.0075518000000012,0.0087787999999998,0.0021018000000005,-0.0089557999999991,-0.0049737999999999,0,sub_20
0.0004061999999997,0.0082560000000012,0.0088359999999998,0.0025286000000005,-0.0085327999999992,-0.0045441999999999,0,sub_20
0.0002765999999997,0.0079696000000012,0.0090505999999999,0.0031716000000005,-0.0078959999999992,-0.0045405999999999,0,sub_20
0.0002949999999997,0.0080402000000012,0.0095767999999999,0.0038280000000005,-0.0074435999999991,-0.0043227999999999,0,sub_20
2.2599999999742574e-05,0.0079958000000012,0.0101195999999999,0.0034214000000005,-0.0063473999999991,-0.0043267999999999,0,sub_20
4.47999999997426e-05,0.0074040000000012,0.0103255999999999,0.0023756000000005,-0.0052481999999991,-0.0045489999999999,0,sub_20
0.0001779999999997,0.0064382000000012,0.0103433999999999,0.0004764000000006,-0.0039337999999991,-0.0045635999999999,0,sub_20
0.0004925999999997,0.0067846000000012,0.0095711999999999,-0.0014237999999993,-0.0028323999999991,-0.0045779999999999,0,sub_20
0.0006557999999997,0.0068702000000012,0.0088759999999999,-0.0031259999999993,-0.0023977999999992,-0.0052313999999999,0,sub_20
0.0006257999999997,0.0068186000000012,0.0085691999999998,-0.0035535999999993,-0.0030337999999991,-0.0056609999999999,0,sub_20
0.0005691999999997,0.0077620000000012,0.0085331999999998,-0.0039821999999993,-0.0032461999999991,-0.0054501999999999,0,sub_20
0.0002309999999997,0.0081202000000012,0.0080605999999998,-0.0035545999999994,-0.0034591999999991,-0.0058741999999999,0,sub_20
0.0009211999999997,0.0080582000000012,0.0083853999999998,-0.0035379999999994,-0.0036357999999991,-0.0058657999999999,0,sub_20
0.0011759999999997,0.0078920000000012,0.0081113999999999,-0.0026689999999994,-0.0031797999999991,-0.0049975999999999,0,sub_20
0.0012277999999997,0.0078616000000012,0.0072197999999999,-0.0017981999999994,-0.0022975999999991,-0.0041299999999999,0,sub_20
0.0014933999999996,0.0071900000000012,0.0075425999999999,-0.0005043999999994,-0.0026933999999991,-0.0036849999999999,0,sub_20
0.0015073999999996,0.0075338000000012,0.0080513999999999,0.0003618000000005,-0.0028763999999992,-0.0028161999999999,0,sub_20
0.0014761999999996,0.0076722000000012,0.0078599999999999,0.0014258000000005,-0.0030949999999992,-0.0023811999999999,0,sub_20
0.0018279999999997,0.0074718000000012,0.0078045999999999,0.0012106000000005,-0.0035201999999992,-0.0023821999999999,0,sub_20
0.0015805999999997,0.0078656000000012,0.0076899999999999,0.0014358000000005,-0.0036885999999992,-0.0019349999999999,0,sub_20
0.0016367999999997,0.0083774000000012,0.0081387999999999,0.0027316000000005,-0.0030085999999992,-0.0014813999999999,0,sub_20
0.0021869999999997,0.0079712000000012,0.0081869999999999,0.0038170000000005,-0.0021129999999992,-0.0014567999999999,0,sub_20
0.0017533999999997,0.0077708000000012,0.0083835999999999,0.0049004000000005,-0.0016433999999992,-0.0014317999999999,0,sub_20
0.0008747999999997,0.0079340000000012,0.0085901999999999,0.0059838000000005,-0.0007495999999992,-0.0009799999999999,0,sub_20
0.0013523999999997,0.0069952000000012,0.0090337999999999,0.0064116000000005,-0.0005379999999992,-0.0009771999999999,0,sub_20
0.0014559999999997,0.0061054000000012,0.0083961999999998,0.0061954000000005,-0.0009641999999992,-0.0007645999999999,0,sub_20
0.0012783999999997,0.0059686000000012,0.0084729999999998,0.0055504000000005,-0.0020271999999992,-0.0007677999999999,0,sub_20
0.0016913999999997,0.0059856000000012,0.0084423999999998,0.0038386000000005,-0.0026621999999992,-0.0003515999999999,0,sub_20
0.0022927999999997,0.0063962000000012,0.0086381999999999,0.0023462000000005,-0.0032411999999992,-0.0001225999999999,0,sub_20
0.0023913999999997,0.0070024000000012,0.0088085999999999,0.0008536000000005,-0.0036079999999992,0.0003197999999999,0,sub_20
0.0022767999999997,0.0075508000000012,0.0083285999999999,4.200000000566815e-06,-0.0033377999999992,0.0007657999999999,0,sub_20
0.0021147999999997,0.0079918000000012,0.0080441999999999,-0.0008451999999994,-0.0026431999999992,0.0016385999999999,0,sub_20
0.0014837999999997,0.0085822000000012,0.0078183999999999,-0.0010525999999994,-0.0021613999999992,0.0018751999999999,0,sub_20
0.0007423999999997,0.0083706000000012,0.0076955999999999,0.0002258000000005,-0.0030163999999992,0.0014579999999999,0,sub_20
1.7999999999742506e-05,0.0080678000000012,0.0077837999999999,0.0017138000000005,-0.0049365999999992,0.0008298,0,sub_20
-0.0002404000000002,0.0077774000000012,0.0076779999999999,0.0027768000000005,-0.0066413999999992,-1.5199999999993734e-05,0,sub_20
0.0003129999999997,0.0072186000000012,0.0077985999999999,0.0031968000000005,-0.0076507999999992,-0.0004099999999999,0,sub_20
0.0006993999999997,0.0069144000000012,0.0079169999999999,0.0036188000000005,-0.0075973999999991,-0.0001651999999999,0,sub_20
0.0013305999999997,0.0074572000000012,0.0075481999999999,0.0025480000000005,-0.0071133999999991,0.0002822,0,sub_20
0.0024661999999997,0.0076382000000012,0.0068771999999999,0.0023346000000005,-0.0057801999999991,0.0007346,0,sub_20
0.0029007999999997,0.0072934000000012,0.0068659999999999,0.0023336000000005,-0.0046607999999991,0.0011888,0,sub_20
0.0018753999999997,0.0073392000000012,0.0067619999999999,0.0029738000000005,-0.0046629999999991,0.0011934,0,sub_20
0.0016679999999997,0.0072608000000012,0.0069299999999999,0.0029748000000005,-0.0050863999999991,0.000553,0,sub_20
0.0016741999999997,0.0063654000000012,0.0079943999999999,0.0029768000000005,-0.0046603999999992,0.0005526,0,sub_20
0.0006467999999997,0.0065518000000012,0.0090087999999999,0.0012770000000005,-0.0031187999999992,0.0005685999999999,0,sub_20
0.0002163999999997,0.0071054000000012,0.0096081999999999,-0.0004187999999994,-0.0007247999999992,0.0005835999999999,0,sub_20
0.0005293999999997,0.0073522000000012,0.0097489999999999,-0.0008363999999994,0.0012386000000007,0.0006077999999999,0,sub_20
0.0013409999999997,0.0067272000000012,0.0096241999999999,-0.0004033999999994,0.0025598000000007,0.0006389999999999,0,sub_20
0.0018615999999997,0.0068488000000012,0.0090915999999999,-0.0008239999999993,0.0032474000000007,2.399999999998636e-05,0,sub_20
0.0026257999999997,0.0064094000000012,0.0088557999999999,-0.0018907999999993,0.0030390000000007,-0.0001967999999999,0,sub_20
0.0028089999999997,0.0066754000000012,0.0078875999999999,-0.0038187999999993,0.0019778000000007,0.000432,0,sub_20
0.0028397999999997,0.0067924000000012,0.0071415999999999,-0.0068131999999993,0.0018068000000007,0.0012922,0,sub_20
0.0017649999999997,0.0068544000000012,0.0065585999999999,-0.0087425999999993,0.0024792000000007,0.0034406,0,sub_20
0.0010435999999997,0.0070214000000012,0.0052109999999999,-0.0083219999999994,0.0035706000000007,0.0053912,0,sub_20
0.0007961999999997,0.0074360000000012,0.0041805999999999,-0.0059791999999994,0.0040202000000007,0.0062878,0,sub_20
0.0012771999999997,0.0073504000000012,0.0041299999999999,-0.0029963999999994,0.0027700000000007,0.0054818,0,sub_20
0.0018357999999997,0.0078526000000012,0.0041233999999999,-1.2999999999413134e-05,0.0004220000000007,0.0040102,0,sub_20
0.0022609999999997,0.0089870000000012,0.0046161999999999,0.0019044000000005,-0.0025579999999992,0.0016772,0,sub_20
0.0026251999999997,0.0094600000000012,0.0055227999999999,0.0029626000000005,-0.0055401999999992,0.0006202,0,sub_20
0.0025105999999997,0.0088394000000012,0.0065809999999999,0.0031580000000005,-0.0072185999999992,0.0006428,0,sub_20
0.0015117999999997,0.0083936000000012,0.0073541999999999,0.0031430000000005,-0.0071959999999992,0.00173,0,sub_20
