userAcceleration.x,userAcceleration.y,userAcceleration.z,rotationRate.x,rotationRate.y,rotationRate.z,label,subject
-0.0222840000000003,-0.0090299999999986,0.026754,0.0678592000000005,-0.2398455999999992,-0.0695558,0,sub_24
-0.0336580000000003,-0.0013213999999987,0.020365,0.0792098000000005,-0.2676241999999993,-0.0589724,0,sub_24
-0.0405120000000003,0.0034346000000012,0.0136574,0.0819478000000005,-0.2354329999999992,-0.0662584,0,sub_24
-0.0393102000000003,0.0056398000000012,0.008359,0.0828946000000005,-0.1715021999999993,-0.0706066,0,sub_24
-0.0269918000000003,0.0055192000000013,0.0074935999999999,0.0845228000000005,-0.1304323999999992,-0.059538,0,sub_24
-0.0165298000000004,0.0043342000000013,0.0082577999999999,0.0848868000000005,-0.1279427999999992,-0.0430878,0,sub_24
-0.0138122000000004,0.0046372000000013,0.0084401999999999,0.0824248000000005,-0.1428901999999992,-0.0326176,0,sub_24
-0.0162508000000003,0.0088682000000013,0.0097421999999999,0.0681328000000005,-0.1432603999999992,-0.0342128,0,sub_24
-0.0192968000000003,0.0191428000000012,0.0148789999999999,0.0418624000000005,-0.1164751999999992,-0.0498148,0,sub_24
-0.0216958000000003,0.0235198000000012,0.0217603999999999,0.0142590000000005,-0.0674737999999992,-0.0789146,0,sub_24
-0.0203634000000003,0.0209930000000012,0.0280023999999999,-0.0113935999999994,-0.0161161999999992,-0.112917,0,sub_24
-0.0201946000000003,0.0167072000000012,0.0301693999999999,-0.0374781999999994,0.0337526000000007,-0.1471338,0,sub_24
-0.0180842000000003,0.0190432000000012,0.0277924,-0.0620979999999994,0.0829540000000007,-0.1755710000000001,0,sub_24
-0.0122914000000004,0.0185088000000012,0.0249822,-0.0852919999999994,0.1197822000000007,-0.2012036,0,sub_24
-0.0054066000000004,0.0199338000000012,0.0187362,-0.1051889999999994,0.1380332000000007,-0.2193116,0,sub_24
0.0033195999999995,0.0189156000000012,0.0118378,-0.1242371999999994,0.1673100000000006,-0.2248234000000001,0,sub_24
0.0206233999999995,0.0171626000000012,0.0076928,-0.1445809999999993,0.2078242000000006,-0.2156170000000001,0,sub_24
0.0274295999999996,0.0070706000000012,0.0008292,-0.1554333999999994,0.2350504000000006,-0.1950042,0,sub_24
0.0217617999999996,-0.0020775999999987,-0.0092437999999999,-0.1516041999999993,0.2556104000000007,-0.1717164,0,sub_24
0.0079627999999996,-0.0065193999999987,-0.0159257999999999,-0.1444123999999993,0.3038892000000007,-0.156773,0,sub_24
-0.0056992000000003,-0.0046811999999987,-0.0181931999999999,-0.1397329999999993,0.3528562000000007,-0.1518892,0,sub_24
-0.0186370000000003,0.0025016000000012,-0.0179887999999999,-0.1336147999999994,0.3818226000000006,-0.1548746,0,sub_24
-0.0225116000000003,0.0129202000000012,-0.0111539999999999,-0.1440627999999993,0.4192104000000006,-0.1682378,0,sub_24
-0.0222374000000003,0.0229126000000012,-0.0002935999999999,-0.1689521999999994,0.4615898000000006,-0.1919634,0,sub_24
-0.0191632000000003,0.0274002000000012,0.0093706,-0.2019773999999993,0.4897556000000007,-0.223846,0,sub_24
-0.0164250000000003,0.0269564000000012,0.0165252,-0.2398297999999994,0.5307422000000007,-0.2609062000000001,0,sub_24
-0.0104412000000003,0.0169856000000012,0.0220228,-0.2857309999999994,0.5900592000000007,-0.2929186000000001,0,sub_24
-0.0036618000000003,0.0089948000000012,0.0231298,-0.3220633999999994,0.6157880000000008,-0.3019648000000001,0,sub_24
-0.0058602000000003,-0.0008085999999987,0.0145346,-0.3422803999999994,0.5991644000000007,-0.2830704,0,sub_24
-0.0203478000000003,-0.0107155999999987,0.0031148,-0.3394201999999994,0.5615036000000007,-0.2447598000000001,0,sub_24
-0.0395826000000003,-0.0163417999999986,-0.0079513999999999,-0.3149147999999994,0.5003188000000007,-0.2032768000000001,0,sub_24
-0.0602462000000003,-0.0151545999999986,-0.0141603999999999,-0.2761507999999993,0.4218626000000007,-0.1706452000000001,0,sub_24
-0.0707730000000003,-0.0166563999999986,-0.0135015999999999,-0.2323545999999993,0.3549590000000007,-0.1542304,0,sub_24
-0.0682494000000003,-0.0165329999999986,-0.0077613999999999,-0.1886367999999993,0.3098206000000007,-0.146176,0,sub_24
-0.0523176000000003,-0.0128363999999986,-0.0031232,-0.1530001999999994,0.2727980000000007,-0.136052,0,sub_24
-0.0353986000000003,-0.0098087999999986,0.0037815999999999,-0.1287001999999994,0.2387612000000007,-0.1168244,0,sub_24
-0.0210366000000003,-0.0075539999999986,0.0089433999999999,-0.1101189999999994,0.2198482000000007,-0.0918878,0,sub_24
-0.0158726000000003,-0.0037273999999987,0.0094777999999999,-0.0923625999999994,0.2088152000000007,-0.0654714000000001,0,sub_24
-0.0129706000000003,-0.0031631999999987,0.0040883999999999,-0.0724569999999994,0.1973640000000007,-0.042885,0,sub_24
-0.0134134000000003,-0.0057261999999987,-0.0016779999999999,-0.0478217999999994,0.1891110000000007,-0.0249698,0,sub_24
-0.0077642000000003,-0.0094589999999987,-0.0075739999999999,-0.0221063999999994,0.1844734000000007,-0.0064108,0,sub_24
0.0019485999999995,-0.0050923999999987,-0.0078729999999999,-0.0011465999999994,0.1708854000000007,0.0168267999999999,0,sub_24
0.0120993999999995,-0.0009237999999987,-0.0044467999999999,0.0138072000000005,0.1526224000000007,0.0421661999999999,0,sub_24
0.0189751999999995,0.0044102000000012,0.0032788,0.0253902000000005,0.1441710000000006,0.0676829999999999,0,sub_24
0.0194203999999995,0.0087880000000012,0.0090036,0.0282882000000005,0.1476896000000007,0.0909871999999999,0,sub_24
0.0117023999999995,0.0122616000000012,0.0128269999999999,0.0311812000000005,0.1454746000000006,0.1095983999999999,0,sub_24
5.959999999957458e-05,0.0065046000000012,0.0102334,0.0421336000000005,0.1253628000000006,0.1212385999999999,0,sub_24
-0.0138320000000004,0.0025108000000012,0.0058714,0.0582010000000005,0.0980122000000006,0.1271521999999998,0,sub_24
-0.0253372000000004,0.0019922000000012,0.0025606,0.0697646000000005,0.0587736000000007,0.1262129999999999,0,sub_24
-0.0314362000000003,0.0020958000000012,0.0019816,0.0838532000000005,0.0073990000000007,0.1210341999999999,0,sub_24
-0.0295884000000003,0.0016006000000012,0.0024382,0.0967104000000005,-0.0337419999999992,0.1151925999999999,0,sub_24
-0.0218292000000003,0.0045176000000012,0.0056202,0.1007190000000005,-0.0480137999999992,0.1109637999999999,0,sub_24
-0.0114716000000003,0.0049586000000012,0.009626,0.0966360000000005,-0.0573611999999992,0.1077425999999998,0,sub_24
-0.0060228000000003,0.0041000000000012,0.0106998,0.0906204000000005,-0.0701075999999992,0.1036577999999998,0,sub_24
-0.0056684000000003,0.0057486000000012,0.0094666,0.0838258000000005,-0.0696281999999993,0.0961301999999998,0,sub_24
-0.0067474000000003,0.0070502000000012,0.0063354,0.0754158000000005,-0.0548443999999992,0.0825909999999998,0,sub_24
-0.0044568000000003,0.0043046000000012,0.0023726,0.0695096000000005,-0.0507299999999992,0.0710057999999998,0,sub_24
-0.0032578000000003,0.0040092000000012,0.0006594,0.0660602000000005,-0.0624199999999992,0.0669351999999998,0,sub_24
-0.0072772000000003,0.0051704000000012,0.0033578,0.0619124000000005,-0.0822233999999993,0.0677831999999998,0,sub_24
-0.0095978000000003,0.0053148000000012,0.0075541999999999,0.0630650000000005,-0.1080169999999992,0.0701725999999998,0,sub_24
-0.0141320000000003,0.0031568000000012,0.0048581999999999,0.0691128000000005,-0.1361729999999993,0.0730257999999998,0,sub_24
-0.0207174000000003,0.0024796000000012,0.0014925999999999,0.0781662000000005,-0.1641109999999992,0.0720539999999998,0,sub_24
-0.0227818000000003,0.0024844000000012,0.0013053999999999,0.0876434000000005,-0.1965093999999993,0.0672453999999999,0,sub_24
-0.0192182000000003,0.0024078000000012,0.0016651999999999,0.0971102000000005,-0.2310389999999992,0.0626537999999998,0,sub_24
-0.0171444000000003,0.0006072000000012,0.0013736,0.0969970000000005,-0.2602109999999992,0.0586301999999998,0,sub_24
-0.0145882000000003,0.0028700000000012,0.0067264,0.0911214000000005,-0.2876661999999993,0.0564879999999998,0,sub_24
-0.0144690000000003,0.0070954000000012,0.010896,0.0844094000000005,-0.3108589999999992,0.0547613999999999,0,sub_24
-0.0173800000000003,0.0070658000000012,0.0080716,0.0826818000000005,-0.3204199999999992,0.0496333999999999,0,sub_24
-0.0202894000000003,0.0046364000000012,0.001255,0.0829058000000005,-0.3263527999999993,0.0413091999999999,0,sub_24
-0.0213698000000003,0.0044330000000012,-0.0016965999999999,0.0841214000000005,-0.3503937999999992,0.0317311999999999,0,sub_24
-0.0230324000000003,0.0051516000000012,-0.0024159999999999,0.0859044000000005,-0.3940243999999993,0.0187633999999999,0,sub_24
-0.0268928000000003,0.0021474000000012,-0.0032841999999999,0.0888052000000005,-0.4316719999999993,0.0004537999999999,0,sub_24
-0.0289510000000003,0.0022342000000012,-0.0038027999999999,0.0885766000000005,-0.4539667999999993,-0.0183252,0,sub_24
-0.0265358000000003,0.0042908000000012,-0.0039245999999999,0.0860240000000005,-0.4649701999999992,-0.032433,0,sub_24
-0.0182462000000003,0.0051896000000012,-0.0055103999999999,0.0783224000000005,-0.4783141999999992,-0.0427258,0,sub_24
-0.0111106000000003,0.0022208000000012,-0.0080295999999999,0.0650246000000005,-0.4997455999999992,-0.0502692,0,sub_24
-0.0070372000000003,0.0034300000000012,-0.0058603999999999,0.0495536000000005,-0.5318145999999994,-0.059736,0,sub_24
-0.0053748000000003,0.0053822000000012,-0.0037021999999999,0.0398682000000005,-0.5660035999999993,-0.0768502,0,sub_24
0.0003049999999996,0.0058180000000012,-0.0090439999999999,0.0411402000000005,-0.5891451999999993,-0.098176,0,sub_24
0.0116901999999996,0.0037570000000012,-0.0180105999999999,0.0566094000000005,-0.5825263999999992,-0.114954,0,sub_24
0.0291967999999996,0.0091268000000012,-0.0134193999999999,0.0697436000000005,-0.5606099999999993,-0.119163,0,sub_24
0.0509213999999995,0.0140110000000012,-0.0136363999999999,0.0782092000000005,-0.5607015999999994,-0.1035072,0,sub_24
0.0642725999999996,0.0158070000000012,-0.0195525999999999,0.0782422000000005,-0.5725339999999993,-0.0748626,0,sub_24
0.0638593999999996,0.0173290000000012,-0.0224581999999999,0.0770706000000005,-0.5662573999999994,-0.044968,0,sub_24
0.0572321999999995,0.0212958000000012,-0.0240299999999999,0.0738596000000005,-0.5450353999999994,-0.021303,0,sub_24
0.0512129999999995,0.0210580000000012,-0.0375077999999999,0.0888370000000005,-0.5181013999999993,-0.0032868,0,sub_24
0.0465727999999996,0.0168544000000012,-0.0467687999999999,0.1188722000000005,-0.4647983999999993,0.0141599999999999,0,sub_24
0.0512061999999996,0.0153546000000012,-0.0487931999999999,0.1553104000000005,-0.4017547999999992,0.0410391999999999,0,sub_24
0.0608385999999996,0.0177682000000012,-0.0460981999999999,0.1906900000000005,-0.3764501999999992,0.0758641999999999,0,sub_24
0.0601107999999996,0.0220790000000012,-0.0442741999999999,0.2218764000000005,-0.3845703999999993,0.1081389999999999,0,sub_24
0.0546735999999996,0.0229154000000012,-0.0437237999999999,0.2412376000000005,-0.3793823999999993,0.1259999999999999,0,sub_24
0.0574675999999996,0.0261048000000012,-0.0324857999999999,0.2435238000000005,-0.3465751999999992,0.1249055999999999,0,sub_24
0.0656321999999995,0.0295780000000012,-0.0203923999999999,0.2392624000000005,-0.3102901999999992,0.1122243999999998,0,sub_24
0.0765665999999995,0.0303040000000012,-0.0072211999999999,0.2191152000000005,-0.2496543999999992,0.0976917999999999,0,sub_24
0.0893233999999995,0.0312046000000012,-0.0005371999999999,0.1919918000000005,-0.1679281999999992,0.0897063999999999,0,sub_24
0.0951915999999995,0.0330148000000012,0.0038284,0.1646264000000005,-0.0834681999999992,0.0909025999999998,0,sub_24
0.0874595999999995,0.0343134000000012,-0.0046519999999999,0.1384740000000005,-0.0109555999999992,0.0951135999999998,0,sub_24
0.0704421999999996,0.0299944000000012,-0.0087939999999999,0.1087164000000005,0.0584064000000007,0.0911847999999998,0,sub_24
0.0534425999999996,0.0237632000000012,-0.0161371999999999,0.0916768000000005,0.0998504000000007,0.0781939999999998,0,sub_24
0.0421301999999996,0.0156542000000012,-0.0192483999999999,0.0854128000000005,0.1152732000000007,0.0629617999999998,0,sub_24
0.0395223999999996,0.0094964000000012,-0.0227883999999999,0.0841632000000005,0.1116976000000007,0.0524889999999999,0,sub_24
0.0402067999999996,0.0105552000000012,-0.0245119999999999,0.0872698000000005,0.0914440000000007,0.0531775999999999,0,sub_24
0.0440749999999996,0.0161174000000012,-0.0305815999999999,0.0886080000000005,0.0679588000000007,0.0643265999999999,0,sub_24
0.0481601999999996,0.0191000000000012,-0.0340579999999999,0.0849432000000005,0.0713336000000006,0.0760471999999999,0,sub_24
0.0524165999999995,0.0267380000000012,-0.0297209999999999,0.0799124000000005,0.0966836000000006,0.0813205999999999,0,sub_24
0.0547517999999995,0.0345546000000012,-0.0182353999999999,0.0702892000000005,0.1342368000000006,0.0758661999999998,0,sub_24
0.0589457999999995,0.0330592000000012,-0.0070003999999999,0.0518836000000005,0.2010522000000007,0.0596305999999998,0,sub_24
0.0659693999999996,0.0307684000000012,0.0033856,0.0254964000000005,0.2898660000000007,0.0369041999999998,0,sub_24
0.0718821999999995,0.0303582000000012,0.012812,-0.0143485999999994,0.3768032000000006,0.0155817999999998,0,sub_24
0.0703747999999996,0.0271120000000012,0.0173734,-0.0660015999999994,0.4524710000000007,-0.0011074000000001,0,sub_24
0.0602541999999996,0.0229240000000012,0.0169064,-0.1149297999999994,0.5202332000000007,-0.0145648000000001,0,sub_24
0.0444499999999996,0.0175424000000012,0.007008,-0.1500269999999994,0.5766662000000007,-0.0306886,0,sub_24
0.0287805999999996,0.0128868000000012,-0.0004781999999999,-0.1691355999999994,0.6294222000000007,-0.046912,0,sub_24
0.0152693999999996,0.0111600000000012,-0.0016024,-0.1774589999999994,0.6646536000000006,-0.0589784,0,sub_24
0.0054635999999996,0.0054798000000012,-0.0038704,-0.1837843999999994,0.6732314000000008,-0.0673656,0,sub_24
-0.0031434000000003,0.0073284000000012,-0.009563,-0.1882391999999994,0.6649944000000007,-0.0814868,0,sub_24
-0.0088300000000003,0.0176326000000012,-0.0111952,-0.1869061999999994,0.6571854000000007,-0.1011226,0,sub_24
-0.0083346000000003,0.0235972000000012,-0.0109124,-0.1843979999999994,0.6670816000000006,-0.1271824,0,sub_24
0.0024839999999996,0.0247654000000012,-0.0075464,-0.1866805999999994,0.7051096000000008,-0.1511752000000001,0,sub_24
0.0180593999999996,0.0244584000000012,-0.000203,-0.1983427999999994,0.7540002000000008,-0.1662746000000001,0,sub_24
0.0264683999999996,0.0157520000000012,0.0022571999999999,-0.2213895999999993,0.8007410000000007,-0.166709,0,sub_24
0.0308927999999996,0.0047474000000012,0.0026047999999999,-0.2453867999999994,0.8378498000000008,-0.1551738,0,sub_24
0.0194371999999996,-0.0018105999999987,-0.0063184,-0.2592531999999993,0.8559380000000006,-0.137775,0,sub_24
-0.0038928000000003,-0.0077645999999987,-0.0219787999999999,-0.2515879999999994,0.8618384000000006,-0.128115,0,sub_24
-0.0259296000000003,-0.0092677999999987,-0.0338509999999999,-0.2223237999999994,0.8668712000000006,-0.1313366,0,sub_24
-0.0342176000000003,-0.0060441999999987,-0.029815,-0.1856451999999993,0.8537932000000007,-0.140679,0,sub_24
-0.0389668000000003,-0.0043079999999987,-0.0196948,-0.1576805999999994,0.7970844000000008,-0.153872,0,sub_24
-0.0372252000000003,0.0020722000000012,-0.0071112,-0.1394511999999994,0.7095216000000006,-0.1683752,0,sub_24
-0.0272034000000003,0.0088076000000012,0.0039771999999999,-0.1333629999999994,0.6319934000000007,-0.1776352000000001,0,sub_24
-0.0156230000000003,0.0126204000000012,0.0111493999999999,-0.1354557999999994,0.5911044000000008,-0.1801612,0,sub_24
-0.0003894000000003,0.0131898000000012,0.0103411999999999,-0.1387617999999994,0.5744702000000007,-0.1733264,0,sub_24
0.0060967999999996,0.0101732000000012,0.0038007999999999,-0.1436123999999994,0.5626768000000006,-0.1502716,0,sub_24
0.0066857999999996,0.0026214000000012,-0.0031108,-0.1493939999999994,0.5404196000000008,-0.1203734,0,sub_24
-0.0079542000000003,-0.0041135999999987,-0.011992,-0.1469527999999994,0.4883374000000007,-0.0982842,0,sub_24
-0.0240184000000003,-0.0083193999999986,-0.0209879999999999,-0.1296245999999994,0.4149394000000007,-0.0865324,0,sub_24
-0.0414976000000003,-0.0120441999999986,-0.0264537999999999,-0.1004897999999994,0.3483540000000006,-0.0836798,0,sub_24
-0.0439840000000004,-0.0117893999999987,-0.0231693999999999,-0.0658911999999994,0.3022362000000007,-0.0891474,0,sub_24
-0.0410264000000003,-0.0108893999999987,-0.0151693999999999,-0.0346845999999994,0.2625160000000007,-0.0931514,0,sub_24
-0.0341848000000003,-0.0065777999999987,-0.0040224,-0.0184563999999994,0.2242958000000006,-0.086366,0,sub_24
-0.0374588000000003,-0.0020717999999987,0.0038575999999999,-0.0156943999999994,0.1858890000000007,-0.074547,0,sub_24
-0.0408976000000003,-0.0028083999999987,0.0047819999999999,-0.0141543999999994,0.1573000000000007,-0.065954,0,sub_24
-0.0473444000000003,-0.0057189999999987,0.0025849999999999,-0.0093177999999994,0.1476708000000006,-0.0597122,0,sub_24
-0.0485430000000003,-0.0066471999999987,0.0049135999999999,-0.0040381999999994,0.1418742000000007,-0.0532586,0,sub_24
-0.0517198000000003,-0.0059081999999987,0.0052281999999999,0.0047708000000005,0.1126366000000007,-0.0486744,0,sub_24
-0.0511744000000003,-0.0040395999999987,0.0054686,0.0135134000000005,0.0676372000000007,-0.0451386,0,sub_24
-0.0522056000000003,-0.0016213999999987,0.0044706,0.0214000000000005,0.0207280000000007,-0.0428908,0,sub_24
-0.0483240000000003,0.0011086000000012,0.0063902,0.0273862000000005,-0.0257319999999992,-0.0447162,0,sub_24
-0.0416010000000003,0.0026258000000012,0.0033246,0.0364026000000005,-0.0630395999999992,-0.046959,0,sub_24
-0.0292350000000003,0.0012916000000012,0.001436,0.0427030000000005,-0.0858571999999992,-0.0473154,0,sub_24
-0.0213574000000003,-0.0024873999999987,-0.0032303999999999,0.0468448000000005,-0.1101747999999993,-0.0436256,0,sub_24
-0.0154552000000003,-0.0015455999999987,-0.0050939999999999,0.0470982000000005,-0.1427971999999992,-0.0376012,0,sub_24
-0.0149324000000003,-0.0002873999999987,-0.0104157999999999,0.0486464000000005,-0.1718039999999992,-0.0311452,0,sub_24
-0.0141548000000003,-0.0005511999999987,-0.0157559999999999,0.0536498000000005,-0.1929351999999992,-0.025744,0,sub_24
-0.0097420000000003,-0.0003091999999987,-0.0202941999999999,0.0676454000000005,-0.2057945999999992,-0.0187952,0,sub_24
-0.0001962000000003,0.0017756000000012,-0.0214213999999999,0.0867500000000005,-0.2174093999999992,-0.0077522,0,sub_24
0.0072107999999995,0.0014988000000012,-0.0222317999999999,0.1056044000000005,-0.2332997999999992,0.0071417999999998,0,sub_24
0.0158739999999995,0.0028970000000012,-0.0187033999999999,0.1223422000000005,-0.2430141999999993,0.0245767999999998,0,sub_24
0.0217089999999995,0.0090234000000012,-0.0128097999999999,0.1301406000000005,-0.2473719999999992,0.0421563999999998,0,sub_24
0.0220469999999995,0.0125092000000012,-0.0089741999999999,0.1281206000000005,-0.2533955999999992,0.0586029999999998,0,sub_24
0.0207867999999995,0.0094688000000012,-0.0079875999999999,0.1278398000000006,-0.2543035999999993,0.0729177999999998,0,sub_24
0.0200425999999996,0.0083836000000013,-0.0062019999999999,0.1267858000000006,-0.2424055999999992,0.0822967999999998,0,sub_24
0.0143741999999996,0.0088456000000013,-0.0058705999999999,0.1195162000000005,-0.2415445999999992,0.0865191999999998,0,sub_24
0.0053399999999996,0.0071008000000013,-0.0073323999999999,0.1158680000000006,-0.2460063999999992,0.0867143999999999,0,sub_24
0.0003679999999996,0.0069566000000013,-0.0081614,0.1182768000000005,-0.2359863999999993,0.0830863999999999,0,sub_24
0.0004143999999996,0.0126630000000013,-0.0068265999999999,0.1124036000000005,-0.2193239999999992,0.0772565999999999,0,sub_24
0.0010685999999996,0.0166290000000012,-0.0024293999999999,0.1018028000000006,-0.2058571999999992,0.0754575999999999,0,sub_24
0.0030777999999996,0.0173308000000012,0.0019894,0.0924828000000005,-0.1885743999999992,0.0772945999999999,0,sub_24
0.0041373999999996,0.0151784000000012,0.0035492,0.0829752000000005,-0.1659629999999993,0.0786963999999999,0,sub_24
0.0037753999999995,0.0143204000000012,0.0022666,0.0730506000000005,-0.1427047999999992,0.0785991999999999,0,sub_24
0.0031325999999995,0.0133784000000012,0.0026628,0.0669894000000006,-0.1160445999999992,0.0768147999999999,0,sub_24
0.0044045999999995,0.0121706000000012,0.0030922,0.0609292000000005,-0.0902323999999993,0.0739633999999999,0,sub_24
0.0054405999999995,0.0112758000000012,0.0026812,0.0501672000000005,-0.0692911999999992,0.0678809999999999,0,sub_24
0.0051861999999995,0.0119006000000012,0.0034218,0.0359852000000006,-0.0525869999999992,0.0587891999999999,0,sub_24
0.0006375999999995,0.0130430000000012,0.0023986,0.0209466000000006,-0.0405509999999992,0.0456375999999999,0,sub_24
-0.0045506000000004,0.0119558000000012,0.0007726,0.0084898000000006,-0.0263831999999992,0.0299369999999999,0,sub_24
-0.0070680000000003,0.0101172000000012,-0.0033019999999999,0.0032732000000006,-0.0150015999999992,0.0134315999999999,0,sub_24
-0.0069578000000003,0.0114028000000012,-0.0075631999999999,0.0050518000000006,-0.0109009999999992,0.0001889999999999,0,sub_24
-0.0060904000000003,0.0121164000000012,-0.0126515999999999,0.0063488000000006,-0.0140631999999992,-0.0079204,0,sub_24
-0.0014650000000004,0.0123972000000012,-0.0119145999999999,0.0023110000000005,-0.0140243999999992,-0.0126526,0,sub_24
0.0099363999999995,0.0155738000000012,-0.0086403999999999,-0.0106379999999994,-0.0011769999999993,-0.015967,0,sub_24
0.0212291999999995,0.0214562000000012,-0.0033103999999999,-0.0349893999999994,0.0381196000000006,-0.0183218,0,sub_24
0.0370933999999995,0.0222036000000012,0.0023532,-0.0671133999999994,0.1045022000000006,-0.0209796,0,sub_24
0.0530659999999995,0.0219466000000012,0.0053497999999999,-0.0985119999999994,0.1906932000000006,-0.022803,0,sub_24
0.0640599999999995,0.0186848000000012,0.0059451999999999,-0.1243639999999994,0.2811078000000007,-0.0201068,0,sub_24
0.0559087999999995,0.0124718000000012,0.0033375999999999,-0.1369037999999994,0.3471686000000007,-0.012587,0,sub_24
0.0310629999999995,0.0070912000000012,-0.0002602,-0.1346463999999994,0.3831332000000007,-0.0040716000000001,0,sub_24
-0.0031706000000004,0.0093984000000012,-0.0071364,-0.1315949999999993,0.4029148000000007,0.0014791999999998,0,sub_24
-0.0334098000000003,0.0142924000000012,-0.0101859999999999,-0.1355723999999994,0.4184878000000006,-6.420000000010792e-05,0,sub_24
-0.0521420000000003,0.0195926000000012,-0.0138063999999999,-0.1470235999999993,0.4258062000000007,-0.0086994000000001,0,sub_24
-0.0567720000000003,0.0240320000000012,-0.0159297999999999,-0.1745425999999993,0.4581408000000007,-0.0255972000000001,0,sub_24
-0.0457612000000003,0.0189552000000012,-0.0126209999999999,-0.2185789999999993,0.5105920000000007,-0.0505412,0,sub_24
-0.0305744000000003,0.0093974000000012,-0.0069664,-0.2618097999999993,0.5511142000000007,-0.076746,0,sub_24
-0.0199232000000003,0.0041194000000012,-0.0036664,-0.2940191999999993,0.5762538000000007,-0.1017858,0,sub_24
-0.0167238000000003,0.0002712000000012,0.0004085999999999,-0.3139943999999994,0.6116004000000007,-0.1325216,0,sub_24
-0.0181106000000003,-0.0054965999999987,-0.0016766,-0.3241695999999994,0.6483844000000007,-0.1582772000000001,0,sub_24
-0.0225498000000003,-0.0042523999999987,-0.0099316,-0.3278689999999994,0.6705920000000006,-0.1675186,0,sub_24
-0.0295308000000003,-0.0050759999999987,-0.0207793999999999,-0.3289833999999993,0.6697044000000008,-0.1576982,0,sub_24
-0.0444714000000004,-0.0135797999999987,-0.0345907999999999,-0.3268967999999994,0.6369968000000007,-0.1320068,0,sub_24
-0.0697118000000003,-0.0180539999999986,-0.0515491999999999,-0.3197347999999994,0.5645710000000006,-0.088283,0,sub_24
-0.0938564000000004,-0.0163803999999986,-0.0649573999999999,-0.3044325999999994,0.4628836000000007,-0.0333552,0,sub_24
