userAcceleration.x,userAcceleration.y,userAcceleration.z,rotationRate.x,rotationRate.y,rotationRate.z,label,subject
0.0396441999999997,0.1113660000000012,-0.0048348,0.1063194000000005,0.649482000000001,0.0227016,0,sub_24
-0.0283892000000002,0.1161166000000012,-0.025023,0.0728622000000005,0.6088878000000009,-0.0262145999999999,0,sub_24
-0.0802672000000002,0.1052598000000012,-0.046862,0.0750542000000005,0.433719800000001,-0.0721219999999999,0,sub_24
-0.1000094000000002,0.0502114000000012,-0.0616306,0.1111154000000005,0.210234800000001,-0.1057667999999999,0,sub_24
-0.0841542000000003,-0.0204295999999987,-0.0585928,0.1349936000000005,0.0336486000000009,-0.1354975999999999,0,sub_24
-0.0423514000000003,-0.0377819999999987,-0.0452276,0.1469364000000005,-0.127605399999999,-0.1529399999999999,0,sub_24
0.0011971999999996,-0.0249303999999987,-0.0163386,0.1589560000000005,-0.254626999999999,-0.1531205999999999,0,sub_24
0.0340239999999996,-0.0014243999999987,0.0175345999999999,0.1641512000000005,-0.266227799999999,-0.1336277999999999,0,sub_24
0.0526569999999996,0.0181628000000012,0.0439417999999999,0.1519068000000005,-0.205802599999999,-0.1023849999999999,0,sub_24
0.0479789999999996,0.0192410000000012,0.0470661999999999,0.1377820000000005,-0.172475199999999,-0.0595837999999999,0,sub_24
0.0156275999999996,0.0121760000000012,0.0252261999999999,0.1308932000000005,-0.186276599999999,-0.0121851999999999,0,sub_24
-0.0200726000000003,0.0064910000000012,0.0019273999999999,0.1324090000000005,-0.239268599999999,0.0250674,0,sub_24
-0.0533178000000003,-0.0012227999999987,-0.0180942,0.1463902000000005,-0.345040399999999,0.0370512,0,sub_24
-0.0698632000000002,-0.0061875999999987,-0.0248916,0.1718934000000005,-0.473345599999999,0.0264978,0,sub_24
-0.0653640000000002,-0.0026919999999987,-0.0207982,0.1940080000000005,-0.5636541999999991,0.0007034,0,sub_24
-0.0323754000000003,0.0026352000000012,0.0010017999999999,0.2007260000000005,-0.565282799999999,-0.0240303999999999,0,sub_24
0.0023195999999996,0.0065674000000012,0.0215545999999998,0.1829306000000005,-0.498072599999999,-0.0330001999999999,0,sub_24
0.0228967999999996,0.0148786000000012,0.0344729999999998,0.1585350000000005,-0.4079087999999989,-0.0221765999999999,0,sub_24
0.0212555999999996,0.0228944000000012,0.0321583999999998,0.1360464000000005,-0.312883199999999,-0.0034409999999999,0,sub_24
-0.0017136000000003,0.0205870000000012,0.0143791999999998,0.1182550000000005,-0.223600799999999,0.0089254,0,sub_24
-0.0288148000000003,0.0167558000000012,-0.0031164,0.1042122000000005,-0.166880199999999,0.009182,0,sub_24
-0.0507348000000003,0.0152144000000012,-0.0129458,0.1026136000000005,-0.151074999999999,0.0008184,0,sub_24
-0.0554212000000003,0.0092114000000012,-0.0167038,0.1049952000000005,-0.153598799999999,-0.0094167999999999,0,sub_24
-0.0537372000000003,0.0022206000000012,-0.0219108,0.1064600000000005,-0.164451599999999,-0.0138791999999999,0,sub_24
-0.0495774000000002,0.0024060000000012,-0.0220042,0.1051212000000005,-0.177018799999999,-0.0134451999999999,0,sub_24
-0.0461450000000002,0.0065926000000012,-0.0208548,0.0989122000000005,-0.179562199999999,-0.0113487999999999,0,sub_24
-0.0431512000000002,0.0104862000000012,-0.0253656,0.0884550000000005,-0.177829599999999,-0.0092875999999999,0,sub_24
-0.0421326000000003,0.0123428000000012,-0.0331882,0.0738958000000005,-0.189920399999999,-0.0100159999999999,0,sub_24
-0.0407972000000003,0.0160558000000012,-0.0361368,0.0563544000000005,-0.206667799999999,-0.0158891999999999,0,sub_24
-0.0340412000000003,0.0269040000000012,-0.0370296,0.0350806000000005,-0.202298399999999,-0.0245935999999999,0,sub_24
-0.0226292000000002,0.0269310000000012,-0.0367894,0.0179118000000005,-0.194502799999999,-0.0411785999999999,0,sub_24
-0.0093190000000002,0.0313256000000012,-0.0342986,-0.0024311999999994,-0.188582599999999,-0.0654733999999999,0,sub_24
-0.0001648000000002,0.0293258000000012,-0.0291506,-0.0225349999999994,-0.172028199999999,-0.0852923999999999,0,sub_24
0.0025147999999997,0.0238712000000012,-0.0267552,-0.0389753999999994,-0.1338077999999989,-0.0918653999999999,0,sub_24
-0.0050146000000002,0.0151732000000012,-0.024395,-0.0505503999999994,-0.099672999999999,-0.0932709999999999,0,sub_24
-0.0214374000000002,0.0181826000000012,-0.0220806,-0.0551741999999993,-0.083893399999999,-0.0926839999999999,0,sub_24
-0.0383778000000002,0.0140468000000012,-0.0175206,-0.0507737999999993,-0.0562057999999989,-0.0941867999999999,0,sub_24
-0.0414080000000002,0.0186720000000012,-0.0049816,-0.0497113999999993,-0.015918399999999,-0.1002165999999999,0,sub_24
-0.0266670000000002,0.0193724000000012,0.0127329999999999,-0.0525669999999994,0.0060650000000009,-0.1075319999999999,0,sub_24
-0.0043686000000002,0.0172240000000012,0.0247563999999999,-0.0621331999999994,0.0182250000000009,-0.1033449999999999,0,sub_24
0.0188715999999997,0.0116882000000012,0.0292703999999999,-0.0860011999999994,0.0421022000000009,-0.0864519999999999,0,sub_24
0.0309543999999996,0.0017272000000012,0.0321661999999998,-0.0999449999999994,0.0543926000000009,-0.0577241999999999,0,sub_24
0.0291897999999997,-0.0059765999999987,0.0229075999999999,-0.0921795999999994,0.0582818000000009,-0.0247737999999999,0,sub_24
0.0163193999999997,-0.0068629999999987,0.0075251999999999,-0.0795029999999994,0.0540938000000009,-0.0007517999999999,0,sub_24
0.0029641999999997,-0.0065697999999987,0.0016151999999999,-0.0555949999999994,0.0198770000000009,0.0105686,0,sub_24
-0.0082744000000002,-0.0060035999999987,0.0012297999999999,-0.0232221999999994,-0.027163999999999,0.024742,0,sub_24
-0.0226174000000002,-0.0035623999999987,0.0007729999999999,-0.0043935999999994,-0.085494999999999,0.0501582,0,sub_24
-0.0432754000000002,-0.0016585999999987,0.0006975999999999,0.0057410000000005,-0.172372399999999,0.082387,0,sub_24
-0.0626362000000002,-0.0095431999999987,0.0045997999999999,0.0244450000000005,-0.271138399999999,0.096511,0,sub_24
-0.0750032000000002,-0.0048351999999987,0.0117773999999999,0.0483714000000005,-0.375561399999999,0.082264,0,sub_24
-0.0827764000000002,0.0114034000000012,0.0172445999999999,0.0619136000000005,-0.483067799999999,0.048934,0,sub_24
-0.0757168000000002,0.0373346000000012,0.0214187999999999,0.0683124000000005,-0.572412799999999,0.008908,0,sub_24
-0.0468160000000002,0.0436470000000012,0.0297251999999999,0.0589062000000005,-0.6214195999999991,-0.0351255999999999,0,sub_24
-0.0212462000000002,0.0508488000000012,0.0364305999999999,0.0202104000000006,-0.647663799999999,-0.0451897999999999,0,sub_24
-0.0115864000000002,0.0410092000000012,0.0356977999999999,-0.0277465999999994,-0.649549599999999,-0.0115527999999999,0,sub_24
-0.0123420000000002,0.0134440000000012,0.0247627999999999,-0.0454369999999994,-0.6475383999999991,0.0336134,0,sub_24
-0.0185444000000002,-0.0154271999999987,0.0086979999999999,-0.0376263999999994,-0.6785999999999991,0.0689588,0,sub_24
-0.0341618000000003,-0.0221629999999987,-0.0104382,-0.0137637999999994,-0.750819599999999,0.0999824,0,sub_24
-0.0322820000000003,-0.0213291999999987,-0.0252168,0.0325568000000005,-0.8241307999999989,0.118132,0,sub_24
-0.0115768000000002,-0.0193239999999987,-0.0305322,0.0837000000000005,-0.876123999999999,0.129024,0,sub_24
0.0145585999999997,0.0159188000000012,-0.0259432,0.1065256000000005,-0.9101385999999992,0.1439684,0,sub_24
0.0386177999999996,0.0447894000000012,-0.0145654,0.0890914000000005,-0.879889399999999,0.1602584,0,sub_24
0.0616551999999996,0.0607214000000012,0.0046133999999999,0.0374792000000005,-0.767689199999999,0.1717182,0,sub_24
0.0733255999999996,0.0582708000000012,0.0180111999999999,-0.0157135999999994,-0.634574799999999,0.1758761999999999,0,sub_24
0.0744591999999996,0.0551836000000012,0.0152115999999999,-0.0642667999999994,-0.540145999999999,0.1534108,0,sub_24
0.0730093999999996,0.0275928000000012,0.0063183999999999,-0.1008355999999994,-0.459095999999999,0.1096818,0,sub_24
0.0747189999999996,0.0026974000000012,-0.0074752,-0.1118293999999993,-0.3964111999999989,0.0544046,0,sub_24
0.0806337999999996,-0.0149993999999987,-0.0240182,-0.0962609999999993,-0.365958999999999,-0.0085507999999999,0,sub_24
0.0880411999999996,-0.0200585999999987,-0.0326048,-0.0789243999999993,-0.325695199999999,-0.0755595999999999,0,sub_24
0.0984809999999996,-0.0196097999999987,-0.03147,-0.0655125999999994,-0.2384057999999989,-0.1242827999999999,0,sub_24
0.1069661999999996,-0.0149505999999987,-0.0255176,-0.0604289999999994,-0.131144799999999,-0.1517201999999999,0,sub_24
0.1089275999999996,-0.0107161999999987,-0.0202576,-0.0590867999999994,-0.022911399999999,-0.1526931999999999,0,sub_24
0.1001067999999996,-0.0087857999999987,-0.021873,-0.0563535999999994,0.0860742000000009,-0.1299427999999999,0,sub_24
0.0853675999999996,-0.0055769999999987,-0.0267572,-0.0484617999999994,0.1662350000000009,-0.0962269999999999,0,sub_24
0.0679205999999997,-0.0042521999999987,-0.0341852,-0.0336935999999994,0.2107870000000009,-0.0613491999999999,0,sub_24
0.0602655999999997,-0.0052515999999987,-0.039991,-0.0083141999999994,0.2410310000000009,-0.0274493999999999,0,sub_24
0.0662871999999996,-0.0012997999999987,-0.036639,0.0149834000000005,0.2662356000000009,-0.0102217999999999,0,sub_24
0.0790893999999996,0.0089248000000012,-0.0210616,0.0332724000000005,0.3011096000000009,-0.0088469999999999,0,sub_24
0.0895501999999996,0.0209412000000012,-0.0093152,0.0366234000000005,0.3759070000000009,-0.0151077999999999,0,sub_24
0.0943167999999996,0.0263632000000012,0.0003029999999999,0.0212070000000005,0.489165800000001,-0.0328709999999999,0,sub_24
0.0871573999999996,0.0273436000000012,0.0090701999999999,-0.0062497999999994,0.6150956000000011,-0.0654787999999999,0,sub_24
0.0670933999999996,0.0230370000000012,0.0090249999999999,-0.0348283999999994,0.725914400000001,-0.1010661999999999,0,sub_24
0.0415171999999997,0.0141860000000012,-0.0029424,-0.0610479999999994,0.791768200000001,-0.1363701999999999,0,sub_24
0.0165631999999997,0.0065890000000012,-0.0160844,-0.0799933999999994,0.813286000000001,-0.1728483999999999,0,sub_24
-0.0067314000000002,0.0045760000000012,-0.025236,-0.0916425999999994,0.8064012000000009,-0.1991991999999999,0,sub_24
-0.0297678000000002,0.0035874000000012,-0.0281532,-0.0947315999999994,0.7802208000000009,-0.2028191999999999,0,sub_24
-0.0471524000000002,0.0057478000000012,-0.0295438,-0.0893017999999994,0.760786400000001,-0.1959197999999999,0,sub_24
-0.0525726000000002,0.0063110000000012,-0.0253366,-0.0838203999999994,0.758162000000001,-0.1837003999999999,0,sub_24
-0.0560238000000002,0.0077496000000012,-0.0165084,-0.0752215999999994,0.751208200000001,-0.1571393999999999,0,sub_24
-0.0573368000000002,0.0095464000000012,-0.0065676,-0.0608617999999994,0.7459320000000009,-0.1288311999999999,0,sub_24
-0.0503420000000002,0.0101376000000011,-0.0010166,-0.0483081999999994,0.746917600000001,-0.1197715999999999,0,sub_24
-0.0405598000000002,0.0083264000000012,0.0063595999999999,-0.0453507999999994,0.738605000000001,-0.1214493999999999,0,sub_24
-0.0388764000000002,0.0122856000000011,0.0147215999999999,-0.0460113999999994,0.730313600000001,-0.1252891999999999,0,sub_24
-0.0373730000000002,0.0144772000000011,0.0197937999999999,-0.0525197999999994,0.738707200000001,-0.1407281999999999,0,sub_24
-0.0367898000000002,0.0164402000000012,0.0194553999999999,-0.0656149999999994,0.745663200000001,-0.1639025999999999,0,sub_24
-0.0379180000000002,0.0192038000000012,0.0176195999999999,-0.0806719999999994,0.749406400000001,-0.1811049999999999,0,sub_24
-0.0429760000000002,0.0169500000000012,0.0157591999999999,-0.0927665999999994,0.756512200000001,-0.1893179999999999,0,sub_24
-0.0460270000000002,0.0094326000000012,0.0111789999999999,-0.1011199999999994,0.740173800000001,-0.1987571999999999,0,sub_24
-0.0552920000000002,0.0094448000000012,0.0092251999999999,-0.1028081999999994,0.697354400000001,-0.1985031999999999,0,sub_24
-0.0623904000000002,0.0025946000000012,0.0088429999999999,-0.0987817999999994,0.649374400000001,-0.1915979999999999,0,sub_24
-0.0665068000000002,-0.0054101999999987,0.0120307999999999,-0.0954921999999994,0.5864570000000009,-0.1782717999999999,0,sub_24
-0.0680528000000002,-0.0065453999999987,0.0140877999999999,-0.0814749999999994,0.493656400000001,-0.1603457999999999,0,sub_24
-0.0692024000000002,0.0016856000000012,0.0142439999999999,-0.0632581999999994,0.3929290000000009,-0.1351155999999999,0,sub_24
-0.0597012000000002,0.0039580000000012,0.0132131999999999,-0.0554387999999994,0.2984440000000009,-0.1168027999999999,0,sub_24
-0.0455838000000002,0.0112432000000012,0.0111887999999999,-0.0528955999999994,0.2076430000000009,-0.1091953999999999,0,sub_24
-0.0279340000000002,0.0149336000000012,0.0042539999999999,-0.0484717999999994,0.1348146000000009,-0.1221049999999999,0,sub_24
-0.0092772000000002,0.0165812000000012,0.0049525999999999,-0.0625555999999994,0.1015486000000009,-0.1557034,0,sub_24
0.0068637999999997,0.0166240000000012,0.0034439999999999,-0.0843491999999994,0.1051852000000009,-0.1936757999999999,0,sub_24
0.0180775999999996,0.0123518000000012,-0.0036682,-0.1090755999999994,0.126492000000001,-0.2257065999999999,0,sub_24
0.0224261999999996,0.0078556000000012,-0.0073524,-0.1325017999999994,0.1656372000000009,-0.2442915999999999,0,sub_24
0.0190809999999996,0.0106202000000012,-0.0122126,-0.1555797999999994,0.1996182000000009,-0.2504761999999999,0,sub_24
0.0083927999999996,0.0084958000000012,-0.0218942,-0.1624127999999994,0.2155512000000009,-0.2330247999999999,0,sub_24
0.0007529999999996,-0.0021041999999987,-0.0272336,-0.1552293999999994,0.2237370000000009,-0.2084153999999999,0,sub_24
-0.0012704000000002,-0.0126457999999987,-0.0286048,-0.1276311999999994,0.2203300000000009,-0.1795901999999999,0,sub_24
0.0009765999999997,-0.0186817999999987,-0.0293068,-0.0966251999999994,0.1770336000000009,-0.1417169999999999,0,sub_24
0.0019035999999997,-0.0251389999999987,-0.0228664,-0.0558985999999994,0.1270404000000009,-0.0892393999999999,0,sub_24
0.0080861999999997,-0.0217993999999987,-0.019987,-0.0110939999999994,0.0808748000000009,-0.0384467999999999,0,sub_24
0.0125961999999997,-0.0183483999999987,-0.01794,0.0256040000000005,0.0249774000000009,0.0022608,0,sub_24
0.0117389999999997,-0.0083809999999987,-0.0130084,0.0521218000000005,-0.022551999999999,0.0371178,0,sub_24
0.0061739999999997,0.0019112000000012,-0.0043592,0.0713728000000005,-0.036136599999999,0.0609852,0,sub_24
0.0008115999999997,0.0078298000000012,0.0024969999999999,0.0760242000000005,-0.031310599999999,0.0755402,0,sub_24
-0.0059370000000002,0.0037134000000012,0.0073983999999999,0.0711444000000005,-0.017475599999999,0.0831794,0,sub_24
-0.0164888000000002,0.0056396000000012,0.0089807999999999,0.0628606000000005,-0.001709599999999,0.0903646,0,sub_24
-0.0280842000000002,0.0071480000000012,0.0093717999999999,0.0498978000000005,0.0106910000000009,0.0906832,0,sub_24
-0.0340084000000002,0.0037802000000012,0.0051559999999999,0.0429210000000005,0.0211712000000009,0.0865592,0,sub_24
-0.0386904000000002,0.0041844000000012,-0.002458,0.0394846000000005,0.0143726000000009,0.084617,0,sub_24
-0.0475428000000002,0.0092882000000012,-0.006284,0.0310412000000005,-0.008836599999999,0.0884302,0,sub_24
-0.0519858000000002,0.0114518000000012,-0.0054712,0.0281962000000005,-0.022471399999999,0.090559,0,sub_24
-0.0482976000000002,0.0116362000000012,-0.0045,0.0287978000000005,-0.034603599999999,0.0869432,0,sub_24
-0.0417382000000002,0.0105078000000012,-0.0024072,0.0221570000000005,-0.043304199999999,0.0839134,0,sub_24
-0.0392602000000002,0.0143456000000012,0.0012669999999999,0.0113350000000005,-0.031965399999999,0.0814698,0,sub_24
-0.0340326000000002,0.0158548000000012,0.0044507999999999,0.0043284000000005,0.0122070000000009,0.0698218,0,sub_24
-0.0297756000000002,0.0166460000000012,0.0059917999999999,-0.0120795999999994,0.0527936000000009,0.0572578,0,sub_24
-0.0337408000000002,0.0176036000000012,0.0044267999999999,-0.0300849999999994,0.0814100000000009,0.0558052,0,sub_24
-0.0412304000000002,0.0173836000000012,-0.0003736,-0.0424003999999994,0.0997564000000009,0.0601716,0,sub_24
-0.0395434000000002,0.0119332000000012,-0.0009258,-0.0468865999999994,0.0980696000000009,0.0592772,0,sub_24
-0.0296090000000002,0.0067656000000012,0.0037289999999999,-0.0496089999999994,0.0631340000000009,0.0599356,0,sub_24
-0.0273868000000002,0.0014870000000012,0.0069625999999999,-0.0477341999999994,0.0130294000000009,0.067271,0,sub_24
-0.0271948000000002,-0.0027215999999987,0.0092739999999999,-0.0466983999999994,-0.031966599999999,0.076518,0,sub_24
-0.0284864000000002,-0.0056491999999987,0.0088299999999999,-0.0518183999999994,-0.070545599999999,0.0848614,0,sub_24
-0.0311952000000002,-0.0074487999999987,0.0020817999999999,-0.0555803999999994,-0.094842599999999,0.0902064,0,sub_24
-0.0371034000000002,0.0012096000000012,-0.0104538,-0.0581981999999994,-0.105706999999999,0.092123,0,sub_24
-0.0328318000000002,-0.0003607999999987,-0.0221984,-0.0656525999999994,-0.103122599999999,0.0916386,0,sub_24
-0.0256812000000002,-0.0019309999999987,-0.0325592,-0.0756337999999994,-0.089889199999999,0.0943286,0,sub_24
-0.0186120000000002,-0.0001647999999987,-0.0450768,-0.0762497999999994,-0.075649399999999,0.1037052,0,sub_24
-0.0115736000000002,-0.0030831999999987,-0.0623404,-0.0724097999999994,-0.052110399999999,0.1280562,0,sub_24
-0.0019182000000002,-0.0147805999999987,-0.0727672,-0.0655437999999994,-0.010085399999999,0.162233,0,sub_24
0.0036385999999997,-0.0171391999999987,-0.0790742,-0.0502197999999994,0.0273852000000009,0.2090798,0,sub_24
0.0095949999999997,-0.0109627999999987,-0.0802972,-0.0257905999999994,0.0496954000000009,0.2564368,0,sub_24
0.0165795999999996,-0.0021873999999987,-0.0715708,-0.0042485999999994,0.0852624000000009,0.2943568,0,sub_24
0.0288927999999996,0.0109700000000012,-0.0486054,0.0033804000000005,0.1329066000000009,0.3075798,0,sub_24
0.0445767999999996,0.0268178000000012,-0.0241688,-0.0062323999999994,0.1681278000000009,0.2989068,0,sub_24
0.0626033999999996,0.0469804000000012,-0.0013554,-0.0408293999999994,0.2182512000000009,0.2616252,0,sub_24
0.0756381999999996,0.0518358000000012,0.0142953999999999,-0.1056807999999994,0.3056332000000009,0.2037886,0,sub_24
0.0765229999999997,0.0519564000000012,0.0163499999999999,-0.1926319999999994,0.4065424000000009,0.1389436,0,sub_24
0.0622629999999997,0.0416240000000012,0.0043415999999999,-0.3014563999999994,0.4972510000000009,0.0867926,0,sub_24
0.0387829999999997,0.0158812000000012,-0.0075914,-0.4103535999999995,0.588743600000001,0.0517316,0,sub_24
0.0168933999999997,-0.0090011999999987,-0.0143876,-0.4713475999999993,0.664059600000001,0.0245036,0,sub_24
0.0040321999999997,-0.0218159999999987,-0.018128,-0.4914951999999994,0.676971800000001,0.0098184,0,sub_24
0.0017789999999997,-0.0325569999999987,-0.012561,-0.4923663999999994,0.6224454000000009,0.0066774,0,sub_24
0.0051679999999996,-0.0377077999999987,0.0004991999999999,-0.4655349999999994,0.5266450000000009,0.0180974,0,sub_24
0.0128891999999996,-0.0221735999999987,0.0093387999999999,-0.4256367999999993,0.4043416000000009,0.0392566,0,sub_24
0.0203471999999996,-0.0055185999999987,0.0164189999999998,-0.3989927999999993,0.296492600000001,0.080175,0,sub_24
0.0227769999999996,0.0046460000000012,0.0154047999999998,-0.3787351999999994,0.2463758000000009,0.1280252,0,sub_24
0.0334351999999996,0.0096416000000012,0.0075625999999998,-0.3704575999999994,0.229354600000001,0.1682718,0,sub_24
0.0416329999999997,0.0061288000000012,0.0071109999999998,-0.3660835999999994,0.2370968000000009,0.1996996,0,sub_24
0.0368389999999997,-0.0024595999999987,0.0056377999999998,-0.3364061999999994,0.2675680000000009,0.2261476,0,sub_24
0.0329757999999997,-0.0159373999999987,-0.0010388000000001,-0.2994557999999994,0.298665800000001,0.2494396,0,sub_24
0.0276747999999997,-0.0272529999999987,-0.0020990000000001,-0.2616555999999994,0.3263622000000009,0.2701782,0,sub_24
0.0160947999999997,-0.0305605999999987,0.0011193999999998,-0.2184567999999994,0.3655558000000009,0.2881624,0,sub_24
0.0105967999999997,-0.0146853999999987,-0.0058718000000001,-0.1898661999999994,0.4121170000000009,0.2878756,0,sub_24
0.0132505999999997,-0.0010601999999987,-0.0157352,-0.2045443999999994,0.4516550000000009,0.2699904000000001,0,sub_24
0.0110871999999997,0.0118836000000012,-0.024624,-0.2518621999999994,0.475609600000001,0.2348056,0,sub_24
0.0107011999999997,0.0226246000000012,-0.0287932,-0.3175503999999994,0.4809366000000009,0.1852022,0,sub_24
0.0076501999999997,0.0225432000000012,-0.0258084,-0.3703181999999994,0.508817000000001,0.1320282,0,sub_24
0.0011429999999997,0.0154286000000012,-0.0157376,-0.3983687999999994,0.538278600000001,0.0882112,0,sub_24
-0.0067734000000002,0.0081314000000012,0.0006283999999999,-0.4059579999999994,0.573591400000001,0.055212,0,sub_24
-0.0142148000000002,0.0027942000000012,0.0156327999999999,-0.3982489999999994,0.606671200000001,0.0345002,0,sub_24
-0.0223524000000002,-0.0060817999999987,0.0272173999999999,-0.3763233999999994,0.635387000000001,0.0271386,0,sub_24
-0.0275264000000002,-0.0070963999999987,0.0338719999999999,-0.3524397999999994,0.634655800000001,0.0294424,0,sub_24
-0.0288398000000002,-0.0054797999999987,0.0344631999999999,-0.3322189999999994,0.621810200000001,0.0274634,0,sub_24
-0.0237900000000002,0.0028290000000012,0.0273389999999999,-0.3141223999999994,0.6053724000000009,0.0199192,0,sub_24
-0.0126246000000002,0.0095376000000012,0.0196537999999999,-0.3007037999999994,0.593209600000001,0.012978,0,sub_24
0.0034703999999997,0.0167848000000012,0.0134083999999999,-0.2953619999999994,0.581314800000001,-0.0006423999999999,0,sub_24
0.0226817999999997,0.0291734000000012,0.0063145999999999,-0.3052315999999994,0.552441400000001,-0.0175519999999999,0,sub_24
0.0414541999999997,0.0370542000000012,0.0007695999999999,-0.3265111999999994,0.509512200000001,-0.0259763999999999,0,sub_24
0.0576017999999996,0.0274948000000012,-0.0010156,-0.3569927999999994,0.463195800000001,-0.0318969999999999,0,sub_24
0.0678777999999997,0.0253270000000012,0.0064013999999999,-0.3873995999999994,0.4209778000000009,-0.0504275999999999,0,sub_24
0.0731755999999997,0.0271390000000012,0.0155469999999999,-0.4075369999999994,0.3868122000000009,-0.0669725999999999,0,sub_24
0.0695891999999997,0.0236868000000012,0.0291445999999999,-0.4194743999999993,0.3756178000000009,-0.0809259999999999,0,sub_24
0.0638823999999997,0.0192474000000012,0.0432817999999999,-0.4302281999999994,0.3887154000000009,-0.0968253999999999,0,sub_24
0.0565719999999997,0.0207324000000012,0.0545753999999999,-0.4437001999999994,0.4182116000000009,-0.1087055999999999,0,sub_24
0.0479219999999997,0.0139122000000012,0.0568105999999999,-0.4622671999999994,0.4579342000000009,-0.1161477999999999,0,sub_24
0.0402753999999997,0.0047762000000012,0.0549575999999999,-0.4882193999999994,0.5117616000000009,-0.1279339999999999,0,sub_24
0.0416375999999997,-0.0024789999999987,0.0498311999999999,-0.4993837999999994,0.577266400000001,-0.1424089999999999,0,sub_24
0.0367609999999997,-0.0053285999999987,0.0407873999999999,-0.4720367999999993,0.6569464000000009,-0.1653933999999999,0,sub_24
0.0315567999999996,0.0004568000000012,0.0299671999999999,-0.4096041999999994,0.717934600000001,-0.1797765999999999,0,sub_24
0.0298117999999996,0.0045128000000012,0.0203395999999998,-0.3324301999999994,0.739440400000001,-0.1901605999999999,0,sub_24
0.0234843999999996,0.0070206000000012,0.0215375999999998,-0.2478211999999994,0.722504200000001,-0.1839927999999999,0,sub_24
0.0109677999999996,0.0123494000000012,0.0263805999999999,-0.1695659999999993,0.6848596000000009,-0.1618193999999999,0,sub_24
