userAcceleration.x,userAcceleration.y,userAcceleration.z,rotationRate.x,rotationRate.y,rotationRate.z,label,subject
-0.0177178000000002,0.0074224000000012,-0.0230508,-0.0550313999999993,0.0400460000000007,-0.0022237999999999,0,sub_21
-0.0212958000000002,0.0076494000000012,-0.0189904,-0.0526977999999993,0.0336598000000007,-0.0056175999999999,0,sub_21
-0.0252014000000002,0.0078752000000012,-0.0173274,-0.0414033999999993,0.0278782000000006,-0.0080949999999999,0,sub_21
-0.0282294000000002,0.0062778000000012,-0.0128958,-0.0302641999999993,0.0324416000000007,-0.0081011999999999,0,sub_21
-0.0338326000000002,0.0033400000000012,-0.0059556,-0.0248169999999993,0.0513040000000007,-0.0092335999999999,0,sub_21
-0.0348190000000002,0.0011852000000012,-0.0039266,-0.0236525999999993,0.0671968000000007,-0.0099647999999999,0,sub_21
-0.0332264000000002,0.0020962000000012,-0.0041488,-0.0261145999999993,0.0843764000000007,-0.0096547999999999,0,sub_21
-0.0312656000000002,0.0041848000000012,-0.0047788,-0.0275049999999993,0.1045272000000007,-0.0074183999999999,0,sub_21
-0.0306638000000002,0.0037404000000012,-0.010311,-0.0246689999999993,0.1207002000000007,-0.0050691999999999,0,sub_21
-0.0272070000000002,0.0031760000000012,-0.0174764,-0.0201699999999993,0.1274912000000007,-0.0022689999999999,0,sub_21
-0.0218918000000002,0.0048046000000012,-0.022788,-0.0158785999999993,0.1340758000000007,-0.0009655999999999,0,sub_21
-0.0194290000000002,0.0051936000000012,-0.0234632,-0.0116195999999993,0.1329922000000007,-7.999999999997401e-05,0,sub_21
-0.0185682000000002,0.0053504000000012,-0.023855,-0.0076317999999993,0.1236670000000006,0.000779,0,sub_21
-0.0163224000000002,0.0053512000000012,-0.021465,-0.0027799999999993,0.1156212000000007,0.0005742,0,sub_21
-0.0125428000000002,0.0051046000000012,-0.0187568,0.0016324000000006,0.1050194000000007,0.0005832,0,sub_21
-0.0083954000000002,0.0037946000000012,-0.0154372,0.0026234000000006,0.0927252000000007,0.0005703999999999,0,sub_21
-0.0045934000000002,0.0043840000000012,-0.0153012,0.0023378000000006,0.0804390000000007,-0.0003055999999999,0,sub_21
-0.0022388000000002,0.0043770000000012,-0.0141714,0.0033644000000006,0.0693650000000007,-0.0024205999999999,0,sub_21
-0.0028304000000002,0.0052588000000012,-0.0150278,0.0032992000000006,0.0531798000000007,-0.0041093999999999,0,sub_21
-0.0049968000000002,0.0054500000000012,-0.0152116,0.0002050000000006,0.0360342000000007,-0.0062509999999999,0,sub_21
-0.0070158000000002,0.0055938000000012,-0.0151116,-0.0018281999999993,0.0182432000000007,-0.0077433999999999,0,sub_21
-0.0100984000000002,0.0053814000000012,-0.0146206,-0.0027609999999993,0.0081174000000007,-0.0090243999999999,0,sub_21
-0.0124512000000002,0.0064738000000012,-0.0160774,-0.0034611999999993,0.0028886000000007,-0.0096689999999999,0,sub_21
-0.0145870000000002,0.0072556000000012,-0.0185948,-0.0030897999999993,-0.0014909999999992,-0.0105209999999999,0,sub_21
-0.0152128000000002,0.0074300000000012,-0.0235688,-0.0020431999999993,-0.0053321999999992,-0.0098677999999999,0,sub_21
-0.0168622000000002,0.0064482000000012,-0.0244052,-0.0037357999999993,-0.0025547999999992,-0.0103103999999999,0,sub_21
-0.0184966000000002,0.0057466000000012,-0.025213,-0.0054485999999993,-0.0044637999999992,-0.0109607999999999,0,sub_21
-0.0203274000000002,0.0042092000000012,-0.0274816,-0.0052663999999993,-0.0090877999999992,-0.0122207999999999,0,sub_21
-0.0197584000000002,0.0042204000000012,-0.0284872,-0.0037923999999993,-0.0100983999999992,-0.0124079999999999,0,sub_21
-0.0197250000000002,0.0053486000000012,-0.0254556,-0.0014591999999993,-0.0094093999999992,-0.0121641999999999,0,sub_21
-0.0217528000000002,0.0049678000000012,-0.022492,0.0013016000000006,-0.0082965999999992,-0.0117043999999999,0,sub_21
-0.0236540000000002,0.0042926000000012,-0.019225,0.0015328000000006,-0.0009937999999992,-0.0119109999999999,0,sub_21
-0.0247212000000002,0.0052818000000012,-0.0142568,-0.0016131999999993,0.0107370000000007,-0.0123751999999999,0,sub_21
-0.0257490000000002,0.0056550000000012,-0.01128,-0.0062489999999993,0.0239618000000007,-0.0122109999999999,0,sub_21
-0.0260286000000002,0.0047502000000012,-0.0120766,-0.0085423999999993,0.0371740000000007,-0.0109621999999999,0,sub_21
-0.0224632000000002,0.0051640000000012,-0.014537,-0.0105625999999993,0.0492640000000007,-0.0081909999999999,0,sub_21
-0.0197928000000002,0.0049618000000012,-0.014558,-0.0132201999999993,0.0607222000000007,-0.0067055999999999,0,sub_21
-0.0184968000000002,0.0050214000000012,-0.0164952,-0.0163437999999993,0.0636590000000007,-0.0049987999999999,0,sub_21
-0.0173246000000002,0.0044578000000012,-0.0220126,-0.0165155999999993,0.0580658000000007,-0.0039011999999999,0,sub_21
-0.0154624000000002,0.0062872000000012,-0.0268358,-0.0124217999999993,0.0511828000000007,-0.0036267999999999,0,sub_21
-0.0131580000000002,0.0069318000000012,-0.0300314,-0.0058523999999993,0.0413584000000007,-0.0033547999999999,0,sub_21
-0.0100298000000002,0.0061114000000012,-0.0321892,-0.0001593999999993,0.0281214000000007,-0.0013751999999999,0,sub_21
-0.0085032000000002,0.0043812000000012,-0.0342416,0.0037920000000006,0.0061594000000007,-0.0004647999999999,0,sub_21
-0.0065872000000002,0.0048940000000012,-0.033057,0.0065290000000006,-0.0207549999999992,0.000467,0,sub_21
-0.0072370000000002,0.0040734000000012,-0.032186,0.0075610000000006,-0.0470249999999992,0.0015998,0,sub_21
-0.0095804000000002,0.0026878000000012,-0.0337836,0.0060440000000006,-0.0707293999999992,0.0027113999999999,0,sub_21
-0.0115922000000002,0.0018892000000012,-0.0345244,0.0017782000000006,-0.0914311999999992,0.0012361999999999,0,sub_21
-0.0133778000000002,0.0033214000000012,-0.0309324,-0.0026299999999993,-0.0991249999999992,-0.003034,0,sub_21
-0.0150404000000002,0.0043868000000012,-0.0252696,-0.0041311999999993,-0.1048559999999992,-0.0070964,0,sub_21
-0.0174028000000002,0.0049012000000012,-0.020735,-0.0030537999999993,-0.1029405999999992,-0.0075186,0,sub_21
-0.0196988000000002,0.0055352000000012,-0.0160208,0.0022958000000006,-0.0984893999999992,-0.0064185999999999,0,sub_21
-0.0217638000000002,0.0055408000000012,-0.0087856,0.0068618000000006,-0.0911701999999992,-0.0038099999999999,0,sub_21
-0.0222808000000002,0.0044532000000012,0.0001475999999999,0.0082436000000006,-0.0808545999999992,-0.0018683999999999,0,sub_21
-0.0249364000000002,0.0034274000000012,0.0049509999999999,0.0056144000000006,-0.0630593999999992,-0.0021007999999999,0,sub_21
-0.0235638000000002,0.0039266000000012,0.0091703999999999,0.0016936000000006,-0.0499383999999992,-0.0044727999999999,0,sub_21
-0.0204094000000002,0.0058176000000012,0.0095119999999999,-0.0011591999999993,-0.0372447999999992,-0.0074775999999999,0,sub_21
-0.0164890000000002,0.0083008000000012,0.0054367999999999,-0.0017283999999993,-0.0233865999999992,-0.0094219999999999,0,sub_21
-0.0137232000000002,0.0074686000000012,0.0002337999999999,-0.0012267999999993,-0.0076185999999992,-0.0102933999999999,0,sub_21
-0.0101634000000002,0.0067568000000012,-0.0058782,-0.0018159999999993,0.0028266000000007,-0.0111655999999999,0,sub_21
-0.0089606000000002,0.0064566000000012,-0.0112104,-0.0041229999999993,0.0081756000000007,-0.0148205999999999,0,sub_21
-0.0079302000000002,0.0059598000000012,-0.0169268,-0.0087139999999993,0.0152404000000007,-0.0203797999999999,0,sub_21
-0.0056466000000002,0.0060264000000012,-0.0197668,-0.0118371999999993,0.0186696000000007,-0.0237877999999999,0,sub_21
-0.0024724000000002,0.0068916000000012,-0.0237238,-0.0118077999999993,0.0141934000000007,-0.0243859999999999,0,sub_21
-0.0018742000000002,0.0073010000000012,-0.0270162,-0.0098761999999993,0.0050260000000007,-0.0256059999999999,0,sub_21
0.0015003999999997,0.0076092000000012,-0.0324906,-0.0056059999999993,-0.0077645999999992,-0.0285139999999999,0,sub_21
0.0040875999999997,0.0084392000000012,-0.0346986,-0.0024877999999993,-0.0277957999999992,-0.0301757999999999,0,sub_21
0.0054295999999997,0.0083772000000012,-0.0384992,-0.0015119999999993,-0.0505857999999992,-0.0327033999999999,0,sub_21
0.0006961999999997,0.0085092000000012,-0.0422332,-0.0026061999999993,-0.0722749999999992,-0.0379783999999999,0,sub_21
-0.0010938000000002,0.0087160000000012,-0.0425694,-0.0058321999999993,-0.0931061999999992,-0.0428419999999999,0,sub_21
-0.0053968000000002,0.0111536000000012,-0.0409496,-0.0103653999999993,-0.1133201999999992,-0.0410925999999999,0,sub_21
-0.0100954000000002,0.0100578000000012,-0.0413592,-0.0097497999999993,-0.1248271999999992,-0.0367545999999999,0,sub_21
-0.0121790000000002,0.0094414000000012,-0.0403916,-0.0077847999999993,-0.1250307999999992,-0.036481,0,sub_21
-0.0067394000000002,0.0101120000000012,-0.0351128,-0.0077799999999993,-0.1265119999999992,-0.0390428,0,sub_21
0.0023985999999997,0.0079166000000012,-0.0289434,-0.0060395999999993,-0.1273369999999992,-0.0473617999999999,0,sub_21
0.0113291999999997,0.0028342000000012,-0.0285998,-0.0068603999999993,-0.1309123999999992,-0.0582589999999999,0,sub_21
0.0123291999999997,0.0058434000000012,-0.0247792,-0.0166415999999993,-0.1352711999999992,-0.0625616,0,sub_21
0.0072927999999997,0.0062122000000012,-0.0223104,-0.0267091999999993,-0.1481819999999992,-0.0591639999999999,0,sub_21
-0.0009356000000002,0.0047418000000012,-0.0238632,-0.0335587999999993,-0.1570567999999992,-0.0555353999999999,0,sub_21
-0.0138282000000002,0.0074068000000012,-0.0277808,-0.0380477999999993,-0.1591373999999992,-0.0480533999999999,0,sub_21
-0.0237078000000002,0.0110616000000012,-0.0244856,-0.0427043999999993,-0.1490811999999992,-0.0386651999999999,0,sub_21
-0.0272792000000002,0.0066508000000012,-0.0191012,-0.0499283999999993,-0.1390551999999992,-0.0355237999999999,0,sub_21
-0.0304134000000002,0.0044276000000012,-0.0142022,-0.0581663999999993,-0.1257955999999992,-0.0409393999999999,0,sub_21
-0.0315680000000002,0.0051090000000012,-0.0093434,-0.0636575999999993,-0.1185109999999992,-0.0463281999999999,0,sub_21
-0.0284076000000002,0.0027892000000012,-0.0036428,-0.0656733999999993,-0.0969665999999992,-0.0510699999999999,0,sub_21
-0.0272318000000002,0.0002338000000012,-0.000846,-0.0683635999999993,-0.0823903999999992,-0.0504359999999999,0,sub_21
-0.0270918000000002,0.0016682000000012,0.0017177999999999,-0.0678091999999993,-0.0588737999999992,-0.0506453999999999,0,sub_21
-0.0251930000000002,0.0033634000000012,0.0022521999999999,-0.0604785999999993,-0.0462491999999992,-0.0501525999999999,0,sub_21
-0.0201516000000002,0.0058952000000012,-0.0036638,-0.0471715999999993,-0.0300365999999992,-0.0464179999999999,0,sub_21
-0.0167372000000002,0.0080510000000012,-0.0072292,-0.0412113999999993,-0.0285219999999992,-0.0369473999999999,0,sub_21
-0.0145338000000002,0.0079088000000012,-0.0074222,-0.0418571999999993,-0.0257661999999992,-0.0328961999999999,0,sub_21
-0.0124392000000002,0.0063238000000012,-0.008962,-0.0427585999999993,-0.0359913999999992,-0.0324621999999999,0,sub_21
-0.0121314000000002,0.0065648000000012,-0.0133088,-0.0397807999999993,-0.0435673999999992,-0.0340963999999999,0,sub_21
-0.0133354000000002,0.0052510000000012,-0.0117994,-0.0427725999999993,-0.0483595999999992,-0.0340665999999999,0,sub_21
-0.0162310000000002,0.0052192000000012,-0.0123598,-0.0511131999999993,-0.0544191999999992,-0.0321497999999999,0,sub_21
-0.0199630000000002,0.0037878000000012,-0.008603,-0.0596489999999993,-0.0572787999999992,-0.0310931999999999,0,sub_21
-0.0238996000000002,0.0036590000000012,-0.0054056,-0.0634809999999993,-0.0607829999999992,-0.0327799999999999,0,sub_21
-0.0234164000000002,0.0062134000000012,0.0025533999999999,-0.0725011999999993,-0.0728989999999992,-0.0319727999999999,0,sub_21
-0.0199412000000002,0.0040244000000012,0.0170723999999999,-0.0680855999999993,-0.0884631999999992,-0.0329903999999999,0,sub_21
-0.0179040000000002,0.0052030000000012,0.0387005999999999,-0.0742675999999993,-0.0914071999999992,-0.0373027999999999,0,sub_21
-0.0116384000000002,0.0060496000000012,0.0561667999999999,-0.0993801999999993,-0.0793779999999992,-0.0400571999999999,0,sub_21
-0.0220318000000002,0.0046806000000012,0.0625909999999999,-0.1256009999999993,-0.0750207999999992,-0.0413141999999999,0,sub_21
-0.0336566000000002,-0.0010777999999987,0.0674357999999999,-0.1398987999999993,-0.0800653999999992,-0.0461077999999999,0,sub_21
-0.0430982000000002,0.0008030000000012,0.0610809999999999,-0.1528187999999993,-0.0646561999999992,-0.0521998,0,sub_21
-0.0468928000000002,-0.0007841999999987,0.0425547999999999,-0.1281667999999993,-0.0485133999999992,-0.061235,0,sub_21
-0.0529296000000002,0.0013302000000012,0.0216675999999999,-0.0653441999999993,-0.0431115999999992,-0.0751061999999999,0,sub_21
-0.0367738000000002,0.0066344000000012,0.0071809999999999,0.0058220000000006,-0.0275337999999992,-0.0835911999999999,0,sub_21
-0.0236734000000002,0.0112020000000012,-0.0032698,0.0640646000000006,0.0185160000000007,-0.0821641999999999,0,sub_21
-0.0208470000000002,0.0093276000000012,-0.0111804,0.1119590000000006,0.0420138000000007,-0.0797121999999999,0,sub_21
-0.0210686000000002,0.0087048000000012,-0.0159998,0.1442262000000006,0.0504546000000007,-0.0811955999999999,0,sub_21
-0.0191544000000002,0.0086076000000012,-0.018978,0.1615572000000006,0.0595614000000007,-0.0825817999999999,0,sub_21
-0.0175028000000002,0.0094450000000012,-0.025198,0.1747700000000006,0.0544078000000007,-0.0839783999999999,0,sub_21
-0.0108888000000002,0.0091354000000012,-0.0344318,0.1806944000000006,0.0445814000000007,-0.0826425999999999,0,sub_21
-0.0091322000000002,0.0085652000000012,-0.0420238,0.1740338000000006,0.0373488000000007,-0.0796887999999999,0,sub_21
-0.0098276000000002,0.0066440000000012,-0.0507296,0.1557926000000006,0.0218288000000007,-0.0721051999999999,0,sub_21
-0.0071756000000002,0.0068838000000012,-0.055254,0.1348198000000006,0.0146316000000007,-0.0656196,0,sub_21
-0.0081088000000002,0.0060344000000012,-0.0524096,0.1130060000000006,0.0112682000000007,-0.0580763999999999,0,sub_21
-0.0122346000000002,0.0066322000000012,-0.0563456,0.0992524000000006,-0.0061713999999992,-0.0538771999999999,0,sub_21
-0.0075966000000002,0.0077152000000012,-0.0594874,0.0837946000000006,-0.0219049999999992,-0.0486239999999999,0,sub_21
-0.0015116000000002,0.0093926000000012,-0.0546476,0.0683896000000006,-0.0261329999999992,-0.0435987999999999,0,sub_21
-0.0019286000000002,0.0084216000000012,-0.056356,0.0592804000000006,-0.0510603999999992,-0.0357255999999999,0,sub_21
-0.0034990000000002,0.0061896000000012,-0.0580002,0.0487196000000006,-0.0683057999999992,-0.0295815999999999,0,sub_21
-0.0033854000000002,0.0054250000000012,-0.0543086,0.0353956000000006,-0.0829857999999992,-0.0232463999999999,0,sub_21
-0.0039702000000002,0.0049702000000012,-0.049057,0.0239824000000006,-0.0985297999999992,-0.0156149999999999,0,sub_21
-0.0087352000000002,0.0029852000000012,-0.0442766,0.0121548000000006,-0.1123635999999992,-0.0090567999999999,0,sub_21
-0.0123686000000002,0.0037784000000012,-0.0386434,-0.0004973999999993,-0.1212881999999992,-0.0040061999999999,0,sub_21
-0.0116780000000002,0.0052740000000012,-0.0343126,-0.0093347999999993,-0.1368275999999992,0.000225,0,sub_21
-0.0114436000000002,0.0046320000000012,-0.0246884,-0.0192111999999993,-0.1472457999999992,0.003374,0,sub_21
-0.0135452000000002,0.0034012000000012,-0.0144946,-0.0314079999999993,-0.1519023999999992,0.0062858,0,sub_21
-0.0113690000000002,0.0058870000000012,-0.0077746,-0.0373861999999993,-0.1518847999999992,0.0070986,0,sub_21
-0.0169622000000002,0.0037358000000012,-0.0013618,-0.0346143999999993,-0.1555035999999992,0.0039178,0,sub_21
-0.0185794000000002,0.0038494000000012,0.0069041999999999,-0.0333207999999993,-0.1576181999999992,-0.0011979999999999,0,sub_21
-0.0169510000000002,0.0036128000000012,0.0136541999999999,-0.0343253999999993,-0.1463123999999992,-0.0037831999999999,0,sub_21
-0.0177566000000002,0.0035228000000012,0.0201405999999999,-0.0310575999999993,-0.1343805999999992,-0.0067665999999999,0,sub_21
-0.0260402000000002,0.0021220000000012,0.0258597999999999,-0.0212079999999993,-0.1318377999999992,-0.0118285999999999,0,sub_21
-0.0274490000000002,0.0031094000000012,0.0300623999999999,-0.0085605999999993,-0.1244027999999992,-0.0173043999999999,0,sub_21
-0.0316566000000002,0.0015956000000012,0.0243287999999999,0.0075546000000006,-0.1037753999999992,-0.0214911999999999,0,sub_21
-0.0351916000000002,0.0029156000000012,0.0194363999999999,0.0277210000000006,-0.0863477999999992,-0.0282093999999999,0,sub_21
-0.0334990000000002,0.0032310000000012,0.0114697999999999,0.0448674000000006,-0.0742439999999992,-0.0330189999999999,0,sub_21
-0.0272660000000002,0.0036328000000012,0.0052321999999999,0.0481362000000006,-0.0595529999999992,-0.0334421999999999,0,sub_21
-0.0229540000000002,0.0054978000000012,-0.000193,0.0434842000000006,-0.0476159999999992,-0.0309261999999999,0,sub_21
-0.0204324000000002,0.0069430000000012,-0.003279,0.0394234000000006,-0.0465467999999992,-0.0283921999999999,0,sub_21
-0.0210056000000002,0.0056474000000012,-0.0104228,0.0425952000000006,-0.0521007999999992,-0.0275083999999999,0,sub_21
-0.0228728000000002,0.0088502000000012,-0.0202268,0.0559926000000006,-0.0636465999999992,-0.0288955999999999,0,sub_21
-0.0198874000000002,0.0096030000000012,-0.0294216,0.0636376000000006,-0.0692229999999992,-0.0262713999999999,0,sub_21
-0.0149728000000002,0.0082584000000012,-0.0253986,0.0572048000000006,-0.0707139999999992,-0.0207597999999999,0,sub_21
-0.0154932000000002,0.0070956000000012,-0.0221872,0.0454108000000006,-0.0802739999999992,-0.0174115999999999,0,sub_21
-0.0185786000000002,0.0062608000000012,-0.0213138,0.0329614000000006,-0.0964235999999992,-0.0172641999999999,0,sub_21
-0.0159212000000002,0.0064390000000012,-0.0199378,0.0198806000000006,-0.1102289999999992,-0.0166967999999999,0,sub_21
-0.0165366000000002,0.0067038000000012,-0.0179692,0.0147020000000006,-0.1219331999999992,-0.0156497999999999,0,sub_21
-0.0169390000000002,0.0055732000000012,-0.025672,0.0148934000000006,-0.1272585999999992,-0.0160687999999999,0,sub_21
-0.0189318000000002,0.0025444000000012,-0.0242596,0.0149116000000006,-0.1242715999999992,-0.0171407999999999,0,sub_21
-0.0133012000000002,0.0043628000000012,-0.0213902,0.0167698000000006,-0.1288709999999992,-0.0147167999999999,0,sub_21
-0.0126708000000002,0.0041438000000012,-0.017755,0.0143634000000006,-0.1321797999999992,-0.0116833999999999,0,sub_21
-0.0105218000000002,0.0029170000000012,-0.013179,0.0121532000000006,-0.1410217999999992,-0.0103505999999999,0,sub_21
-0.0111756000000002,0.0034112000000012,-0.0063822,0.0146448000000006,-0.1483879999999992,-0.0092006,0,sub_21
-0.0084466000000002,0.0061214000000012,-0.0039712,0.0211694000000006,-0.1602433999999992,-0.0078028,0,sub_21
-0.0164416000000002,0.0034360000000012,-0.0063296,0.0203436000000006,-0.1546983999999992,-0.0084566,0,sub_21
-0.0201762000000002,0.0016846000000012,-0.0053252,0.0241986000000006,-0.1536379999999992,-0.0105674,0,sub_21
-0.0242512000000002,0.0014898000000012,-0.0073784,0.0306582000000006,-0.1444837999999992,-0.0143796,0,sub_21
-0.0251508000000002,0.0005156000000012,-0.0099222,0.0401350000000006,-0.1457827999999992,-0.0180737999999999,0,sub_21
-0.0245778000000002,-0.0002553999999987,-0.0114288,0.0459980000000006,-0.1419643999999992,-0.0196633999999999,0,sub_21
-0.0210632000000002,0.0012236000000012,-0.0096984,0.0509528000000006,-0.1494383999999992,-0.0203901999999999,0,sub_21
-0.0190226000000002,0.0004974000000012,-0.0094778,0.0457128000000006,-0.1470735999999992,-0.0218417999999999,0,sub_21
-0.0181620000000002,0.0012152000000012,-0.0076534,0.0391800000000006,-0.1476861999999992,-0.0235121999999999,0,sub_21
-0.0181088000000002,0.0030268000000012,-0.0097642,0.0315120000000006,-0.1474353999999992,-0.0263433999999999,0,sub_21
-0.0132030000000002,0.0052522000000012,-0.0112884,0.0230000000000006,-0.1446265999999992,-0.0287565999999999,0,sub_21
-0.0116028000000002,0.0053322000000012,-0.0122734,0.0121862000000006,-0.1298861999999992,-0.0292781999999999,0,sub_21
-0.0123048000000002,0.0070834000000012,-0.0143214,0.0058310000000006,-0.1200615999999992,-0.0297625999999999,0,sub_21
-0.0124146000000002,0.0077762000000012,-0.020842,0.0051918000000006,-0.1189973999999992,-0.0289137999999999,0,sub_21
-0.0135518000000002,0.0080924000000012,-0.0228412,0.0049966000000006,-0.1113411999999992,-0.0252929999999999,0,sub_21
-0.0175196000000002,0.0066060000000011,-0.022761,0.0031138000000006,-0.0979325999999992,-0.0201957999999999,0,sub_21
-0.0188584000000002,0.0036578000000012,-0.0220196,-0.0028031999999993,-0.0806723999999992,-0.0157727999999999,0,sub_21
-0.0187278000000002,0.0027906000000012,-0.020587,-0.0042747999999993,-0.0721595999999992,-0.0121619999999999,0,sub_21
-0.0199294000000002,0.0029220000000012,-0.0171622,-0.0061547999999993,-0.0617191999999992,-0.0106929999999999,0,sub_21
-0.0196664000000002,0.0028754000000012,-0.0197212,-0.0083017999999993,-0.0632089999999992,-0.0092105999999999,0,sub_21
-0.0194732000000002,0.0031950000000012,-0.0236308,-0.0089755999999993,-0.0689659999999992,-0.0074987999999999,0,sub_21
-0.0166570000000002,0.0062582000000012,-0.0243434,-0.0043159999999993,-0.0732569999999992,-0.0040423999999999,0,sub_21
-0.0168590000000002,0.0060112000000011,-0.0232318,-0.0030079999999993,-0.0634753999999992,-0.0004137999999999,0,sub_21
-0.0173258000000002,0.0060296000000012,-0.0229614,-0.0006819999999993,-0.0656243999999992,0.0021688,0,sub_21
-0.0170256000000002,0.0057876000000012,-0.0219998,0.0016688000000006,-0.0624461999999992,0.0045311999999999,0,sub_21
-0.0183932000000002,0.0050914000000012,-0.023234,0.0016766000000006,-0.0584075999999992,0.0068761999999999,0,sub_21
-0.0205626000000002,0.0045446000000012,-0.0211854,-0.0008741999999993,-0.0547827999999992,0.0083491999999999,0,sub_21
-0.0213836000000002,0.0038768000000012,-0.0197592,-0.0043225999999993,-0.0586211999999992,0.0121755999999999,0,sub_21
-0.0211206000000002,0.0028320000000012,-0.017033,-0.0124537999999993,-0.0596743999999992,0.0161793999999999,0,sub_21
-0.0236504000000002,-0.0016455999999987,-0.017274,-0.0265247999999993,-0.0564319999999992,0.0167177999999999,0,sub_21
-0.0251436000000002,-0.0022431999999987,-0.0131454,-0.0386793999999993,-0.0495921999999992,0.0217515999999999,0,sub_21
-0.0254010000000002,-0.0017589999999987,-0.0098814,-0.0501975999999993,-0.0472141999999992,0.0231635999999999,0,sub_21
-0.0268198000000002,-0.0002513999999987,-0.0097114,-0.0574311999999993,-0.0450481999999992,0.0205465999999999,0,sub_21
-0.0279078000000002,0.0020138000000012,-0.0103366,-0.0610535999999993,-0.0446067999999992,0.0198797999999999,0,sub_21
-0.0253610000000002,0.0057886000000012,-5.400000000008384e-05,-0.0623395999999993,-0.0433341999999992,0.0224329999999999,0,sub_21
-0.0198904000000002,0.0103530000000012,0.0142759999999999,-0.0705911999999993,-0.0305107999999992,0.0195815999999999,0,sub_21
-0.0259040000000002,0.0060310000000012,0.0215627999999999,-0.0803113999999993,-0.0140527999999992,0.0147924,0,sub_21
-0.0288464000000002,0.0068080000000012,0.0253901999999999,-0.0809131999999993,-0.0093479999999992,0.0109366,0,sub_21
-0.0295818000000002,0.0044234000000012,0.0302405999999999,-0.0816833999999993,0.0055832000000007,0.0072802,0,sub_21
-0.0311872000000002,0.0035578000000012,0.0291805999999999,-0.0832915999999993,0.0230774000000007,0.00276,0,sub_21
-0.0340830000000002,-0.0007555999999987,0.0272077999999999,-0.0796037999999993,0.0318186000000007,-0.0019255999999999,0,sub_21
-0.0304884000000002,0.0033196000000012,0.0254547999999999,-0.0661365999999993,0.0368866000000007,-0.0022651999999999,0,sub_21
-0.0302276000000002,0.0023570000000012,0.0258593999999999,-0.0545779999999993,0.0451546000000007,-0.0019813999999999,0,sub_21
-0.0288692000000002,0.0030550000000012,0.0220705999999999,-0.0421447999999993,0.0553480000000007,-0.0044713999999999,0,sub_21
-0.0258098000000002,0.0023348000000012,0.0252495999999999,-0.0279911999999993,0.0685182000000007,-0.0069531999999999,0,sub_21
