userAcceleration.x,userAcceleration.y,userAcceleration.z,rotationRate.x,rotationRate.y,rotationRate.z,label,subject
0.0158609999999998,0.0114552000000012,0.0151242,0.0371900000000004,-0.0753069999999991,0.0025035999999999,0,sub_10
0.0132543999999998,0.0113494000000012,0.0162668,0.0388844000000004,-0.0797803999999991,0.0008119999999999,0,sub_10
0.0113739999999998,0.0104798000000012,0.0153102,0.0397234000000004,-0.0842523999999992,-0.0004582,0,sub_10
0.0099783999999998,0.0097498000000012,0.0148714,0.0401626000000004,-0.0816963999999992,-0.000672,0,sub_10
0.0100245999999998,0.0096366000000012,0.0134226,0.0391206000000004,-0.0748799999999992,0.0005939999999999,0,sub_10
0.0109903999999998,0.0102084000000012,0.0143304,0.0367908000000004,-0.0684903999999992,0.0031331999999999,0,sub_10
0.0120183999999997,0.0092932000000012,0.015235,0.0333856000000004,-0.0640145999999992,0.0056673999999999,0,sub_10
0.0126155999999997,0.0090130000000012,0.0170824,0.0314556000000004,-0.0644407999999992,0.0073635999999999,0,sub_10
0.0127863999999997,0.0096702000000012,0.0166684,0.0305724000000004,-0.0712545999999992,0.0071523999999999,0,sub_10
0.0113273999999997,0.0086102000000012,0.0165604,0.0337472000000004,-0.0793523999999992,0.0048347999999999,0,sub_10
0.0098617999999997,0.0096546000000012,0.0141356,0.0388992000000004,-0.0817303999999992,0.0025277999999999,0,sub_10
0.0097701999999998,0.0113118000000012,0.012795,0.0389648000000004,-0.0734495999999992,0.0031625999999999,0,sub_10
0.0101205999999998,0.0118182000000012,0.0134616,0.0362710000000004,-0.0600535999999992,0.0056943999999999,0,sub_10
0.0098109999999998,0.0110086000000012,0.015473,0.0322758000000003,-0.0519769999999992,0.0075829999999999,0,sub_10
0.0090529999999997,0.0102256000000011,0.016789,0.0286844000000004,-0.0511371999999992,0.0073471999999999,0,sub_10
0.0094955999999997,0.0097518000000011,0.0162832,0.0278330000000004,-0.0524055999999992,0.0056337999999999,0,sub_10
0.0088441999999997,0.0107372000000011,0.014629,0.0278368000000004,-0.0519777999999992,0.0052059999999999,0,sub_10
0.0097387999999997,0.0121568000000011,0.0133768,0.0267910000000004,-0.0447405999999992,0.0077529999999999,0,sub_10
0.0092125999999997,0.0118542000000011,0.015114,0.0278598000000004,-0.0402863999999992,0.0118139999999999,0,sub_10
0.0073025999999998,0.0098982000000011,0.0179796,0.0299608000000004,-0.0452033999999992,0.0141851999999999,0,sub_10
0.0055757999999998,0.0074390000000011,0.0184346,0.0314332000000004,-0.0505323999999991,0.0135613999999999,0,sub_10
0.0042439999999997,0.0072838000000012,0.0161778,0.0333746000000004,-0.0479739999999991,0.0114351999999999,0,sub_10
0.0049529999999997,0.0085652000000012,0.0145986,0.0317156000000004,-0.0388007999999992,0.0099163999999999,0,sub_10
0.0065491999999997,0.0089200000000012,0.0146638,0.0285688000000004,-0.0270707999999992,0.0096657999999999,0,sub_10
0.0081933999999997,0.0090392000000012,0.0148408,0.0268724000000004,-0.0247211999999992,0.0096507999999999,0,sub_10
0.0088749999999997,0.0087232000000012,0.0156564,0.0272752000000004,-0.0313221999999992,0.0083801999999999,0,sub_10
0.0098047999999998,0.0085982000000011,0.014721,0.0283076000000004,-0.0402689999999992,0.0071169999999999,0,sub_10
0.0092391999999998,0.0088490000000011,0.0130694,0.0282952000000004,-0.0434629999999992,0.0066937999999999,0,sub_10
0.0099031999999998,0.0111666000000011,0.0112526,0.0265900000000004,-0.0419699999999992,0.0077481999999999,0,sub_10
0.0089693999999997,0.0111316000000011,0.012302,0.0251050000000004,-0.0398351999999992,0.0079487999999999,0,sub_10
0.0076017999999997,0.0100790000000011,0.0139326,0.0259316000000004,-0.0470769999999992,0.0066817999999999,0,sub_10
0.0081079999999997,0.0079652000000012,0.0153106,0.0290948000000004,-0.0583679999999992,0.0037273999999999,0,sub_10
0.0081965999999997,0.0089474000000012,0.0140486,0.0312094000000004,-0.0649707999999992,0.0014003999999999,0,sub_10
0.0087355999999997,0.0099920000000012,0.013004,0.0273918000000004,-0.0587829999999992,0.0024339999999999,0,sub_10
0.0115729999999997,0.0118296000000012,0.0122682,0.0220996000000004,-0.0451459999999992,0.0066523999999999,0,sub_10
0.0111787999999997,0.0126470000000012,0.0136618,0.0184848000000004,-0.0402415999999992,0.0087573999999999,0,sub_10
0.0100069999999997,0.0120242000000012,0.0163438,0.0174342000000004,-0.0383135999999992,0.0070383999999999,0,sub_10
0.0118277999999997,0.0114922000000012,0.0177856,0.0191372000000003,-0.0421425999999992,0.0040641999999999,0,sub_10
0.0108491999999997,0.0108532000000012,0.016505,0.0201926000000003,-0.0485225999999992,0.0002341999999999,0,sub_10
0.0091747999999997,0.0105376000000012,0.0148118,0.0191152000000003,-0.0540453999999992,-0.0029708,0,sub_10
0.0102071999999998,0.0104132000000012,0.0143062,0.0165950000000004,-0.0465735999999992,-0.0044934,0,sub_10
0.0092995999999997,0.0113108000000012,0.0134294,0.0106494000000004,-0.0412221999999992,-0.00561,0,sub_10
0.0072897999999997,0.0095710000000012,0.013271,0.0059984000000004,-0.0350135999999992,-0.0090686,0,sub_10
0.0076657999999997,0.0092912000000011,0.0131966,0.0054100000000004,-0.0271139999999992,-0.0127148,0,sub_10
0.0101265999999997,0.0109666000000011,0.0128516,0.0031292000000004,-0.0138905999999992,-0.0142432,0,sub_10
0.0134469999999997,0.0125862000000011,0.01212,-0.0030115999999995,-0.0008829999999992,-0.0117392,0,sub_10
0.0174995999999997,0.0126356000000011,0.0125226,-0.0062017999999995,0.0063524000000007,-0.006857,0,sub_10
0.0189821999999997,0.0133670000000011,0.0127778,-0.0064611999999995,0.0016438000000007,-0.0012982,0,sub_10
0.0195791999999997,0.0135908000000011,0.0125798,-0.0048107999999995,-0.0073247999999992,0.0023567999999999,0,sub_10
0.0174567999999997,0.0128670000000011,0.0115944,-0.0007999999999995,-0.0154409999999992,0.0038905999999999,0,sub_10
0.0146905999999997,0.0124316000000011,0.01056,0.0045132000000004,-0.0209955999999992,0.0030803999999999,0,sub_10
0.0131873999999997,0.0123788000000011,0.0105108,0.0077206000000004,-0.0214251999999992,0.0011805999999999,0,sub_10
0.0130183999999997,0.0124370000000011,0.0117682,0.0060472000000004,-0.0152355999999992,-0.0001208,0,sub_10
0.0126823999999997,0.0123928000000012,0.0139812,0.0020152000000004,-0.0111699999999992,-0.0010088,0,sub_10
0.0127477999999997,0.0119242000000011,0.01427,-0.0018109999999995,-0.0083851999999992,-0.0014664,0,sub_10
0.0125705999999997,0.0112444000000011,0.0134626,-0.0049933999999995,-0.0041137999999992,-0.0012806,0,sub_10
0.0113855999999997,0.0110914000000011,0.0124302,-0.0071041999999995,0.0016434000000007,-0.0006618,0,sub_10
0.0106631999999997,0.0102528000000011,0.0117054,-0.0066581999999995,0.0056908000000007,-0.0008776,0,sub_10
0.0108669999999997,0.0100876000000011,0.0114632,-0.0049377999999995,0.0080310000000007,-0.0015096,0,sub_10
0.0117259999999997,0.0103594000000011,0.0125666,-0.0034413999999995,0.0078162000000007,-0.0023534,0,sub_10
0.0119683999999998,0.0103270000000011,0.01265,-0.0026021999999995,0.0037686000000007,-0.0031968,0,sub_10
0.0118435999999998,0.0106676000000011,0.0123124,-0.0013419999999995,-0.0019831999999992,-0.0044624,0,sub_10
0.0112515999999998,0.0111098000000012,0.0123715999999999,-0.0013545999999995,-0.0064503999999992,-0.0061658,0,sub_10
0.0110049999999998,0.0104848000000012,0.0126751999999999,-0.0005049999999995,-0.0100641999999992,-0.0089326,0,sub_10
0.0102499999999998,0.0096254000000012,0.0124669999999999,0.0012030000000004,-0.0134645999999992,-0.0125482,0,sub_10
0.0100895999999998,0.0097614000000012,0.0126658,0.0027014000000004,-0.0155875999999992,-0.0157398,0,sub_10
0.0110875999999997,0.0100906000000012,0.0134209999999999,0.0031376000000004,-0.0155803999999992,-0.0178732,0,sub_10
0.0112967999999997,0.0101038000000012,0.0141407999999999,0.0027686000000004,-0.0172319999999992,-0.0187352,0,sub_10
0.0111031999999997,0.0099460000000011,0.0147625999999999,0.0028110000000004,-0.0225061999999992,-0.0198032,0,sub_10
0.0117573999999997,0.0107814000000011,0.0138299999999999,0.0026466000000004,-0.0260759999999992,-0.0206614,0,sub_10
0.0124255999999997,0.0109910000000011,0.0134845999999999,0.0018642000000004,-0.0236821999999992,-0.0204632,0,sub_10
0.0124513999999997,0.0122516000000011,0.0126627999999999,-0.0012593999999995,-0.0195777999999992,-0.0198564,0,sub_10
0.0132487999999998,0.0119970000000011,0.0124445999999999,-0.0029461999999995,-0.0153099999999992,-0.0200872,0,sub_10
0.0138189999999997,0.0121390000000011,0.0120322,-0.0029385999999995,-0.0136055999999992,-0.0200894,0,sub_10
0.0138935999999997,0.0121448000000011,0.013234,-0.0006095999999995,-0.0178739999999992,-0.0202812,0,sub_10
0.0139175999999997,0.0129718000000011,0.0126752,0.0025564000000004,-0.0264039999999992,-0.0211026,0,sub_10
0.0143409999999997,0.0123362000000011,0.0122162,0.0067912000000004,-0.0326015999999992,-0.0199968,0,sub_10
0.0146227999999997,0.0128358000000011,0.012487,0.0103840000000004,-0.0368889999999992,-0.016548,0,sub_10
0.0127251999999997,0.0123066000000011,0.0134742,0.0118402000000004,-0.0409591999999992,-0.0122596,0,sub_10
0.0103625999999997,0.0108124000000011,0.0145682,0.0113914000000004,-0.0435235999999991,-0.0099094,0,sub_10
0.0076893999999998,0.0087148000000011,0.0162724,0.0118152000000004,-0.0435275999999991,-0.0092656,0,sub_10
0.0054151999999998,0.0085718000000011,0.0164648,0.0109818000000004,-0.0392627999999992,-0.0094904,0,sub_10
0.0046111999999997,0.0089330000000011,0.0159664,0.0069756000000004,-0.0275349999999992,-0.0084652,0,sub_10
0.0047125999999997,0.0091502000000011,0.0166796,0.0010626000000004,-0.0126055999999992,-0.0072438,0,sub_10
0.0043811999999997,0.0086404000000011,0.0182824,-0.0048791999999995,-0.0034311999999992,-0.0053742,0,sub_10
0.0036457999999997,0.0072678000000011,0.0193234,-0.0087121999999995,-0.0019255999999992,-0.0056166,0,sub_10
0.0027757999999997,0.0053880000000011,0.0189198,-0.0095521999999995,-0.0008495999999992,-0.0075468,0,sub_10
0.0020549999999998,0.0064620000000011,0.016707,-0.0110063999999995,0.0072542000000007,-0.0082082,0,sub_10
0.0040095999999998,0.0086978000000012,0.014829,-0.0152125999999995,0.0245120000000007,-0.0046278,0,sub_10
0.0053209999999998,0.0091838000000012,0.0159126,-0.0202761999999995,0.0421938000000007,0.0002279999999999,0,sub_10
0.0066783999999998,0.0091766000000012,0.0187712,-0.0245263999999995,0.0496510000000007,0.0038207999999999,0,sub_10
0.0085905999999998,0.0080008000000012,0.0209212,-0.0262343999999995,0.0507172000000007,0.0050893999999999,0,sub_10
0.0090461999999998,0.0083672000000012,0.0202154,-0.0249531999999995,0.0494404000000007,0.0036043999999999,0,sub_10
0.0080845999999998,0.0083048000000012,0.0201986,-0.0240889999999995,0.0496590000000007,0.0014737999999999,0,sub_10
0.0079121999999998,0.0092462000000012,0.019261,-0.0227807999999995,0.0549842000000007,0.0006213999999999,0,sub_10
0.0083351999999998,0.0098418000000012,0.0188162,-0.0223175999999995,0.0639276000000007,0.0014677999999999,0,sub_10
0.0075365999999997,0.0123902000000012,0.0189684,-0.0237995999999995,0.0671260000000007,0.0020943999999999,0,sub_10
0.0073065999999997,0.0121392000000012,0.0205646,-0.0257247999999995,0.0650064000000007,0.0010153999999999,0,sub_10
0.0084239999999997,0.0099856000000012,0.0205256,-0.0276489999999995,0.0614022000000007,-0.0017708,0,sub_10
0.0085153999999997,0.0098856000000012,0.0200352,-0.0299961999999995,0.0584396000000007,-0.0047744,0,sub_10
0.0071461999999998,0.0107548000000012,0.0174456,-0.0314829999999995,0.0567532000000007,-0.0079874,0,sub_10
0.0078327999999998,0.0106022000000011,0.0157998,-0.0327449999999995,0.0584714000000007,-0.0103486,0,sub_10
0.0092331999999998,0.0097686000000011,0.0164226,-0.0356977999999995,0.0646664000000007,-0.0118726,0,sub_10
0.0098953999999998,0.0112982000000011,0.017703,-0.0373817999999995,0.0689368000000007,-0.0127444,0,sub_10
0.0106527999999998,0.0121940000000011,0.0182418,-0.0367345999999995,0.0662016000000007,-0.014647,0,sub_10
0.0113367999999998,0.0124084000000011,0.0195164,-0.0344015999999995,0.0589856000000007,-0.0163186,0,sub_10
0.0104813999999998,0.0118894000000011,0.0206576,-0.0303789999999995,0.0487774000000007,-0.01712,0,sub_10
0.0089627999999998,0.0116408000000011,0.0205636,-0.0233851999999995,0.0357858000000007,-0.0170424,0,sub_10
0.0072297999999998,0.0116750000000011,0.0186186,-0.0167913999999995,0.0287610000000007,-0.0169754,0,sub_10
0.0073307999999998,0.0108300000000011,0.0175192,-0.0144395999999995,0.0306668000000007,-0.016107,0,sub_10
0.0084739999999998,0.0106876000000012,0.0177624,-0.0142023999999995,0.0366290000000007,-0.015472,0,sub_10
0.0100145999999998,0.0109374000000012,0.0170462,-0.0127019999999995,0.0370542000000007,-0.0165302,0,sub_10
0.0112715999999998,0.0102042000000012,0.0166502,-0.0112737999999995,0.0323392000000007,-0.0185848,0,sub_10
0.0130647999999998,0.0101412000000012,0.016313,-0.0089987999999995,0.0269788000000007,-0.019778,0,sub_10
0.0147109999999998,0.0112294000000012,0.0162474,-0.0075809999999995,0.0233156000000007,-0.0184154,0,sub_10
0.0158785999999998,0.0113390000000012,0.017476,-0.0070377999999995,0.0177266000000007,-0.0142792,0,sub_10
0.0148111999999997,0.0109972000000012,0.0202818,-0.0049923999999995,0.0129890000000007,-0.011202,0,sub_10
0.0147773999999997,0.0118320000000012,0.0196566,-0.0013813999999995,0.0110520000000007,-0.009465,0,sub_10
0.0140573999999997,0.0117574000000011,0.0188974,0.0026688000000004,0.0114588000000007,-0.0081552,0,sub_10
0.0150815999999997,0.0132300000000011,0.017213,0.0065056000000004,0.0127152000000007,-0.0059936,0,sub_10
0.0162773999999997,0.0142574000000011,0.0155138,0.0075524000000004,0.0151624000000007,-0.003371,0,sub_10
0.0178959999999998,0.0140490000000011,0.0145448,0.0066518000000004,0.0133484000000007,0.0009527999999999,0,sub_10
0.0173767999999998,0.0127674000000011,0.0167984,0.0078476000000004,0.0013082000000007,0.0033811999999999,0,sub_10
0.0180117999999998,0.0132556000000012,0.0170208,0.0122392000000004,-0.0132937999999992,0.0043397999999999,0,sub_10
0.0178657999999998,0.0128988000000012,0.0164194,0.0164492000000004,-0.0204399999999992,0.0057147999999999,0,sub_10
0.0178901999999998,0.0140470000000012,0.0153562,0.0189990000000003,-0.0200337999999992,0.0085093999999999,0,sub_10
0.0164377999999998,0.0140016000000012,0.0156468,0.0209166000000004,-0.0181331999999992,0.0110839999999999,0,sub_10
0.0160209999999998,0.0128230000000012,0.0157358,0.0230370000000003,-0.0185769999999992,0.0136631999999999,0,sub_10
0.0147945999999998,0.0101594000000012,0.015992,0.0234484000000003,-0.0209263999999992,0.0147371999999999,0,sub_10
0.0130567999999998,0.0097930000000012,0.0158814,0.0223786000000003,-0.0219861999999992,0.0143037999999999,0,sub_10
0.0119111999999998,0.0097778000000011,0.0144782,0.0217482000000004,-0.0211265999999992,0.0130163999999999,0,sub_10
0.0119283999999998,0.0098564000000011,0.0143442,0.0189964000000004,-0.0168531999999992,0.0123507999999999,0,sub_10
0.0123073999999998,0.0111614000000011,0.0141944,0.0164618000000004,-0.0110917999999992,0.0123257999999999,0,sub_10
0.0121707999999997,0.0119290000000011,0.0152498,0.0145416000000004,-0.0112971999999992,0.0120989999999999,0,sub_10
0.0119227999999997,0.0110680000000011,0.0155862,0.0164390000000004,-0.0179025999999992,0.0106251999999999,0,sub_10
0.0118195999999997,0.0103544000000011,0.0170194,0.0181364000000004,-0.0206757999999992,0.0099997999999999,0,sub_10
0.0128549999999997,0.0108312000000011,0.0166098,0.0177058000000004,-0.0202533999999992,0.0112779999999999,0,sub_10
0.0112015999999997,0.0107528000000011,0.01687,0.0151368000000004,-0.0204643999999992,0.0129693999999999,0,sub_10
0.0105583999999997,0.0110238000000011,0.016864,0.0138488000000004,-0.0223765999999992,0.0127491999999999,0,sub_10
0.0101123999999997,0.0109696000000011,0.0163514,0.0140630000000004,-0.0232253999999992,0.0116835999999999,0,sub_10
0.0100389999999997,0.0106368000000011,0.0154056,0.0151336000000004,-0.0240743999999992,0.0099829999999999,0,sub_10
0.0093581999999997,0.0109458000000011,0.0145442,0.0164234000000004,-0.0240703999999992,0.0078555999999999,0,sub_10
0.0099793999999998,0.0098572000000011,0.0148068,0.0185656000000004,-0.0244945999999992,0.0055209999999999,0,sub_10
0.0109019999999998,0.0100176000000011,0.0138978,0.0200620000000004,-0.0244971999999992,0.0048905999999999,0,sub_10
0.0112865999999998,0.0099996000000011,0.0138458,0.0181370000000004,-0.0236457999999992,0.0067987999999999,0,sub_10
0.0108405999999998,0.0104868000000011,0.0146986,0.0147144000000004,-0.0227927999999992,0.0095511999999999,0,sub_10
0.0096625999999997,0.0094134000000011,0.0155298,0.0136486000000003,-0.0217271999999992,0.0103969999999999,0,sub_10
0.0083563999999997,0.0093882000000012,0.0151302,0.0121676000000003,-0.0204375999999992,0.0088895999999999,0,sub_10
0.0069451999999997,0.0081342000000012,0.0153086,0.0104934000000003,-0.0176441999999992,0.0043877999999999,0,sub_10
0.0068967999999997,0.0086892000000012,0.0147552,0.0099030000000004,-0.0137781999999992,-0.0028852,0,sub_10
0.0082233999999997,0.0094886000000012,0.0136008,0.0090918000000004,-0.0105547999999992,-0.0090908,0,sub_10
0.0102763999999998,0.0111752000000012,0.0130802,0.0069742000000004,-0.0096839999999992,-0.011884,0,sub_10
0.0121731999999998,0.0124184000000011,0.0135468,0.0054738000000004,-0.0118067999999992,-0.0125328,0,sub_10
0.0136333999999998,0.0130270000000011,0.014421,0.0058640000000004,-0.0190553999999992,-0.0116662,0,sub_10
0.0133773999999998,0.0122078000000011,0.0150264,0.0070954000000004,-0.0286521999999992,-0.0103634,0,sub_10
0.0123899999999998,0.0114442000000011,0.0147376,0.0096300000000003,-0.0344135999999992,-0.0103382,0,sub_10
0.0123453999999998,0.0108026000000011,0.0142282,0.0104826000000003,-0.0342051999999992,-0.0099052,0,sub_10
0.0132191999999998,0.0104874000000012,0.0144,0.0098434000000004,-0.0308067999999992,-0.0067094,0,sub_10
0.0117409999999998,0.0112294000000011,0.0152508,0.0079174000000004,-0.0282587999999992,-0.0028806,0,sub_10
0.0108305999999998,0.0113554000000011,0.0156278,0.0066324000000004,-0.0269853999999992,-0.000541,0,sub_10
0.0110577999999998,0.0113088000000011,0.0149281999999999,0.0059902000000004,-0.0250749999999992,0.0018021999999999,0,sub_10
0.0124989999999998,0.0123256000000011,0.0143762,0.0049234000000004,-0.0214637999999992,0.0054219999999999,0,sub_10
0.0132475999999998,0.0131234000000011,0.015069,0.0040662000000004,-0.0184935999999992,0.0092577999999999,0,sub_10
0.0147949999999997,0.0133586000000012,0.015785,0.0040412000000004,-0.0208499999999992,0.0124653999999999,0,sub_10
0.0150661999999997,0.0121438000000012,0.0167462,0.0065566000000004,-0.0287503999999992,0.0146293999999999,0,sub_10
0.0136821999999997,0.0106618000000011,0.0177594,0.0095026000000004,-0.0360121999999992,0.0165819999999999,0,sub_10
0.0111669999999997,0.0095086000000011,0.0169152,0.0099198000000004,-0.0370833999999992,0.0176543999999999,0,sub_10
0.0081775999999997,0.0087286000000011,0.0162582,0.0065336000000004,-0.0302561999999992,0.0182629999999999,0,sub_10
0.0056513999999998,0.0073464000000011,0.0162776,0.0014596000000004,-0.0183131999999992,0.0197077999999999,0,sub_10
0.0045909999999997,0.0072092000000011,0.0177736,-0.0048735999999995,-0.0065875999999992,0.0217847999999999,0,sub_10
0.0040581999999997,0.0071868000000012,0.0188656,-0.0101455999999995,0.0023706000000007,0.0223769999999999,0,sub_10
0.0036901999999997,0.0078308000000012,0.0200312,-0.0124285999999995,0.0104714000000007,0.0217095999999999,0,sub_10
0.0039615999999997,0.0085422000000012,0.019537,-0.0136407999999995,0.0189962000000007,0.0206215999999999,0,sub_10
0.0046571999999997,0.0084614000000012,0.019579,-0.0144345999999995,0.0266724000000007,0.0193215999999999,0,sub_10
0.0049643999999998,0.0085948000000012,0.017789,-0.0152541999999995,0.0322320000000007,0.0161015999999999,0,sub_10
0.0059719999999998,0.0089402000000012,0.0168618,-0.0177797999999995,0.0373740000000007,0.0122293999999999,0,sub_10
0.0069589999999998,0.0088794000000011,0.0163402,-0.0220199999999995,0.0412420000000007,0.0087739999999999,0,sub_10
0.0084377999999998,0.0094202000000011,0.01686,-0.0243601999999995,0.0412656000000007,0.0059779999999999,0,sub_10
0.0094479999999998,0.0102234000000011,0.0174094,-0.0245687999999995,0.0393608000000007,0.0029879999999999,0,sub_10
0.0101209999999998,0.0100528000000011,0.01835,-0.0243495999999995,0.0395774000000007,0.0019209999999999,0,sub_10
0.0105781999999998,0.0108318000000011,0.0182592,-0.0243399999999995,0.0419200000000007,0.0021317999999999,0,sub_10
0.0111531999999998,0.0106740000000012,0.0186702,-0.0237009999999995,0.0417046000000007,0.0021365999999999,0,sub_10
0.0113979999999998,0.0100280000000012,0.0188136,-0.0241865999999995,0.0409024000000007,0.0012609999999999,0,sub_10
0.0114515999999998,0.0097022000000012,0.0183056,-0.0257351999999995,0.0413806000000007,0.0008035999999999,0,sub_10
0.0113841999999998,0.0104752000000012,0.0177618,-0.0279201999999995,0.0422888000000007,-8.600000000005131e-05,0,sub_10
0.0109679999999998,0.0118764000000012,0.0177884,-0.0286249999999995,0.0410580000000007,-0.000108,0,sub_10
0.0106753999999998,0.0121364000000012,0.0182074,-0.0274121999999995,0.0393934000000007,9.759999999992848e-05,0,sub_10
0.0099267999999998,0.0121950000000012,0.0180522,-0.0240067999999995,0.0383128000000007,0.0009771999999999,0,sub_10
0.0098633999999998,0.0121680000000012,0.0171628,-0.0212301999999995,0.0397912000000007,0.0018491999999999,0,sub_10
0.0108673999999998,0.0117146000000011,0.0168045999999999,-0.0195773999999995,0.0417828000000007,0.0031451999999999,0,sub_10
0.0119053999999997,0.0108538000000011,0.0165818,-0.0200611999999995,0.0418696000000007,0.0031467999999999,0,sub_10
0.0128937999999997,0.0115746000000011,0.0161662,-0.0199095999999995,0.0406768000000007,0.0029407999999999,0,sub_10
0.0147903999999997,0.0119310000000011,0.0155842,-0.0180653999999995,0.0364944000000007,0.0029641999999999,0,sub_10
0.0152567999999997,0.0126958000000011,0.0156754,-0.0151665999999995,0.0297506000000007,0.0032117999999999,0,sub_10
0.0152411999999997,0.0132186000000011,0.016156,-0.0113631999999995,0.0220648000000007,0.0038891999999999,0,sub_10
0.0145747999999998,0.0121656000000011,0.0167516,-0.0062823999999995,0.0139474000000007,0.0047895999999999,0,sub_10
0.0133585999999998,0.0108416000000012,0.0174108,-0.0031239999999995,0.0049862000000007,0.0052503999999999,0,sub_10
0.0114059999999998,0.0100624000000012,0.0178176,-0.0027201999999995,-0.0009773999999992,0.0044061999999999,0,sub_10
0.0107825999999998,0.0093294000000011,0.0186882,-0.0027221999999995,-0.0028887999999992,0.0029131999999999,0,sub_10
0.0098981999999998,0.0099204000000011,0.0181756,-0.0029229999999995,-0.0009671999999992,0.0020545999999999,0,sub_10
