userAcceleration.x,userAcceleration.y,userAcceleration.z,rotationRate.x,rotationRate.y,rotationRate.z,label,subject
6.93999999997202e-05,0.0033196000000012,0.0092239999999999,0.0027818000000004,-0.0152899999999989,-0.0059534,0,sub_4
-8.200000000027977e-05,0.0038626000000012,0.0088317999999999,0.0020588000000004,-0.0165655999999989,-0.0053242,0,sub_4
-0.0016756000000002,0.0048304000000012,0.0079567999999999,0.0024144000000004,-0.0152883999999989,-0.0046906,0,sub_4
-0.0032914000000002,0.0052458000000012,0.0077887999999999,0.0036310000000004,-0.0131583999999989,-0.0049066,0,sub_4
-0.0037310000000002,0.0049656000000012,0.0072979999999999,0.0052812000000004,-0.0108115999999989,-0.0064018,0,sub_4
-0.0023342000000003,0.0036748000000012,0.0086607999999999,0.0061500000000004,-0.0084667999999989,-0.007467,0,sub_4
-0.0016164000000003,0.0036494000000012,0.0111891999999999,0.0059444000000004,-0.0069739999999989,-0.007684,0,sub_4
-0.0014496000000002,0.0024084000000012,0.0120231999999999,0.0042344000000004,-0.0073949999999989,-0.0074818,0,sub_4
-0.0012274000000002,0.0017436000000012,0.0120043999999999,0.0018778000000004,-0.0090929999999989,-0.0070688,0,sub_4
-0.0011776000000002,0.0024876000000012,0.0119497999999999,6.920000000047266e-05,-0.009520799999999,-0.0053806,0,sub_4
-0.0022368000000002,0.0038962000000012,0.0103093999999999,-0.0002361999999995,-0.007610999999999,-0.0034712,0,sub_4
-0.0028048000000002,0.0045262000000012,0.0086557999999999,0.0007424000000004,-0.004853399999999,-0.0015538,0,sub_4
-0.0033262000000002,0.0050726000000012,0.0085829999999999,0.0030070000000004,-0.000821999999999,0.0003707999999999,0,sub_4
-0.0041318000000002,0.0046686000000012,0.0090447999999999,0.0059154000000004,0.0040594000000009,0.0022987999999999,0,sub_4
-0.0052628000000002,0.0025390000000012,0.0095081999999999,0.0076406000000004,0.009162400000001,0.0033723999999999,0,sub_4
-0.0040542000000002,-0.0001853999999987,0.0114997999999999,0.0072312000000004,0.013635400000001,0.0040047999999999,0,sub_4
-0.0026260000000002,-0.0028251999999987,0.0146425999999999,0.0026806000000004,0.018560200000001,0.0054591999999999,0,sub_4
-0.0010186000000003,-0.0045789999999987,0.0173949999999999,-0.0055145999999995,0.0200870000000009,0.0073197999999999,0,sub_4
-2.540000000031976e-05,-0.0049027999999987,0.0182831999999999,-0.0154425999999995,0.0152308000000009,0.0085353999999999,0,sub_4
-0.0001288000000003,-0.0043131999999987,0.0184741999999999,-0.0257965999999995,0.0112258000000009,0.0103879999999999,0,sub_4
-0.0015518000000003,-0.0021357999999987,0.0160627999999999,-0.0352729999999995,0.0131806000000009,0.0128799999999999,0,sub_4
-0.0031520000000002,0.0016850000000012,0.0119715999999999,-0.0397499999999995,0.0144728000000009,0.0132743999999999,0,sub_4
-0.0045284000000002,0.0064240000000012,0.0060223999999999,-0.0386657999999995,0.0174554000000009,0.0124235999999999,0,sub_4
-0.0054648000000002,0.0111634000000012,0.0003813999999999,-0.0320281999999995,0.0214846000000009,0.0113965999999999,0,sub_4
-0.0060316000000002,0.0141388000000012,-0.004747,-0.0216177999999995,0.0249108000000009,0.0089143999999999,0,sub_4
-0.0059178000000002,0.0140038000000012,-0.0064814,-0.0097157999999995,0.0270570000000009,0.0055895999999999,0,sub_4
-0.0038908000000002,0.0124324000000012,-0.0071702,0.0009050000000004,0.0298434000000009,0.0031093999999999,0,sub_4
-0.0018316000000002,0.0095932000000012,-0.0039846,0.0078830000000004,0.0302946000000009,0.0016749999999999,0,sub_4
-6.280000000029968e-05,0.0064924000000012,-0.0002776,0.0090942000000004,0.0301242000000009,0.0008421999999999,0,sub_4
0.0016387999999997,0.0046050000000012,0.0029601999999999,0.0060820000000004,0.0241710000000009,0.0004013999999999,0,sub_4
0.0021961999999997,0.0045816000000012,0.0037141999999999,6.060000000049359e-05,0.0137524000000009,0.0003725999999999,0,sub_4
0.0012307999999997,0.0037982000000012,0.0047293999999999,-0.0070151999999995,0.007380400000001,0.0016131999999999,0,sub_4
-0.0006684000000002,0.0045800000000012,0.0038669999999999,-0.0117227999999994,0.005262800000001,0.0024375999999999,0,sub_4
-0.0019664000000002,0.0054658000000012,0.0032269999999999,-0.0134859999999994,0.005125800000001,0.0024503999999999,0,sub_4
-0.0023604000000002,0.0065526000000012,0.0024433999999999,-0.0122581999999994,0.004981600000001,0.0016295999999999,0,sub_4
-0.0016490000000002,0.0066176000000012,0.0031339999999999,-0.0095319999999994,0.005685400000001,0.0006045999999999,0,sub_4
-0.0002946000000002,0.0062776000000012,0.0038717999999998,-0.0070199999999994,0.005752400000001,-0.0008484,0,sub_4
0.0011623999999997,0.0052236000000012,0.0051717999999998,-0.0055805999999994,0.004969400000001,-0.0018804,0,sub_4
0.0023777999999997,0.0035058000000012,0.0060045999999998,-0.0060101999999994,0.003907400000001,-0.0023092,0,sub_4
0.0025771999999997,0.0024730000000012,0.0068915999999999,-0.0081485999999994,0.003061800000001,-0.0021094,0,sub_4
0.0017053999999997,0.0020080000000012,0.0068617999999999,-0.0105495999999994,0.001006400000001,-0.0018806,0,sub_4
0.0002323999999997,0.0024536000000012,0.0066377999999999,-0.0116751999999995,-0.0029675999999989,-0.002495,0,sub_4
7.15999999996802e-05,0.0015756000000012,0.0076463999999999,-0.0134283999999995,-0.0045939999999989,-0.003544,0,sub_4
-0.0002778000000003,0.0014216000000012,0.0098169999999999,-0.0149661999999995,-0.0055829999999989,-0.0043786,0,sub_4
-0.0005822000000003,0.0018036000000012,0.0107825999999999,-0.0171365999999995,-0.0044405999999989,-0.004793,0,sub_4
-0.0006634000000002,0.0027246000000012,0.0106625999999999,-0.0188453999999995,-0.0057095999999989,-0.0056578,0,sub_4
-0.0003252000000002,0.0036506000000012,0.0098313999999999,-0.0199199999999994,-0.0076223999999989,-0.0058764,0,sub_4
-0.0006132000000002,0.0041520000000012,0.0087791999999999,-0.0197047999999994,-0.0061361999999989,-0.0048086,0,sub_4
-0.0014076000000002,0.0039498000000012,0.0079661999999999,-0.0184469999999994,-0.0039851999999989,-0.0035054,0,sub_4
-0.0019010000000002,0.0035778000000012,0.0088135999999999,-0.0159127999999994,-0.0029031999999989,-0.0024056,0,sub_4
-0.0027762000000002,0.0039804000000012,0.0101461999999999,-0.0138033999999994,-0.0024545999999989,-0.002376,0,sub_4
-0.0032230000000002,0.0032258000000012,0.0113193999999999,-0.0116929999999994,-0.0017929999999989,-0.0023468,0,sub_4
-0.0037182000000002,0.0036324000000012,0.0115127999999999,-0.0095967999999995,-0.0051757999999989,-0.003167,0,sub_4
-0.0028706000000002,0.0040386000000012,0.0111519999999999,-0.0074707999999994,-0.0077365999999989,-0.0040034,0,sub_4
-0.0025480000000002,0.0043762000000012,0.0104741999999999,-0.0061923999999994,-0.0088037999999989,-0.004634,0,sub_4
-0.0021142000000002,0.0032012000000012,0.0104709999999999,-0.0053341999999994,-0.0068927999999989,-0.003776,0,sub_4
-0.0022514000000002,0.0022106000000012,0.0108417999999999,-0.0063651999999994,-0.0058505999999989,-0.0035812,0,sub_4
-0.0020904000000002,0.0017340000000012,0.0118479999999999,-0.0080393999999994,-0.0056577999999989,-0.0036035999999999,0,sub_4
-0.0028472000000002,0.0023970000000012,0.0122481999999999,-0.0095019999999994,-0.0058915999999989,-0.003624,0,sub_4
-0.0032420000000002,0.0025456000000012,0.0121593999999999,-0.0101119999999994,-0.0063415999999989,-0.003638,0,sub_4
-0.0030354000000002,0.0032116000000012,0.0114935999999999,-0.0102943999999994,-0.0065797999999989,-0.0036492,0,sub_4
-0.0028556000000002,0.0040118000000012,0.0114779999999999,-0.0098665999999995,-0.0059437999999989,-0.0032196,0,sub_4
-0.0027366000000002,0.0046800000000012,0.0108541999999999,-0.0096521999999995,-0.0050947999999989,-0.0025782,0,sub_4
-0.0026014000000002,0.0048210000000012,0.0099125999999999,-0.0085813999999995,-0.0038217999999989,-0.002145,0,sub_4
-0.0031182000000002,0.0053662000000012,0.0097587999999999,-0.0074759999999995,-0.0015395999999989,-0.0015104,0,sub_4
-0.0037970000000002,0.0048190000000012,0.0099249999999999,-0.0055245999999995,-0.0016015999999989,-0.0015078,0,sub_4
-0.0038024000000002,0.0053466000000012,0.0099799999999999,-0.0031475999999995,-0.0018781999999989,-0.001502,0,sub_4
-0.0040778000000002,0.0048336000000012,0.0110131999999999,9.06000000004941e-05,0.000183400000001,-0.000852,0,sub_4
-0.0046802000000002,0.0035366000000012,0.0128241999999999,0.0020524000000004,0.003526000000001,0.0002145999999999,0,sub_4
-0.0044678000000002,0.0014272000000012,0.0140217999999999,0.0026944000000004,0.004374200000001,0.0006453999999999,0,sub_4
-0.0036866000000002,0.0001306000000012,0.0151371999999999,0.0012026000000005,0.004593400000001,0.0004211999999999,0,sub_4
-0.0023542000000002,-0.0005867999999987,0.0146063999999999,-0.0015721999999994,0.004602400000001,0.0006153999999999,0,sub_4
-0.0017246000000002,-0.0001521999999987,0.0133111999999999,-0.0049475999999994,0.004142400000001,0.0010149999999999,0,sub_4
-0.0020426000000002,0.0016332000000012,0.0107299999999998,-0.0083333999999994,0.000914400000001,0.0009909999999999,0,sub_4
-0.0018876000000002,0.0035674000000012,0.0082261999999998,-0.0100141999999994,-0.0029577999999989,0.0007659999999999,0,sub_4
-0.0009092000000002,0.0057546000000012,0.0058607999999998,-0.0099707999999994,-0.0021521999999989,0.0014015999999999,0,sub_4
-0.0012634000000002,0.0071038000000012,0.0049011999999998,-0.0069363999999994,-0.0002927999999989,0.0022705999999999,0,sub_4
-0.0018486000000002,0.0070042000000012,0.0053455999999999,-0.0024601999999994,-0.0007369999999989,0.0029433999999999,0,sub_4
-0.0017330000000002,0.0051308000000012,0.0080125999999999,0.0018072000000005,-0.0001151999999989,0.0036131999999999,0,sub_4
-0.0026434000000003,0.0041576000000012,0.0113505999999999,0.0048126000000005,0.0047712000000009,0.0044823999999999,0,sub_4
-0.0033454000000002,0.0021054000000012,0.0138941999999999,0.0052462000000004,0.0056244000000009,0.0038433999999999,0,sub_4
-0.0021342000000003,-0.0002633999999987,0.0163457999999999,0.0025250000000004,0.0013598000000009,0.0021253999999999,0,sub_4
-0.0003880000000002,-0.0010911999999987,0.0172259999999999,-0.0027479999999995,0.0005068000000009,0.0018807999999999,0,sub_4
-0.0008258000000002,0.0006828000000012,0.0145983999999999,-0.0080209999999995,7.820000000098165e-05,0.0020629999999999,0,sub_4
-0.0007950000000002,0.0009872000000012,0.0105761999999999,-0.0109631999999995,-0.0048291999999989,0.0014125999999999,0,sub_4
-0.0004876000000002,0.0024568000000012,0.0077057999999999,-0.0104723999999995,-0.0033653999999989,0.0029141999999999,0,sub_4
-0.0013598000000003,0.0047388000000012,0.0059187999999999,-0.0078917999999995,0.003433800000001,0.0052735999999999,0,sub_4
-0.0029046000000002,0.0068744000000012,0.0050319999999999,-0.0036129999999995,0.005975600000001,0.0053001999999999,0,sub_4
-0.0020472000000002,0.0066988000000012,0.0054539999999999,0.0005038000000004,0.004900800000001,0.0042727999999999,0,sub_4
-0.0004554000000002,0.0061536000000012,0.0071589999999999,0.0037750000000004,0.005957600000001,0.0036641999999999,0,sub_4
-0.0004648000000002,0.0053572000000012,0.0090181999999999,0.0057574000000004,0.005313800000001,0.0032623999999999,0,sub_4
-0.0008294000000002,0.0047690000000012,0.0103415999999999,0.0062462000000004,0.004887400000001,0.0030633999999999,0,sub_4
-0.0017398000000003,0.0039306000000012,0.0104373999999999,0.0060900000000004,0.003610000000001,0.0030745999999999,0,sub_4
-0.0028938000000003,0.0034754000000012,0.0104239999999999,0.0067350000000004,0.004460800000001,0.0028643999999999,0,sub_4
-0.0043168000000003,0.0036366000000012,0.0100271999999999,0.0063100000000004,0.004676200000001,0.0026473999999999,0,sub_4
-0.0040278000000003,0.0039694000000012,0.0099483999999999,0.0060936000000004,0.003188800000001,0.0017931999999999,0,sub_4
-0.0031680000000003,0.0040030000000012,0.0091667999999999,0.0063050000000004,0.001488800000001,0.0005149999999999,0,sub_4
-0.0014120000000003,0.0040888000000012,0.0086101999999999,0.0070062000000004,0.001924000000001,0.0003189999999999,0,sub_4
-0.0003580000000002,0.0040720000000012,0.0088473999999999,0.0070606000000004,0.001718800000001,0.0009737999999999,0,sub_4
-0.0003700000000002,0.0042598000000012,0.0089971999999999,0.0066874000000004,0.001302000000001,0.0016259999999999,0,sub_4
-0.0014272000000002,0.0046924000000012,0.0081279999999999,0.0069514000000004,-0.0003927999999989,0.0016433999999999,0,sub_4
-0.0027670000000002,0.0046240000000012,0.0075029999999999,0.0078564000000004,-0.0020889999999989,0.0014513999999999,0,sub_4
-0.0036152000000002,0.0042154000000012,0.0078641999999999,0.0089176000000004,-0.0040077999999989,0.0008203999999999,0,sub_4
-0.0032380000000002,0.0039852000000012,0.0082953999999999,0.0099806000000004,-0.0055003999999989,0.0001887999999999,0,sub_4
-0.0027290000000002,0.0039568000000012,0.0092181999999999,0.0104502000000004,-0.0052867999999989,0.0004135999999999,0,sub_4
-0.0025290000000002,0.0036992000000012,0.0105975999999999,0.0107074000000004,-0.0042227999999989,0.0012765999999999,0,sub_4
-0.0029038000000002,0.0036220000000012,0.0112933999999999,0.0116046000000004,-0.0033731999999989,0.0019309999999999,0,sub_4
-0.0033332000000002,0.0035136000000012,0.0118983999999999,0.0122884000000004,-0.0027349999999989,0.0023703999999999,0,sub_4
-0.0040256000000002,0.0032350000000012,0.0127375999999999,0.0125456000000004,-0.0020953999999989,0.0028067999999999,0,sub_4
-0.0037280000000002,0.0034018000000012,0.0125883999999999,0.0134000000000004,-0.0020973999999989,0.0025989999999999,0,sub_4
-0.0036866000000002,0.0032034000000012,0.0121305999999999,0.0140420000000004,-0.0018855999999989,0.0023895999999998,0,sub_4
-0.0036160000000002,0.0029516000000012,0.0119225999999999,0.0140430000000004,-0.0016725999999989,0.0023891999999998,0,sub_4
-0.0040154000000002,0.0032776000000012,0.0116343999999999,0.0138604000000004,-0.0018849999999989,0.0026011999999998,0,sub_4
-0.0038148000000002,0.0038582000000012,0.0109287999999999,0.0143226000000004,-0.0012465999999989,0.0026031999999998,0,sub_4
-0.0041126000000002,0.0032946000000012,0.0108255999999999,0.0149954000000004,-0.0008237999999989,0.0030341999999998,0,sub_4
-0.0042280000000002,0.0026806000000012,0.0117787999999999,0.0156682000000004,2.3400000001001636e-05,0.0038919999999999,0,sub_4
-0.0037046000000003,0.0019964000000012,0.0134047999999999,0.0150598000000004,0.001298600000001,0.0053811999999999,0,sub_4
-0.0030334000000002,0.0009336000000012,0.0151899999999999,0.0131520000000004,0.005136000000001,0.0064311999999999,0,sub_4
-0.0028416000000003,0.0012958000000012,0.0163575999999999,0.0101658000000004,0.005996000000001,0.0070499999999998,0,sub_4
-0.0028828000000003,0.0019822000000012,0.0165605999999999,0.0088798000000004,0.005146600000001,0.0074693999999998,0,sub_4
-0.0036968000000002,0.0022820000000012,0.0145695999999999,0.0082778000000004,0.008550800000001,0.0080929999999998,0,sub_4
-0.0035848000000002,0.0017452000000012,0.0147929999999999,0.0098078000000004,0.010885000000001,0.0080919999999998,0,sub_4
-0.0020192000000002,0.0004160000000012,0.0164813999999999,0.0104842000000004,0.013858600000001,0.0087251999999998,0,sub_4
-0.0001776000000002,-0.0029659999999987,0.0205989999999999,0.0081754000000005,0.0193908000000009,0.0114707999999999,0,sub_4
0.0007159999999997,-0.0047353999999987,0.0240763999999999,0.0013810000000005,0.0251466000000009,0.0154665999999999,0,sub_4
7.719999999967995e-05,-0.0052721999999987,0.0254889999999999,-0.0084493999999994,0.0260160000000009,0.0196697999999999,0,sub_4
-0.0027008000000003,-0.0033277999999987,0.0215607999999999,-0.0204135999999994,0.0271050000000009,0.0240713999999999,0,sub_4
-0.0062964000000003,0.0004946000000012,0.0141789999999999,-0.0281055999999994,0.0279712000000009,0.0272213999999999,0,sub_4
-0.0092656000000003,0.0060338000000012,0.0046805999999999,-0.0282997999999994,0.0328696000000009,0.0278547999999999,0,sub_4
-0.0097508000000002,0.0111314000000012,-0.0029814,-0.0214233999999994,0.0409392000000009,0.0257441999999999,0,sub_4
-0.0082956000000002,0.0154434000000012,-0.0077632,-0.0096391999999995,0.0470820000000009,0.0217475999999999,0,sub_4
-0.0059238000000002,0.0162508000000012,-0.0100846,0.0053348000000004,0.0500212000000009,0.0169227999999999,0,sub_4
-0.0024800000000002,0.0145940000000012,-0.009517,0.0190152000000004,0.049982000000001,0.0120927999999999,0,sub_4
0.0014539999999997,0.0109104000000012,-0.005985,0.0301198000000004,0.047179600000001,0.0078891999999999,0,sub_4
0.0042723999999997,0.0065816000000012,-0.000732,0.0358636000000004,0.041626800000001,0.0062273999999999,0,sub_4
0.0051703999999997,0.0024642000000012,0.0052611999999999,0.0351880000000004,0.0345948000000009,0.0070863999999999,0,sub_4
0.0036199999999997,0.0006588000000012,0.0099683999999999,0.0293678000000005,0.0271492000000009,0.0085397999999999,0,sub_4
0.0002225999999997,6.340000000126897e-05,0.0120011999999999,0.0214034000000004,0.0171554000000009,0.0097677999999999,0,sub_4
-0.0038558000000002,-5.999999999875103e-05,0.0122779999999999,0.0130304000000004,0.0112110000000009,0.0109877999999999,0,sub_4
-0.0072338000000002,0.0002472000000012,0.0109009999999999,0.0066074000000004,0.0118646000000009,0.0122127999999999,0,sub_4
-0.0085878000000003,0.0009726000000012,0.0099481999999999,0.0046872000000004,0.015917400000001,0.0119693999999999,0,sub_4
-0.0074702000000003,0.0010708000000012,0.0093375999999999,0.0047072000000004,0.0197550000000009,0.0113237999999999,0,sub_4
-0.0058262000000003,0.0016018000000012,0.0093487999999999,0.0042996000000004,0.0238054000000009,0.0111019999999999,0,sub_4
-0.0032868000000002,0.0022418000000012,0.0084961999999999,0.0017304000000004,0.0218968000000009,0.0110865999999999,0,sub_4
-0.0002296000000002,0.0027638000000012,0.0076857999999999,-0.0017461999999994,0.0170110000000009,0.0108433999999999,0,sub_4
0.0029523999999997,0.0038964000000012,0.0059503999999999,-0.0047959999999994,0.0121236000000009,0.0106031999999999,0,sub_4
0.0034109999999997,0.0060432000000012,0.0042617999999999,-0.0061367999999994,0.007868400000001,0.0105875999999999,0,sub_4
0.0023353999999997,0.0077622000000012,0.0021145999999999,-0.0042781999999994,0.002752400000001,0.0099547999999999,0,sub_4
-0.0010388000000002,0.0090888000000012,0.0004143999999999,0.0001478000000005,-0.0017297999999989,0.0084843999999999,0,sub_4
-0.0043596000000002,0.0079016000000012,0.0008853999999999,0.0048412000000004,-0.0047179999999989,0.0057435999999999,0,sub_4
-0.0054336000000002,0.0056886000000012,0.0032479999999999,0.0076274000000004,-0.0047165999999989,0.0029855999999999,0,sub_4
-0.0040522000000003,0.0032200000000012,0.0070093999999999,0.0084904000000004,-0.0042865999999989,0.0012819999999999,0,sub_4
-0.0023054000000002,0.0014554000000012,0.0103173999999999,0.0069540000000005,-0.0023757999999989,0.0010339999999999,0,sub_4
-0.0009082000000003,0.0011392000000012,0.0121593999999999,0.0041142000000005,-0.0049371999999989,0.0014235999999999,0,sub_4
-0.0005614000000003,0.0025538000000012,0.0114069999999999,0.0025498000000005,-0.0089927999999989,0.0013967999999999,0,sub_4
-0.0023698000000002,0.0036664000000012,0.0098461999999999,0.0016266000000005,-0.0132619999999989,0.0009473999999999,0,sub_4
-0.0034164000000002,0.0038668000000012,0.0085779999999999,0.0022182000000005,-0.0132735999999989,7.579999999992766e-05,0,sub_4
-0.0039234000000002,0.0040308000000012,0.0082623999999999,0.0028688000000004,-0.0119931999999989,-0.0009896,0,sub_4
-0.0033076000000002,0.0034310000000011,0.0088929999999999,0.0035280000000004,-0.0087953999999989,-0.0020574,0,sub_4
-0.0019818000000002,0.0031526000000011,0.0095751999999999,0.0035194000000004,-0.0115615999999989,-0.0029084,0,sub_4
-0.0013182000000002,0.0029940000000012,0.0098901999999999,0.0034912000000004,-0.0144031999999989,-0.0025346,0,sub_4
-0.0018234000000002,0.0029508000000011,0.0100779999999999,0.0021836000000004,-0.0168149999999989,-0.0019568,0,sub_4
-0.0017690000000002,0.0021144000000012,0.0106497999999999,0.0006646000000004,-0.0196487999999989,-0.0022344,0,sub_4
-0.0017002000000002,0.0023996000000012,0.0115643999999999,-0.0008533999999995,-0.0222693999999989,-0.0025124,0,sub_4
-0.0030730000000003,0.0023872000000012,0.0121035999999999,-0.0030011999999995,-0.0210587999999989,-0.0013042,0,sub_4
-0.0043122000000003,0.0026038000000012,0.0113479999999998,-0.0042863999999994,-0.0219073999999989,-0.0010986,0,sub_4
-0.0049268000000002,0.0035696000000012,0.0100745999999998,-0.0038663999999995,-0.0244611999999989,-0.0021606,0,sub_4
-0.0045188000000003,0.0039098000000012,0.0100755999999998,-0.0023709999999995,-0.0246767999999989,-0.0027908,0,sub_4
-0.0032132000000003,0.0028262000000012,0.0095791999999999,-0.0011187999999995,-0.0199055999999989,-0.0024252,0,sub_4
-0.0017554000000003,0.0032990000000012,0.0095605999999999,-8.659999999950665e-05,-0.0166249999999989,-0.0020594,0,sub_4
-0.0014806000000003,0.0043724000000012,0.0089797999999999,0.0011476000000004,-0.0152649999999989,-0.0010486,0,sub_4
-0.0026260000000003,0.0049106000000012,0.0070419999999999,0.0025920000000004,-0.0141205999999989,0.0003911999999999,0,sub_4
-0.0048072000000003,0.0055116000000012,0.0041649999999999,0.0051064000000004,-0.0125529999999989,0.0016241999999999,0,sub_4
-0.0065866000000002,0.0053304000000012,0.0043629999999999,0.0074612000000004,-0.0106445999999989,0.0018517999999999,0,sub_4
-0.0068224000000002,0.0041396000000012,0.0056253999999999,0.0100534000000004,-0.0042593999999989,0.0012207999999999,0,sub_4
-0.0049608000000003,0.0031034000000012,0.0071521999999999,0.0102888000000004,3.400000001023548e-06,0.0005759999999999,0,sub_4
-0.0036760000000002,0.0029192000000012,0.0087465999999999,0.0092268000000004,0.000648000000001,0.0001403999999999,0,sub_4
-0.0033066000000002,0.0040030000000012,0.0080305999999999,0.0074794000000004,0.000536000000001,-0.0001532,0,sub_4
-0.0034188000000003,0.0048200000000012,0.0063539999999999,0.0070036000000004,-0.0017099999999989,-0.0006488,0,sub_4
-0.0033596000000003,0.0042232000000012,0.0063161999999999,0.0065202000000004,-0.0054481999999989,-0.0009288,0,sub_4
-0.0034158000000003,0.0027294000000012,0.0079173999999999,0.0067000000000004,-0.0040753999999989,-0.0012108,0,sub_4
-0.0035362000000003,0.0020664000000012,0.0093377999999999,0.0045336000000004,-0.0014203999999989,-0.0004426,0,sub_4
-0.0039036000000003,0.0018474000000012,0.0105511999999999,0.0017522000000004,-0.0026907999999989,-3.3000000000072034e-05,0,sub_4
-0.0043626000000003,0.0026476000000012,0.0090631999999999,0.0002548000000004,-0.0031133999999989,0.0003843999999999,0,sub_4
-0.0050428000000003,0.0036320000000012,0.0068881999999999,0.0008738000000004,6.000000001024631e-06,0.0005431999999999,0,sub_4
-0.0047686000000003,0.0043982000000012,0.0072627999999999,0.0019156000000004,0.002484000000001,0.0009195999999999,0,sub_4
-0.0023418000000003,0.0028462000000012,0.0094355999999999,0.0033852000000004,0.004112600000001,0.0002317999999999,0,sub_4
-6.200000000030016e-05,0.0012350000000012,0.0115473999999999,0.0020800000000004,0.006386800000001,0.0003781999999999,0,sub_4
0.0001443999999997,0.0006758000000012,0.0119573999999999,-0.0020191999999995,0.004833000000001,0.0011509999999999,0,sub_4
-0.0007970000000002,0.0021238000000012,0.0099945999999999,-0.0063125999999995,-5.559999999899482e-05,0.0019819999999999,0,sub_4
-0.0022774000000002,0.0031706000000012,0.0068535999999999,-0.0078081999999995,-0.0009007999999989,0.0015453999999999,0,sub_4
-0.0028204000000002,0.0041394000000012,0.0048799999999999,-0.0062923999999995,0.0035698000000009,0.0011229999999999,0,sub_4
-0.0019048000000003,0.0041036000000012,0.0056059999999999,-0.0035259999999995,0.0073774000000009,0.0004637999999999,0,sub_4
-0.0001590000000003,0.0035576000000012,0.0083139999999999,-0.0018283999999994,0.0111872000000009,0.0002243999999999,0,sub_4
-0.0001776000000003,0.0029936000000012,0.0096311999999999,-0.0022777999999994,0.0126582000000009,0.0006137999999999,0,sub_4
-0.0002850000000003,0.0028668000000012,0.0083461999999999,-0.0029569999999994,0.0102958000000009,0.0007927999999999,0,sub_4
-0.0014358000000003,0.0036468000000012,0.0062811999999999,-0.0034257999999994,0.007505800000001,0.0011875999999999,0,sub_4
-0.0019860000000003,0.0047230000000012,0.0060871999999999,-0.0032095999999994,0.008780800000001,0.0018283999999999,0,sub_4
-0.0019352000000002,0.0050904000000012,0.0062807999999999,-0.0014891999999995,0.011333000000001,0.0014097999999999,0,sub_4
-0.0011546000000002,0.0048432000000012,0.0069819999999999,0.0004350000000004,0.011117400000001,0.0003553999999999,0,sub_4
