userAcceleration.x,userAcceleration.y,userAcceleration.z,rotationRate.x,rotationRate.y,rotationRate.z,label,subject
-0.0060022000000003,0.0091086000000012,-0.0003135999999999,-0.0917887999999993,0.1864958000000006,-0.0429964,0,sub_24
-0.0085622000000003,0.0078684000000012,-0.0012723999999999,-0.0930613999999993,0.1854460000000006,-0.045782,0,sub_24
-0.0095608000000003,0.0069978000000012,-0.0004555999999999,-0.0924339999999993,0.1833108000000007,-0.0451348,0,sub_24
-0.0076256000000003,0.0048014000000012,-0.0004839999999999,-0.0881801999999994,0.1828596000000007,-0.0425416,0,sub_24
-0.0046544000000003,0.0042866000000012,4.240000000002839e-05,-0.0824375999999994,0.1819744000000007,-0.039296,0,sub_24
-0.0027216000000003,0.0033092000000012,0.0018594,-0.0765055999999993,0.1787330000000006,-0.0330548,0,sub_24
-0.0017552000000003,0.0033488000000012,0.0034662,-0.0693107999999993,0.1731376000000006,-0.0253062,0,sub_24
-0.0022560000000003,0.0032204000000012,0.0027416,-0.0608327999999993,0.1673280000000007,-0.018403,0,sub_24
-0.0023048000000003,0.0039826000000012,0.0033208,-0.0521623999999993,0.1564062000000007,-0.0119192,0,sub_24
-0.0033802000000003,0.0044674000000012,0.0039932,-0.0426693999999993,0.1418468000000007,-0.0022206,0,sub_24
-0.0039182000000003,0.0041758000000012,0.0049432,-0.0329563999999993,0.1285656000000007,0.0072641999999998,0,sub_24
-0.0037446000000003,0.0054144000000012,0.006357,-0.0247237999999993,0.1172114000000007,0.0156679999999998,0,sub_24
-0.0034066000000003,0.0063110000000012,0.0073742,-0.0180007999999993,0.1044020000000007,0.0225593999999998,0,sub_24
-0.0041970000000003,0.0057622000000012,0.0094158,-0.0127525999999993,0.0935246000000007,0.0270879999999998,0,sub_24
-0.0045618000000003,0.0054434000000012,0.0106508,-0.0091719999999993,0.0856588000000007,0.0258327999999998,0,sub_24
-0.0052616000000003,0.0081784000000012,0.0106966,-0.0081529999999993,0.0744060000000007,0.0213593999999998,0,sub_24
-0.0074768000000003,0.0085746000000013,0.0089954,-0.0084065999999993,0.0635888000000007,0.0155943999999998,0,sub_24
-0.0093056000000003,0.0082434000000012,0.0076954,-0.0096811999999993,0.0572330000000007,0.0076881999999998,0,sub_24
-0.0104762000000003,0.0086728000000012,0.005034,-0.0107449999999993,0.0496008000000007,-0.000856,0,sub_24
-0.0095106000000003,0.0079854000000012,0.0038752,-0.0109925999999994,0.0374762000000007,-0.0055432,0,sub_24
-0.0076440000000003,0.0054084000000012,0.0027656,-0.0099857999999994,0.0270590000000007,-0.0055314,0,sub_24
-0.0053116000000003,0.0039546000000012,0.001695,-0.0060163999999994,0.0157604000000007,-0.0007974,0,sub_24
-0.0057688000000003,0.0042964000000012,0.0003424,6.180000000059958e-05,0.0033712000000007,0.0084391999999999,0,sub_24
-0.0078090000000003,0.0042756000000012,0.0003768,0.0084996000000006,-0.0030735999999992,0.0208893999999999,0,sub_24
-0.0097222000000003,0.0034798000000012,0.001744,0.0180244000000006,-0.0048357999999992,0.0335547999999998,0,sub_24
-0.0111690000000003,0.0033108000000012,0.0031976,0.0292552000000006,-0.0106737999999992,0.0451767999999998,0,sub_24
-0.0129546000000003,0.0032696000000012,0.0055406,0.0392170000000005,-0.0167093999999992,0.0540125999999998,0,sub_24
-0.0130360000000003,0.0034340000000012,0.0091858,0.0481414000000005,-0.0203805999999992,0.0585653999999998,0,sub_24
-0.0128880000000003,0.0046972000000012,0.0121996,0.0523770000000005,-0.0248531999999992,0.0590191999999998,0,sub_24
-0.0141330000000003,0.0066868000000012,0.0125436,0.0542660000000005,-0.0312265999999992,0.0573223999999998,0,sub_24
-0.0159766000000003,0.0077760000000012,0.010379,0.0534234000000005,-0.0316111999999992,0.0521801999999999,0,sub_24
-0.0169228000000003,0.0091268000000012,0.0082018,0.0513114000000006,-0.0326183999999992,0.0440389999999998,0,sub_24
-0.0169048000000003,0.0100604000000012,0.0056038,0.0478878000000006,-0.0412885999999992,0.0352575999999998,0,sub_24
-0.0150144000000003,0.0090564000000012,0.0021684,0.0457200000000006,-0.0574381999999992,0.0265021999999998,0,sub_24
-0.0129990000000003,0.0086766000000012,-0.0009523999999999,0.0433392000000006,-0.0759211999999992,0.0153983999999998,0,sub_24
-0.0097458000000003,0.0090832000000012,-0.0017059999999999,0.0413978000000006,-0.0920603999999992,0.0038677999999998,0,sub_24
-0.0036258000000003,0.0078010000000012,-0.0032053999999999,0.0388222000000006,-0.1050091999999992,-0.0057480000000001,0,sub_24
0.0028539999999996,0.0068030000000012,-0.0056425999999999,0.0368908000000006,-0.1147735999999992,-0.0130126,0,sub_24
0.0060635999999996,0.0072560000000012,-0.0079181999999999,0.0347586000000006,-0.1179477999999992,-0.0164408,0,sub_24
0.0077521999999996,0.0071306000000012,-0.0098751999999999,0.0332698000000006,-0.1162409999999992,-0.0155976,0,sub_24
0.0075923999999996,0.0065474000000012,-0.0111611999999999,0.0328164000000006,-0.1181735999999992,-0.0113242,0,sub_24
0.0043957999999996,0.0063504000000012,-0.0127649999999999,0.0351312000000006,-0.1207573999999992,-0.00639,0,sub_24
0.0015649999999995,0.0054332000000012,-0.0122549999999999,0.0385368000000006,-0.1175941999999992,-0.0010288,0,sub_24
0.0019481999999995,0.0048418000000012,-0.0096233999999999,0.0423708000000005,-0.1154919999999992,0.0028411999999999,0,sub_24
0.0030149999999995,0.0045176000000012,-0.0064745999999999,0.0470608000000005,-0.1144513999999992,0.0050093999999999,0,sub_24
0.0040791999999995,0.0053900000000012,-0.0041533999999999,0.0492236000000005,-0.1074301999999992,0.0056569999999999,0,sub_24
0.0051619999999996,0.0076076000000012,-1.1199999999991771e-05,0.0477922000000005,-0.0937885999999992,0.0054163999999999,0,sub_24
0.0057843999999996,0.0095752000000012,0.0016978,0.0429638000000005,-0.0771489999999992,0.0042937999999999,0,sub_24
0.0049337999999996,0.0115308000000012,0.0019732,0.0360122000000006,-0.0581583999999992,0.0031533999999999,0,sub_24
0.0031115999999996,0.0127074000000012,0.0009232,0.0277842000000006,-0.0387353999999992,0.0015759999999999,0,sub_24
0.0015203999999996,0.0126082000000012,-0.0011667999999999,0.0208252000000006,-0.0231467999999992,-0.0012696,0,sub_24
0.0002025999999996,0.0118102000000012,-0.0032311999999999,0.0147132000000006,-0.0101133999999992,-0.0051744,0,sub_24
0.0015991999999996,0.0111226000000012,-0.0042305999999999,0.0094362000000005,-0.0004801999999992,-0.0095072,0,sub_24
0.0026243999999996,0.0100422000000012,-0.0047293999999999,0.0041554000000005,0.0089374000000007,-0.0131986,0,sub_24
0.0039685999999996,0.0095918000000012,-0.0051305999999999,-0.0023969999999994,0.0215502000000006,-0.0156208,0,sub_24
0.0041333999999996,0.0092834000000012,-0.0057235999999999,-0.0078939999999994,0.0339368000000006,-0.0156854,0,sub_24
0.0016471999999996,0.0079916000000012,-0.0064023999999999,-0.0110637999999994,0.0439632000000006,-0.0135944,0,sub_24
-0.0028050000000003,0.0068552000000012,-0.0066983999999999,-0.0135901999999994,0.0537634000000006,-0.0112744,0,sub_24
-0.0054878000000003,0.0062248000000012,-0.0070411999999999,-0.0140029999999994,0.0595064000000006,-0.0085076,0,sub_24
-0.0099696000000003,0.0054102000000012,-0.0061621999999999,-0.0129421999999994,0.0609822000000007,-0.005512,0,sub_24
-0.0140000000000003,0.0050672000000012,-0.0037211999999999,-0.0125105999999994,0.0626756000000006,-0.00488,0,sub_24
-0.0144570000000003,0.0072322000000012,-0.0026867999999999,-0.0137699999999993,0.0658748000000007,-0.0063984,0,sub_24
-0.0142614000000003,0.0091482000000013,-0.0012481999999999,-0.0167383999999994,0.0680172000000007,-0.0085684,0,sub_24
-0.0153462000000003,0.0098950000000012,0.0002758,-0.0216339999999994,0.0676140000000007,-0.0118168,0,sub_24
-0.0157692000000003,0.0103500000000012,0.0011237999999999,-0.0271621999999994,0.0678564000000007,-0.0161388,0,sub_24
-0.0149486000000003,0.0111530000000012,0.0014235999999999,-0.0326853999999994,0.0691710000000007,-0.0204536,0,sub_24
-0.0146682000000003,0.0100804000000012,0.0040577999999999,-0.0397195999999993,0.0666558000000007,-0.0247738,0,sub_24
-0.0156710000000003,0.0086508000000012,0.0058809999999999,-0.0454881999999993,0.0613646000000007,-0.0286544,0,sub_24
-0.0169412000000003,0.0069648000000012,0.0067256,-0.0482721999999993,0.0560510000000007,-0.0323122,0,sub_24
-0.0160876000000003,0.0059444000000012,0.0078388,-0.0485197999999993,0.0449776000000007,-0.036372,0,sub_24
-0.0155690000000003,0.0049084000000012,0.0087022,-0.0475015999999993,0.0313406000000007,-0.0397786,0,sub_24
-0.0147060000000003,0.0050862000000012,0.007455,-0.0456211999999994,0.0204668000000007,-0.0423282,0,sub_24
-0.0122312000000003,0.0062722000000012,0.0069182,-0.0448037999999994,0.0102370000000007,-0.0450994,0,sub_24
-0.0085884000000003,0.0086998000000012,0.006097,-0.0463117999999994,0.0045004000000007,-0.0478808,0,sub_24
-0.0050090000000003,0.0089038000000012,0.004468,-0.0499207999999994,0.0068642000000007,-0.0498322,0,sub_24
-0.0018962000000003,0.0083528000000012,0.0029162,-0.0535275999999994,0.0107152000000007,-0.0507172,0,sub_24
0.0006971999999996,0.0068998000000012,0.0008106,-0.0533045999999994,0.0141212000000007,-0.0507330000000001,0,sub_24
0.0029075999999996,0.0051044000000012,-0.0018381999999999,-0.0496671999999994,0.0190008000000007,-0.0492312,0,sub_24
0.0045207999999996,0.0044782000000012,-0.0037723999999999,-0.0443435999999993,0.0208852000000007,-0.0460044,0,sub_24
0.0056905999999996,0.0046724000000012,-0.0048169999999999,-0.0373329999999993,0.0197748000000007,-0.0412664000000001,0,sub_24
0.0075449999999996,0.0050362000000012,-0.0057043999999999,-0.0303263999999993,0.0188732000000007,-0.0354602,0,sub_24
0.0083841999999996,0.0064920000000012,-0.0054281999999999,-0.0261005999999993,0.0164872000000007,-0.0283764,0,sub_24
0.0078457999999996,0.0085208000000012,-0.0054137999999999,-0.0242391999999993,0.0115476000000007,-0.020024,0,sub_24
0.0063879999999996,0.0090452000000012,-0.0041837999999999,-0.0227941999999993,0.0093772000000007,-0.0112508,0,sub_24
0.0034707999999996,0.0086828000000012,-0.0028245999999999,-0.0215397999999994,0.0123304000000007,-0.004636,0,sub_24
0.0012917999999996,0.0080262000000012,-0.0025409999999999,-0.0192249999999994,0.0131520000000007,0.0013477999999999,0,sub_24
-0.0008856000000003,0.0063388000000012,-0.0024887999999999,-0.0147959999999994,0.0086438000000007,0.0062845999999999,0,sub_24
-0.0031118000000003,0.0042416000000012,-0.0016171999999999,-0.0063013999999994,0.0047682000000007,0.0093259999999999,0,sub_24
-0.0035016000000003,0.0024056000000012,-0.0023799999999999,0.0030498000000005,0.0002558000000007,0.0110921999999999,0,sub_24
-0.0008294000000003,0.0024290000000012,-0.0031877999999999,0.0123704000000005,-0.0108717999999992,0.0152305999999999,0,sub_24
-0.0004082000000003,0.0034302000000012,-0.0025045999999999,0.0193496000000005,-0.0205005999999992,0.0195645999999999,0,sub_24
-0.0001946000000003,0.0051754000000012,-0.0001311999999999,0.0233798000000005,-0.0226577999999992,0.0228001999999999,0,sub_24
9.99999999645035e-07,0.0067184000000012,0.001265,0.0225204000000005,-0.0194651999999992,0.0249147999999999,0,sub_24
-0.0013184000000003,0.0082340000000013,0.0024726,0.0197500000000005,-0.0158331999999992,0.0253061999999999,0,sub_24
-0.0034760000000003,0.0092816000000013,0.0024752,0.0157156000000005,-0.0109087999999992,0.0233369999999999,0,sub_24
-0.0049678000000003,0.0090422000000012,0.0020742,0.0125328000000005,-0.0081113999999992,0.0196669999999999,0,sub_24
-0.0051128000000003,0.0077746000000012,-2.179999999997141e-05,0.0104160000000005,-0.0051061999999992,0.0164315999999998,0,sub_24
-0.0034956000000003,0.0058602000000012,-0.0025669999999999,0.0110706000000005,-0.0042467999999992,0.0140847999999998,0,sub_24
-0.0019952000000003,0.0057910000000012,-0.0034907999999999,0.0129834000000005,-0.0072307999999992,0.0128201999999998,0,sub_24
-0.0018866000000003,0.0061090000000012,-0.0033519999999999,0.0146782000000005,-0.0108551999999992,0.0119819999999998,0,sub_24
-0.0015466000000003,0.0069442000000012,-0.0021137999999999,0.0148824000000005,-0.0114927999999992,0.0111189999999998,0,sub_24
-0.0007440000000003,0.0079494000000012,-0.0004317999999999,0.0140292000000005,-0.0106329999999992,0.0096055999999999,0,sub_24
6.019999999960519e-05,0.0110984000000012,0.0017706,0.0104104000000006,-0.0080581999999992,0.0078571999999999,0,sub_24
-0.0006072000000003,0.0110686000000012,0.0026651999999999,0.0046608000000005,-0.0046245999999992,0.0063063999999999,0,sub_24
-0.0018416000000003,0.0104724000000012,0.0022554,-0.0002267999999993,-0.0001251999999993,0.0039055999999999,0,sub_24
-0.0026662000000003,0.0093570000000012,0.0010702,-0.0038229999999993,0.0039474000000006,0.0008839999999999,0,sub_24
-0.0038038000000003,0.0090828000000012,-0.0004295999999999,-0.0070103999999993,0.0035462000000006,-0.0025562,0,sub_24
-0.0054444000000003,0.0068360000000012,-0.0006383999999999,-0.0082983999999993,-0.0013365999999993,-0.0057638,0,sub_24
-0.0052574000000003,0.0059470000000012,-0.0009251999999999,-0.0072273999999994,-0.0028221999999992,-0.009392,0,sub_24
-0.0025182000000003,0.0072140000000012,-0.0007465999999999,-0.0065965999999994,-0.0051669999999992,-0.0108854,0,sub_24
-5.5600000000375056e-05,0.0078170000000012,-0.0009703999999999,-0.0066077999999994,-0.0049647999999992,-0.0093952,0,sub_24
0.0012557999999996,0.0066164000000012,-0.0007765999999999,-0.0053213999999994,-0.0005077999999993,-0.007474,0,sub_24
0.0019923999999996,0.0059814000000012,-0.0018983999999999,-0.0033959999999994,0.0039462000000006,-0.0053348,0,sub_24
0.0019781999999996,0.0062924000000012,-0.0021495999999999,-0.0006307999999994,0.0058388000000006,-0.001472,0,sub_24
0.0004839999999996,0.0054922000000012,-0.0023701999999999,0.0034158000000005,0.0085766000000006,0.0030393999999999,0,sub_24
-9.000000000035524e-05,0.0052998000000012,-0.0028889999999999,0.0080960000000005,0.0089720000000006,0.0067035999999999,0,sub_24
0.0007295999999996,0.0055138000000012,-0.0038379999999999,0.0131912000000005,0.0080736000000007,0.0116539999999998,0,sub_24
0.0023925999999996,0.0059778000000012,-0.0030843999999999,0.0178626000000005,0.0086648000000006,0.0174541999999998,0,sub_24
0.0039779999999996,0.0058226000000012,-0.0025967999999999,0.0208374000000005,0.0113932000000006,0.0230263999999998,0,sub_24
0.0049927999999996,0.0047824000000012,-0.0020823999999999,0.0231720000000005,0.0134874000000006,0.0279541999999998,0,sub_24
0.0033697999999996,0.0044312000000012,-0.0006329999999999,0.0252998000000005,0.0160126000000006,0.0318115999999998,0,sub_24
-0.0004874000000003,0.0053732000000012,0.0021354,0.0246526000000005,0.0170700000000006,0.0343695999999999,0,sub_24
-0.0060870000000003,0.0061312000000012,0.0048226,0.0229202000000005,0.0119610000000007,0.0347909999999998,0,sub_24
-0.0119536000000003,0.0065546000000012,0.0076668,0.0211874000000005,0.0034566000000007,0.0317977999999998,0,sub_24
-0.0169676000000003,0.0070410000000012,0.0107642,0.0198994000000005,-0.0041981999999992,0.0262441999999998,0,sub_24
-0.0196276000000003,0.0076192000000012,0.012273,0.0173308000000006,-0.0122727999999992,0.0202543999999998,0,sub_24
-0.0206444000000003,0.0086566000000012,0.01197,0.0149420000000005,-0.0269561999999992,0.0151285999999998,0,sub_24
-0.0223502000000003,0.0080564000000012,0.0099486,0.0151108000000005,-0.0420757999999992,0.0102345999999999,0,sub_24
-0.0228132000000003,0.0057556000000012,0.0062434,0.0174254000000005,-0.0544335999999992,0.0055653999999999,0,sub_24
-0.0204124000000003,0.0050418000000012,0.0038026,0.0197352000000005,-0.0674185999999992,0.0006817999999999,0,sub_24
-0.0151468000000003,0.0074566000000012,0.002462,0.0213918000000005,-0.0797767999999992,-0.0005744,0,sub_24
-0.0088872000000003,0.0046058000000012,0.002812,0.0237126000000005,-0.0846887999999992,0.0003017999999999,0,sub_24
-0.0047406000000003,0.0048416000000012,0.0008658,0.0237048000000005,-0.0840727999999992,0.0035083999999999,0,sub_24
-0.0026438000000003,0.0060440000000012,-0.0003113999999999,0.0219832000000005,-0.0838811999999992,0.0077723999999999,0,sub_24
-0.0040514000000003,0.0053484000000012,-0.0028541999999999,0.0209202000000006,-0.0804925999999992,0.0111821999999999,0,sub_24
-0.0071030000000003,0.0043720000000012,-0.0055743999999999,0.0221940000000006,-0.0815775999999992,0.0124771999999999,0,sub_24
-0.0109172000000003,0.0057022000000012,-0.0077105999999999,0.0240938000000006,-0.0860727999999992,0.0135667999999998,0,sub_24
-0.0098802000000003,0.0053062000000012,-0.0070469999999999,0.0268834000000006,-0.0809757999999992,0.0152881999999998,0,sub_24
-0.0042718000000003,0.0054706000000012,-0.0062965999999999,0.0290330000000005,-0.0729055999999992,0.0199927999999998,0,sub_24
0.0017673999999996,0.0061792000000012,-0.0058183999999999,0.0298476000000006,-0.0723065999999992,0.0293979999999998,0,sub_24
0.0005729999999996,0.0047452000000012,-0.0042315999999999,0.0317528000000006,-0.0687337999999992,0.0375285999999998,0,sub_24
-0.0010248000000003,0.0035022000000013,-0.0042813999999999,0.0345508000000005,-0.0596117999999992,0.0424533999999998,0,sub_24
-0.0024724000000003,0.0031126000000013,-0.0044697999999999,0.0373008000000005,-0.0626277999999992,0.0458977999999998,0,sub_24
-0.0057420000000003,0.0048370000000013,-0.0037499999999999,0.0398318000000005,-0.0675581999999992,0.0487017999999998,0,sub_24
-0.0093978000000003,0.0053042000000013,-0.0016777999999999,0.0413532000000005,-0.0620359999999992,0.0491351999999998,0,sub_24
-0.0074548000000003,0.0047852000000013,0.000823,0.0400872000000005,-0.0588357999999992,0.0491215999999998,0,sub_24
-0.0067524000000003,0.0074704000000012,0.0029836,0.0377188000000006,-0.0630903999999993,0.0495373999999999,0,sub_24
-0.0094218000000003,0.0097096000000012,0.003753,0.0332424000000006,-0.0626461999999992,0.0488639999999999,0,sub_24
-0.0119846000000003,0.0097044000000012,0.0042354,0.0270838000000006,-0.0587787999999993,0.0460377999999999,0,sub_24
-0.0121126000000003,0.0077060000000012,0.0077702,0.0219746000000006,-0.0621599999999992,0.0406677999999999,0,sub_24
-0.0118982000000003,0.0068982000000012,0.0099674,0.0170892000000006,-0.0655325999999993,0.0329489999999999,0,sub_24
-0.0124954000000003,0.0084478000000012,0.0099452,0.0101026000000006,-0.0618661999999992,0.0249929999999999,0,sub_24
-0.0123814000000003,0.0097992000000012,0.0090388,0.0027018000000006,-0.0579749999999992,0.0144699999999999,0,sub_24
-0.0122578000000003,0.0114210000000012,0.007955,-0.0034379999999993,-0.0602589999999992,0.0020409999999999,0,sub_24
-0.0122862000000003,0.0144000000000012,0.0029934,-0.0095993999999993,-0.0663673999999992,-0.0101728,0,sub_24
-0.0105948000000003,0.0155202000000012,-0.0011537999999999,-0.0142841999999993,-0.0735573999999992,-0.0195974,0,sub_24
-0.0055016000000003,0.0127788000000012,-0.0040073999999999,-0.0174759999999993,-0.0788549999999992,-0.0262352,0,sub_24
0.0041965999999996,0.0095030000000012,-0.0031607999999999,-0.0185377999999993,-0.0769483999999992,-0.024748,0,sub_24
0.0112185999999996,0.0069746000000012,-0.0022841999999999,-0.0206751999999994,-0.0682553999999992,-0.0145168,0,sub_24
0.0146205999999996,0.0043038000000012,-0.0012119999999999,-0.0174639999999993,-0.0523533999999992,-0.000198,0,sub_24
0.0125869999999996,0.0029004000000012,-0.0029191999999999,-0.0099783999999993,-0.0360357999999992,0.0130817999999999,0,sub_24
0.0079997999999996,0.0044220000000012,-0.0032513999999999,0.0013018000000006,-0.0307953999999992,0.0249051999999999,0,sub_24
-1.580000000039432e-05,0.0057630000000012,-0.0046723999999999,0.0136374000000006,-0.0317229999999992,0.0331115999999999,0,sub_24
-0.0012452000000003,0.0041756000000012,-0.0040483999999999,0.0298426000000006,-0.0305163999999992,0.0370689999999999,0,sub_24
0.0026073999999996,0.0045262000000012,-0.0030851999999999,0.0424424000000006,-0.0237667999999992,0.0418485999999999,0,sub_24
0.0079525999999996,0.0083684000000012,-0.0013371999999999,0.0492702000000006,-0.0144599999999992,0.0514987999999998,0,sub_24
0.0103485999999995,0.0097232000000013,-0.0005617999999999,0.0495246000000006,0.0029700000000007,0.0600249999999998,0,sub_24
0.0107167999999995,0.0114772000000012,0.0004822,0.0449232000000005,0.0266170000000007,0.0631681999999998,0,sub_24
0.0083925999999995,0.0142294000000012,0.0012678,0.0354590000000005,0.0526554000000007,0.0585829999999998,0,sub_24
0.0064115999999996,0.0157488000000012,0.0028446,0.0225692000000005,0.0691530000000007,0.0467225999999998,0,sub_24
0.0045237999999996,0.0162336000000012,0.0043164,0.0060444000000005,0.0782294000000007,0.0290777999999999,0,sub_24
0.0015107999999996,0.0153990000000012,0.0051058,-0.0100433999999994,0.0883746000000007,0.0101523999999999,0,sub_24
-0.0001258000000003,0.0135738000000012,0.0057816,-0.0239809999999994,0.1048984000000007,-0.0066338,0,sub_24
-0.0012534000000003,0.0130850000000012,0.0054666,-0.0349783999999993,0.1162772000000007,-0.0180518,0,sub_24
-0.0039348000000003,0.0130708000000012,0.004962,-0.0428431999999993,0.1193084000000006,-0.022601,0,sub_24
-0.0066576000000003,0.0095858000000013,0.003886,-0.0439105999999993,0.1208030000000007,-0.0217598,0,sub_24
-0.0053950000000003,0.0058474000000012,0.0028824,-0.0394367999999993,0.1237578000000007,-0.0178908,0,sub_24
-0.0020236000000003,0.0040164000000012,0.004048,-0.0319989999999993,0.1226444000000007,-0.012283,0,sub_24
-0.0002876000000003,0.0025204000000012,0.0059332,-0.0252029999999993,0.1200460000000007,-0.0077458,0,sub_24
7.759999999960558e-05,0.0024742000000012,0.0069624,-0.0217527999999993,0.1283424000000007,-0.0075188,0,sub_24
7.11999999996056e-05,0.0044228000000012,0.0076824,-0.0231401999999993,0.1486214000000007,-0.0126904,0,sub_24
-0.0010366000000003,0.0086782000000012,0.009047,-0.0296265999999993,0.1706354000000007,-0.0211046,0,sub_24
-0.0027866000000003,0.0125480000000012,0.0076892,-0.0406149999999994,0.1858558000000007,-0.0316778,0,sub_24
-0.0035216000000003,0.0146106000000012,0.0050996,-0.0516359999999994,0.1934082000000007,-0.0426688000000001,0,sub_24
-0.0056754000000003,0.0142428000000012,0.0013544,-0.0609565999999994,0.2000998000000006,-0.053006,0,sub_24
-0.0053706000000003,0.0126490000000012,-0.0012085999999999,-0.0670715999999994,0.2093110000000007,-0.060111,0,sub_24
-0.0025304000000003,0.0091470000000012,-0.0042823999999999,-0.0710937999999994,0.2131732000000006,-0.0633488,0,sub_24
0.0001737999999996,0.0055282000000012,-0.0056495999999999,-0.0700541999999994,0.2074156000000006,-0.0629068,0,sub_24
0.0007977999999996,0.0029972000000012,-0.0070779999999999,-0.0651885999999994,0.2018708000000006,-0.06031,0,sub_24
0.0003277999999996,0.0028704000000012,-0.0084891999999999,-0.0594779999999994,0.1952544000000006,-0.0568516,0,sub_24
3.539999999962566e-05,0.0034020000000012,-0.0072841999999999,-0.0548371999999994,0.1882148000000006,-0.0531864,0,sub_24
-0.0008596000000003,0.0042096000000012,-0.0040201999999999,-0.0495345999999994,0.1845876000000006,-0.0510164,0,sub_24
-0.0003350000000003,0.0039432000000012,-0.0027673999999999,-0.0444445999999994,0.1809622000000006,-0.0490616,0,sub_24
-0.0045560000000003,0.0061594000000012,-0.0016569999999999,-0.0408651999999994,0.1741166000000006,-0.0451826,0,sub_24
-0.0089970000000003,0.0062256000000012,-8.619999999997094e-05,-0.0387659999999993,0.1700468000000007,-0.0415312,0,sub_24
-0.0129392000000003,0.0049398000000012,-0.0001263999999999,-0.0360277999999993,0.1627906000000007,-0.0408626,0,sub_24
-0.0152726000000003,0.0043830000000012,-0.0004699999999999,-0.0316487999999993,0.1440546000000006,-0.0397556000000001,0,sub_24
-0.0182524000000003,0.0047546000000012,-0.0002633999999999,-0.0255715999999993,0.1227584000000007,-0.0392746000000001,0,sub_24
-0.0163762000000003,0.0028196000000012,-0.0003101999999999,-0.0194653999999993,0.1055198000000007,-0.0411486000000001,0,sub_24
-0.0124464000000003,0.0042396000000012,0.0002246,-0.0133881999999994,0.0833750000000007,-0.0415208,0,sub_24
