userAcceleration.x,userAcceleration.y,userAcceleration.z,rotationRate.x,rotationRate.y,rotationRate.z,label,subject
0.0280369999999997,0.0084216000000012,-0.0526118,-0.0719109999999994,-0.142611999999999,-0.0319116,0,sub_3
0.0164259999999996,0.0162982000000012,-0.047557,-0.0560379999999994,-0.110762999999999,-0.018382,0,sub_3
0.0066891999999997,0.0210154000000012,-0.0455482,-0.0309247999999994,-0.058941199999999,0.0007411999999999,0,sub_3
0.0060775999999997,0.0200654000000012,-0.050071,-0.0047073999999994,0.0016104000000009,0.0202881999999999,0,sub_3
0.0153165999999996,0.0116642000000012,-0.0560844,0.0147342000000005,0.0491852000000009,0.0338413999999999,0,sub_3
0.0265759999999996,0.0032820000000012,-0.062563,0.0221646000000004,0.0753142000000009,0.0396467999999999,0,sub_3
0.0351285999999996,-0.0040973999999987,-0.0681556,0.0182220000000004,0.0774468000000009,0.0355759999999999,0,sub_3
0.0396333999999996,-0.0083323999999987,-0.0707216,0.0097632000000004,0.0649218000000009,0.0246557999999999,0,sub_3
0.0416917999999996,-0.0089431999999987,-0.0704746,-0.0027929999999995,0.0413382000000009,0.0122255999999999,0,sub_3
0.0401273999999997,-0.0055919999999987,-0.06865,-0.0148147999999995,0.0167000000000009,0.0036273999999999,0,sub_3
0.0337353999999997,-0.0025393999999987,-0.0672432,-0.0202151999999995,-0.000952799999999,0.0006211999999999,0,sub_3
0.0275683999999996,0.0024066000000012,-0.0655552,-0.0179131999999995,-0.008640199999999,0.0029971999999999,0,sub_3
0.0238353999999997,0.0065038000000012,-0.064215,-0.0104169999999995,-0.008167599999999,0.0084055999999999,0,sub_3
0.0216417999999997,0.0077522000000012,-0.0645674,0.0037284000000004,0.0016494000000009,0.0155577999999999,0,sub_3
0.0189131999999996,0.0077474000000012,-0.0651866,0.0185244000000004,0.0148688000000009,0.0237781999999999,0,sub_3
0.0190975999999996,0.0067632000000012,-0.0645082,0.0294682000000004,0.0246960000000009,0.0311215999999999,0,sub_3
0.0181603999999996,0.0057860000000012,-0.0639376,0.0355006000000004,0.0302930000000009,0.0350177999999999,0,sub_3
0.0166305999999996,0.0045228000000012,-0.0633632,0.0363676000000004,0.0326362000000009,0.0343799999999999,0,sub_3
0.0135491999999996,0.0036694000000012,-0.0619496,0.0353228000000005,0.0354180000000009,0.0322325999999999,0,sub_3
0.0092659999999997,0.0043848000000012,-0.059552,0.0357832000000004,0.0384170000000009,0.0277453999999999,0,sub_3
0.0046921999999997,0.0069198000000012,-0.055769,0.0373162000000004,0.0452488000000009,0.0219955999999999,0,sub_3
0.0032741999999997,0.0074428000000012,-0.0543344,0.0403746000000004,0.0582574000000009,0.0153939999999999,0,sub_3
0.0047925999999996,0.0078940000000012,-0.054075,0.0443094000000004,0.0759518000000009,0.0083651999999999,0,sub_3
0.0112587999999996,0.0070164000000012,-0.0570608,0.0416316000000004,0.0917612000000009,-0.0010574,0,sub_3
0.0201385999999996,0.0050116000000012,-0.0609716,0.0301874000000004,0.1020678000000009,-0.0120296,0,sub_3
0.0284123999999996,0.0004222000000012,-0.0672568,0.0123150000000004,0.1030244000000009,-0.0226242,0,sub_3
0.0324213999999996,-0.0008199999999987,-0.0696826,-0.0070961999999995,0.0971558000000009,-0.0300162,0,sub_3
0.0322499999999996,-0.0005035999999987,-0.0701384,-0.0224963999999995,0.0844442000000009,-0.034594,0,sub_3
0.0267573999999996,0.0018618000000012,-0.0687028,-0.0276957999999995,0.0712034000000009,-0.0350104,0,sub_3
0.0210841999999996,0.0056972000000012,-0.0664202,-0.0215905999999995,0.0619514000000009,-0.0304392,0,sub_3
0.0197231999999996,0.0059936000000012,-0.0660374,-0.0069253999999995,0.0611798000000009,-0.0228278,0,sub_3
0.0230769999999996,0.0053614000000012,-0.065815,0.0094372000000004,0.0589082000000009,-0.0145618,0,sub_3
0.0283529999999997,0.0020874000000012,-0.0663916,0.0204578000000004,0.0551630000000009,-0.0061176,0,sub_3
0.0367337999999996,-0.0025965999999987,-0.0675416,0.0240276000000004,0.0476720000000009,-0.000742,0,sub_3
0.0480297999999996,-0.0076131999999987,-0.0682306,0.0196864000000004,0.0319184000000009,-0.0001112,0,sub_3
0.0579315999999996,-0.0095523999999987,-0.0671688,0.0089056000000004,0.0042698000000009,-0.0029286,0,sub_3
0.0645865999999996,-0.0116341999999987,-0.0669668,-0.0067869999999995,-0.033944399999999,-0.0050954,0,sub_3
0.0692339999999996,-0.0103755999999987,-0.0662776,-0.0244621999999995,-0.084302599999999,-0.0055512,0,sub_3
0.0703473999999997,-0.0073527999999987,-0.0639804,-0.0406871999999995,-0.142343599999999,-0.0040642,0,sub_3
0.0648269999999997,-0.0049479999999987,-0.0626142,-0.0539295999999995,-0.198065199999999,0.0008589999999999,0,sub_3
0.0566813999999996,-0.0019807999999987,-0.0611894,-0.0637341999999994,-0.246138199999999,0.0081463999999999,0,sub_3
0.0482879999999997,0.0007862000000012,-0.0590722,-0.0705463999999995,-0.284062399999999,0.0141293999999999,0,sub_3
0.0396427999999997,0.0027130000000012,-0.056468,-0.0740811999999995,-0.307075599999999,0.0179797999999999,0,sub_3
0.0310529999999996,0.0028856000000012,-0.0550216,-0.0757957999999995,-0.313268799999999,0.0209537999999999,0,sub_3
0.0249861999999996,0.0041214000000012,-0.0541962,-0.0748693999999995,-0.303059999999999,0.0224297999999999,0,sub_3
0.0196517999999996,0.0051702000000012,-0.0529498,-0.0751953999999995,-0.288365799999999,0.0221821999999999,0,sub_3
0.0136201999999996,0.0063770000000012,-0.052318,-0.0729225999999995,-0.265582799999999,0.0215151999999999,0,sub_3
0.0092557999999996,0.0071808000000012,-0.0530752,-0.0671993999999994,-0.234927999999999,0.0206483999999999,0,sub_3
0.0064077999999997,0.0088982000000012,-0.054015,-0.0578671999999994,-0.201716999999999,0.0189619999999999,0,sub_3
0.0041877999999997,0.0099724000000012,-0.056018,-0.0481215999999995,-0.171702399999999,0.0170687999999998,0,sub_3
0.0010743999999997,0.0116724000000012,-0.0587076,-0.0343113999999995,-0.138085199999999,0.0164811999999998,0,sub_3
-0.0046098000000003,0.0133312000000012,-0.0616832,-0.0192227999999995,-0.100866799999999,0.0199571999999998,0,sub_3
-0.0124068000000003,0.0127460000000012,-0.065148,-0.0061059999999995,-0.064366399999999,0.0248535999999999,0,sub_3
-0.0124928000000003,0.0115906000000012,-0.0667918,0.0083200000000004,-0.026571999999999,0.0246299999999999,0,sub_3
-0.0090294000000003,0.0116622000000012,-0.0655044,0.0236022000000004,0.0078270000000009,0.0203575999999999,0,sub_3
-0.0055958000000003,0.0114998000000012,-0.0636216,0.0343768000000005,0.0369128000000009,0.0167015999999999,0,sub_3
-0.0019014000000003,0.0102816000000012,-0.062062,0.0391626000000005,0.0596406000000009,0.0098069999999999,0,sub_3
0.0037543999999996,0.0112022000000012,-0.0592414,0.0450770000000004,0.0830988000000009,-0.000864,0,sub_3
0.0077183999999997,0.0108258000000012,-0.0587544,0.0499130000000005,0.1078238000000009,-0.0076984,0,sub_3
0.0088561999999997,0.0082782000000012,-0.0616546,0.0523380000000004,0.1354976000000009,-0.008368,0,sub_3
0.0113267999999997,0.0048688000000012,-0.0648482,0.0566622000000004,0.1618726000000009,-0.0056044,0,sub_3
0.0162499999999996,0.0055078000000012,-0.0656388,0.0630692000000005,0.1786460000000009,-0.0011048,0,sub_3
0.0232583999999996,0.0060060000000012,-0.0658408,0.0675158000000005,0.1873268000000009,0.0042461999999999,0,sub_3
0.0252235999999996,0.0041598000000012,-0.0655408,0.0685082000000004,0.1889812000000009,0.0115045999999999,0,sub_3
0.0273103999999996,0.0017342000000012,-0.0624794,0.0648156000000005,0.1812966000000009,0.0183251999999999,0,sub_3
0.0279815999999996,0.0006800000000012,-0.0615376,0.0570844000000005,0.1708814000000009,0.0189253999999999,0,sub_3
0.0301859999999997,-0.0028717999999987,-0.0643414,0.0466148000000005,0.1624172000000009,0.0135219999999999,0,sub_3
0.0331087999999997,-0.0071685999999987,-0.070259,0.0340248000000004,0.1539724000000009,0.0051125999999999,0,sub_3
0.0353413999999997,-0.0065481999999987,-0.0754468,0.0190448000000004,0.1408870000000009,-0.0060716,0,sub_3
0.0353683999999996,-0.0020723999999987,-0.0784902000000001,0.0055288000000004,0.1218284000000009,-0.016597,0,sub_3
0.0341069999999996,0.0013658000000012,-0.076492,-0.0046249999999995,0.0982556000000009,-0.0200428,0,sub_3
0.0321809999999996,0.0037938000000012,-0.072508,-0.0088205999999995,0.0793158000000009,-0.0151208,0,sub_3
0.0287933999999996,0.0065234000000012,-0.0673546,-0.0064179999999995,0.0630970000000009,-0.0037468,0,sub_3
0.0272965999999996,0.0069198000000012,-0.0631034,0.0007082000000004,0.0476790000000009,0.0095687999999999,0,sub_3
0.0276327999999996,0.0022850000000012,-0.064071,0.0089434000000004,0.0384486000000009,0.0196793999999999,0,sub_3
0.0309699999999996,-0.0022615999999987,-0.0683794,0.0136126000000004,0.0343782000000009,0.0212125999999999,0,sub_3
0.0367685999999996,-0.0056745999999987,-0.0720798,0.0099698000000004,0.0250404000000009,0.0152169999999999,0,sub_3
0.0399397999999996,-0.0086061999999987,-0.074559,-0.0030699999999994,0.0083008000000009,0.0036105999999999,0,sub_3
0.0396877999999997,-0.0094799999999987,-0.0762628,-0.0214439999999994,-0.008420199999999,-0.0080332,0,sub_3
0.0385741999999997,-0.0035057999999987,-0.0723664,-0.0372833999999994,-0.026658599999999,-0.0153844,0,sub_3
0.0357025999999997,0.0004308000000012,-0.0668506,-0.0458949999999994,-0.043672999999999,-0.0154226,0,sub_3
0.0314749999999997,0.0030438000000012,-0.0628888,-0.0427517999999994,-0.050737799999999,-0.0096232,0,sub_3
0.0290293999999997,0.0041642000000012,-0.0596616,-0.0306393999999994,-0.050187999999999,0.0022109999999999,0,sub_3
0.0285431999999997,0.0057808000000012,-0.0567712,-0.0153273999999994,-0.048801399999999,0.0151347999999999,0,sub_3
0.0277325999999996,0.0034432000000012,-0.0561026,-0.0021299999999995,-0.046541399999999,0.0246245999999999,0,sub_3
0.0257771999999996,0.0020094000000012,-0.056157,0.0066718000000004,-0.044430199999999,0.0283035999999999,0,sub_3
0.0224287999999996,0.0010866000000012,-0.0571918,0.0088782000000004,-0.042490999999999,0.0274501999999999,0,sub_3
0.0174769999999996,0.0017500000000012,-0.0603468,0.0040694000000004,-0.039230999999999,0.0220595999999999,0,sub_3
0.0141507999999996,0.0070860000000012,-0.0645728,-0.0032681999999995,-0.032326599999999,0.0132283999999999,0,sub_3
0.0123065999999996,0.0105084000000012,-0.0688854,-0.0140139999999995,-0.025829599999999,0.0026645999999999,0,sub_3
0.0175507999999997,0.0109550000000012,-0.073568,-0.0235389999999994,-0.019361799999999,-0.0080926,0,sub_3
0.0290399999999996,0.0067912000000012,-0.0762256,-0.0333435999999995,-0.026320799999999,-0.0175524,0,sub_3
0.0398479999999997,0.0028180000000012,-0.07247,-0.0415609999999995,-0.053763599999999,-0.0207792,0,sub_3
0.0422843999999997,-0.0043231999999987,-0.0650552,-0.0458251999999995,-0.093630999999999,-0.0131154,0,sub_3
0.0409085999999997,-0.0042751999999987,-0.0569692,-0.0407037999999995,-0.128440799999999,0.0003757999999999,0,sub_3
0.0320793999999996,0.0002402000000012,-0.0496524,-0.0255097999999995,-0.150514599999999,0.0169119999999999,0,sub_3
0.0154165999999997,0.0077530000000012,-0.044806,-0.0014581999999995,-0.148330999999999,0.0334789999999999,0,sub_3
0.0021495999999997,0.0144332000000012,-0.0451426,0.0263826000000005,-0.115246799999999,0.0449053999999999,0,sub_3
0.0009049999999997,0.0185536000000012,-0.0491558,0.0505038000000005,-0.063566999999999,0.0471439999999999,0,sub_3
0.0049857999999997,0.0132144000000012,-0.055806,0.0622618000000005,-0.014167199999999,0.0441717999999999,0,sub_3
0.0095899999999997,0.0091388000000012,-0.0618472,0.0572628000000005,0.0244626000000009,0.0387071999999999,0,sub_3
0.0148077999999997,0.0068674000000012,-0.0656386,0.0426216000000004,0.0524802000000009,0.0314795999999999,0,sub_3
0.0173109999999997,0.0063422000000012,-0.067955,0.0249272000000004,0.0649586000000009,0.0233959999999999,0,sub_3
0.0166777999999996,0.0046910000000012,-0.0680096,0.0093002000000004,0.0623046000000009,0.0149189999999999,0,sub_3
0.0173431999999997,0.0047028000000012,-0.0668794,0.0015354000000004,0.0540768000000009,0.0082131999999999,0,sub_3
0.0219587999999997,0.0004858000000012,-0.0659434,0.0023418000000004,0.0372682000000009,0.0018309999999999,0,sub_3
0.0301683999999997,-0.0048307999999987,-0.0653886,0.0007208000000004,0.0034202000000009,-0.0036918,0,sub_3
0.0361241999999997,-0.0082705999999987,-0.0637518,-0.0039305999999995,-0.038307199999999,-0.0075164,0,sub_3
0.0384271999999997,-0.0092443999999987,-0.0629508,-0.0119969999999995,-0.078325799999999,-0.0094442,0,sub_3
0.0335777999999997,-0.0054269999999987,-0.0623606,-0.0194121999999995,-0.105567599999999,-0.0116298,0,sub_3
0.0246235999999996,0.0018770000000012,-0.0608542,-0.0237767999999995,-0.115787599999999,-0.0108248,0,sub_3
0.0135763999999997,0.0105512000000012,-0.0584672,-0.0184677999999995,-0.104544999999999,-0.004425,0,sub_3
0.0054563999999997,0.0153614000000012,-0.0564844,-0.0054093999999995,-0.073321799999999,0.0069169999999999,0,sub_3
-0.0005942000000002,0.0178104000000012,-0.055405,0.0134734000000004,-0.027208599999999,0.0191351999999999,0,sub_3
-0.0012702000000002,0.0158032000000012,-0.0553992,0.0326410000000004,0.0227498000000009,0.0298871999999999,0,sub_3
0.0011775999999997,0.0105654000000012,-0.0558184,0.0475516000000004,0.0708228000000009,0.0363389999999999,0,sub_3
0.0039591999999997,0.0045738000000012,-0.0584858,0.0562922000000004,0.1146166000000009,0.0356661999999998,0,sub_3
0.0086929999999996,0.0023844000000012,-0.0623328,0.0575398000000004,0.1441970000000009,0.0261999999999998,0,sub_3
0.0144665999999996,0.0003634000000012,-0.0668258,0.0559772000000004,0.1614472000000009,0.0124569999999999,0,sub_3
0.0192547999999996,-0.0008031999999987,-0.0698826,0.0528700000000004,0.167835200000001,-0.0008556,0,sub_3
0.0233591999999996,0.0003092000000012,-0.073875,0.0477812000000004,0.1633530000000009,-0.0113906,0,sub_3
0.0266183999999996,0.0011174000000012,-0.0759686,0.0415568000000004,0.1472150000000009,-0.0195318,0,sub_3
0.0288827999999997,0.0002022000000012,-0.0755816,0.0389398000000004,0.1308342000000009,-0.0233748,0,sub_3
0.0294799999999996,0.0003164000000012,-0.0744226,0.0361046000000004,0.1165718000000009,-0.0240172,0,sub_3
0.0294295999999996,0.0004786000000012,-0.0737426,0.0330408000000004,0.1001746000000009,-0.0233766,0,sub_3
0.0302565999999996,2.1000000001250314e-05,-0.0719038,0.0319420000000004,0.0825686000000009,-0.0229634,0,sub_3
0.0308087999999996,7.300000000125037e-05,-0.0702328,0.0308490000000004,0.0681508000000009,-0.0206314,0,sub_3
0.0297409999999996,0.0008170000000012,-0.0696198,0.0280450000000004,0.0547966000000009,-0.0163898,0,sub_3
0.0294891999999997,0.0015052000000012,-0.0678344,0.0252362000000004,0.0405892000000009,-0.0119336,0,sub_3
0.0288303999999997,-6.35999999987296e-05,-0.0648632,0.0226572000000004,0.0278808000000009,-0.009614,0,sub_3
0.0284273999999997,-0.0014091999999987,-0.062923,0.0187724000000004,0.0197914000000009,-0.0079216,0,sub_3
0.0297755999999997,-0.0029777999999987,-0.0616082,0.0149048000000004,0.0144760000000009,-0.0073008,0,sub_3
0.0332331999999997,-0.0044525999999987,-0.0605192,0.0082644000000004,0.0089588000000009,-0.0071264,0,sub_3
0.0351617999999997,-0.0051185999999987,-0.059772,-0.0003243999999995,0.0010374000000009,-0.0061894,0,sub_3
0.0357539999999997,-0.0033655999999987,-0.0611132,-0.0065499999999995,-0.000936199999999,-0.0028936,0,sub_3
0.0373659999999997,-0.0018599999999987,-0.0630264,-0.0104063999999995,0.0026188000000009,0.0010527999999999,0,sub_3
0.0399107999999997,-0.0003055999999987,-0.0643008,-0.0132129999999995,0.0038204000000009,0.0065049999999999,0,sub_3
0.0414439999999996,-0.0006163999999987,-0.0647584,-0.0122191999999995,-0.002453999999999,0.0134887999999998,0,sub_3
0.0412821999999997,-0.0016597999999987,-0.0663852,-0.0099429999999995,-0.012710999999999,0.0190725999999998,0,sub_3
0.0392643999999997,-0.0018241999999987,-0.0678538,-0.0115371999999995,-0.029983399999999,0.0242111999999998,0,sub_3
0.0340359999999997,-0.0009765999999987,-0.0686916,-0.0137885999999995,-0.050516399999999,0.0280099999999998,0,sub_3
0.0268975999999997,0.0003930000000012,-0.0694676,-0.0164283999999995,-0.065920999999999,0.0283811999999998,0,sub_3
0.0210249999999997,0.0013552000000012,-0.071634,-0.0200717999999995,-0.071716799999999,0.0242465999999998,0,sub_3
0.0180801999999997,0.0021202000000012,-0.0739274,-0.0234865999999995,-0.073891999999999,0.0203225999999998,0,sub_3
0.0181485999999997,0.0020906000000012,-0.0763178,-0.0266897999999994,-0.075645399999999,0.0172539999999998,0,sub_3
0.0201123999999997,0.0011848000000012,-0.0763582,-0.0305591999999994,-0.084994399999999,0.0142479999999999,0,sub_3
0.0230795999999997,3.740000000127044e-05,-0.0772146,-0.0338317999999994,-0.101598799999999,0.0136055999999999,0,sub_3
0.0243595999999996,-0.0012869999999987,-0.0784822,-0.0373253999999994,-0.119270199999999,0.0136039999999999,0,sub_3
0.0276677999999996,-0.0024699999999987,-0.077919,-0.0404487999999994,-0.136908799999999,0.0122507999999999,0,sub_3
0.0298031999999996,-0.0031725999999987,-0.0732094,-0.0435761999999994,-0.157309399999999,0.0089783999999999,0,sub_3
0.0299043999999996,-0.0038907999999987,-0.070515,-0.0488161999999994,-0.173015399999999,0.0056849999999999,0,sub_3
0.0265949999999996,-0.0017337999999987,-0.0672582,-0.0522925999999994,-0.177642599999999,0.0008941999999999,0,sub_3
0.0246575999999996,0.0019718000000012,-0.0615884,-0.0540303999999994,-0.1756693999999989,-0.0043202,0,sub_3
0.0194935999999996,0.0036350000000012,-0.0566688,-0.0543765999999994,-0.161166599999999,-0.0077596,0,sub_3
0.0170751999999997,0.0060812000000012,-0.0564478,-0.0516799999999994,-0.133680599999999,-0.0105534,0,sub_3
0.0181539999999996,0.0079056000000012,-0.0575666,-0.0457501999999995,-0.098325399999999,-0.0126936,0,sub_3
0.0217055999999996,0.0066986000000012,-0.0586666,-0.0404661999999995,-0.063185199999999,-0.0137698,0,sub_3
0.0248865999999997,0.0030610000000012,-0.0628258,-0.0359733999999995,-0.030849599999999,-0.0127298,0,sub_3
0.0276683999999996,0.0037540000000012,-0.0668204,-0.0330307999999994,-0.010442399999999,-0.0110444,0,sub_3
0.0285347999999996,0.0041408000000012,-0.0675732,-0.0303543999999994,-0.000266999999999,-0.0078524,0,sub_3
0.0263783999999996,0.0052694000000012,-0.0665188,-0.0253577999999994,0.0056324000000009,-0.0029296,0,sub_3
0.0243169999999996,0.0067254000000012,-0.0646752,-0.0158955999999994,0.0070462000000009,0.0009619999999999,0,sub_3
0.0222699999999996,0.0079744000000012,-0.0614944,-0.0041821999999994,0.0042270000000009,0.0031837999999999,0,sub_3
0.0213407999999996,0.0057176000000012,-0.0605568,0.0066862000000004,0.0016306000000009,0.0036901999999999,0,sub_3
0.0222075999999996,0.0037788000000012,-0.0636362,0.0131818000000004,-0.000739799999999,0.0016119999999999,0,sub_3
0.0232671999999996,0.0020862000000012,-0.0670774,0.0126352000000005,-0.006693999999999,-0.003929,0,sub_3
0.0242955999999997,0.0008536000000012,-0.0704624,0.0037612000000005,-0.015807199999999,-0.011447,0,sub_3
0.0207433999999997,-0.0001047999999987,-0.0727938,-0.0130103999999994,-0.025744199999999,-0.0192328,0,sub_3
0.0165457999999997,-0.0005841999999987,-0.0729562,-0.0327565999999994,-0.033537599999999,-0.027683,0,sub_3
0.0101147999999997,-0.0015645999999987,-0.0714468,-0.0515159999999994,-0.039822599999999,-0.0380608,0,sub_3
0.0036213999999996,6.000000012502948e-07,-0.0683568,-0.0662223999999994,-0.046759199999999,-0.048837,0,sub_3
-0.0026238000000003,0.0026238000000012,-0.065083,-0.0740969999999995,-0.050745399999999,-0.0574328,0,sub_3
-0.0067108000000002,0.0055822000000012,-0.0637538,-0.0725515999999995,-0.043914199999999,-0.062131,0,sub_3
-0.0085262000000002,0.0100522000000012,-0.0625704,-0.0601291999999994,-0.023807199999999,-0.0640182,0,sub_3
-0.0059602000000002,0.0143552000000012,-0.0621054,-0.0399935999999995,0.0077598000000009,-0.0613798,0,sub_3
0.0004945999999997,0.0150724000000012,-0.0629702,-0.0162037999999995,0.0516458000000009,-0.052322,0,sub_3
0.0074317999999997,0.0129070000000012,-0.0649466,0.0073956000000004,0.1012822000000009,-0.042632,0,sub_3
0.0173497999999996,0.0091490000000012,-0.0658044,0.0290632000000004,0.1466712000000009,-0.0346592,0,sub_3
0.0248383999999996,0.0084522000000012,-0.067191,0.0436924000000004,0.1806790000000009,-0.027123,0,sub_3
0.0273763999999996,0.0085950000000012,-0.0662648,0.0537976000000004,0.2068128000000009,-0.0178992,0,sub_3
0.0251171999999996,0.0093174000000012,-0.0639042,0.0619632000000004,0.2272068000000009,-0.0101772,0,sub_3
0.0199663999999996,0.0102152000000012,-0.0628178,0.0697516000000004,0.250974000000001,-0.0010132,0,sub_3
0.0151881999999996,0.0136684000000012,-0.0633118,0.0794986000000004,0.282195400000001,0.0070867999999999,0,sub_3
0.0123835999999996,0.0125894000000012,-0.0640538,0.0918292000000004,0.316823600000001,0.0134913999999999,0,sub_3
0.0137247999999996,0.0086868000000012,-0.0677772,0.1045980000000004,0.351672800000001,0.0175485999999999,0,sub_3
0.0191151999999996,0.0034694000000012,-0.0747638,0.1162800000000005,0.3803538000000009,0.0198969999999999,0,sub_3
0.0296731999999996,-0.0008631999999987,-0.080486,0.1250868000000005,0.3931072000000009,0.0197285999999999,0,sub_3
0.0472833999999996,-0.0067399999999987,-0.0842654,0.1278042000000004,0.3771322000000009,0.0163495999999999,0,sub_3
0.0639951999999996,-0.0121699999999987,-0.0845938,0.1234922000000004,0.3349130000000009,0.0122975999999999,0,sub_3
0.0773111999999996,-0.0157209999999987,-0.0822692,0.1118382000000004,0.2722702000000009,0.0071523999999999,0,sub_3
0.0831739999999996,-0.0151731999999987,-0.077976,0.0926730000000004,0.1990052000000009,0.0008999999999999,0,sub_3
0.0813603999999997,-0.0149165999999987,-0.0738656,0.0668694000000004,0.1210736000000009,-0.004752,0,sub_3
0.0684819999999997,-0.0128389999999987,-0.0718558,0.0387532000000005,0.0548520000000009,-0.0063758,0,sub_3
0.0498359999999997,-0.0066837999999987,-0.0718996,0.0116516000000004,0.0063716000000009,-0.0069304,0,sub_3
0.0309393999999997,0.0009724000000012,-0.070938,-0.0074563999999995,-0.017433399999999,-0.0046834,0,sub_3
0.0176511999999997,0.0039742000000012,-0.0704772,-0.0215897999999995,-0.025704999999999,-0.0017806000000001,0,sub_3
0.0108717999999996,0.0044974000000012,-0.0703674,-0.0296807999999995,-0.017597799999999,0.0024253999999998,0,sub_3
0.0084383999999997,0.0046182000000012,-0.0700944,-0.0309717999999994,-0.001123199999999,-0.0020934000000001,0,sub_3
0.0157805999999997,0.0021050000000012,-0.0691672,-0.0335763999999994,0.0151140000000009,0.0006429999999998,0,sub_3
0.0265379999999997,-0.0036579999999987,-0.071489,-0.0379207999999994,0.0200816000000009,-0.0006776,0,sub_3
