userAcceleration.x,userAcceleration.y,userAcceleration.z,rotationRate.x,rotationRate.y,rotationRate.z,label,subject
-0.0006678000000003,0.0090988000000012,0.0647326,-0.0299615999999993,-0.0382741999999991,-0.0014288,0,sub_16
-0.0015372000000003,0.0089690000000012,0.0642684,-0.0280459999999993,-0.0361629999999991,0.0017865999999999,0,sub_16
-0.0003216000000003,0.0072724000000012,0.0639532,-0.0248387999999994,-0.0310753999999991,0.0054345999999999,0,sub_16
0.0014563999999996,0.0028752000000012,0.0634932,-0.0218457999999994,-0.0266245999999991,0.0086543999999999,0,sub_16
0.0042663999999996,-0.0003853999999987,0.0613985999999999,-0.0207797999999994,-0.0247193999999991,0.0107957999999999,0,sub_16
0.0079685999999996,-0.0002641999999987,0.0596949999999999,-0.0218675999999994,-0.0260075999999991,0.0142081999999999,0,sub_16
0.0105845999999996,0.0005256000000012,0.0587485999999999,-0.0238205999999993,-0.0283641999999991,0.0191113999999999,0,sub_16
0.0079509999999996,0.0031374000000012,0.0587233999999999,-0.0257763999999993,-0.0328451999999991,0.0225215999999999,0,sub_16
0.0046853999999996,0.0051570000000012,0.0595055999999999,-0.0275215999999993,-0.0392391999999991,0.0246539999999999,0,sub_16
0.0017059999999996,0.0069318000000012,0.0606143999999999,-0.0284075999999994,-0.0466921999999991,0.0244437999999999,0,sub_16
-0.0025200000000003,0.0080836000000012,0.0608633999999999,-0.0277741999999994,-0.0530779999999991,0.0219041999999999,0,sub_16
-0.0076632000000003,0.0093800000000012,0.0605291999999999,-0.0232797999999994,-0.0586105999999991,0.0157585999999999,0,sub_16
-0.0099218000000003,0.0096548000000012,0.0599766,-0.0166431999999994,-0.0626575999999991,0.0091987999999999,0,sub_16
-0.0107484000000003,0.0082490000000012,0.0596918,-0.0095625999999994,-0.0620223999999991,0.0034905999999999,0,sub_16
-0.0105314000000003,0.0092404000000012,0.0596942,-0.0033267999999994,-0.0564959999999991,0.0007611999999999,0,sub_16
-0.0092618000000003,0.0084462000000012,0.059285,0.0018278000000005,-0.0488449999999991,0.0010009999999999,0,sub_16
-0.0073980000000003,0.0065392000000012,0.0593161999999999,0.0046312000000005,-0.0399157999999991,0.0033591999999999,0,sub_16
-0.0050604000000003,0.0049200000000012,0.0582343999999999,0.0067966000000005,-0.0299217999999991,0.0063525999999999,0,sub_16
-0.0025080000000003,0.0059234000000012,0.0571037999999999,0.0093830000000005,-0.0216319999999991,0.0089237999999999,0,sub_16
0.0007345999999996,0.0056704000000012,0.0552315999999999,0.0121740000000005,-0.0165333999999991,0.0102185999999999,0,sub_16
0.0035765999999996,0.0056930000000012,0.0537276,0.0153744000000005,-0.0156957999999991,0.0110945999999999,0,sub_16
0.0064527999999996,0.0062838000000012,0.0534364,0.0174928000000005,-0.0199609999999991,0.0102601999999999,0,sub_16
0.0082413999999996,0.0049216000000012,0.0527268,0.0181128000000005,-0.0265591999999991,0.0081365999999999,0,sub_16
0.0078185999999996,0.0043800000000012,0.0518318,0.0161578000000005,-0.0378297999999991,0.0045053999999999,0,sub_16
0.0058657999999996,0.0034510000000012,0.0516294,0.0150536000000005,-0.048469399999999,0.0021613999999999,0,sub_16
0.0049411999999996,0.0027818000000012,0.0517688,0.0137504000000005,-0.0557001999999991,2.4999999999941864e-05,0,sub_16
0.0048519999999996,0.0041098000000012,0.050722,0.0124482000000005,-0.0603835999999991,0.0002355999999999,0,sub_16
0.0047083999999996,0.0054682000000012,0.0506362,0.0113488000000005,-0.0650773999999991,0.0027975999999999,0,sub_16
0.0053705999999996,0.0059872000000012,0.051027,0.0117554000000005,-0.0650967999999991,0.0072869999999999,0,sub_16
0.0064371999999996,0.0058856000000012,0.0513694,0.0111018000000005,-0.0651065999999991,0.0102733999999999,0,sub_16
0.0065763999999996,0.0049660000000012,0.0517016,0.0089480000000005,-0.0678755999999991,0.0119709999999999,0,sub_16
0.0063523999999996,0.0032164000000012,0.0514026,0.0061560000000005,-0.0717017999999991,0.0121699999999999,0,sub_16
0.0063373999999996,0.0041370000000012,0.0507474,0.0037964000000005,-0.0748875999999991,0.0117303999999999,0,sub_16
0.0065423999999995,0.0053242000000012,0.049792,0.0027134000000005,-0.0793543999999991,0.0108739999999999,0,sub_16
0.0038709999999996,0.0057408000000012,0.0497268,0.0026990000000005,-0.0842477999999991,0.0091709999999999,0,sub_16
0.0010849999999996,0.0060306000000012,0.0495162,0.0029200000000005,-0.0855149999999991,0.0061831999999999,0,sub_16
-0.0017428000000003,0.0055556000000012,0.0501679999999999,0.0025172000000005,-0.0833701999999991,0.0029729999999999,0,sub_16
-0.0026312000000003,0.0046536000000012,0.0500219999999999,0.0014810000000005,-0.0788829999999991,0.0006097999999999,0,sub_16
-0.0029034000000003,0.0047688000000012,0.0503211999999999,0.0002246000000006,-0.0737643999999991,0.0003807999999999,0,sub_16
-0.0008864000000003,0.0056314000000012,0.0497791999999999,-0.0010345999999993,-0.0673749999999991,0.0020729999999999,0,sub_16
-0.0007406000000003,0.0058292000000012,0.0496559999999999,-0.0016603999999993,-0.0620547999999991,0.0041981999999999,0,sub_16
0.0002719999999996,0.0058654000000012,0.0491062,-0.0022909999999993,-0.0588609999999991,0.0052579999999999,0,sub_16
-0.0003318000000003,0.0058398000000012,0.0497052,-0.0035605999999993,-0.0573617999999991,0.0043925999999999,0,sub_16
-0.0027922000000003,0.0054570000000012,0.0498368,-0.0056751999999993,-0.0556397999999991,0.0018119999999999,0,sub_16
-0.0052528000000003,0.0052252000000012,0.0500822,-0.0077867999999993,-0.0528541999999991,-0.0003428,0,sub_16
-0.0058850000000003,0.0057928000000012,0.0501188,-0.0090399999999993,-0.0485819999999991,-0.002066,0,sub_16
-0.0071182000000003,0.0059568000000012,0.0503475999999999,-0.0092273999999993,-0.0432531999999991,-0.0025014,0,sub_16
-0.0083086000000003,0.0062032000000012,0.0506829999999999,-0.0085575999999994,-0.0370751999999991,-0.0029318,0,sub_16
-0.0081670000000003,0.0059100000000012,0.0510587999999999,-0.0070273999999994,-0.0300453999999991,-0.0039984,0,sub_16
-0.0083300000000003,0.0056726000000012,0.0509755999999999,-0.0057087999999994,-0.0238619999999991,-0.0063472,0,sub_16
-0.0092514000000003,0.0058530000000012,0.050749,-0.0050285999999994,-0.0174623999999991,-0.0089144,0,sub_16
-0.0101202000000003,0.0061330000000012,0.0508628,-0.0041319999999994,-0.0099999999999991,-0.0110542,0,sub_16
-0.0088386000000003,0.0071310000000012,0.050748,-0.0023857999999994,-0.0019073999999991,-0.0116934,0,sub_16
-0.0087198000000003,0.0073646000000012,0.0508812,-0.0008529999999994,0.0068226000000008,-0.0116938,0,sub_16
-0.0079556000000003,0.0074228000000012,0.0513584,-0.0001841999999994,0.0142730000000008,-0.0106304,0,sub_16
-0.0056920000000003,0.0057762000000012,0.051746,-0.0003821999999993,0.0195924000000008,-0.0087158,0,sub_16
-0.0035378000000003,0.0057624000000012,0.0518774,-0.0018575999999993,0.0247066000000008,-0.0076644,0,sub_16
-0.0036852000000003,0.0049166000000012,0.0520532,-0.0044073999999993,0.0272714000000008,-0.0074718,0,sub_16
-0.0031484000000003,0.0049528000000012,0.0514265999999999,-0.0069677999999993,0.0270680000000008,-0.0077032,0,sub_16
-0.0020900000000003,0.0052396000000012,0.0510813999999999,-0.0088871999999994,0.0264390000000008,-0.0085704,0,sub_16
-0.0023080000000003,0.0061260000000012,0.0514603999999999,-0.0095223999999994,0.0266578000000008,-0.0094298,0,sub_16
-0.0030812000000003,0.0054928000000012,0.0513445999999999,-0.0084461999999994,0.0262254000000008,-0.0096236,0,sub_16
-0.0030290000000003,0.0052508000000012,0.0512609999999999,-0.0075785999999994,0.0268590000000008,-0.0098202,0,sub_16
-0.0026620000000003,0.0046376000000012,0.0511652,-0.0069223999999994,0.0279196000000008,-0.0100188,0,sub_16
-0.0024574000000003,0.0047506000000012,0.0509896,-0.0066861999999994,0.0296242000000008,-0.0110758,0,sub_16
-0.0014554000000003,0.0052746000000012,0.0506686,-0.0068797999999994,0.0298424000000008,-0.0129884,0,sub_16
5.219999999963509e-05,0.0069384000000012,0.051006,-0.0079427999999994,0.0285764000000008,-0.0151308,0,sub_16
0.0020019999999996,0.0083928000000012,0.0516312,-0.0085819999999994,0.0262454000000008,-0.017696,0,sub_16
0.0032013999999996,0.0093970000000012,0.0523196,-0.0092037999999994,0.0248230000000008,-0.0209062,0,sub_16
0.0038553999999996,0.0099800000000012,0.0530753999999999,-0.0089987999999994,0.0208274000000008,-0.0206892,0,sub_16
0.0034337999999996,0.0091056000000012,0.0534917999999999,-0.0088023999999994,0.0170362000000008,-0.018336,0,sub_16
0.0026447999999996,0.0070368000000012,0.0535375999999999,-0.0086061999999993,0.0132450000000008,-0.0159828,0,sub_16
0.0016071999999996,0.0057810000000012,0.0532693999999999,-0.0090451999999993,0.0105214000000008,-0.0136354,0,sub_16
0.0015833999999996,0.0051364000000012,0.053781,-0.0090777999999993,0.0062484000000008,-0.0106392,0,sub_16
0.0016779999999996,0.0042326000000012,0.0535718,-0.0097361999999993,0.0034758000000008,-0.0093584,0,sub_16
0.0025495999999996,0.0047876000000012,0.0538524,-0.0101783999999993,0.0007050000000008,-0.0087169999999999,0,sub_16
0.0030173999999996,0.0054124000000012,0.0541486,-0.0104071999999994,-0.0016419999999991,-0.0076471999999999,0,sub_16
0.0030635999999996,0.0048912000000012,0.054297,-0.0099309999999994,-0.0042131999999991,-0.0061755999999999,0,sub_16
0.0031473999999996,0.0042276000000012,0.0537114,-0.0100957999999994,-0.0065705999999991,-0.0042814,0,sub_16
0.0020649999999996,0.0049900000000012,0.0548144,-0.0096127999999994,-0.0087113999999991,-0.0038783999999999,0,sub_16
0.0005361999999996,0.0053438000000012,0.0548915999999999,-0.0089067999999994,-0.0108443999999991,-0.0056104,0,sub_16
-0.0003244000000003,0.0055812000000012,0.0547001999999999,-0.0081891999999994,-0.0121183999999991,-0.0090526,0,sub_16
-0.0013746000000003,0.0061550000000012,0.0551253999999999,-0.0081823999999994,-0.0140221999999991,-0.0124684,0,sub_16
-0.0027724000000003,0.0068010000000012,0.0560475999999999,-0.0077479999999994,-0.0148657999999991,-0.015028,0,sub_16
-0.0030288000000003,0.0054016000000012,0.05561,-0.0077393999999994,-0.0142215999999991,-0.0163106,0,sub_16
-0.0027052000000003,0.0045056000000012,0.0555664,-0.0081047999999994,-0.0124107999999991,-0.015466,0,sub_16
-0.0028738000000003,0.0053162000000012,0.0559025999999999,-0.0084845999999994,-0.0112493999999991,-0.0120568,0,sub_16
-0.0030354000000003,0.0056844000000012,0.0559235999999999,-0.0073707999999994,-0.0090323999999991,-0.0075704,0,sub_16
-0.0021726000000003,0.0059978000000012,0.0549065999999999,-0.0056119999999994,-0.0059643999999991,-0.0032942,0,sub_16
-0.0020788000000003,0.0062232000000012,0.0544149999999999,-0.0038531999999994,-0.0033207999999991,0.0005551999999999,0,sub_16
-0.0024492000000003,0.0067298000000012,0.0536409999999999,-0.0017203999999994,-0.0005705999999991,0.0035575999999999,0,sub_16
-0.0025216000000003,0.0054972000000012,0.0536543999999999,0.0006276000000005,0.0013318000000008,0.0052805999999999,0,sub_16
-0.0024358000000003,0.0038638000000012,0.0536588,0.0019662000000005,0.0031966000000008,0.0053033999999999,0,sub_16
-0.0031882000000003,0.0026734000000012,0.0541136,0.0020218000000005,0.0033656000000008,0.0042511999999999,0,sub_16
-0.0034732000000003,0.0032922000000012,0.0544174,0.0014344000000005,0.0033220000000008,0.0036221999999999,0,sub_16
-0.0042076000000003,0.0042640000000012,0.055336,0.0006250000000005,0.0019984000000008,0.0036341999999999,0,sub_16
-0.0050326000000003,0.0055130000000012,0.056556,-0.0001785999999994,0.0019530000000008,0.0036445999999999,0,sub_16
-0.0058180000000003,0.0067518000000012,0.0569762,-0.0012443999999994,0.0025940000000008,0.0040635999999999,0,sub_16
-0.0061928000000003,0.0079876000000012,0.057184,-0.0010309999999994,0.0036542000000008,0.0051319999999999,0,sub_16
-0.0063726000000003,0.0079034000000012,0.0571888,0.0002520000000005,0.0049256000000008,0.0057801999999999,0,sub_16
-0.0056734000000003,0.0067528000000012,0.0570097999999999,0.0022348000000005,0.0075258000000008,0.0058325999999999,0,sub_16
-0.0041098000000003,0.0061652000000012,0.0567865999999999,0.0035774000000005,0.0103404000000008,0.0060939999999999,0,sub_16
-0.0023652000000003,0.0064278000000012,0.0564765999999999,0.0051228000000005,0.0114474000000008,0.0069999999999999,0,sub_16
-0.0019876000000003,0.0056938000000012,0.0567123999999999,0.0060320000000005,0.0123478000000008,0.0068333999999999,0,sub_16
-0.0016366000000003,0.0046768000000012,0.0572285999999999,0.0071490000000005,0.0117568000000008,0.0064565999999999,0,sub_16
-0.0015760000000003,0.0045234000000012,0.0580651999999999,0.0069318000000005,0.0098444000000008,0.0053893999999999,0,sub_16
-0.0030852000000003,0.0057942000000012,0.0573939999999999,0.0062860000000005,0.0070830000000008,0.0038927999999999,0,sub_16
-0.0044516000000003,0.0071036000000012,0.0584641999999999,0.0062794000000005,0.0041062000000008,0.0024009999999999,0,sub_16
-0.0049078000000003,0.0090666000000012,0.0597429999999999,0.0073444000000005,0.0026154000000008,0.0013421999999999,0,sub_16
-0.0047614000000003,0.0092358000000012,0.0598025999999999,0.0082536000000005,0.0028430000000008,0.0009711999999999,0,sub_16
-0.0053518000000003,0.0079166000000012,0.0595553999999999,0.0091600000000005,0.0034922000000008,0.0016677999999999,0,sub_16
-0.0042896000000003,0.0054518000000012,0.0599339999999999,0.0102856000000005,0.0060558000000008,0.0030045999999999,0,sub_16
-0.0028752000000003,0.0032596000000012,0.0592809999999999,0.0101338000000005,0.0086264000000008,0.0036913999999999,0,sub_16
-0.0013986000000003,0.0026810000000012,0.0587453999999999,0.0091188000000005,0.0094938000000008,0.0048015999999999,0,sub_16
-0.0006208000000003,0.0040700000000012,0.0591211999999999,0.0080510000000005,0.0090722000000008,0.0045809999999999,0,sub_16
0.0001311999999996,0.0059158000000012,0.0594329999999999,0.0080568000000005,0.0092896000000008,0.0035125999999999,0,sub_16
-0.0005008000000003,0.0075110000000012,0.0600376,0.0089654000000005,0.0084682000000008,0.0020807999999999,0,sub_16
-0.0018346000000003,0.0084384000000012,0.0605687999999999,0.0103008000000005,0.0078576000000008,0.0008655999999999,0,sub_16
-0.0026216000000003,0.0070052000000012,0.0603435999999999,0.0120658000000005,0.0087334000000008,0.0005059999999999,0,sub_16
-0.0028610000000003,0.0054218000000012,0.0596971999999999,0.0142528000000005,0.0102400000000008,0.0018577999999999,0,sub_16
-0.0018582000000003,0.0050408000000012,0.0587813999999999,0.0153662000000005,0.0113200000000008,0.0042707999999999,0,sub_16
-0.0004738000000003,0.0036756000000012,0.0583407999999999,0.0155700000000005,0.0113106000000008,0.0064087999999999,0,sub_16
0.0005705999999996,0.0031720000000012,0.0577809999999999,0.0153528000000005,0.0115200000000008,0.0074751999999999,0,sub_16
0.0012095999999996,0.0042420000000012,0.0573204,0.0134258000000005,0.0098232000000008,0.0072503999999999,0,sub_16
-0.0001424000000003,0.0057700000000012,0.0584576,0.0111174000000005,0.0081554000000008,0.0057791999999999,0,sub_16
-0.0015074000000003,0.0056508000000012,0.0597208,0.0103064000000005,0.0064856000000008,0.0034639999999999,0,sub_16
-0.0027288000000003,0.0067174000000012,0.0592308,0.0103518000000005,0.0058766000000008,0.0015805999999999,0,sub_16
-0.0036564000000003,0.0064202000000012,0.0591958,0.0118908000000005,0.0067478000000008,0.0012013999999999,0,sub_16
-0.0043660000000003,0.0058966000000012,0.0594506,0.0144958000000005,0.0084630000000008,0.0018965999999999,0,sub_16
-0.0042326000000003,0.0045610000000012,0.0585336,0.0164228000000005,0.0097354000000008,0.0016947999999999,0,sub_16
-0.0043874000000003,0.0047882000000012,0.056904,0.0168600000000005,0.0112288000000008,0.0008411999999999,0,sub_16
-0.0035642000000003,0.0054880000000012,0.0566603999999999,0.0164418000000005,0.0122990000000008,-1.760000000005828e-05,0,sub_16
-0.0023044000000003,0.0066236000000012,0.0563361999999999,0.0156142000000005,0.0127324000000008,-0.0002244,0,sub_16
-0.0014708000000003,0.0065962000000012,0.0557301999999999,0.0152210000000005,0.0146566000000008,-0.0006436,0,sub_16
0.0004605999999996,0.0074322000000012,0.0551505999999999,0.0146088000000005,0.0170008000000008,0.0006441999999999,0,sub_16
0.0018457999999996,0.0076920000000012,0.0553323999999999,0.0137746000000005,0.0176404000000008,0.0021463999999999,0,sub_16
0.0018527999999996,0.0067396000000012,0.0546899999999999,0.0127242000000005,0.0163684000000008,0.0023675999999999,0,sub_16
0.0020879999999996,0.0053578000000012,0.0548135999999999,0.0107884000000005,0.0125418000000008,0.0019315999999999,0,sub_16
0.0022419999999996,0.0044302000000012,0.0552825999999999,0.0071446000000005,0.0082960000000008,0.0012705999999999,0,sub_16
0.0024343999999996,0.0034464000000012,0.0551945999999999,0.0037124000000005,0.0044722000000008,0.0014651999999999,0,sub_16
0.0028161999999996,0.0027440000000012,0.0551087999999999,0.0017700000000005,0.0012642000000008,0.0027365999999999,0,sub_16
0.0033181999999996,0.0030524000000012,0.0552201999999999,0.0015356000000005,-0.0008879999999991,0.0048729999999999,0,sub_16
0.0030583999999996,0.0043934000000012,0.0546473999999999,0.0021692000000005,-0.0013325999999991,0.0055179999999999,0,sub_16
0.0028155999999996,0.0060046000000012,0.0539418,0.0042926000000005,-0.0032713999999991,0.0055343999999999,0,sub_16
0.0017815999999996,0.0073378000000012,0.0542279999999999,0.0072770000000005,-0.0054185999999991,0.0036341999999999,0,sub_16
0.0011125999999996,0.0076380000000012,0.0541915999999999,0.0092022000000005,-0.0066941999999991,0.0012991999999999,0,sub_16
0.0013053999999996,0.0065980000000012,0.0548875999999999,0.0094194000000005,-0.0075401999999991,-0.0004072,0,sub_16
0.0018103999999995,0.0056952000000012,0.054773,0.0094136000000005,-0.0092429999999991,-0.0008324,0,sub_16
0.0027433999999995,0.0048922000000012,0.0552048,0.0083168000000005,-0.0107579999999991,-0.0008464,0,sub_16
0.0047111999999995,0.0050516000000012,0.0551352,0.0063618000000005,-0.0126985999999991,-0.000225,0,sub_16
0.0070421999999996,0.0055170000000012,0.0560454,0.0041896000000005,-0.0154905999999991,0.0003959999999999,0,sub_16
0.0079229999999995,0.0064200000000012,0.055982,0.0030832000000005,-0.0197727999999991,-0.0002554,0,sub_16
0.0095583999999996,0.0077128000000012,0.0564508,0.0007072000000005,-0.0234043999999991,-0.0026256,0,sub_16
0.0107601999999995,0.0083334000000012,0.0566575999999999,-0.0016495999999994,-0.0280729999999991,-0.0051998,0,sub_16
0.0107105999999995,0.0083220000000012,0.0568717999999999,-0.0035863999999994,-0.0327491999999991,-0.0062754,0,sub_16
0.0102871999999995,0.0081592000000012,0.0570649999999999,-0.0048887999999994,-0.0372205999999991,-0.0058514,0,sub_16
0.0108105999999995,0.0080448000000012,0.0577699999999999,-0.0066235999999994,-0.0406343999999991,-0.0030818,0,sub_16
0.0100769999999995,0.0060818000000012,0.0576125999999999,-0.0077693999999994,-0.0438837999999991,0.0013855999999999,0,sub_16
0.0087345999999995,0.0047156000000012,0.0583863999999999,-0.0076319999999994,-0.0462863999999991,0.0060743999999999,0,sub_16
0.0078259999999995,0.0031476000000012,0.0591378,-0.0064191999999994,-0.0488969999999991,0.0086345999999999,0,sub_16
0.0069125999999996,0.0031098000000012,0.0584757999999999,-0.0060455999999994,-0.0510675999999991,0.0084109999999999,0,sub_16
0.0063755999999996,0.0036474000000012,0.0579262,-0.0067271999999994,-0.0523755999999991,0.0064697999999999,0,sub_16
0.0057891999999996,0.0059728000000012,0.0583641999999999,-0.0060813999999994,-0.0532213999999991,0.0043389999999999,0,sub_16
0.0053847999999996,0.0079768000000012,0.0581879999999999,-0.0056403999999994,-0.0527855999999991,0.0015641999999999,0,sub_16
0.0042375999999996,0.0082736000000012,0.0584069999999999,-0.0063321999999994,-0.0526121999999991,-0.0005904,0,sub_16
0.0034165999999996,0.0072632000000012,0.0589661999999999,-0.0068037999999994,-0.0503113999999991,-0.0021052,0,sub_16
0.0019219999999996,0.0061392000000012,0.0595849999999999,-0.0064239999999994,-0.0478029999999991,-0.0029734,0,sub_16
0.0007361999999996,0.0048250000000012,0.0601611999999999,-0.0073243999999994,-0.0452903999999991,-0.0038506,0,sub_16
-0.0001610000000003,0.0037138000000012,0.0602713999999999,-0.0090781999999994,-0.0425625999999991,-0.0045202,0,sub_16
-0.0001278000000003,0.0051942000000012,0.0598367999999999,-0.0105505999999994,-0.0385067999999991,-0.0051766,0,sub_16
-0.0002626000000003,0.0059682000000012,0.0597678,-0.0107495999999994,-0.0353101999999991,-0.005182,0,sub_16
0.0003259999999996,0.0057632000000012,0.0593741999999999,-0.0100893999999994,-0.0310505999999991,-0.0053964,0,sub_16
0.0010353999999996,0.0049488000000012,0.0583441999999999,-0.0094853999999994,-0.0259897999999991,-0.0054116,0,sub_16
0.0015137999999996,0.0045202000000012,0.0579761999999999,-0.0080325999999994,-0.0213605999999991,-0.0047794,0,sub_16
0.0018913999999996,0.0032450000000012,0.0578499999999999,-0.0074381999999994,-0.0175815999999991,-0.0039384,0,sub_16
0.0019009999999996,0.0038774000000012,0.0585345999999999,-0.0081259999999994,-0.0146485999999991,-0.0035326,0,sub_16
0.0012977999999996,0.0056802000000012,0.0590399999999999,-0.0098843999999994,-0.0129883999999991,-0.00356,0,sub_16
0.0006153999999996,0.0069840000000012,0.0602381999999999,-0.0107311999999994,-0.0114939999999991,-0.0035678,0,sub_16
-0.0001898000000003,0.0078474000000012,0.0615455999999999,-0.0113627999999994,-0.0099985999999991,-0.0040014,0,sub_16
-0.0011600000000003,0.0084848000000012,0.0625338,-0.0109197999999994,-0.0070145999999991,-0.004643,0,sub_16
-0.0019774000000003,0.0084464000000012,0.0631058,-0.0087705999999994,-0.0040375999999991,-0.0050592,0,sub_16
-0.0018948000000003,0.0076748000000012,0.06342,-0.0059803999999994,-0.0008497999999991,-0.0054712,0,sub_16
-0.0020786000000003,0.0070280000000012,0.064214,-0.0034595999999994,0.0023220000000008,-0.0054686,0,sub_16
-0.0016104000000003,0.0061154000000012,0.0640008,-0.0013653999999994,0.0063440000000008,-0.0046156,0,sub_16
-0.0002270000000004,0.0045760000000012,0.0635994,-0.0003439999999994,0.0093036000000008,-0.003555,0,sub_16
0.0013471999999995,0.0044074000000012,0.0635338,-0.0006027999999994,0.0122678000000008,-0.0025032,0,sub_16
0.0022211999999996,0.0043188000000012,0.0640616,-0.0012959999999993,0.0139534000000008,-0.0010254,0,sub_16
0.0026201999999996,0.0042942000000012,0.063737,-0.0017225999999993,0.0148038000000008,-0.0001748,0,sub_16
0.0032799999999996,0.0047324000000012,0.0640102,-0.0032489999999993,0.0142286000000007,-0.000188,0,sub_16
0.0027797999999996,0.0059996000000012,0.0651238,-0.0041351999999993,0.0132268000000007,-0.0006234,0,sub_16
0.0015055999999996,0.0051418000000012,0.064798,-0.0043783999999993,0.0115886000000007,-0.0023354,0,sub_16
0.0004661999999996,0.0040720000000012,0.0651333999999999,-0.0044043999999994,0.0099532000000007,-0.0049006,0,sub_16
0.0001441999999996,0.0035412000000012,0.065644,-0.0048601999999994,0.0083166000000007,-0.0068278,0,sub_16
-0.0007060000000003,0.0032444000000012,0.0662973999999999,-0.0046457999999994,0.0078924000000008,-0.0074666,0,sub_16
-0.0011958000000003,0.0029352000000012,0.0651851999999999,-0.0042151999999994,0.0083186000000008,-0.0078916,0,sub_16
-0.0011040000000003,0.0033222000000012,0.0647857999999999,-0.0046419999999994,0.0091688000000008,-0.0070412,0,sub_16
-0.0007964000000003,0.0049242000000012,0.063551,-0.0044381999999994,0.0101624000000008,-0.005125,0,sub_16
-0.0006584000000003,0.0061436000000012,0.0626882,-0.0029491999999994,0.0115802000000008,-0.0038412,0,sub_16
-0.0004454000000003,0.0063770000000012,0.0612932,-0.0010327999999994,0.0119362000000008,-0.003835,0,sub_16
-0.0004778000000003,0.0064444000000012,0.0612944,0.0004580000000005,0.0122948000000008,-0.0040452,0,sub_16
