userAcceleration.x,userAcceleration.y,userAcceleration.z,rotationRate.x,rotationRate.y,rotationRate.z,label,subject
-0.0027188000000002,0.0075300000000011,0.025968,0.0029350000000004,-0.0672205999999992,-0.0113607999999999,0,sub_10
-0.0070214000000002,0.0084534000000011,0.0245898,0.0005048000000004,-0.0530905999999992,-0.0263509999999999,0,sub_10
-0.0073250000000002,0.0104782000000011,0.0215452,0.0018992000000004,-0.0379273999999992,-0.0366155999999999,0,sub_10
-0.0046468000000002,0.0114438000000011,0.020628,0.0062510000000004,-0.0215279999999992,-0.0389561999999999,0,sub_10
-0.0050492000000002,0.0107354000000011,0.020879,0.0075964000000004,-0.0034375999999992,-0.0353379999999999,0,sub_10
-0.0061974000000002,0.0081924000000011,0.0196484,0.0065764000000004,0.0112496000000007,-0.0310909999999999,0,sub_10
-0.0063978000000002,0.0054762000000011,0.0173656,0.0053432000000005,0.0227548000000007,-0.0300461999999999,0,sub_10
-0.0081494000000002,0.0030726000000011,0.015073,0.0018078000000005,0.0396132000000007,-0.0337243999999999,0,sub_10
-0.0101166000000002,0.0018860000000011,0.0126042,-0.0044647999999994,0.0599088000000007,-0.0421263999999999,0,sub_10
-0.0088138000000001,0.0014524000000012,0.0106478,-0.0103057999999994,0.0791462000000008,-0.0526603999999999,0,sub_10
-0.0064382000000001,0.0021072000000012,0.0100732,-0.0151097999999994,0.0930486000000007,-0.0618983999999999,0,sub_10
-0.0035310000000001,0.0032628000000012,0.0106876,-0.0184729999999994,0.0992594000000007,-0.0670571999999999,0,sub_10
0.0006511999999998,0.0033310000000012,0.0114972,-0.0201943999999994,0.0952208000000008,-0.0679187999999999,0,sub_10
0.0047623999999998,0.0040124000000012,0.0114546,-0.0166639999999995,0.0785704000000007,-0.0629589999999999,0,sub_10
0.0064043999999997,0.0044710000000012,0.0107018,-0.0053097999999995,0.0501584000000007,-0.0538701999999999,0,sub_10
0.0065241999999997,0.0049488000000012,0.0103008,0.0087714000000004,0.0134190000000008,-0.0426151999999999,0,sub_10
0.0049115999999997,0.0029228000000012,0.0116756,0.0200758000000004,-0.0256473999999991,-0.0330859999999999,0,sub_10
0.0033431999999997,0.0023260000000012,0.0128996,0.0301414000000004,-0.0583067999999991,-0.0263507999999999,0,sub_10
0.0016981999999997,0.0023306000000011,0.0134218,0.0375290000000004,-0.0734705999999991,-0.0235023999999999,0,sub_10
0.0008647999999997,0.0041040000000011,0.0139696,0.0339238000000004,-0.0691943999999991,-0.0241739999999999,0,sub_10
0.0005065999999997,0.0043078000000011,0.017269,0.0199266000000004,-0.0506079999999991,-0.0247229999999999,0,sub_10
0.0003789999999997,0.0056394000000011,0.0192624,0.0063600000000004,-0.0315951999999992,-0.0256965999999999,0,sub_10
-0.0005152000000002,0.0071554000000011,0.0179608,-0.0027545999999995,-0.0198383999999992,-0.0274843999999999,0,sub_10
0.0007581999999997,0.0092826000000012,0.0160634,-0.0114673999999995,-0.0136225999999992,-0.0292623999999999,0,sub_10
0.0033483999999997,0.0104664000000012,0.014303,-0.0182723999999995,-0.0078487999999992,-0.0286763999999999,0,sub_10
0.0057063999999997,0.0116064000000011,0.0127748,-0.0197457999999995,-0.0014595999999992,-0.0267719999999999,0,sub_10
0.0063315999999997,0.0112130000000011,0.011913,-0.0199505999999995,0.0059760000000007,-0.0212281999999999,0,sub_10
0.0053753999999997,0.0095306000000011,0.0136084,-0.0222871999999995,0.0157548000000007,-0.0137795999999999,0,sub_10
0.0032289999999997,0.0073298000000011,0.0157354,-0.0242009999999994,0.0238312000000007,-0.0071801999999999,0,sub_10
0.0017827999999997,0.0066788000000011,0.0175746,-0.0231397999999995,0.0272176000000007,-0.0024769999999999,0,sub_10
0.0021979999999997,0.0068138000000011,0.0171662,-0.0231523999999994,0.0284798000000007,0.0015804,0,sub_10
0.0036543999999997,0.0068694000000011,0.0183696,-0.0252907999999994,0.0308172000000007,0.0049808,0,sub_10
0.0040425999999997,0.0069954000000011,0.0198892,-0.0267881999999995,0.0323044000000007,0.0073186,0,sub_10
0.0027859999999997,0.0063150000000011,0.021676,-0.0276435999999995,0.0331544000000007,0.0085934,0,sub_10
0.0006603999999997,0.0046934000000011,0.0225794,-0.0297639999999994,0.0363568000000007,0.0087882,0,sub_10
-0.0023942000000002,0.0041458000000011,0.0238368,-0.0316525999999994,0.0402112000000007,0.0055654,0,sub_10
-0.0053868000000002,0.0050320000000011,0.0240718,-0.0339555999999994,0.0449270000000007,0.0004158,0,sub_10
-0.0064766000000002,0.0056130000000011,0.0246505999999999,-0.0375311999999995,0.0509274000000007,-0.0051715999999999,0,sub_10
-0.0073214000000001,0.0063012000000011,0.0232107999999999,-0.0426001999999995,0.0584184000000007,-0.0092759999999999,0,sub_10
-0.0066354000000001,0.0060200000000012,0.021244,-0.0468377999999995,0.0644014000000007,-0.0099541999999999,0,sub_10
-0.0058814000000001,0.0048722000000012,0.0191276,-0.0523663999999995,0.0735624000000007,-0.0050905999999999,0,sub_10
-0.0053824000000001,0.0020104000000012,0.017495,-0.0604457999999995,0.0865604000000007,0.0014592,0,sub_10
-0.0061156000000001,-0.0010327999999987,0.0171728,-0.0725657999999995,0.1006456000000007,0.0060566,0,sub_10
-0.0066880000000002,-0.0038085999999987,0.0192604,-0.0844725999999995,0.1134568000000007,0.0093754,0,sub_10
-0.0092162000000002,-0.0021505999999987,0.0210676,-0.0942293999999995,0.1296702000000008,0.012491,0,sub_10
-0.0124568000000002,0.0024608000000012,0.0219084,-0.0996983999999995,0.1505552000000008,0.0158442,0,sub_10
-0.0125284000000002,0.0086954000000012,0.0220666,-0.1038805999999995,0.1763224000000008,0.0226186,0,sub_10
-0.0099090000000002,0.0140554000000012,0.0218954,-0.1052859999999995,0.2080240000000008,0.0347458,0,sub_10
-0.0062180000000002,0.0169774000000012,0.0215538,-0.1035107999999995,0.2354526000000008,0.0471143999999999,0,sub_10
-0.0031582000000002,0.0163106000000012,0.0222762,-0.0979351999999995,0.2490388000000007,0.0546136,0,sub_10
0.0015961999999997,0.0149604000000012,0.0218296,-0.0889773999999995,0.2511260000000008,0.0576645999999999,0,sub_10
0.0048199999999997,0.0131078000000012,0.0210862,-0.0736413999999995,0.2455312000000007,0.0582062,0,sub_10
0.0060901999999997,0.0114042000000012,0.0198112,-0.0549211999999995,0.2331076000000008,0.0585666,0,sub_10
0.0046581999999997,0.0105358000000012,0.0197042,-0.0389853999999995,0.2202598000000008,0.0608308,0,sub_10
0.0047621999999997,0.0087344000000012,0.0203306,-0.0290095999999995,0.2116898000000008,0.064116,0,sub_10
0.0034829999999997,0.0059976000000012,0.0213652,-0.0241499999999995,0.2027176000000007,0.0658706,0,sub_10
0.0019483999999997,0.0062584000000012,0.0208432,-0.0246063999999995,0.1935680000000008,0.0633154,0,sub_10
0.0026013999999997,0.0065844000000012,0.019218,-0.0312315999999995,0.1853060000000008,0.0572976,0,sub_10
0.0035495999999997,0.0086214000000012,0.0180238,-0.0380575999999995,0.1768436000000007,0.0482878,0,sub_10
0.0031031999999997,0.0101540000000012,0.0171392,-0.0408333999999995,0.1660294000000007,0.0378138,0,sub_10
0.0027671999999997,0.0101774000000012,0.0162848,-0.0393579999999995,0.1509418000000007,0.026734,0,sub_10
0.0018385999999997,0.0087766000000012,0.0161772,-0.0387515999999995,0.1330852000000007,0.0162924,0,sub_10
-4.780000000020817e-05,0.0056978000000012,0.018266,-0.0383669999999995,0.1143728000000007,0.0069186,0,sub_10
-0.0007040000000002,0.0003130000000012,0.0181778,-0.0390483999999995,0.0973626000000007,-0.0009695999999999,0,sub_10
-0.0008258000000002,-0.0044701999999987,0.0162662,-0.0397269999999995,0.0816282000000007,-0.0082183999999999,0,sub_10
0.0001019999999997,-0.0062813999999987,0.013219,-0.0406131999999995,0.0692948000000008,-0.0133365999999999,0,sub_10
0.0009535999999997,-0.0076027999999987,0.0108552,-0.0421355999999994,0.0601498000000007,-0.0161129999999999,0,sub_10
-0.0007708000000002,-0.0080587999999987,0.0090286,-0.0468623999999995,0.0510126000000007,-0.0180571999999999,0,sub_10
-0.0035902000000002,-0.0074089999999987,0.0076754,-0.0526561999999995,0.0408182000000007,-0.0210755999999999,0,sub_10
-0.0077480000000002,-0.0055293999999987,0.0057708,-0.0588553999999995,0.0348880000000007,-0.0245295999999999,0,sub_10
-0.0125972000000002,-0.0017267999999988,0.0060926,-0.0645991999999995,0.0351358000000007,-0.0282019999999999,0,sub_10
-0.0139432000000002,0.0015486000000011,0.0099742,-0.0692625999999995,0.0409090000000007,-0.0293101999999999,0,sub_10
-0.0131372000000001,0.0074554000000011,0.0145858,-0.0683851999999995,0.0479300000000007,-0.0276037999999999,0,sub_10
-0.0108606000000001,0.0137632000000011,0.0194864,-0.0594215999999995,0.0532054000000007,-0.0226339999999999,0,sub_10
-0.0019282000000001,0.0190078000000011,0.0251252,-0.0417643999999995,0.0499136000000007,-0.0139605999999999,0,sub_10
0.0116753999999998,0.0193542000000012,0.0311666,-0.0228547999999995,0.0423486000000007,-0.0033501999999999,0,sub_10
0.0243153999999997,0.0193608000000012,0.0338694,-0.0012345999999995,0.0211368000000007,0.007724,0,sub_10
0.0344965999999997,0.0169550000000012,0.035821,0.0229030000000004,-0.0120055999999992,0.0164808,0,sub_10
0.0432473999999997,0.0141734000000012,0.03737,0.0399916000000004,-0.0517083999999991,0.020283,0,sub_10
0.0447933999999997,0.0160290000000012,0.0359778,0.0454002000000004,-0.0851667999999992,0.0177998,0,sub_10
0.0415603999999997,0.0214088000000011,0.0317978,0.0486934000000004,-0.1181771999999992,0.0116694,0,sub_10
0.0392275999999997,0.0260102000000011,0.0326432,0.0530764000000004,-0.1492611999999992,0.0023394,0,sub_10
0.0369043999999997,0.0326884000000011,0.0329208,0.0642728000000004,-0.1818669999999992,-0.0052317999999999,0,sub_10
0.0330051999999997,0.0370130000000012,0.0310856,0.0835536000000004,-0.2172809999999992,-0.0101791999999999,0,sub_10
0.0274419999999997,0.0323096000000011,0.0302092,0.1036600000000004,-0.2552691999999992,-0.0114855999999999,0,sub_10
0.0188829999999997,0.0227598000000011,0.0306414,0.1214510000000004,-0.2853697999999992,-0.0119635999999999,0,sub_10
0.0071733999999997,0.0113612000000011,0.029224,0.1343842000000004,-0.3039499999999992,-0.0120629999999999,0,sub_10
-0.0035842000000001,0.0002688000000011,0.0278987999999999,0.1350436000000004,-0.3020253999999992,-0.0144109999999999,0,sub_10
-0.0128868000000001,-0.0068749999999988,0.0281517999999999,0.1270418000000004,-0.2823801999999992,-0.0185513999999999,0,sub_10
-0.0188346000000001,-0.0079041999999987,0.0296962,0.1167438000000004,-0.2516469999999992,-0.0229355999999999,0,sub_10
-0.0196314000000001,-0.0054775999999987,0.031587,0.1019678000000004,-0.2155905999999992,-0.0226577999999999,0,sub_10
-0.0196836000000001,-0.0046493999999987,0.031042,0.0852716000000004,-0.1737979999999992,-0.0166323999999999,0,sub_10
-0.0218126000000001,-0.0074001999999987,0.0298196,0.0666232000000004,-0.1320269999999992,-0.0035701999999999,0,sub_10
-0.0270700000000001,-0.0134819999999987,0.030273,0.0400734000000004,-0.0847169999999992,0.01648,0,sub_10
-0.0346202000000001,-0.0213911999999987,0.0317138,0.0054644000000004,-0.0239665999999992,0.0390204,0,sub_10
-0.0446392000000001,-0.0289883999999987,0.0322238,-0.0314551999999995,0.0417052000000007,0.0583336,0,sub_10
-0.0554192000000001,-0.0301663999999987,0.0309778,-0.0729971999999995,0.1138232000000007,0.0679924,0,sub_10
-0.0623138000000002,-0.0254651999999987,0.0286006,-0.1218883999999994,0.1975318000000007,0.0626298,0,sub_10
-0.0603282000000002,-0.0131541999999987,0.0244206,-0.1586421999999995,0.2633510000000008,0.0449834,0,sub_10
-0.0489498000000001,-0.0004647999999987,0.0225478,-0.1724841999999995,0.2962930000000007,0.024121,0,sub_10
-0.0351562000000001,0.0098066000000012,0.0216344,-0.1655393999999995,0.3012536000000008,0.0030124,0,sub_10
-0.0195770000000002,0.0167500000000012,0.0206572,-0.1408217999999995,0.2756732000000007,-0.0149419999999999,0,sub_10
-0.0007650000000002,0.0164500000000012,0.021354,-0.1002649999999995,0.2223052000000007,-0.0239905999999999,0,sub_10
0.0134285999999997,0.0146376000000012,0.0220704,-0.0627013999999994,0.1763694000000007,-0.0243101999999999,0,sub_10
0.0217687999999997,0.0132818000000012,0.0221862,-0.0408753999999994,0.1432668000000007,-0.0234743999999999,0,sub_10
0.0289139999999997,0.0125066000000012,0.0241718,-0.0339577999999994,0.1166072000000007,-0.0225373999999999,0,sub_10
0.0344625999999997,0.0127156000000012,0.0270782,-0.0327839999999995,0.0942270000000007,-0.0212185999999999,0,sub_10
0.0318669999999997,0.0175436000000012,0.0267704,-0.0299165999999995,0.0680092000000007,-0.0207377999999999,0,sub_10
0.0284033999999997,0.0183694000000012,0.0261162,-0.0219473999999995,0.0362394000000007,-0.0214959999999999,0,sub_10
0.0232527999999997,0.0177588000000012,0.0232658,-0.0033451999999995,-0.0021773999999991,-0.0208895999999999,0,sub_10
0.0153151999999997,0.0145372000000012,0.0198238,0.0246004000000004,-0.0468209999999991,-0.0163641999999999,0,sub_10
0.0057217999999997,0.0113228000000012,0.0156738,0.0495924000000004,-0.0835727999999991,-0.0114423999999999,0,sub_10
-0.0005354000000002,0.0074332000000012,0.0138608,0.0650640000000004,-0.1043031999999992,-0.0087441999999999,0,sub_10
-0.0049536000000002,0.0038614000000012,0.0129252,0.0707722000000004,-0.1147677999999992,-0.0074091999999999,0,sub_10
-0.0085658000000002,0.0011674000000012,0.013431,0.0675696000000004,-0.1139091999999992,-0.0061509999999999,0,sub_10
-0.0102928000000002,0.0024362000000012,0.0127076,0.0546258000000004,-0.0980965999999992,-0.0064755999999999,0,sub_10
-0.0112612000000002,0.0031092000000012,0.0141624,0.0361514000000004,-0.0767319999999992,-0.0051367999999999,0,sub_10
-0.0114432000000002,0.0034046000000012,0.0157658,0.0178934000000004,-0.0536683999999992,-0.0027301999999999,0,sub_10
-0.0124244000000002,0.0024638000000012,0.0176468,0.0045354000000004,-0.0325385999999992,-0.0005005999999999,0,sub_10
-0.0125974000000002,0.0024214000000012,0.0176242,-0.0079701999999995,-0.0141711999999992,-0.0008249999999999,0,sub_10
-0.0119240000000002,0.0030460000000012,0.0180996,-0.0204651999999995,0.0025080000000007,-0.0052065999999999,0,sub_10
-0.0094932000000002,0.0049132000000012,0.0176108,-0.0261321999999995,0.0147070000000007,-0.0140211999999999,0,sub_10
-0.0074802000000002,0.0068354000000012,0.0186114,-0.0254297999999995,0.0187920000000007,-0.0238491999999999,0,sub_10
-0.0039946000000002,0.0092250000000012,0.0188502,-0.0202887999999995,0.0130626000000007,-0.0340607999999999,0,sub_10
0.0009961999999997,0.0095484000000011,0.0193344,-0.0096517999999995,-0.0031299999999992,-0.0431525999999999,0,sub_10
0.0069607999999997,0.0086116000000011,0.0203542,0.0037234000000004,-0.0244565999999992,-0.0494409999999999,0,sub_10
0.0111211999999997,0.0071518000000011,0.0216824,0.0151380000000004,-0.0496319999999992,-0.0506107999999999,0,sub_10
0.0150525999999997,0.0057962000000011,0.0204058,0.0228918000000004,-0.0763099999999992,-0.0458221999999999,0,sub_10
0.0150709999999997,0.0060404000000011,0.019642,0.0285072000000004,-0.0972551999999992,-0.0342193999999999,0,sub_10
0.0123613999999997,0.0074546000000011,0.0195566,0.0301116000000004,-0.1049915999999992,-0.0190293999999999,0,sub_10
0.0081779999999997,0.0077526000000011,0.0197564,0.0306780000000004,-0.1071815999999992,-0.0047085999999999,0,sub_10
0.0055767999999997,0.0074820000000011,0.020339,0.0336126000000004,-0.1080877999999992,0.0062088,0,sub_10
0.0040451999999997,0.0074798000000011,0.0232116,0.0367922000000004,-0.1070565999999992,0.011998,0,sub_10
0.0029057999999997,0.0063682000000012,0.0260706,0.0355166000000004,-0.1045015999999992,0.0134814,0,sub_10
-0.0005724000000002,0.0038986000000012,0.0277754,0.0291452000000004,-0.0993599999999992,0.0119348,0,sub_10
-0.0047290000000001,0.0027156000000012,0.0267806,0.0185476000000004,-0.0880129999999991,0.0073598,0,sub_10
-0.0073358000000001,0.0018850000000012,0.0257252,0.0045868000000004,-0.0666353999999991,0.0014666,0,sub_10
-0.0099722000000001,0.0015620000000012,0.0241852,-0.0087109999999995,-0.0373883999999992,-0.0016547999999999,0,sub_10
-0.0122624000000001,0.0029336000000012,0.0236324,-0.0217769999999995,-0.0028207999999992,-0.0034995999999999,0,sub_10
-0.0124550000000001,0.0051736000000011,0.0239008,-0.0308109999999995,0.0259836000000007,-0.0061633999999999,0,sub_10
-0.0091040000000001,0.0068280000000011,0.0236618,-0.0354131999999995,0.0473020000000007,-0.0053683999999999,0,sub_10
-0.0058170000000001,0.0102674000000011,0.0233528,-0.0387619999999995,0.0664700000000007,-0.0007161999999999,0,sub_10
-0.0033122000000001,0.0119242000000011,0.0245966,-0.0442673999999994,0.0813810000000007,0.004781,0,sub_10
-0.0018234000000002,0.0103320000000011,0.0248688,-0.0455323999999994,0.0881896000000007,0.0081818,0,sub_10
-0.0022478000000002,0.0086542000000012,0.0239144,-0.0402067999999995,0.0885876000000008,0.0105686,0,sub_10
-0.0053402000000002,0.0081920000000012,0.0241556,-0.0344571999999995,0.0877084000000007,0.0123192,0,sub_10
-0.0084914000000002,0.0035550000000012,0.02685,-0.0308433999999995,0.0857740000000007,0.0134152,0,sub_10
-0.0113208000000002,-0.0002579999999987,0.0276424,-0.0263703999999995,0.0832052000000007,0.0125952,0,sub_10
-0.0142094000000002,-0.0020153999999987,0.027261,-0.0246489999999995,0.0825754000000007,0.0087624,0,sub_10
-0.0132588000000002,-0.0015361999999987,0.027503,-0.0320633999999995,0.0883788000000007,0.0025074,0,sub_10
-0.0125516000000002,-0.0023357999999987,0.0297194,-0.0413857999999995,0.0946242000000007,-0.0061115999999999,0,sub_10
-0.0110586000000002,0.0001740000000012,0.0292994,-0.0477407999999995,0.0953240000000007,-0.0157709999999999,0,sub_10
-0.0089994000000002,0.0031950000000012,0.0282222,-0.0483673999999995,0.0896086000000007,-0.0245273999999999,0,sub_10
-0.0042490000000002,0.0062432000000011,0.02766,-0.0464651999999995,0.0813098000000007,-0.0287763999999999,0,sub_10
-0.0009266000000002,0.0070894000000011,0.0273604,-0.0407557999999995,0.0716946000000007,-0.0268013999999999,0,sub_10
0.0033087999999997,0.0089618000000011,0.0256448,-0.0335661999999995,0.0629110000000007,-0.0209715999999999,0,sub_10
0.0056263999999997,0.0097194000000011,0.0242632,-0.0285057999999995,0.0556246000000007,-0.0147311999999999,0,sub_10
0.0071589999999997,0.0096262000000011,0.023266,-0.0253473999999995,0.0517564000000007,-0.0091493999999999,0,sub_10
0.0066435999999997,0.0093682000000011,0.0211094,-0.0185635999999995,0.0455396000000007,-0.0054619999999999,0,sub_10
0.0066709999999997,0.0098456000000011,0.0191186,-0.0096413999999995,0.0391072000000007,-0.0030411999999999,0,sub_10
0.0058969999999997,0.0096950000000011,0.0183734,-0.0039081999999995,0.0358794000000008,-5.999999999966796e-06,0,sub_10
0.0036935999999997,0.0091702000000011,0.0195592,0.0033100000000004,0.0311532000000007,0.0034688,0,sub_10
0.0010709999999997,0.0071782000000011,0.0198632,0.0113730000000004,0.0219602000000007,0.0043914,0,sub_10
0.0013615999999997,0.0056284000000011,0.020492,0.0160510000000004,0.0178972000000007,0.0040022,0,sub_10
0.0017129999999997,0.0056752000000011,0.0213302,0.0160684000000004,0.0230050000000007,0.0052778,0,sub_10
0.0014723999999997,0.0056030000000011,0.0234138,0.0120346000000004,0.0302516000000007,0.008018,0,sub_10
0.0026105999999997,0.0049874000000011,0.0248832,0.0069234000000004,0.0345218000000007,0.0101134,0,sub_10
0.0024327999999997,0.0055742000000011,0.0261378,0.0015892000000005,0.0366620000000007,0.01221,0,sub_10
0.0019877999999997,0.0056406000000011,0.025979,-0.0033231999999994,0.0385846000000007,0.0151642,0,sub_10
0.0013221999999997,0.0050136000000012,0.0261928,-0.0075839999999994,0.0422130000000007,0.0172662,0,sub_10
0.0009995999999997,0.0041078000000012,0.0254392,-0.0086431999999994,0.0447700000000007,0.0181102,0,sub_10
0.0002627999999997,0.0042218000000011,0.0241294,-0.0092737999999995,0.0479638000000007,0.01917,0,sub_10
0.0007135999999997,0.0050474000000011,0.0228888,-0.0107539999999995,0.0518006000000007,0.0200094,0,sub_10
0.0002193999999997,0.0061558000000011,0.0239656,-0.0120313999999995,0.0518078000000007,0.0193596,0,sub_10
0.0006757999999997,0.0074328000000011,0.023874,-0.0107673999999995,0.0445740000000007,0.0157458,0,sub_10
0.0010997999999998,0.0093616000000011,0.0224902,-0.0065163999999995,0.0356320000000007,0.0104458,0,sub_10
0.0020205999999998,0.0093416000000012,0.0224668,-0.0020555999999995,0.0256250000000007,0.004935,0,sub_10
0.0022775999999998,0.0077542000000012,0.023316,0.0036844000000004,0.0162494000000007,0.000287,0,sub_10
0.0021077999999997,0.0067906000000011,0.0224612,0.0085776000000004,0.0085802000000007,-0.0041555999999999,0,sub_10
0.0010371999999997,0.0064422000000011,0.0225444,0.0115438000000004,0.0004874000000008,-0.0075427999999999,0,sub_10
0.0020321999999997,0.0063596000000011,0.0242028,0.0149262000000004,-0.0091015999999991,-0.0100705999999999,0,sub_10
0.0021547999999997,0.0066206000000011,0.0233578,0.0198020000000004,-0.0182715999999991,-0.0121611999999999,0,sub_10
0.0045289999999997,0.0085264000000011,0.0225634,0.0242396000000004,-0.0302089999999991,-0.0144649999999999,0,sub_10
0.0051005999999997,0.0085254000000011,0.0232234,0.0286590000000004,-0.0461943999999991,-0.0167637999999999,0,sub_10
0.0048877999999997,0.0077190000000011,0.0235556,0.0328622000000004,-0.0621813999999991,-0.0184231999999999,0,sub_10
0.0019369999999997,0.0062490000000011,0.0241136,0.0353756000000004,-0.0745397999999992,-0.0203125999999999,0,sub_10
-0.0014322000000001,0.0052150000000011,0.0260918,0.0381178000000004,-0.0830655999999992,-0.0217779999999999,0,sub_10
-0.0075130000000001,0.0041428000000011,0.027614,0.0417338000000004,-0.0858469999999991,-0.0219627999999999,0,sub_10
-0.0113846000000001,0.0043362000000012,0.0292888,0.0447432000000004,-0.0798961999999992,-0.0208811999999999,0,sub_10
-0.0117762000000001,0.0038478000000012,0.0298238,0.0447718000000004,-0.0718071999999992,-0.0191821999999999,0,sub_10
-0.0092856000000002,0.0033856000000012,0.0293308,0.0449968000000004,-0.0671291999999992,-0.0170501999999999,0,sub_10
-0.0080188000000002,0.0015388000000012,0.0285642,0.0418164000000004,-0.0637049999999992,-0.0181449999999999,0,sub_10
-0.0053896000000002,3.980000000121768e-05,0.0275888,0.0367338000000004,-0.0596211999999992,-0.0226723999999999,0,sub_10
-0.0038936000000002,-0.0002137999999987,0.0262782,0.0303814000000004,-0.0544623999999992,-0.0284915999999999,0,sub_10
-0.0028340000000002,0.0033156000000012,0.025545,0.0255296000000004,-0.0463321999999992,-0.0328087999999999,0,sub_10
-0.0027326000000002,0.0068196000000011,0.0258804,0.0189620000000004,-0.0352329999999992,-0.0322279999999999,0,sub_10
-0.0027498000000002,0.0099958000000011,0.0277582,0.0134210000000004,-0.0250219999999992,-0.0235203999999999,0,sub_10
-0.0030938000000002,0.0115750000000012,0.0287924,0.0136016000000004,-0.0199589999999992,-0.0111341999999999,0,sub_10
-0.0006614000000002,0.0111434000000012,0.0268848,0.0186584000000004,-0.0221559999999992,0.0010816,0,sub_10
0.0001209999999997,0.0065672000000012,0.0255942,0.0245724000000004,-0.0264743999999992,0.0103152,0,sub_10
