userAcceleration.x,userAcceleration.y,userAcceleration.z,rotationRate.x,rotationRate.y,rotationRate.z,label,subject
0.0168817999999997,0.0251358000000012,0.0209479999999999,0.0391698000000004,0.0420430000000007,3.199999999998759e-05,0,sub_16
0.0206803999999997,0.0229108000000012,0.0225909999999999,0.0583452000000004,0.0241788000000007,0.0287369999999999,0,sub_16
0.0223493999999997,0.0156896000000012,0.0262755999999999,0.0734752000000004,0.0014560000000007,0.0505831999999999,0,sub_16
0.0225073999999997,0.0065338000000012,0.0293323999999999,0.0803364000000005,-0.0201299999999992,0.0616881999999999,0,sub_16
0.0211383999999997,-0.0008883999999986,0.0286761999999999,0.0753138000000005,-0.0386453999999992,0.0611694,0,sub_16
0.0190307999999997,-0.0053457999999986,0.0288325999999999,0.0614100000000005,-0.0534815999999992,0.0538273999999999,0,sub_16
0.0185115999999997,-0.0045261999999986,0.0264689999999999,0.0390000000000004,-0.0646549999999992,0.0436439999999999,0,sub_16
0.0181415999999997,-0.0018423999999987,0.0229493999999999,0.0153252000000004,-0.0726273999999992,0.0332339999999999,0,sub_16
0.0187161999999997,0.0034260000000012,0.0187075999999999,-0.0042963999999995,-0.0784927999999992,0.0251995999999999,0,sub_16
0.0170531999999997,0.0069792000000012,0.0189831999999999,-0.0175311999999995,-0.0831199999999992,0.0216947999999999,0,sub_16
0.0153113999999997,0.0111464000000012,0.0206401999999999,-0.0237399999999995,-0.0873611999999992,0.0220839999999999,0,sub_16
0.0112403999999997,0.0126416000000012,0.0236413999999999,-0.0250401999999995,-0.0911941999999992,0.0227205999999999,0,sub_16
0.0079575999999997,0.0118232000000012,0.0267339999999999,-0.0252649999999995,-0.0965085999999992,0.0199483999999999,0,sub_16
0.0057055999999997,0.0098100000000012,0.0300235999999999,-0.0273987999999995,-0.1018061999999992,0.0145991999999999,0,sub_16
0.0067175999999997,0.0081248000000012,0.0314037999999999,-0.0314307999999995,-0.1043189999999992,0.0070965999999999,0,sub_16
0.0089955999999997,0.0059652000000012,0.0302605999999999,-0.0343815999999994,-0.1036395999999992,-0.0004024,0,sub_16
0.0123333999999997,0.0067390000000012,0.0284627999999999,-0.0349823999999994,-0.0985095999999992,-0.004045,0,sub_16
0.0144009999999997,0.0098428000000012,0.0262365999999999,-0.0347373999999994,-0.0902063999999992,-0.0027719999999999,0,sub_16
0.0145749999999997,0.0134236000000012,0.0251039999999999,-0.0351573999999994,-0.0853181999999992,0.0006369999999999,0,sub_16
0.0124559999999997,0.0157602000000012,0.0240109999999999,-0.0358271999999994,-0.0887375999999992,0.0038413999999999,0,sub_16
0.0082503999999997,0.0170332000000012,0.0234073999999999,-0.0369371999999994,-0.0955625999999992,0.0066197999999999,0,sub_16
0.0020943999999997,0.0171522000000012,0.0244433999999999,-0.0391217999999994,-0.1047249999999992,0.0087525999999999,0,sub_16
-0.0055422000000002,0.0183996000000012,0.0277839999999999,-0.0410977999999994,-0.1147411999999992,0.0111015999999999,0,sub_16
-0.0135410000000002,0.0196198000000012,0.0306333999999999,-0.0402815999999994,-0.1207191999999992,0.0134649999999999,0,sub_16
-0.0191318000000002,0.0227520000000012,0.0338591999999999,-0.0349539999999994,-0.1203193999999992,0.0154245999999999,0,sub_16
-0.0214026000000002,0.0243036000000012,0.0379977999999999,-0.0276733999999994,-0.1165021999999992,0.0135477999999999,0,sub_16
-0.0215196000000002,0.0246584000000012,0.0402113999999999,-0.0239769999999995,-0.1086019999999992,0.0060859999999999,0,sub_16
-0.0195198000000002,0.0223896000000012,0.0398639999999999,-0.0253593999999995,-0.0976755999999992,-0.0078244,0,sub_16
-0.0168734000000002,0.0195870000000012,0.0369175999999999,-0.0311977999999994,-0.0856503999999991,-0.0262539999999999,0,sub_16
-0.0145346000000002,0.0160654000000012,0.0340589999999999,-0.0415083999999994,-0.0731773999999992,-0.0462109999999999,0,sub_16
-0.0135714000000002,0.0145114000000012,0.0314299999999999,-0.0556787999999994,-0.0609203999999991,-0.0621353999999999,0,sub_16
-0.0119330000000002,0.0136562000000012,0.0318413999999999,-0.0675299999999994,-0.0493329999999992,-0.0724879999999999,0,sub_16
-0.0107408000000002,0.0145956000000012,0.0330923999999999,-0.0745003999999994,-0.0371499999999992,-0.0761844,0,sub_16
-0.0089156000000002,0.0156798000000012,0.0365957999999999,-0.0768033999999995,-0.0245827999999992,-0.0734392,0,sub_16
-0.0114988000000002,0.0170350000000012,0.0404147999999999,-0.0735767999999994,-0.0105657999999992,-0.0651024,0,sub_16
-0.0157228000000002,0.0186504000000012,0.0438921999999999,-0.0669335999999995,0.0076860000000007,-0.0531154,0,sub_16
-0.0218660000000002,0.0202594000000012,0.0451981999999999,-0.0560169999999994,0.0280500000000007,-0.0402466,0,sub_16
-0.0271750000000002,0.0217062000000012,0.0465211999999999,-0.0397517999999995,0.0505300000000007,-0.0284112,0,sub_16
-0.0319224000000002,0.0238832000000012,0.0462387999999999,-0.0189779999999995,0.0755656000000007,-0.0201796,0,sub_16
-0.0323208000000002,0.0244946000000012,0.0451555999999999,0.0009720000000004,0.1025404000000007,-0.0166566,0,sub_16
-0.0272274000000002,0.0236568000000012,0.0427505999999999,0.0190276000000004,0.1286960000000007,-0.0197686,0,sub_16
-0.0206680000000002,0.0219166000000012,0.0404451999999999,0.0311232000000004,0.1536122000000007,-0.0274072,0,sub_16
-0.0147598000000002,0.0184618000000012,0.0376667999999999,0.0346782000000004,0.1749458000000007,-0.037451,0,sub_16
-0.0096592000000002,0.0150786000000012,0.0358581999999999,0.0301030000000004,0.1918318000000007,-0.0471186,0,sub_16
-0.0045338000000002,0.0132800000000012,0.0340277999999999,0.0205914000000005,0.2046774000000007,-0.0544653999999999,0,sub_16
-0.0046296000000002,0.0116378000000012,0.0343259999999999,0.0101860000000005,0.2121854000000007,-0.0581795999999999,0,sub_16
-0.0046178000000002,0.0108840000000012,0.0351385999999999,0.0012416000000005,0.2162638000000007,-0.0580335999999999,0,sub_16
-0.0045948000000002,0.0121064000000012,0.0360745999999999,-0.0047299999999994,0.2203190000000007,-0.0546621999999999,0,sub_16
-0.0035932000000002,0.0137568000000012,0.0369215999999999,-0.0081507999999994,0.2247812000000007,-0.0487097999999999,0,sub_16
-0.0024200000000002,0.0144398000000012,0.0375609999999999,-0.0064477999999995,0.2300768000000007,-0.0425089999999999,0,sub_16
-0.0004602000000002,0.0158356000000012,0.0368835999999999,0.0006022000000004,0.2385478000000007,-0.0358475999999999,0,sub_16
0.0004057999999997,0.0163084000000012,0.0352727999999999,0.0121564000000004,0.2493476000000007,-0.0293605999999999,0,sub_16
0.0007879999999997,0.0162354000000012,0.0340535999999999,0.0284012000000004,0.2594910000000007,-0.0226263999999999,0,sub_16
0.0004459999999997,0.0153656000000012,0.0334365999999999,0.0469864000000004,0.2679226000000007,-0.0160873999999999,0,sub_16
0.0003395999999997,0.0143964000000012,0.0324433999999999,0.0651324000000004,0.2737982000000006,-0.0093344,0,sub_16
0.0018033999999997,0.0128984000000012,0.0322557999999999,0.0817808000000004,0.2779780000000007,-0.0034444,0,sub_16
0.0039289999999997,0.0096926000000012,0.0327375999999999,0.0941460000000004,0.2811084000000007,0.0021925999999999,0,sub_16
0.0060779999999997,0.0072468000000012,0.0331897999999999,0.0977550000000004,0.2821404000000008,0.0073437999999999,0,sub_16
0.0088387999999997,0.0074670000000012,0.0332953999999999,0.0943170000000004,0.2812822000000007,0.0118073999999999,0,sub_16
0.0111743999999997,0.0077926000000012,0.0343555999999999,0.0836206000000004,0.2781118000000008,0.0147275999999999,0,sub_16
0.0126649999999997,0.0079590000000012,0.0347827999999999,0.0669364000000004,0.2702820000000007,0.0159029999999999,0,sub_16
0.0137527999999997,0.0092814000000012,0.0336551999999999,0.0493900000000004,0.2579912000000007,0.0145143999999999,0,sub_16
0.0137851999999997,0.0101858000000012,0.0333029999999999,0.0352644000000004,0.2435724000000007,0.0095203999999999,0,sub_16
0.0127629999999997,0.0093040000000012,0.0336835999999999,0.0245584000000004,0.2276614000000007,0.0017747999999999,0,sub_16
0.0109231999999997,0.0083060000000012,0.0334409999999999,0.0179102000000004,0.2106786000000007,-0.0078638,0,sub_16
0.0073101999999997,0.0079642000000012,0.0339151999999999,0.0138350000000004,0.1958198000000007,-0.0181282,0,sub_16
0.0033537999999997,0.0108590000000012,0.0349243999999999,0.0067822000000004,0.1837388000000007,-0.027776,0,sub_16
0.0032567999999997,0.0120504000000012,0.0352761999999999,-0.0036893999999995,0.1708168000000007,-0.0372328,0,sub_16
0.0038621999999997,0.0116198000000012,0.0355099999999999,-0.0160687999999995,0.1600344000000007,-0.0473466,0,sub_16
0.0032249999999997,0.0105678000000012,0.0368775999999999,-0.0293045999999995,0.1490404000000007,-0.057039,0,sub_16
0.0035485999999997,0.0099628000000012,0.0377829999999999,-0.0436129999999995,0.1371962000000007,-0.0663104,0,sub_16
0.0044963999999997,0.0068956000000012,0.0390137999999999,-0.0543037999999995,0.1244818000000007,-0.0742736,0,sub_16
0.0036351999999997,0.0072848000000012,0.0400123999999999,-0.0600879999999995,0.1153568000000007,-0.0783616,0,sub_16
0.0017993999999997,0.0080696000000012,0.0406379999999999,-0.0633307999999994,0.1057814000000007,-0.0785856,0,sub_16
0.0017899999999997,0.0095370000000012,0.0401625999999999,-0.0642293999999995,0.0976806000000007,-0.0766586,0,sub_16
0.0026027999999997,0.0103664000000012,0.0400309999999999,-0.0649097999999995,0.0908566000000007,-0.0745182,0,sub_16
0.0032893999999997,0.0127580000000012,0.0395799999999999,-0.0677305999999995,0.0827608000000007,-0.0721774,0,sub_16
0.0040591999999997,0.0137136000000012,0.0383203999999999,-0.0726907999999994,0.0736064000000007,-0.0696366,0,sub_16
0.0052271999999997,0.0143510000000012,0.0383733999999999,-0.0748763999999994,0.0648676000000007,-0.0668634,0,sub_16
0.0063015999999997,0.0134866000000012,0.0383825999999999,-0.0742869999999994,0.0571810000000007,-0.0632175999999999,0,sub_16
0.0066311999999997,0.0127858000000012,0.0380193999999999,-0.0694465999999994,0.0494650000000007,-0.0559099999999999,0,sub_16
0.0075235999999997,0.0116290000000012,0.0379677999999999,-0.0611969999999994,0.0434304000000007,-0.0458033999999999,0,sub_16
0.0092667999999997,0.0102948000000012,0.0389131999999999,-0.0488923999999995,0.0384434000000007,-0.0348151999999999,0,sub_16
0.0104145999999997,0.0111924000000012,0.0394133999999999,-0.0367971999999995,0.0357948000000007,-0.022336,0,sub_16
0.0106825999999997,0.0129814000000012,0.0403815999999999,-0.0264109999999995,0.0335748000000007,-0.0090146,0,sub_16
0.0101065999999997,0.0128744000000012,0.0414027999999999,-0.0198635999999994,0.0292480000000007,0.0017187999999999,0,sub_16
0.0087341999999997,0.0115164000000012,0.0420783999999999,-0.0162947999999994,0.0245150000000007,0.0100817999999999,0,sub_16
0.0072761999999997,0.0121936000000012,0.0422757999999999,-0.0171979999999994,0.0195932000000007,0.0162773999999999,0,sub_16
0.0056943999999997,0.0115296000000012,0.0415119999999999,-0.0198005999999994,0.0136230000000007,0.0196851999999999,0,sub_16
0.0035665999999997,0.0102150000000012,0.0411141999999999,-0.0226069999999994,0.0072378000000007,0.0205283999999999,0,sub_16
0.0028683999999997,0.0109616000000012,0.0422849999999999,-0.0234891999999995,0.0010614000000007,0.0207437999999999,0,sub_16
0.0025583999999997,0.0121224000000012,0.0444457999999999,-0.0228699999999995,-0.0046889999999992,0.0196873999999999,0,sub_16
-0.0006794000000002,0.0110306000000012,0.0463137999999999,-0.0218213999999995,-0.0100139999999992,0.0184197999999999,0,sub_16
-0.0034242000000002,0.0110178000000012,0.0480941999999999,-0.0209909999999995,-0.0161911999999992,0.0173653999999999,0,sub_16
-0.0044622000000002,0.0120918000000012,0.0495657999999999,-0.0208045999999994,-0.0221573999999992,0.0173743999999999,0,sub_16
-0.0055116000000002,0.0126664000000012,0.0499107999999999,-0.0197529999999994,-0.0238723999999992,0.0190931999999999,0,sub_16
-0.0056414000000002,0.0140204000000012,0.0489353999999999,-0.0184785999999994,-0.0240941999999992,0.0201705999999999,0,sub_16
-0.0040352000000002,0.0150616000000012,0.0479107999999999,-0.0174127999999994,-0.0255841999999992,0.0188979999999999,0,sub_16
-0.0015572000000002,0.0146812000000012,0.0469177999999999,-0.0182613999999994,-0.0285477999999992,0.0148365999999999,0,sub_16
2.959999999975369e-05,0.0137108000000012,0.0457937999999999,-0.0212311999999995,-0.0319171999999992,0.0075562,0,sub_16
0.0012357999999997,0.0126466000000012,0.0453069999999999,-0.0265491999999995,-0.0384623999999992,-0.0027275999999999,0,sub_16
0.0015173999999997,0.0108586000000012,0.0456883999999999,-0.0335789999999994,-0.0469155999999992,-0.0138753999999999,0,sub_16
0.0009817999999997,0.0088870000000012,0.0465285999999999,-0.0412395999999994,-0.0553667999999992,-0.0245909999999999,0,sub_16
-0.0006440000000002,0.0080364000000012,0.0478185999999999,-0.0488973999999994,-0.0629665999999992,-0.0350939999999999,0,sub_16
-0.0022060000000002,0.0087318000000012,0.0492665999999999,-0.0563447999999994,-0.0695087999999992,-0.0438877999999999,0,sub_16
-0.0026758000000002,0.0124606000000012,0.0505271999999999,-0.0637939999999994,-0.0743549999999992,-0.0505471999999999,0,sub_16
-0.0046202000000002,0.0151054000000012,0.0512791999999999,-0.0680473999999995,-0.0779435999999992,-0.0548359999999999,0,sub_16
-0.0058208000000002,0.0174478000000012,0.0512331999999999,-0.0674033999999994,-0.0790033999999992,-0.0567529999999999,0,sub_16
-0.0060906000000002,0.0193840000000012,0.0503899999999999,-0.0620603999999994,-0.0749825999999992,-0.0545843999999999,0,sub_16
-0.0057720000000002,0.0212296000000012,0.0487999999999999,-0.0513781999999994,-0.0660955999999992,-0.0485392,0,sub_16
-0.0066362000000002,0.0213348000000012,0.0474737999999999,-0.0364249999999994,-0.0529759999999992,-0.0390512,0,sub_16
-0.0069048000000002,0.0207088000000012,0.0463025999999999,-0.0203971999999994,-0.0370945999999992,-0.028491,0,sub_16
-0.0082120000000002,0.0183064000000012,0.0481995999999999,-0.0062945999999994,-0.0218475999999992,-0.017516,0,sub_16
-0.0098508000000002,0.0156978000000012,0.0507107999999999,0.0052390000000005,-0.0085089999999992,-0.0065568,0,sub_16
-0.0111852000000002,0.0146146000000012,0.0524231999999999,0.0125012000000004,0.0031436000000007,0.0035203999999999,0,sub_16
-0.0125150000000002,0.0137692000000012,0.0529981999999999,0.0189102000000004,0.0135258000000007,0.0123111999999999,0,sub_16
-0.0134454000000002,0.0154032000000012,0.0536397999999999,0.0257498000000004,0.0232734000000007,0.0196103999999999,0,sub_16
-0.0134796000000002,0.0180026000000012,0.0534367999999999,0.0334572000000004,0.0336674000000007,0.0243509999999999,0,sub_16
-0.0139650000000002,0.0187016000000012,0.0511695999999999,0.0405482000000004,0.0447216000000007,0.0243863999999999,0,sub_16
-0.0142404000000002,0.0181094000000012,0.0496889999999999,0.0459574000000004,0.0551672000000007,0.0182149999999999,0,sub_16
-0.0140622000000002,0.0167170000000012,0.0484985999999999,0.0471124000000004,0.0639422000000007,0.0073159999999999,0,sub_16
-0.0135710000000002,0.0128342000000012,0.0492659999999999,0.0457136000000004,0.0718832000000007,-0.0059498,0,sub_16
-0.0126202000000002,0.0087312000000012,0.0492623999999999,0.0396226000000004,0.0794180000000007,-0.0201025999999999,0,sub_16
-0.0121732000000002,0.0055428000000012,0.0517069999999999,0.0286156000000004,0.0842036000000007,-0.0351405999999999,0,sub_16
-0.0123394000000002,0.0025304000000012,0.0535239999999999,0.0148192000000004,0.0864388000000007,-0.0493401999999999,0,sub_16
-0.0125920000000002,0.0005900000000012,0.0541135999999999,-0.0002545999999994,0.0903786000000007,-0.0624827999999999,0,sub_16
-0.0120320000000002,0.0028064000000012,0.0518549999999999,-0.0153225999999994,0.0970822000000007,-0.0741336,0,sub_16
-0.0142360000000002,0.0059294000000012,0.0494389999999999,-0.0256953999999994,0.1039824000000007,-0.0857516,0,sub_16
-0.0150150000000002,0.0090702000000012,0.0478943999999999,-0.0307453999999994,0.1091562000000007,-0.0964758,0,sub_16
-0.0153246000000002,0.0102274000000012,0.0477339999999999,-0.0336683999999994,0.1145288000000007,-0.1054762,0,sub_16
-0.0162330000000002,0.0107830000000012,0.0474313999999999,-0.0351005999999994,0.1207424000000007,-0.1129718,0,sub_16
-0.0172666000000002,0.0103704000000012,0.0472335999999999,-0.0354831999999994,0.1267246000000007,-0.1168275999999999,0,sub_16
-0.0147082000000002,0.0137406000000012,0.0457149999999999,-0.0337407999999994,0.1358748000000007,-0.1155453999999999,0,sub_16
-0.0114052000000002,0.0183868000000012,0.0429853999999999,-0.0268765999999995,0.1517982000000007,-0.1076129999999999,0,sub_16
-0.0070844000000002,0.0226576000000012,0.0390939999999999,-0.0131843999999995,0.1727906000000007,-0.0945119999999999,0,sub_16
-0.0012672000000002,0.0248186000000012,0.0359847999999999,0.0041190000000004,0.1931194000000007,-0.0783937999999999,0,sub_16
0.0038797999999997,0.0251990000000012,0.0333377999999999,0.0214098000000004,0.2098298000000007,-0.0631257999999999,0,sub_16
0.0081265999999997,0.0225438000000012,0.0314657999999999,0.0365450000000004,0.2212230000000007,-0.0482931999999999,0,sub_16
0.0109643999999997,0.0185850000000012,0.0294219999999999,0.0493100000000004,0.2272990000000007,-0.0336839999999999,0,sub_16
0.0124317999999997,0.0162562000000012,0.0282701999999999,0.0609794000000004,0.2282602000000007,-0.0177939999999999,0,sub_16
0.0129113999999997,0.0143910000000012,0.0272181999999999,0.0724152000000004,0.2264456000000007,-0.0001929999999999,0,sub_16
0.0129001999999997,0.0127958000000012,0.0266709999999999,0.0842682000000004,0.2227112000000007,0.0176272,0,sub_16
0.0122037999999997,0.0116474000000012,0.0272863999999999,0.0935654000000004,0.2175046000000007,0.0328676,0,sub_16
0.0104413999999997,0.0108682000000012,0.0289553999999999,0.0981810000000004,0.2093546000000007,0.0423105999999999,0,sub_16
0.0071129999999997,0.0091586000000012,0.0311773999999999,0.0968366000000004,0.1969944000000007,0.0442397999999999,0,sub_16
0.0038883999999997,0.0079050000000012,0.0338395999999999,0.0897426000000004,0.1804204000000007,0.0392975999999999,0,sub_16
0.0020341999999997,0.0073258000000012,0.0358397999999999,0.0781812000000004,0.1638740000000008,0.0313331999999999,0,sub_16
0.0008279999999997,0.0065058000000012,0.0356823999999999,0.0670572000000005,0.1509430000000007,0.0246491999999999,0,sub_16
0.0016747999999997,0.0068910000000012,0.0343475999999999,0.0589232000000004,0.1422482000000007,0.0216125999999999,0,sub_16
0.0039651999999997,0.0076010000000012,0.0332925999999999,0.0552756000000004,0.1379990000000007,0.0218061999999999,0,sub_16
0.0056841999999997,0.0080758000000012,0.0324763999999999,0.0556812000000005,0.1354324000000007,0.0239487999999999,0,sub_16
0.0067307999999997,0.0069420000000012,0.0327945999999999,0.0565098000000004,0.1307388000000007,0.0248151999999999,0,sub_16
0.0077111999999997,0.0058452000000012,0.0346575999999999,0.0543414000000005,0.1194688000000007,0.0211823999999999,0,sub_16
0.0082761999999997,0.0038746000000012,0.0364193999999999,0.0474804000000004,0.1026890000000007,0.0141155999999999,0,sub_16
0.0091611999999997,0.0032710000000012,0.0356241999999999,0.0365510000000004,0.0825156000000007,0.0068111999999999,0,sub_16
0.0101847999999997,0.0034126000000012,0.0349801999999999,0.0234802000000004,0.0621306000000007,0.0009875999999999,0,sub_16
0.0095857999999997,0.0047578000000012,0.0338235999999999,0.0112542000000004,0.0427960000000007,-0.0018406,0,sub_16
0.0083981999999997,0.0080460000000012,0.0323881999999999,0.0003104000000004,0.0260050000000007,-0.0025264,0,sub_16
0.0071659999999997,0.0120860000000012,0.0312781999999999,-0.0080763999999995,0.0104856000000007,-0.0036334,0,sub_16
0.0046531999999997,0.0148676000000012,0.0306447999999999,-0.0136777999999995,-0.0041845999999992,-0.0064312,0,sub_16
0.0022799999999997,0.0162680000000012,0.0288451999999999,-0.0162949999999994,-0.0190799999999992,-0.0087804,0,sub_16
0.0020029999999997,0.0172372000000012,0.0269419999999999,-0.0150857999999994,-0.0331527999999992,-0.0070448,0,sub_16
0.0015691999999997,0.0151916000000012,0.0262039999999999,-0.0096263999999994,-0.0449215999999992,0.0009131999999999,0,sub_16
-0.0006326000000002,0.0121778000000012,0.0268933999999999,-0.0022589999999994,-0.0539495999999992,0.0144357999999999,0,sub_16
-0.0030584000000002,0.0097994000000012,0.0299725999999999,0.0046720000000005,-0.0621359999999992,0.0309453999999999,0,sub_16
-0.0044394000000002,0.0087476000000012,0.0343513999999999,0.0099152000000005,-0.0686015999999992,0.0448769999999999,0,sub_16
-0.0057164000000002,0.0083986000000012,0.0383643999999999,0.0117848000000004,-0.0735341999999992,0.0513057999999999,0,sub_16
-0.0063024000000002,0.0087094000000012,0.0401593999999999,0.0083680000000004,-0.0769199999999992,0.0485089999999999,0,sub_16
-0.0052120000000002,0.0092976000000012,0.0399671999999999,0.0011516000000004,-0.0787703999999992,0.0379923999999999,0,sub_16
-0.0044018000000002,0.0086608000000012,0.0380787999999999,-0.0083733999999994,-0.0771831999999992,0.0223277999999999,0,sub_16
-0.0047684000000002,0.0073874000000012,0.0362575999999999,-0.0185231999999994,-0.0732459999999992,0.0055876,0,sub_16
-0.0062016000000002,0.0063894000000012,0.0346513999999999,-0.0282491999999994,-0.0676151999999992,-0.0088017999999999,0,sub_16
-0.0067162000000002,0.0081220000000012,0.0349467999999999,-0.0354453999999994,-0.0639305999999992,-0.0182571999999999,0,sub_16
-0.0072724000000002,0.0105084000000012,0.0358283999999999,-0.0401231999999994,-0.0645363999999992,-0.0225619999999999,0,sub_16
-0.0063056000000002,0.0141366000000012,0.0368751999999999,-0.0429285999999995,-0.0711329999999992,-0.0221457999999999,0,sub_16
-0.0051446000000002,0.0172118000000012,0.0385257999999999,-0.0442749999999995,-0.0820095999999992,-0.0182955999999999,0,sub_16
-0.0036040000000002,0.0194360000000012,0.0403321999999999,-0.0441391999999995,-0.0933259999999992,-0.0122979999999999,0,sub_16
-0.0047798000000002,0.0177254000000012,0.0410845999999999,-0.0424963999999995,-0.0995427999999992,-0.0041601999999999,0,sub_16
-0.0065164000000002,0.0156404000000012,0.0415047999999999,-0.0386901999999995,-0.0974647999999992,0.0056914,0,sub_16
-0.0086808000000002,0.0137266000000012,0.0415263999999999,-0.0327139999999995,-0.0866617999999992,0.0161877999999999,0,sub_16
-0.0102906000000002,0.0130132000000012,0.0397987999999999,-0.0267039999999995,-0.0694627999999992,0.0256081999999999,0,sub_16
-0.0119484000000002,0.0126540000000012,0.0382599999999999,-0.0213093999999995,-0.0503295999999992,0.0313897999999999,0,sub_16
-0.0121102000000002,0.0132218000000012,0.0361847999999999,-0.0176119999999995,-0.0339405999999992,0.0322491999999999,0,sub_16
-0.0119198000000002,0.0128716000000012,0.0353015999999999,-0.0164683999999995,-0.0207197999999992,0.0283947999999999,0,sub_16
-0.0113616000000002,0.0129504000000012,0.0353641999999999,-0.0180947999999995,-0.0110931999999992,0.0200389999999999,0,sub_16
-0.0116602000000002,0.0128750000000012,0.0361209999999999,-0.0207977999999995,-0.0044421999999992,0.0108247999999999,0,sub_16
-0.0121488000000002,0.0140204000000012,0.0379061999999999,-0.0239465999999994,-0.0003531999999992,0.0033199999999999,0,sub_16
-0.0129074000000002,0.0147336000000012,0.0413469999999999,-0.0264467999999994,0.0077730000000007,-0.0020488,0,sub_16
-0.0139988000000002,0.0158410000000012,0.0431611999999999,-0.0267939999999994,0.0212140000000007,-0.0063414,0,sub_16
-0.0150452000000002,0.0154504000000012,0.0430807999999999,-0.0245701999999994,0.0384750000000007,-0.0091254,0,sub_16
-0.0152316000000002,0.0149998000000012,0.0421583999999999,-0.0202029999999994,0.0574346000000007,-0.0123238,0,sub_16
-0.0139656000000002,0.0135346000000012,0.0403507999999999,-0.0147659999999994,0.0766052000000007,-0.0159424,0,sub_16
-0.0110936000000002,0.0134556000000012,0.0377357999999999,-0.0091329999999994,0.0917280000000007,-0.0197682,0,sub_16
-0.0069088000000002,0.0134708000000012,0.0360441999999999,-0.0050243999999994,0.1004626000000007,-0.023169,0,sub_16
-0.0023864000000002,0.0127864000000012,0.0367673999999999,-0.0020131999999995,0.1036564000000007,-0.0252885999999999,0,sub_16
0.0015557999999997,0.0111024000000012,0.0387875999999999,-0.0024427999999995,0.1004722000000007,-0.0278513999999999,0,sub_16
0.0045343999999997,0.0092172000000012,0.0407051999999999,-0.0056731999999995,0.0921812000000007,-0.0295723999999999,0,sub_16
0.0069151999999997,0.0068524000000012,0.0425593999999999,-0.0108429999999994,0.0798480000000007,-0.0310881999999999,0,sub_16
0.0089679999999997,0.0046818000000012,0.0435351999999999,-0.0160241999999994,0.0655948000000007,-0.0319607999999999,0,sub_16
0.0106213999999997,0.0046576000000012,0.0438539999999999,-0.0218647999999994,0.0475072000000007,-0.0324056,0,sub_16
