userAcceleration.x,userAcceleration.y,userAcceleration.z,rotationRate.x,rotationRate.y,rotationRate.z,label,subject
-0.0127258000000003,0.0038584000000012,-0.0309849999999999,0.0268124000000006,-0.0278843999999992,0.0246993999999999,0,sub_3
-0.0159292000000003,0.0039164000000013,-0.0295703999999999,0.0270996000000006,-0.0142409999999992,0.0263797999999999,0,sub_3
-0.0172024000000003,0.0034608000000013,-0.0299023999999999,0.0254846000000006,0.0011230000000007,0.0256947999999998,0,sub_3
-0.0171940000000003,0.0030542000000013,-0.0302289999999999,0.0215244000000006,0.0152238000000007,0.0232857999999998,0,sub_3
-0.0160364000000003,0.0030142000000013,-0.0318987999999999,0.0164918000000006,0.0265646000000007,0.0193773999999998,0,sub_3
-0.0134868000000003,0.0024676000000013,-0.0350623999999999,0.0097222000000006,0.0351286000000007,0.0148325999999998,0,sub_3
-0.0099734000000003,0.0034118000000013,-0.0390247999999999,0.0025078000000006,0.0383728000000007,0.0090097999999999,0,sub_3
-0.0067878000000003,0.0050618000000013,-0.0420441999999999,-0.0027947999999993,0.0386318000000007,0.0021357999999999,0,sub_3
-0.0046296000000003,0.0057882000000013,-0.0450719999999999,-0.0058329999999993,0.0367164000000007,-0.0049442,0,sub_3
-0.0035758000000003,0.0055712000000013,-0.0478905999999999,-0.0065347999999993,0.0343590000000007,-0.0100848,0,sub_3
-0.0034456000000003,0.0063764000000012,-0.0492169999999999,-0.0038311999999993,0.0309210000000007,-0.0143456,0,sub_3
-0.0039964000000003,0.0067852000000012,-0.0495681999999999,0.0001506000000006,0.0285378000000007,-0.0171034,0,sub_3
-0.0048756000000003,0.0073324000000012,-0.0500353999999999,0.0017806000000006,0.0280684000000007,-0.016889,0,sub_3
-0.0056934000000003,0.0075292000000012,-0.0510503999999999,0.0043400000000006,0.0303928000000007,-0.0143104,0,sub_3
-0.0055646000000003,0.0072486000000012,-0.0505941999999999,0.0079740000000006,0.0352668000000007,-0.0108728,0,sub_3
-0.0054862000000003,0.0062270000000013,-0.0505639999999999,0.0118128000000006,0.0401322000000007,-0.0055112,0,sub_3
-0.0053794000000003,0.0048448000000013,-0.0495617999999999,0.0164272000000006,0.0427804000000007,0.0011383999999999,0,sub_3
-0.0056994000000003,0.0029168000000013,-0.0471225999999999,0.0231608000000006,0.0428618000000007,0.0084469999999999,0,sub_3
-0.0059196000000003,0.0016946000000012,-0.0440371999999999,0.0286048000000006,0.0410294000000007,0.0159625999999999,0,sub_3
-0.0063424000000003,0.0024118000000012,-0.0421513999999999,0.0327560000000006,0.0366438000000007,0.0236859999999999,0,sub_3
-0.0062432000000003,0.0028534000000012,-0.0402165999999999,0.0352060000000006,0.0324816000000007,0.0303291999999999,0,sub_3
-0.0062828000000003,0.0031092000000012,-0.0391341999999999,0.0362354000000006,0.0290494000000007,0.0352545999999999,0,sub_3
-0.0055968000000003,0.0035586000000012,-0.0388633999999999,0.0351390000000006,0.0254192000000006,0.0382425999999999,0,sub_3
-0.0047438000000003,0.0043106000000012,-0.0391749999999999,0.0319154000000006,0.0207414000000007,0.0386531999999999,0,sub_3
-0.0044822000000003,0.0040060000000012,-0.0388127999999999,0.0265686000000006,0.0160806000000007,0.0366989999999999,0,sub_3
-0.0042812000000003,0.0036948000000012,-0.0387553999999999,0.0188378000000006,0.0111672000000007,0.0323781999999999,0,sub_3
-0.0034104000000003,0.0034430000000012,-0.0395709999999999,0.0091926000000006,0.0060534000000007,0.0265487999999999,0,sub_3
-0.0027364000000003,0.0037930000000012,-0.0412621999999999,-0.0004509999999993,0.0003048000000007,0.0196519999999999,0,sub_3
-0.0017856000000003,0.0030232000000013,-0.0421225999999999,-0.0083893999999993,-0.0056635999999992,0.0129811999999999,0,sub_3
-0.0010064000000003,0.0026768000000012,-0.0429397999999999,-0.0148349999999993,-0.0122747999999992,0.0058941999999999,0,sub_3
-0.0003242000000003,0.0028842000000012,-0.0435825999999999,-0.0199597999999993,-0.0188383999999992,9.839999999992253e-05,0,sub_3
-0.0007152000000003,0.0033958000000012,-0.0432419999999999,-0.0231643999999993,-0.0234989999999992,-0.0037636,0,sub_3
-0.0012726000000003,0.0031930000000012,-0.0427801999999999,-0.0240867999999993,-0.0253969999999992,-0.0057228,0,sub_3
-0.0022826000000003,0.0040362000000012,-0.0427843999999999,-0.0239413999999993,-0.0251759999999992,-0.0057546,0,sub_3
-0.0031766000000003,0.0046140000000012,-0.0425087999999999,-0.0225187999999993,-0.0236887999999992,-0.0038562,0,sub_3
-0.0041384000000003,0.0047214000000012,-0.0421977999999999,-0.0193957999999993,-0.0224257999999992,-0.0006638,0,sub_3
-0.0043386000000003,0.0041816000000012,-0.0415019999999999,-0.0158507999999993,-0.0215927999999992,0.0031729999999999,0,sub_3
-0.0040534000000003,0.0045158000000012,-0.0407007999999999,-0.0128797999999993,-0.0211933999999992,0.0072523999999999,0,sub_3
-0.0046230000000003,0.0045242000000012,-0.0396927999999999,-0.0099137999999993,-0.0222835999999992,0.0109065999999999,0,sub_3
-0.0052256000000003,0.0046616000000012,-0.0394993999999999,-0.0084363999999993,-0.0223031999999992,0.0145489999999999,0,sub_3
-0.0053798000000003,0.0051548000000012,-0.0388899999999999,-0.0074307999999993,-0.0210833999999992,0.0162255999999999,0,sub_3
-0.0059256000000003,0.0060680000000012,-0.0387779999999999,-0.0062069999999993,-0.0207089999999991,0.0159819999999999,0,sub_3
-0.0063442000000003,0.0076014000000012,-0.0388227999999999,-0.0068921999999993,-0.0194687999999991,0.0140147999999999,0,sub_3
-0.0062038000000003,0.0080192000000012,-0.0390733999999999,-0.0097013999999993,-0.0167271999999992,0.0113897999999999,0,sub_3
-0.0056544000000003,0.0080314000000012,-0.0391669999999999,-0.0108045999999993,-0.0154777999999992,0.0074967999999999,0,sub_3
-0.0052666000000003,0.0072096000000013,-0.0390465999999999,-0.0120703999999993,-0.0158849999999992,0.0038565999999999,0,sub_3
-0.0048358000000003,0.0073670000000013,-0.0389217999999999,-0.0139839999999993,-0.0171455999999992,0.0010673999999999,0,sub_3
-0.0055744000000003,0.0061594000000013,-0.0390979999999999,-0.0141943999999993,-0.0190519999999992,-0.0014954,0,sub_3
-0.0060396000000003,0.0054360000000012,-0.0386239999999999,-0.0123337999999993,-0.0219239999999992,-0.0044872,0,sub_3
-0.0069266000000003,0.0046008000000012,-0.0371913999999999,-0.0115343999999993,-0.0235141999999992,-0.007488,0,sub_3
-0.0078652000000003,0.0043044000000012,-0.0367137999999999,-0.0115749999999993,-0.0216939999999992,-0.0100718,0,sub_3
-0.0085202000000003,0.0031896000000012,-0.0367857999999999,-0.0128825999999993,-0.0170987999999992,-0.0128816,0,sub_3
-0.0076910000000003,0.0023750000000012,-0.0367759999999999,-0.0150475999999993,-0.0122919999999992,-0.0146294,0,sub_3
-0.0058602000000003,0.0027228000000012,-0.0376943999999999,-0.0173697999999993,-0.0071687999999992,-0.0150794,0,sub_3
-0.0039652000000003,0.0036580000000013,-0.0397625999999999,-0.0197015999999993,-0.0031149999999992,-0.01446,0,sub_3
-0.0021990000000003,0.0049808000000013,-0.0418259999999999,-0.0205551999999993,-0.0022631999999992,-0.0136124,0,sub_3
-0.0009520000000003,0.0056550000000013,-0.0436723999999999,-0.0194969999999993,-0.0029111999999992,-0.0123222,0,sub_3
-0.0011574000000003,0.0061580000000013,-0.0444723999999999,-0.0166195999999993,-0.0045435999999992,-0.0110928,0,sub_3
-0.0021630000000003,0.0054078000000012,-0.0446369999999999,-0.0130983999999993,-0.0051137999999992,-0.0096466,0,sub_3
-0.0029838000000003,0.0048438000000012,-0.0442613999999999,-0.0087227999999993,-0.0056861999999992,-0.008408,0,sub_3
-0.0040554000000003,0.0041564000000012,-0.0438945999999999,-0.0043441999999993,-0.0045583999999992,-0.0061036,0,sub_3
-0.0044074000000003,0.0048604000000012,-0.0430933999999999,4.020000000062134e-05,-0.0013035999999992,-0.0029472,0,sub_3
-0.0042850000000003,0.0043514000000012,-0.0425209999999999,0.0036704000000006,0.0031424000000007,0.0009179999999999,0,sub_3
-0.0041142000000003,0.0044940000000012,-0.0421623999999999,0.0060184000000006,0.0063180000000007,0.0039211999999999,0,sub_3
-0.0045838000000003,0.0044870000000012,-0.0420489999999999,0.0057704000000006,0.0092362000000007,0.0062021999999999,0,sub_3
-0.0048486000000003,0.0049386000000012,-0.0408901999999999,0.0044536000000006,0.0106710000000007,0.0074095999999999,0,sub_3
-0.0053626000000003,0.0049476000000013,-0.0398391999999999,0.0024910000000006,0.0093444000000007,0.0071203999999999,0,sub_3
-0.0056472000000003,0.0059530000000013,-0.0390751999999999,0.0009504000000006,0.0063144000000007,0.0061953999999999,0,sub_3
-0.0068072000000003,0.0069958000000013,-0.0375767999999999,-0.0001615999999993,0.0028602000000007,0.0044193999999999,0,sub_3
-0.0073758000000003,0.0065496000000013,-0.0362011999999999,-0.0014455999999993,-0.0003217999999992,0.0020643999999999,0,sub_3
-0.0075910000000003,0.0069894000000013,-0.0362937999999999,-0.0031515999999993,-0.0030735999999992,-0.000935,0,sub_3
-0.0063770000000003,0.0067588000000012,-0.0362991999999999,-0.0039983999999993,-0.0051865999999992,-0.0045702,0,sub_3
-0.0058064000000003,0.0072942000000012,-0.0370343999999999,-0.0071709999999993,-0.0045061999999992,-0.0093526,0,sub_3
-0.0050388000000003,0.0066130000000012,-0.0388561999999999,-0.0120523999999993,-0.0033971999999992,-0.013293,0,sub_3
-0.0038408000000003,0.0065058000000012,-0.0407795999999999,-0.0152249999999993,-0.0018679999999992,-0.017222,0,sub_3
-0.0032646000000003,0.0049256000000012,-0.0426653999999999,-0.0171191999999993,-0.0003449999999992,-0.0207148,0,sub_3
-0.0031924000000003,0.0034876000000013,-0.0442311999999999,-0.0183895999999993,-0.0001119999999992,-0.0218514,0,sub_3
-0.0038148000000003,0.0024668000000013,-0.0455255999999999,-0.0166961999999993,-0.0022517999999992,-0.0209822,0,sub_3
-0.0038024000000003,0.0028168000000013,-0.0458193999999999,-0.0120211999999993,-0.0046193999999992,-0.0190236,0,sub_3
-0.0045666000000003,0.0034420000000013,-0.0455719999999999,-0.0058591999999993,-0.0065737999999992,-0.0151324,0,sub_3
-0.0051748000000003,0.0031460000000013,-0.0443901999999999,0.0011900000000006,-0.0059309999999992,-0.0095718,0,sub_3
-0.0064966000000003,0.0036576000000012,-0.0434151999999999,0.0073932000000006,-0.0029441999999992,-0.0033792,0,sub_3
-0.0063998000000003,0.0033556000000012,-0.0428623999999999,0.0123136000000006,4.440000000073664e-05,0.0034451999999999,0,sub_3
-0.0070414000000003,0.0029522000000012,-0.0424381999999999,0.0155268000000006,0.0028268000000007,0.0100443999999999,0,sub_3
-0.0071624000000003,0.0040008000000012,-0.0414393999999999,0.0174560000000005,0.0047616000000007,0.0166357999999999,0,sub_3
-0.0080942000000003,0.0049454000000012,-0.0400197999999999,0.0174194000000005,0.0021828000000007,0.0221935999999999,0,sub_3
-0.0086486000000003,0.0053204000000013,-0.0393197999999999,0.0165324000000006,-0.0010269999999992,0.0264643999999999,0,sub_3
-0.0094866000000003,0.0058938000000013,-0.0376521999999999,0.0152262000000006,-0.0046529999999992,0.0285963999999999,0,sub_3
-0.0097882000000003,0.0064536000000013,-0.0362639999999999,0.0133440000000006,-0.0082157999999992,0.0290141999999999,0,sub_3
-0.0097640000000003,0.0055248000000013,-0.0357215999999999,0.0106158000000006,-0.0124053999999992,0.0270767999999999,0,sub_3
-0.0087144000000003,0.0054774000000013,-0.0360493999999999,0.0062056000000006,-0.0135959999999992,0.0225599999999999,0,sub_3
-0.0080038000000003,0.0052332000000013,-0.0363551999999999,0.0001000000000006,-0.0143459999999992,0.0158943999999999,0,sub_3
-0.0068786000000003,0.0047654000000013,-0.0376873999999999,-0.0074877999999993,-0.0135949999999992,0.0081483999999999,0,sub_3
-0.0052300000000003,0.0040284000000013,-0.0397443999999999,-0.0153443999999993,-0.0131087999999992,-2.5400000000077443e-05,0,sub_3
-0.0038864000000003,0.0043786000000013,-0.0414465999999999,-0.0227779999999993,-0.0128397999999992,-0.0075552,0,sub_3
-0.0025308000000003,0.0047014000000013,-0.0432507999999999,-0.0280929999999993,-0.0140773999999992,-0.0131454,0,sub_3
-0.0020990000000003,0.0054566000000013,-0.0447619999999999,-0.0299617999999993,-0.0155149999999992,-0.0169992,0,sub_3
-0.0026752000000003,0.0057576000000013,-0.0448907999999999,-0.0279983999999993,-0.0167613999999992,-0.0186902,0,sub_3
-0.0046658000000003,0.0063584000000013,-0.0451285999999999,-0.0239021999999993,-0.0158941999999992,-0.018019,0,sub_3
-0.0065790000000003,0.0071220000000013,-0.0447313999999999,-0.0168217999999993,-0.0139789999999992,-0.015619,0,sub_3
-0.0075800000000003,0.0076842000000013,-0.0438455999999999,-0.0080315999999993,-0.0101571999999992,-0.0119278,0,sub_3
-0.0089384000000003,0.0079184000000012,-0.0427243999999999,-0.0007787999999993,-0.0048791999999992,-0.0061156,0,sub_3
-0.0097278000000003,0.0079498000000012,-0.0430241999999999,0.0037000000000006,0.0008328000000007,0.0001041999999999,0,sub_3
-0.0097516000000003,0.0073196000000012,-0.0416187999999999,0.0079598000000006,0.0056918000000007,0.0067505999999999,0,sub_3
-0.0089930000000003,0.0057358000000012,-0.0412659999999999,0.0096486000000006,0.0075796000000007,0.0127419999999999,0,sub_3
-0.0093822000000003,0.0043510000000012,-0.0408075999999999,0.0098706000000006,0.0062996000000007,0.0176695999999999,0,sub_3
-0.0084292000000002,0.0036650000000012,-0.0408129999999999,0.0092382000000006,0.0020510000000007,0.0198175999999999,0,sub_3
-0.0074882000000003,0.0036558000000012,-0.0399445999999999,0.0092516000000006,-0.0028313999999992,0.0200481999999999,0,sub_3
-0.0060708000000003,0.0042772000000012,-0.0402635999999999,0.0086334000000006,-0.0079161999999992,0.0181381999999999,0,sub_3
-0.0061562000000003,0.0054922000000012,-0.0404513999999999,0.0067486000000006,-0.0108625999999992,0.0153619999999999,0,sub_3
-0.0066890000000003,0.0067974000000013,-0.0409275999999999,0.0037690000000006,-0.0131795999999992,0.0112849999999999,0,sub_3
-0.0072184000000003,0.0075350000000013,-0.0410703999999999,0.0016458000000006,-0.0154969999999992,0.0065729999999999,0,sub_3
-0.0077586000000003,0.0073590000000013,-0.0405707999999999,-0.0013355999999993,-0.0184521999999992,0.0022829999999999,0,sub_3
-0.0088858000000003,0.0077320000000013,-0.0406241999999999,-0.0049167999999993,-0.0203251999999992,-0.001549,0,sub_3
-0.0095080000000003,0.0076428000000013,-0.0407181999999999,-0.0074273999999993,-0.0209251999999992,-0.004948,0,sub_3
-0.0098236000000003,0.0069490000000012,-0.0408891999999999,-0.0084451999999993,-0.0200459999999992,-0.0066292,0,sub_3
-0.0101394000000003,0.0070842000000012,-0.0409601999999999,-0.0079733999999993,-0.0179021999999992,-0.0061652,0,sub_3
-0.0097188000000003,0.0079940000000012,-0.0413983999999999,-0.0055801999999993,-0.0147031999999992,-0.0048346,0,sub_3
-0.0089756000000003,0.0085740000000012,-0.0409573999999999,-0.0023767999999994,-0.0128019999999992,-0.0035328,0,sub_3
-0.0091162000000003,0.0086760000000012,-0.0408173999999999,0.0006094000000005,-0.0113279999999992,-0.0018046,0,sub_3
-0.0094744000000003,0.0089202000000013,-0.0407451999999999,0.0027384000000005,-0.0098343999999992,-9.940000000007771e-05,0,sub_3
-0.0103346000000003,0.0084866000000013,-0.0406335999999999,0.0033786000000005,-0.0081191999999992,0.0007405999999999,0,sub_3
-0.0108518000000003,0.0072382000000013,-0.0410777999999999,0.0029502000000006,-0.0068263999999992,0.0015737999999999,0,sub_3
-0.0111012000000003,0.0058000000000013,-0.0413005999999999,0.0018808000000006,-0.0059563999999992,0.0021893999999999,0,sub_3
-0.0104088000000003,0.0043678000000013,-0.0415611999999999,0.0012400000000006,-0.0052983999999992,0.0021671999999999,0,sub_3
-0.0094070000000003,0.0041588000000012,-0.0412843999999999,0.0014602000000006,-0.0048687999999992,0.0010999999999999,0,sub_3
-0.0083104000000003,0.0033298000000012,-0.0411781999999999,0.0023300000000006,-0.0014619999999992,0.0008881999999999,0,sub_3
-0.0082814000000003,0.0037568000000012,-0.0413639999999999,0.0025576000000006,3.5400000000736315e-05,-0.0008214,0,sub_3
-0.0072682000000003,0.0042398000000012,-0.0414173999999999,0.0034596000000006,0.0026364000000007,-0.0025352,0,sub_3
-0.0069684000000003,0.0056222000000012,-0.0413635999999999,0.0022278000000006,0.0054572000000007,-0.0040504,0,sub_3
-0.0068710000000003,0.0059254000000013,-0.0423325999999999,-0.0004955999999993,0.0087094000000007,-0.0055766,0,sub_3
-0.0068106000000003,0.0056948000000013,-0.0430453999999999,-0.0023731999999993,0.0094052000000007,-0.0079482,0,sub_3
-0.0061138000000003,0.0046778000000012,-0.0432911999999999,-0.0029675999999993,0.0117968000000007,-0.0092448,0,sub_3
-0.0064882000000003,0.0039686000000012,-0.0438245999999999,-0.0036057999999993,0.0122252000000007,-0.0092498,0,sub_3
-0.0065326000000003,0.0025994000000012,-0.0440379999999999,-0.0019073999999993,0.0111506000000007,-0.008382,0,sub_3
-0.0067832000000003,0.0016570000000012,-0.0439341999999999,0.0027772000000006,0.0121866000000007,-0.005146,0,sub_3
-0.0060868000000003,0.0020924000000012,-0.0440989999999999,0.0055584000000006,0.0119852000000007,-0.0019284,0,sub_3
-0.0055062000000003,0.0026292000000012,-0.0443455999999999,0.0079146000000006,0.0126356000000007,0.0017125999999999,0,sub_3
-0.0046664000000003,0.0030966000000012,-0.0451351999999999,0.0107080000000006,0.0149916000000007,0.0047135999999999,0,sub_3
-0.0036474000000003,0.0027322000000013,-0.0457671999999999,0.0135034000000006,0.0173492000000007,0.0072871999999999,0,sub_3
-0.0019202000000003,0.0019942000000013,-0.0458535999999999,0.0139422000000006,0.0165236000000007,0.0087801999999998,0,sub_3
-0.0015576000000003,0.0013372000000013,-0.0458125999999999,0.0135058000000006,0.0158798000000007,0.0102735999999998,0,sub_3
-0.0012570000000003,0.0007616000000013,-0.0456251999999999,0.0117854000000006,0.0137518000000007,0.0111187999999998,0,sub_3
-0.0013484000000003,0.0003044000000013,-0.0456345999999999,0.0087830000000006,0.0103534000000007,0.0111019999999998,0,sub_3
-0.0010374000000003,0.0010764000000013,-0.0450265999999999,0.0051480000000006,0.0076006000000007,0.0100119999999998,0,sub_3
-0.0013778000000003,0.0019450000000013,-0.0448875999999999,0.0019506000000006,0.0051088000000007,0.0086861999999998,0,sub_3
-0.0008102000000003,0.0025514000000013,-0.0451579999999999,-0.0001721999999993,0.0034690000000007,0.0065121999999999,0,sub_3
-0.0005036000000003,0.0042178000000013,-0.0451323999999999,-0.0018633999999993,0.0024686000000007,0.0039131999999999,0,sub_3
-0.0007470000000003,0.0032532000000013,-0.0452565999999999,-0.0037727999999993,0.0014646000000007,0.0023809999999999,0,sub_3
-0.0011250000000003,0.0033592000000013,-0.0456475999999999,-0.0061087999999993,0.0004620000000007,0.0008455999999999,0,sub_3
-0.0007634000000003,0.0042744000000013,-0.0463083999999999,-0.0080251999999993,-0.0001643999999992,-0.0006624,0,sub_3
-0.0006582000000003,0.0046694000000013,-0.0463741999999999,-0.0095253999999993,-0.0022871999999992,-0.0013112,0,sub_3
-0.0008668000000003,0.0045116000000013,-0.0467611999999999,-0.0095415999999993,-0.0054845999999992,-0.00088,0,sub_3
-0.0007970000000003,0.0062978000000013,-0.0459581999999999,-0.0082687999999993,-0.0092635999999992,-0.0006642,0,sub_3
-0.0016208000000003,0.0068208000000013,-0.0462355999999999,-0.0067865999999993,-0.0126221999999992,0.0008345999999999,0,sub_3
-0.0023530000000003,0.0073636000000013,-0.0456971999999999,-0.0053053999999993,-0.0170427999999992,0.0014799999999999,0,sub_3
-0.0028774000000003,0.0081746000000013,-0.0450809999999999,-0.0036029999999993,-0.0203961999999992,0.0014847999999999,0,sub_3
-0.0036530000000003,0.0088510000000013,-0.0446101999999999,-0.0038199999999993,-0.0235299999999992,0.0014759999999999,0,sub_3
-0.0046882000000003,0.0083188000000013,-0.0451857999999999,-0.0046763999999993,-0.0252271999999992,0.0004039999999999,0,sub_3
-0.0047782000000003,0.0074854000000013,-0.0444931999999999,-0.0044609999999993,-0.0264995999999992,-0.0013022,0,sub_3
-0.0052380000000003,0.0060808000000013,-0.0435755999999999,-0.0046699999999993,-0.0277267999999992,-0.0028016,0,sub_3
-0.0065726000000003,0.0053598000000013,-0.0427643999999999,-0.0048895999999993,-0.0306609999999992,-0.0036582,0,sub_3
-0.0077136000000003,0.0038822000000013,-0.0418507999999999,-0.0040375999999993,-0.0331701999999992,-0.0051488,0,sub_3
-0.0080738000000003,0.0042552000000013,-0.0401973999999999,-0.0029711999999993,-0.0348303999999992,-0.005998,0,sub_3
-0.0086230000000003,0.0049280000000013,-0.0394681999999999,-0.0029669999999993,-0.0354215999999992,-0.0068558,0,sub_3
-0.0088938000000003,0.0058060000000013,-0.0395047999999999,-0.0038059999999993,-0.0330715999999992,-0.0077194,0,sub_3
-0.0080868000000003,0.0056796000000013,-0.0401623999999999,-0.0052803999999993,-0.0294417999999992,-0.0083752,0,sub_3
-0.0067476000000003,0.0052780000000013,-0.0401881999999999,-0.0071921999999993,-0.0279419999999992,-0.0088178,0,sub_3
-0.0060742000000003,0.0048706000000013,-0.0402903999999999,-0.0101871999999993,-0.0292045999999992,-0.0092582,0,sub_3
-0.0057572000000003,0.0044582000000013,-0.0402577999999999,-0.0134067999999993,-0.0323863999999992,-0.0090568,0,sub_3
-0.0054518000000003,0.0037578000000013,-0.0403723999999999,-0.0157835999999993,-0.0374903999999992,-0.0084198,0,sub_3
-0.0055504000000003,0.0030544000000013,-0.0406599999999999,-0.0179471999999993,-0.0430195999999992,-0.008208,0,sub_3
-0.0061214000000003,0.0033150000000012,-0.0411099999999999,-0.0194627999999993,-0.0466343999999992,-0.0077804,0,sub_3
-0.0068004000000003,0.0038206000000012,-0.0418991999999999,-0.0203325999999993,-0.0494045999999992,-0.0069284,0,sub_3
-0.0067050000000003,0.0038860000000012,-0.0424879999999999,-0.0209861999999993,-0.0521729999999992,-0.0067158,0,sub_3
-0.0071276000000003,0.0041908000000012,-0.0426079999999999,-0.0216417999999993,-0.0551551999999992,-0.0062892,0,sub_3
-0.0079836000000003,0.0051264000000012,-0.0427077999999999,-0.0225257999999993,-0.0568833999999992,-0.0056654,0,sub_3
-0.0084680000000003,0.0054562000000012,-0.0427171999999999,-0.0229811999999993,-0.0579747999999992,-0.0048258,0,sub_3
-0.0083416000000003,0.0053746000000012,-0.0428043999999999,-0.0221533999999993,-0.0582191999999992,-0.0037646,0,sub_3
-0.0090978000000003,0.0053704000000012,-0.0425861999999999,-0.0206873999999993,-0.0582551999999992,-0.0020584,0,sub_3
-0.0095346000000003,0.0055112000000013,-0.0422689999999999,-0.0194327999999993,-0.0585011999999992,-0.0009942,0,sub_3
-0.0104518000000003,0.0050502000000012,-0.0418111999999999,-0.0183725999999993,-0.0585107999999992,0.0005085999999999,0,sub_3
-0.0111886000000003,0.0049958000000012,-0.0420373999999999,-0.0179485999999993,-0.0576659999999992,0.0020059999999999,0,sub_3
-0.0106762000000003,0.0042816000000012,-0.0434889999999999,-0.0173121999999993,-0.0576715999999992,0.0028649999999999,0,sub_3
-0.0108600000000003,0.0053940000000012,-0.0434267999999999,-0.0158031999999993,-0.0547027999999992,0.0022183999999999,0,sub_3
-0.0114234000000003,0.0060730000000012,-0.0438289999999999,-0.0166373999999993,-0.0512977999999992,0.0011273999999999,0,sub_3
-0.0114614000000003,0.0062476000000012,-0.0441093999999999,-0.0161835999999993,-0.0468295999999992,-0.0005968,0,sub_3
-0.0113888000000003,0.0067242000000012,-0.0434735999999999,-0.0148743999999993,-0.0419381999999992,-0.0023156,0,sub_3
-0.0126368000000003,0.0078216000000012,-0.0414067999999999,-0.0135603999999993,-0.0361937999999992,-0.004249,0,sub_3
-0.0117516000000003,0.0078768000000012,-0.0411113999999999,-0.0099051999999993,-0.0296033999999992,-0.0038048,0,sub_3
-0.0119474000000003,0.0078734000000012,-0.0399189999999999,-0.0047621999999993,-0.0247209999999992,-0.0037752,0,sub_3
-0.0123372000000003,0.0089946000000012,-0.0386493999999999,0.0008094000000006,-0.0189895999999992,-0.0033162,0,sub_3
-0.0134260000000003,0.0094136000000012,-0.0384183999999999,0.0061890000000006,-0.0110831999999992,-0.0032938,0,sub_3
-0.0141506000000003,0.0095860000000012,-0.0386849999999999,0.0122240000000006,0.0008664000000007,-0.002631,0,sub_3
-0.0158644000000003,0.0091516000000012,-0.0387653999999999,0.0154720000000006,0.0083574000000007,-0.0034774,0,sub_3
-0.0151564000000003,0.0084206000000012,-0.0395899999999999,0.0204356000000006,0.0186086000000007,-0.0034608,0,sub_3
-0.0148688000000003,0.0077780000000012,-0.0397195999999999,0.0243256000000006,0.0273722000000007,-0.0034498,0,sub_3
-0.0142272000000003,0.0070422000000012,-0.0395875999999999,0.0279866000000006,0.0350286000000007,-0.0032204,0,sub_3
-0.0134596000000003,0.0067586000000013,-0.0394471999999999,0.0305778000000006,0.0420494000000007,-0.0029976,0,sub_3
-0.0126772000000003,0.0060958000000012,-0.0388697999999999,0.0329622000000006,0.0503502000000007,-0.0029916,0,sub_3
