userAcceleration.x,userAcceleration.y,userAcceleration.z,rotationRate.x,rotationRate.y,rotationRate.z,label,subject
-0.0074578000000003,0.0028004000000013,0.0196231999999998,-0.0075485999999994,0.0114334000000007,0.0031855999999999,0,sub_6
-0.0076928000000003,0.0017742000000013,0.0210487999999999,-0.0081733999999994,0.0163300000000007,0.0046705999999999,0,sub_6
-0.0075416000000003,0.0030290000000013,0.0181095999999999,-0.0069037999999994,0.0144064000000007,0.0051093999999999,0,sub_6
-0.0048372000000003,0.0037062000000013,0.0179555999999999,-0.0045585999999994,0.0152452000000007,0.0064064,0,sub_6
-0.0055810000000003,0.0049600000000012,0.0191717999999999,-0.0021941999999994,0.0207696000000007,0.008125,0,sub_6
-0.0078632000000003,0.0057122000000012,0.0166105999999999,0.0014504000000005,0.0241676000000007,0.0077188,0,sub_6
-0.0084762000000003,0.0056812000000012,0.0134361999999999,0.0078814000000005,0.0294766000000007,0.006475,0,sub_6
-0.0082288000000003,0.0059558000000012,0.0152493999999999,0.0145382000000005,0.0394644000000006,0.0071496,0,sub_6
-0.0108680000000003,0.0052826000000012,0.0170991999999999,0.0192506000000005,0.0437082000000006,0.0073908,0,sub_6
-0.0105436000000003,0.0039238000000012,0.0153557999999999,0.0243666000000005,0.0394420000000006,0.0042274,0,sub_6
-0.0061604000000003,0.0038156000000012,0.0150909999999999,0.0273662000000005,0.0394426000000007,0.001471,0,sub_6
-0.0028556000000003,0.0034458000000012,0.0193927999999999,0.0263060000000005,0.0411498000000007,0.001675,0,sub_6
-0.0034910000000003,0.0004752000000012,0.0245061999999999,0.0205200000000005,0.0354182000000007,0.0014282,0,sub_6
-0.0037212000000003,-0.0012735999999987,0.0284331999999999,0.0147158000000005,0.0233046000000007,-0.0011606,0,sub_6
-0.0019900000000003,-0.0021427999999987,0.0319437999999999,0.0059196000000005,0.0105606000000007,-0.0033421999999999,0,sub_6
-0.0016232000000003,-0.0030173999999987,0.0363873999999999,-0.0056637999999994,-0.0034589999999992,-0.0038323999999999,0,sub_6
-0.0034514000000003,-0.0027533999999987,0.0377021999999999,-0.0176787999999994,-0.0176933999999992,-0.0034707999999999,0,sub_6
-0.0069580000000003,-0.0007833999999987,0.0357423999999999,-0.0275505999999994,-0.0287437999999992,-0.0020299999999999,0,sub_6
-0.0098706000000003,0.0012652000000012,0.0325465999999999,-0.0361219999999994,-0.0346879999999992,5.420000000000008e-05,0,sub_6
-0.0132404000000003,0.0037998000000012,0.0295979999999999,-0.0392945999999994,-0.0342197999999992,0.0017204,0,sub_6
-0.0163232000000003,0.0059426000000012,0.0249613999999999,-0.0349695999999994,-0.0278095999999992,0.0027902,0,sub_6
-0.0168332000000003,0.0071734000000012,0.0208989999999999,-0.0259359999999994,-0.0197055999999992,0.0023954,0,sub_6
-0.0133752000000003,0.0065254000000012,0.0165735999999999,-0.0147483999999994,-0.0081957999999992,0.000943,0,sub_6
-0.0098430000000003,0.0063946000000012,0.0123007999999999,-0.0012021999999994,0.0058624000000007,-0.0004961999999999,0,sub_6
-0.0050258000000003,0.0055902000000012,0.0118865999999999,0.0103736000000005,0.0173286000000007,-0.0008573999999999,0,sub_6
-0.0018232000000003,0.0047216000000012,0.0144055999999999,0.0182914000000005,0.0230508000000007,-0.0001684,0,sub_6
0.0002767999999996,0.0035894000000012,0.0153245999999999,0.0238362000000005,0.0226046000000007,8.459999999998013e-05,0,sub_6
0.0010071999999996,0.0029858000000012,0.0172631999999999,0.0274414000000005,0.0170552000000007,-0.000524,0,sub_6
-0.0008164000000003,0.0020648000000012,0.0217679999999999,0.0273992000000005,0.0085296000000007,0.0003411999999999,0,sub_6
-0.0062906000000003,0.0007760000000012,0.0247533999999999,0.0230924000000005,0.0008704000000007,0.0013891999999999,0,sub_6
-0.0097804000000003,5.220000000124626e-05,0.0254695999999999,0.0177264000000005,-0.0069903999999992,0.0005072,0,sub_6
-0.0109140000000003,-0.0003711999999987,0.0264313999999999,0.0106640000000005,-0.0127139999999992,-0.0006029999999999,0,sub_6
-0.0116212000000003,0.0001416000000012,0.0285679999999999,0.0036190000000005,-0.0126927999999992,0.0002022,0,sub_6
-0.0119806000000003,0.0011102000000012,0.0304299999999999,-0.0032041999999994,-0.0120279999999992,-0.0002735999999999,0,sub_6
-0.0116278000000003,0.0023126000000012,0.0302571999999999,-0.0064037999999994,-0.0132891999999992,-0.0017897999999999,0,sub_6
-0.0090024000000003,0.0029208000000012,0.0269015999999999,-0.0067991999999994,-0.0126163999999992,-0.0026603999999999,0,sub_6
-0.0083540000000003,0.0031050000000012,0.0250051999999999,-0.0063219999999994,-0.0070487999999992,-0.0028902,0,sub_6
-0.0077546000000003,0.0031810000000012,0.0229493999999998,-0.0060467999999994,-0.0001971999999992,-0.0044047999999999,0,sub_6
-0.0066300000000003,0.0032524000000012,0.0190435999999998,-0.0034225999999994,0.0072846000000007,-0.0056901999999999,0,sub_6
-0.0048114000000003,0.0033228000000012,0.0159915999999998,-0.0023063999999994,0.0122124000000007,-0.0063422,0,sub_6
-0.0041886000000003,0.0038280000000012,0.0158927999999998,-0.0035771999999994,0.0141352000000006,-0.0065672,0,sub_6
-0.0027346000000003,0.0039528000000012,0.0136247999999998,-0.0037963999999994,0.0132820000000006,-0.0061403999999999,0,sub_6
-0.0037404000000003,0.0037762000000012,0.0133851999999999,-0.0036069999999994,0.0090160000000007,-0.0050653999999999,0,sub_6
-0.0036762000000003,0.0033026000000012,0.0144335999999999,-0.0061203999999994,0.0056822000000007,-0.0042691999999999,0,sub_6
-0.0042828000000003,0.0032324000000012,0.0149099999999998,-0.0062799999999994,0.0034074000000007,-0.0038849999999999,0,sub_6
-0.0060478000000003,0.0029976000000012,0.0149387999999998,-0.0060079999999994,0.0028328000000007,-0.0028591999999999,0,sub_6
-0.0080010000000003,0.0031216000000012,0.0182211999999998,-0.0070037999999994,0.0043958000000007,-0.002486,0,sub_6
-0.0076154000000003,0.0021984000000012,0.0174067999999998,-0.0077737999999994,0.0076666000000007,-0.0031815999999999,0,sub_6
-0.0070758000000003,0.0023150000000012,0.0139733999999998,-0.0051987999999994,0.0102170000000007,-0.0038077999999999,0,sub_6
-0.0060902000000003,0.0026060000000012,0.0128173999999999,-0.0047489999999994,0.0163898000000007,-0.0027443999999999,0,sub_6
-0.0063264000000003,0.0019116000000012,0.0134733999999999,-0.0055047999999994,0.0226342000000007,-0.0025729999999999,0,sub_6
-0.0062816000000003,0.0017892000000012,0.0117199999999999,-0.0052167999999994,0.0224882000000007,-0.0036679999999999,0,sub_6
-0.0054330000000003,0.0015524000000012,0.0110029999999999,-0.0064405999999994,0.0191484000000007,-0.0039149999999999,0,sub_6
-0.0044422000000003,0.0009618000000012,0.0122523999999999,-0.0093589999999994,0.0190086000000007,-0.0037505999999999,0,sub_6
-0.0053408000000003,0.0010942000000012,0.0138525999999999,-0.0103541999999994,0.0192890000000007,-0.0037869999999999,0,sub_6
-0.0068420000000003,0.0013680000000012,0.0144445999999999,-0.0116439999999994,0.0175874000000007,-0.0033666,0,sub_6
-0.0087050000000003,0.0013438000000012,0.0149465999999999,-0.0140073999999994,0.0150348000000007,-0.0023116,0,sub_6
-0.0111980000000003,0.0021130000000012,0.0168341999999999,-0.0144409999999994,0.0143938000000007,-0.0014592,0,sub_6
-0.0149818000000003,0.0020926000000012,0.0196003999999999,-0.0144069999999994,0.0142104000000007,1.719999999997999e-05,0,sub_6
-0.0170990000000003,0.0012150000000012,0.0202833999999999,-0.0158655999999994,0.0125478000000006,-0.000224,0,sub_6
-0.0175044000000003,0.0009694000000012,0.0201777999999999,-0.0162545999999994,0.0102472000000006,-0.0017388,0,sub_6
-0.0163272000000003,0.0010190000000012,0.0210239999999999,-0.0157813999999994,0.0111344000000006,-0.0019698,0,sub_6
-0.0154970000000003,0.0009444000000012,0.0217235999999999,-0.0168045999999994,0.0118122000000007,-0.0017837999999999,0,sub_6
-0.0145378000000003,0.0017622000000012,0.0210399999999999,-0.0170247999999994,0.0105338000000007,-0.0015699999999999,0,sub_6
-0.0153068000000003,0.0044126000000012,0.0201965999999999,-0.0166113999999994,0.0086104000000007,-0.0004963999999999,0,sub_6
-0.0156388000000003,0.0063802000000012,0.0198229999999999,-0.0166247999999994,0.0066888000000007,0.0005742,0,sub_6
-0.0144802000000003,0.0048576000000012,0.0195291999999999,-0.0164027999999994,0.0065076000000007,0.0014204,0,sub_6
-0.0154748000000003,0.0045456000000012,0.0198165999999999,-0.0157397999999994,0.0086716000000007,0.0014122,0,sub_6
-0.0146292000000003,0.0040146000000012,0.0199557999999999,-0.0165769999999994,0.0089252000000007,0.0009686,0,sub_6
-0.0118446000000003,0.0017754000000012,0.0193149999999999,-0.0172047999999994,0.0091748000000007,0.001381,0,sub_6
-0.0106896000000003,0.0011090000000012,0.0186841999999999,-0.0178439999999994,0.0087774000000007,0.0037169999999999,0,sub_6
-0.0133914000000003,0.0045486000000012,0.0180911999999999,-0.0204341999999994,0.0045158000000007,0.0060545999999999,0,sub_6
-0.0118058000000003,0.0043064000000012,0.0164599999999999,-0.0206799999999994,-0.0006051999999992,0.008196,0,sub_6
-0.0107448000000003,0.0042572000000012,0.0154139999999999,-0.0183385999999994,-0.0004063999999992,0.0097076,0,sub_6
-0.0108824000000003,0.0037186000000012,0.0171261999999999,-0.0172659999999994,0.0021414000000007,0.0109938,0,sub_6
-0.0102482000000003,0.0028502000000012,0.0181833999999999,-0.0168155999999994,0.0025798000000007,0.0101464,0,sub_6
-0.0068020000000003,0.0010956000000012,0.0168257999999999,-0.0144417999999994,0.0019530000000007,0.0076046,0,sub_6
-0.0053324000000003,0.0023706000000012,0.0164209999999998,-0.0127159999999994,0.0008972000000007,0.0063408,0,sub_6
-0.0044204000000003,0.0024268000000012,0.0171609999999999,-0.0146365999999994,-0.0033457999999992,0.0061237999999999,0,sub_6
-0.0039712000000003,0.0022314000000012,0.0171131999999999,-0.0163609999999994,-0.0129101999999992,0.0044193999999999,0,sub_6
-0.0032442000000003,0.0011054000000012,0.0157113999999999,-0.0170229999999994,-0.0184447999999992,0.0037809999999999,0,sub_6
-0.0046580000000003,0.0009254000000012,0.0158539999999999,-0.0178775999999994,-0.0182303999999992,0.0042019999999999,0,sub_6
-0.0055518000000003,0.0008100000000012,0.0176053999999999,-0.0212701999999994,-0.0190895999999992,0.0039763999999999,0,sub_6
-0.0060712000000003,0.0004874000000012,0.0183777999999999,-0.0238131999999994,-0.0222893999999992,0.0022644,0,sub_6
-0.0062650000000003,0.0005220000000012,0.0174183999999999,-0.0244165999999994,-0.0214469999999992,0.0003469999999999,0,sub_6
-0.0067218000000003,0.0012648000000012,0.0179145999999999,-0.0258677999999994,-0.0184745999999992,-0.0007244,0,sub_6
-0.0061366000000003,0.0003016000000012,0.0188179999999999,-0.0288201999999994,-0.0169891999999992,-0.0015908,0,sub_6
-0.0060410000000003,-0.0005789999999987,0.0179545999999999,-0.0315785999999994,-0.0139949999999992,-0.0020412,0,sub_6
-0.0077790000000003,-0.0012097999999987,0.0171097999999999,-0.0347541999999994,-0.0084443999999992,-0.0020705999999999,0,sub_6
-0.0074652000000003,-0.0009777999999987,0.0156733999999999,-0.0387937999999994,-0.0048099999999992,-0.0016761999999999,0,sub_6
-0.0062730000000003,-3.639999999871368e-05,0.0149571999999999,-0.0428439999999994,-0.0039435999999992,-0.0017056,0,sub_6
-0.0047768000000003,0.0014522000000012,0.0147979999999999,-0.0468559999999994,-0.0037669999999992,-0.001295,0,sub_6
-0.0047828000000003,0.0025574000000012,0.0134953999999999,-0.0487409999999994,-0.0046649999999992,-0.0004408,0,sub_6
-0.0041908000000003,0.0026582000000012,0.0126103999999999,-0.0493417999999994,-0.0036541999999992,0.0014881999999999,0,sub_6
-0.0065872000000003,0.0027818000000012,0.0134913999999999,-0.0497149999999994,-0.0002971999999992,0.0025612,0,sub_6
-0.0109206000000003,0.0017076000000012,0.0135041999999999,-0.0492317999999994,0.0013618000000007,0.0012919999999999,0,sub_6
-0.0124076000000003,0.0012436000000012,0.0131979999999998,-0.0481485999999994,0.0028578000000007,-0.0008388,0,sub_6
-0.0119834000000003,0.0015884000000012,0.0136633999999998,-0.0487579999999994,0.0088290000000007,-0.0017054,0,sub_6
-0.0121304000000003,0.0021824000000012,0.0138269999999998,-0.0503781999999994,0.0134692000000007,-0.0021414,0,sub_6
-0.0109894000000003,0.0016522000000012,0.0136665999999998,-0.0535207999999994,0.0132086000000007,-0.0010861999999999,0,sub_6
-0.0070856000000003,0.0015482000000012,0.0134123999999998,-0.0573179999999994,0.0108154000000007,0.0010356,0,sub_6
-0.0073430000000003,0.0042930000000012,0.0116773999999999,-0.0585381999999994,0.0120352000000007,0.0031706,0,sub_6
-0.0094414000000003,0.0076258000000012,0.0100737999999999,-0.0556987999999994,0.0130336000000007,0.0038388,0,sub_6
-0.0110308000000003,0.0089238000000012,0.0090149999999999,-0.0512247999999994,0.0100412000000007,0.0023784,0,sub_6
-0.0123558000000003,0.0095286000000012,0.0078929999999999,-0.0433367999999994,0.0053392000000007,-0.0007652,0,sub_6
-0.0127288000000003,0.0081684000000012,0.0080103999999999,-0.0339281999999994,0.0070220000000007,-0.003479,0,sub_6
-0.0103612000000003,0.0029870000000012,0.0120411999999999,-0.0263751999999994,0.0065308000000007,-0.0049293999999999,0,sub_6
-0.0081134000000003,-0.0034909999999987,0.0164237999999999,-0.0248175999999994,0.0022222000000007,-0.0055623999999999,0,sub_6
-0.0060958000000003,-0.0065323999999987,0.0194951999999999,-0.0260289999999994,-0.0003749999999992,-0.0055757999999999,0,sub_6
-0.0031416000000003,-0.0061247999999987,0.0204809999999999,-0.0315059999999994,-0.0016821999999992,-0.0047659999999999,0,sub_6
-0.0024476000000003,-0.0042695999999987,0.0212821999999998,-0.0408381999999994,-0.0048987999999992,-0.0026989999999999,0,sub_6
-0.0046574000000003,-0.0020979999999987,0.0196789999999998,-0.0511155999999994,-0.0110483999999992,-0.0010538,0,sub_6
-0.0067780000000003,-0.0003893999999987,0.0149357999999998,-0.0588305999999994,-0.0189027999999992,-0.0015248,0,sub_6
-0.0076224000000003,0.0029258000000012,0.0112805999999999,-0.0629125999999994,-0.0259159999999992,-0.002399,0,sub_6
-0.0084418000000003,0.0031876000000012,0.0096063999999999,-0.0651631999999994,-0.0248479999999992,-0.0020045999999999,0,sub_6
-0.0093376000000003,0.0021408000000012,0.0081639999999999,-0.0648513999999994,-0.0239993999999992,-0.0022327999999999,0,sub_6
-0.0099200000000003,0.0012154000000012,0.0055477999999999,-0.0617551999999994,-0.0223021999999992,-0.0039381999999999,0,sub_6
-0.0086390000000003,0.0010734000000012,0.0047643999999999,-0.0575815999999994,-0.0184773999999992,-0.0058523999999999,0,sub_6
-0.0060814000000003,0.0021632000000012,0.0048349999999999,-0.0555349999999994,-0.0129415999999992,-0.0075699999999999,0,sub_6
-0.0050010000000003,0.0038110000000012,0.0059569999999999,-0.0551033999999994,-0.0129387999999992,-0.0086351999999999,0,sub_6
-0.0044356000000003,0.0042448000000012,0.0051201999999999,-0.0553195999999994,-0.0146381999999992,-0.0097027999999999,0,sub_6
-0.0044426000000003,0.0044986000000012,0.0042847999999999,-0.0561683999999994,-0.0131455999999992,-0.0092833999999999,0,sub_6
-0.0057116000000003,0.0060728000000012,0.0063091999999999,-0.0570237999999994,-0.0131443999999992,-0.0088621999999999,0,sub_6
-0.0079254000000003,0.0045406000000012,0.0070375999999999,-0.0573305999999994,-0.0165323999999992,-0.0080149999999999,0,sub_6
-0.0089396000000003,0.0030166000000012,0.0068649999999999,-0.0561331999999994,-0.0197041999999992,-0.009294,0,sub_6
-0.0095886000000003,0.0048774000000012,0.0087943999999999,-0.0544859999999994,-0.0186127999999992,-0.01143,0,sub_6
-0.0088108000000003,0.0071348000000012,0.0117271999999999,-0.0534693999999994,-0.0160253999999992,-0.0142129999999999,0,sub_6
-0.0085260000000003,0.0078244000000012,0.0127439999999999,-0.0537301999999994,-0.0102477999999992,-0.0144454,0,sub_6
-0.0084694000000003,0.0073634000000012,0.0139185999999999,-0.0541223999999994,-0.0025763999999992,-0.0144579999999999,0,sub_6
-0.0084752000000003,0.0072352000000012,0.0153395999999999,-0.0534641999999994,0.0025304000000007,-0.0133916,0,sub_6
-0.0084664000000003,0.0088992000000012,0.0174339999999999,-0.0492089999999994,0.0040082000000007,-0.0118757999999999,0,sub_6
-0.0109346000000003,0.0058778000000012,0.0181955999999999,-0.0443125999999994,0.0067580000000007,-0.0092889999999999,0,sub_6
-0.0128630000000003,0.0030988000000012,0.0185131999999999,-0.0385635999999994,0.0082306000000007,-0.0077627999999999,0,sub_6
-0.0153890000000003,0.0030256000000012,0.0194685999999999,-0.0326157999999994,0.0035360000000007,-0.0092183999999999,0,sub_6
-0.0169634000000003,0.0043788000000012,0.0217527999999999,-0.0270831999999994,-0.0002981999999992,-0.0123871999999999,0,sub_6
-0.0175334000000003,0.0043148000000012,0.0233691999999999,-0.0247121999999994,0.0035344000000007,-0.0138712,0,sub_6
-0.0162118000000003,0.0077172000000012,0.0250877999999999,-0.0253445999999994,0.0054532000000007,-0.0136645999999999,0,sub_6
-0.0158876000000003,0.0092452000000012,0.0269819999999999,-0.0255809999999994,0.0007650000000007,-0.013233,0,sub_6
-0.0170788000000003,0.0090064000000012,0.0285633999999999,-0.0238821999999994,-0.0022399999999992,-0.0119384,0,sub_6
-0.0193304000000003,0.0064512000000012,0.0277505999999999,-0.0200543999999994,-0.0071663999999992,-0.0114812,0,sub_6
-0.0189976000000003,0.0041254000000012,0.0265645999999998,-0.0153875999999994,-0.0165647999999992,-0.0122942,0,sub_6
-0.0191142000000003,0.0024034000000012,0.0278731999999998,-0.0094175999999994,-0.0221275999999992,-0.0143848,0,sub_6
-0.0183918000000003,0.0005180000000012,0.0283955999999998,-0.0038473999999994,-0.0221477999999992,-0.0169126,0,sub_6
-0.0165406000000003,-0.0015675999999987,0.0273945999999999,0.0015196000000005,-0.0157713999999992,-0.0177379999999999,0,sub_6
-0.0090408000000003,-0.0094129999999987,0.0291377999999999,0.0060570000000005,-0.0010949999999992,-0.0155886,0,sub_6
-0.0178638000000003,-0.0090687999999987,0.0253461999999999,0.0168820000000005,0.0251074000000007,-0.0240922,0,sub_6
-0.0233252000000003,-0.0100889999999987,0.0203751999999999,0.0205758000000005,0.0289554000000007,-0.0249238,0,sub_6
-0.0225966000000003,-0.0127451999999987,0.0190863999999999,0.0244818000000005,0.0300432000000007,-0.0283141999999999,0,sub_6
-0.0200766000000003,-0.0114045999999987,0.0217925999999999,0.0258216000000005,0.0313470000000007,-0.0302269999999999,0,sub_6
-0.0245354000000003,-0.0035987999999987,0.0217569999999999,0.0226998000000005,0.0384130000000007,-0.0306829999999999,0,sub_6
-0.0180330000000003,-0.0056295999999987,0.0245355999999999,0.0109626000000005,0.0375858000000007,-0.0211477999999999,0,sub_6
-0.0148020000000003,-0.0050401999999987,0.0270143999999999,0.0056944000000005,0.0512440000000007,-0.0222703999999999,0,sub_6
-0.0161444000000003,0.0016282000000012,0.0257053999999999,0.0028194000000005,0.0693912000000007,-0.0291503999999999,0,sub_6
-0.0215842000000003,0.0073678000000012,0.0202467999999999,9.44000000005751e-05,0.0815398000000007,-0.0279031999999999,0,sub_6
-0.0232522000000003,0.0074514000000012,0.0165195999999999,-0.0052407999999994,0.0832552000000007,-0.0260199999999999,0,sub_6
-0.0245788000000003,0.0080364000000012,0.0165069999999999,-0.0069813999999994,0.0781384000000007,-0.0236755999999999,0,sub_6
-0.0235122000000003,0.0089592000000012,0.0192221999999999,-0.0070427999999994,0.0636542000000007,-0.0245119999999999,0,sub_6
-0.0185460000000003,0.0078632000000012,0.0205151999999999,-0.0094953999999994,0.0442584000000007,-0.0204449999999999,0,sub_6
-0.0085140000000003,0.0071100000000012,0.0220577999999999,-0.0106013999999994,0.0323438000000007,-0.0236421999999999,0,sub_6
-0.0021058000000003,0.0122942000000012,0.0252311999999999,-0.0048959999999994,0.0195422000000007,-0.0240132,0,sub_6
0.0016733999999996,0.0142038000000012,0.0259717999999999,-0.0017471999999994,0.0135434000000007,-0.0184288,0,sub_6
0.0002603999999996,0.0137766000000012,0.0204251999999999,0.0046530000000005,0.0245546000000007,-0.007075,0,sub_6
-0.0056228000000003,0.0118836000000012,0.0171095999999999,0.0142566000000005,0.0349206000000007,0.0030202,0,sub_6
-0.0118524000000003,0.0051234000000012,0.0176655999999999,0.0270618000000005,0.0359396000000007,0.0035356,0,sub_6
-0.0123632000000003,-0.0033709999999987,0.0171981999999999,0.0439518000000005,0.0346374000000007,-0.0051041999999999,0,sub_6
-0.0076728000000003,-0.0053473999999987,0.0216433999999999,0.0663982000000005,0.0297160000000007,-0.0192551999999999,0,sub_6
-0.0026678000000003,-0.0163623999999987,0.0310847999999999,0.0875874000000005,0.0343686000000007,-0.0289407999999999,0,sub_6
0.0024045999999996,-0.0194223999999987,0.0387841999999999,0.1011192000000005,0.0481938000000007,-0.0348459999999999,0,sub_6
0.0044669999999996,-0.0184311999999987,0.0433645999999999,0.1101566000000005,0.0626594000000007,-0.0371513999999999,0,sub_6
0.0010157999999996,-0.0141229999999987,0.0457495999999999,0.1052586000000005,0.0660802000000007,-0.0359079999999999,0,sub_6
1.8999999999622445e-05,-0.0166817999999987,0.0451841999999999,0.0931384000000005,0.0791044000000007,-0.0323774,0,sub_6
0.0031817999999996,-0.0102945999999987,0.0414407999999999,0.0795352000000005,0.0898090000000007,-0.0335544,0,sub_6
0.0076299999999996,-0.0105257999999987,0.0371675999999999,0.0705380000000005,0.0770768000000007,-0.0385148,0,sub_6
0.0116075999999996,-0.0070111999999987,0.0327683999999999,0.0633974000000005,0.0635180000000007,-0.0413211999999999,0,sub_6
0.0153013999999996,-0.0054321999999987,0.0300225999999998,0.0662034000000005,0.0784766000000007,-0.0447357999999999,0,sub_6
0.0143541999999996,-0.0009735999999987,0.0270675999999998,0.0685808000000005,0.0906766000000007,-0.0504997999999999,0,sub_6
0.0146597999999996,0.0034156000000012,0.0278029999999998,0.0683574000000005,0.0922396000000007,-0.0579773999999999,0,sub_6
0.0154041999999996,0.0061640000000012,0.0308681999999999,0.0692910000000005,0.1165844000000007,-0.0626987999999999,0,sub_6
0.0167933999999996,0.0035252000000012,0.0345221999999999,0.0720076000000005,0.1479080000000007,-0.0661384,0,sub_6
0.0141601999999996,0.0008100000000012,0.0348285999999999,0.0746628000000005,0.1651718000000007,-0.0699876,0,sub_6
0.0119361999999996,0.0002272000000012,0.0333129999999999,0.0819836000000005,0.1756030000000007,-0.0742228,0,sub_6
0.0086805999999996,0.0015698000000012,0.0295933999999999,0.0912486000000005,0.1847756000000007,-0.0850658,0,sub_6
-0.0001342000000003,0.0040242000000012,0.0292705999999999,0.1017708000000005,0.1911648000000007,-0.0935464,0,sub_6
-0.0091158000000003,0.0055158000000012,0.0293057999999999,0.1112274000000005,0.2013780000000007,-0.0984072,0,sub_6
-0.0123974000000003,0.0057796000000012,0.0292115999999999,0.1215682000000005,0.2194670000000007,-0.1022035999999999,0,sub_6
-0.0148618000000003,0.0042160000000012,0.0309061999999999,0.1323442000000005,0.2388354000000007,-0.1066395999999999,0,sub_6
-0.0180960000000003,0.0045258000000012,0.0337831999999999,0.1434914000000005,0.2543334000000007,-0.1025224,0,sub_6
-0.0172786000000003,0.0027186000000012,0.0337657999999999,0.1518456000000005,0.2649432000000007,-0.0990592,0,sub_6
-0.0130830000000003,0.0003112000000012,0.0328633999999999,0.1578306000000005,0.2657806000000007,-0.1005139999999999,0,sub_6
-0.0100798000000003,0.0012950000000012,0.0343973999999999,0.1610110000000005,0.2511096000000007,-0.1107279999999999,0,sub_6
-0.0026500000000003,0.0016872000000012,0.0359293999999999,0.1601756000000005,0.2273624000000007,-0.1386908,0,sub_6
0.0045071999999996,-0.0008401999999987,0.0366635999999999,0.1564174000000005,0.1994386000000007,-0.1852556,0,sub_6
0.0109499999999996,0.0004470000000012,0.0349539999999999,0.1529378000000005,0.1711476000000007,-0.2467734,0,sub_6
0.0138631999999996,0.0020882000000012,0.0322451999999999,0.1514436000000005,0.1373906000000007,-0.3283527999999999,0,sub_6
0.0187365999999996,0.0009254000000012,0.0295381999999999,0.1540304000000005,0.0979140000000007,-0.4216468,0,sub_6
-0.0579106000000003,0.0190210000000012,0.0325433999999999,0.1658648000000005,0.0317540000000007,-0.5101418,0,sub_6
-0.0896970000000003,0.0275138000000012,0.0262607999999999,0.1866764000000005,0.0865530000000007,-0.4327274000000001,0,sub_6
-0.1061640000000003,0.0242550000000012,0.0268963999999999,0.1986256000000005,0.0992656000000007,-0.3721988,0,sub_6
-0.1141406000000003,0.0231818000000012,0.0266405999999999,0.2162698000000004,0.1167798000000007,-0.2919812,0,sub_6
-0.1227036000000003,0.0226118000000012,0.0243783999999998,0.2240712000000004,0.1557358000000007,-0.1840862,0,sub_6
