userAcceleration.x,userAcceleration.y,userAcceleration.z,rotationRate.x,rotationRate.y,rotationRate.z,label,subject
-0.0135138000000002,0.0035244000000012,0.0275466,-0.0632039999999995,0.1116474000000008,-0.0342413999999999,0,sub_10
-0.0147062000000001,0.0022550000000012,0.0253812,-0.0689247999999995,0.1131888000000008,-0.0417607999999999,0,sub_10
-0.0153058000000001,0.0009288000000012,0.0264074,-0.0744485999999995,0.1121684000000007,-0.0482073999999999,0,sub_10
-0.0151380000000001,-0.0010559999999987,0.028068,-0.0785275999999995,0.1009138000000007,-0.0539899999999999,0,sub_10
-0.0146512000000001,-0.0030677999999987,0.030249,-0.0820173999999995,0.0802748000000007,-0.0578335999999999,0,sub_10
-0.0146012000000001,-0.0046347999999987,0.0312412,-0.0823093999999995,0.0596222000000007,-0.0610137999999999,0,sub_10
-0.0161790000000002,-0.0032407999999987,0.0302612,-0.0774449999999995,0.0468346000000007,-0.0641681999999999,0,sub_10
-0.0123480000000002,-0.0023459999999987,0.0290766,-0.0721221999999995,0.0415008000000007,-0.0669015999999999,0,sub_10
-0.0074914000000002,-0.0006477999999988,0.0278666,-0.0676279999999995,0.0453166000000007,-0.0660203999999999,0,sub_10
-0.0015056000000002,0.0027636000000011,0.027805,-0.0639977999999995,0.0525214000000007,-0.0593811999999999,0,sub_10
0.0018705999999997,0.0054100000000011,0.0286894,-0.0597695999999995,0.0531082000000007,-0.0499521999999999,0,sub_10
0.0062753999999997,0.0064274000000011,0.030254,-0.0536691999999995,0.0430356000000007,-0.0404963999999999,0,sub_10
0.0054081999999997,0.0077966000000011,0.0296746,-0.0452359999999995,0.0295468000000007,-0.0312335999999999,0,sub_10
0.0039607999999997,0.0096798000000011,0.0267054,-0.0365509999999995,0.0209720000000007,-0.0256071999999999,0,sub_10
0.0020633999999997,0.0108694000000011,0.0261282,-0.0303707999999995,0.0207314000000007,-0.0240681999999999,0,sub_10
0.0043633999999997,0.0101750000000011,0.0262048,-0.0271691999999995,0.0215698000000007,-0.0234059999999999,0,sub_10
0.0044383999999997,0.0092290000000011,0.0256602,-0.0252639999999995,0.0185786000000007,-0.0229613999999999,0,sub_10
0.0053261999999997,0.0084706000000011,0.0243578,-0.0250725999999995,0.0138898000000008,-0.0227403999999999,0,sub_10
0.0066949999999997,0.0077024000000012,0.0254024,-0.0238373999999995,0.0051450000000008,-0.0214387999999999,0,sub_10
0.0073175999999997,0.0079064000000012,0.024801,-0.0192055999999995,-0.0059613999999991,-0.0186149999999999,0,sub_10
0.0053087999999997,0.0091090000000012,0.02461,-0.0147881999999995,-0.0166433999999991,-0.0151519999999999,0,sub_10
0.0027733999999997,0.0093132000000012,0.025228,-0.0103821999999995,-0.0286085999999991,-0.0104057999999999,0,sub_10
-0.0002990000000002,0.0082576000000012,0.0261788,-0.0027975999999995,-0.0473951999999991,-0.0075513999999999,0,sub_10
-0.0040948000000002,0.0066348000000012,0.0265078,0.0069360000000004,-0.0653267999999991,-0.0072467999999999,0,sub_10
-0.0069420000000002,0.0041448000000011,0.0266352,0.0158334000000004,-0.0826033999999991,-0.0101533999999999,0,sub_10
-0.0046192000000002,0.0031354000000011,0.027039,0.0251634000000004,-0.0979665999999991,-0.0124185999999999,0,sub_10
-0.0011632000000002,0.0041860000000011,0.0287072,0.0348912000000004,-0.1169643999999991,-0.0118989999999999,0,sub_10
0.0020673999999997,0.0062434000000011,0.0303966,0.0431380000000004,-0.1314895999999991,-0.0096861999999999,0,sub_10
0.0054115999999997,0.0088202000000011,0.0299842,0.0475996000000004,-0.1429979999999991,-0.0068653999999999,0,sub_10
0.0082875999999997,0.0112912000000011,0.0294496,0.0495122000000004,-0.1525773999999991,-0.0047057999999999,0,sub_10
0.0081447999999997,0.0130388000000012,0.0277368,0.0582412000000004,-0.1687691999999991,-0.0065493999999999,0,sub_10
0.0092525999999997,0.0124414000000011,0.0273206,0.0640338000000004,-0.1764173999999991,-0.0112017999999999,0,sub_10
0.0086847999999997,0.0093440000000011,0.0266612,0.0655464000000004,-0.1866081999999991,-0.0156671999999999,0,sub_10
0.0074097999999997,0.0055424000000011,0.0284496,0.0708260000000004,-0.2042881999999991,-0.0211623999999999,0,sub_10
0.0051223999999997,0.0035468000000012,0.0278828,0.0788854000000004,-0.2196385999999991,-0.0255729999999999,0,sub_10
0.0042941999999997,0.0042816000000012,0.0279836,0.0820506000000004,-0.2281693999999991,-0.0261809999999999,0,sub_10
0.0040337999999997,0.0073234000000012,0.0274322,0.0841354000000004,-0.2356471999999992,-0.0227385999999999,0,sub_10
0.0052865999999997,0.0121070000000012,0.029082,0.0841058000000004,-0.2363101999999991,-0.0167559999999999,0,sub_10
0.0045611999999997,0.0157478000000012,0.0283559999999999,0.0819586000000004,-0.2322827999999991,-0.0097257999999999,0,sub_10
0.0041827999999997,0.0173906000000011,0.0287681999999999,0.0842672000000004,-0.2376299999999991,-0.0064981999999999,0,sub_10
0.0046327999999997,0.0149362000000011,0.0279865999999999,0.0874284000000004,-0.2474371999999992,-0.0075317999999999,0,sub_10
0.0068003999999997,0.0112912000000011,0.02781,0.0903744000000004,-0.2589431999999991,-0.0098465999999999,0,sub_10
0.0073451999999997,0.0077990000000011,0.0260118,0.0939720000000004,-0.2689557999999991,-0.0132269999999999,0,sub_10
0.0048917999999997,0.0059508000000011,0.0248614,0.0965210000000004,-0.2755531999999992,-0.0172599999999999,0,sub_10
-0.0048100000000002,0.0045926000000011,0.0247696,0.0973898000000004,-0.2746937999999992,-0.0198187999999999,0,sub_10
-0.0158602000000002,0.0042276000000011,0.0267242,0.0950916000000003,-0.2621223999999992,-0.0181417999999999,0,sub_10
-0.0283286000000002,-0.0009901999999988,0.0304272,0.0885606000000003,-0.2378341999999992,-0.0124499999999999,0,sub_10
-0.0402280000000002,-0.0056019999999988,0.0319144,0.0777946000000004,-0.2031041999999992,-0.0035965999999999,0,sub_10
-0.0499342000000002,-0.0104421999999987,0.0339212,0.0659724000000004,-0.1658147999999992,0.0054598,0,sub_10
-0.0492336000000002,-0.0142705999999987,0.0359622,0.0509688000000004,-0.1259507999999992,0.0127816,0,sub_10
-0.0475128000000002,-0.0174219999999987,0.0375985999999999,0.0325636000000004,-0.0867003999999991,0.016662,0,sub_10
-0.0454828000000002,-0.0135709999999987,0.0342806,0.0156778000000004,-0.0472199999999991,0.014998,0,sub_10
-0.0440626000000002,-0.0087991999999987,0.0328602,0.0062408000000004,-0.0162707999999992,0.009124,0,sub_10
-0.0385994000000002,-0.0048437999999987,0.035013,0.0001882000000004,0.0074252000000007,0.002642,0,sub_10
-0.0334462000000001,-0.0024465999999987,0.0378132,-0.0018813999999995,0.0189486000000007,-0.0001645999999999,0,sub_10
-0.0303302000000001,-0.0013087999999987,0.0383118,0.0007108000000004,0.0261826000000007,5.800000000005696e-05,0,sub_10
-0.0271712000000001,-0.0014037999999987,0.0381138,0.0015854000000004,0.0338376000000007,0.0030452,0,sub_10
-0.0242360000000001,-0.0046445999999987,0.0405364,-0.0015901999999995,0.0438444000000007,0.0074968,0,sub_10
-0.0241308000000001,-0.0074911999999987,0.0408718,-0.0060567999999995,0.0527852000000007,0.0132224,0,sub_10
-0.0300468000000001,-0.0086149999999987,0.0398716,-0.0122147999999995,0.0634434000000007,0.017225,0,sub_10
-0.0326252000000001,-0.0081973999999987,0.0373366,-0.0217455999999995,0.0807284000000007,0.0186318,0,sub_10
-0.0328926000000002,-0.0082513999999987,0.036563,-0.0310485999999995,0.1003594000000007,0.0191826,0,sub_10
-0.0340104000000002,-0.0081203999999987,0.0356012,-0.0418557999999995,0.1191376000000008,0.0212194,0,sub_10
-0.0353888000000002,-0.0079297999999987,0.0349052,-0.0533115999999995,0.1351518000000007,0.0224008,0,sub_10
-0.0333844000000002,-0.0076447999999987,0.0332072,-0.0645359999999995,0.1541520000000008,0.0225116,0,sub_10
-0.0313488000000002,-0.0057565999999987,0.0331948,-0.0734449999999995,0.1661134000000008,0.0226476,0,sub_10
-0.0288686000000002,-0.0019737999999987,0.0320922,-0.0748963999999995,0.1759174000000007,0.0230522,0,sub_10
-0.0204698000000002,0.0032354000000011,0.0328296,-0.0693199999999995,0.1833506000000007,0.02415,0,sub_10
-0.0112188000000002,0.0092302000000011,0.0343722,-0.0605363999999995,0.1948104000000007,0.0278286,0,sub_10
-0.0008546000000002,0.0133978000000011,0.0374646,-0.0462153999999995,0.2041196000000008,0.0317624,0,sub_10
0.0070267999999997,0.0174210000000011,0.037196,-0.0206279999999995,0.2031660000000008,0.0349334,0,sub_10
0.0191311999999997,0.0282864000000012,0.0306836,0.0172784000000004,0.1889624000000008,0.0375664,0,sub_10
0.0307389999999997,0.0408030000000012,0.0188786,0.0704806000000004,0.1642476000000008,0.0448062,0,sub_10
0.0485587999999997,0.0520996000000012,0.0064258,0.1410614000000004,0.1289690000000007,0.0679908,0,sub_10
0.0747811999999998,0.0656408000000011,-0.0077317999999999,0.2277136000000004,0.0907464000000007,0.1207742,0,sub_10
0.1049409999999997,0.0733788000000012,-0.0185669999999999,0.3349202000000004,0.0561440000000007,0.2093752,0,sub_10
0.1303901999999998,0.0621082000000012,-0.0224887999999999,0.4578636000000003,0.0284424000000007,0.316878,0,sub_10
0.1556181999999998,0.0434132000000012,-0.0285467999999999,0.5976798000000004,-0.0022745999999992,0.4178796,0,sub_10
0.1775935999999998,0.0207028000000012,-0.0351527999999999,0.7445954000000005,-0.0580197999999992,0.4903318,0,sub_10
0.1877295999999997,4.94000000012193e-05,-0.0279969999999999,0.8830086000000005,-0.1406557999999992,0.5283624,0,sub_10
0.1977367999999998,-0.0073121999999988,-0.0193979999999999,1.0105226000000005,-0.2525525999999992,0.5407170000000001,0,sub_10
0.2059013999999998,-0.0004751999999987,-0.0110041999999999,1.1331924000000004,-0.4547299999999992,0.5435396000000001,0,sub_10
0.2342141999999998,0.0006806000000012,0.0219572,0.8774486000000005,-0.6474673999999992,0.4319708,0,sub_10
0.2761377999999997,0.0022992000000012,0.0374536,0.6354416000000004,-0.6863193999999992,0.4476354,0,sub_10
0.2835937999999998,0.0273338000000012,0.0194878,0.4726316000000004,-0.6225641999999991,0.416079,0,sub_10
0.2505767999999998,0.0364726000000012,-0.0109801999999999,0.3555850000000005,-0.7139969999999991,0.2062208,0,sub_10
0.2722573999999998,0.0780480000000012,-0.0554431999999999,0.2323080000000004,-0.7544961999999992,0.104785,0,sub_10
0.2646577999999998,0.1231794000000012,-0.1249165999999999,0.4029576000000004,-0.7125051999999992,0.1119052,0,sub_10
0.2251835999999998,0.1316174000000012,-0.1266281999999999,0.5047482000000004,-0.8123941999999993,-0.0378749999999999,0,sub_10
0.2517511999999998,0.1261232000000011,-0.0991653999999999,0.5583758000000004,-1.0488225999999992,-0.100009,0,sub_10
0.2246723999999997,0.1137162000000012,-0.0817569999999999,0.4194268000000004,-1.0871373999999991,0.0697695999999999,0,sub_10
0.1429663999999997,0.0549554000000012,-0.0418401999999999,0.2951266000000004,-1.091916599999999,0.0990295999999999,0,sub_10
0.0955033999999998,0.0047784000000012,-0.0054313999999999,0.2506364000000005,-1.1928379999999992,0.1259791999999999,0,sub_10
0.0634241999999998,-0.0050587999999987,-0.0211513999999999,0.2499882000000004,-1.2259185999999993,0.1990815999999999,0,sub_10
-0.0125626000000001,-0.0327929999999987,-0.0260899999999999,0.1982362000000004,-1.188743799999999,0.2232398,0,sub_10
-0.0009864000000001,-0.0487477999999987,-0.0033835999999999,0.2486242000000004,-1.199522999999999,0.1580167999999999,0,sub_10
0.0093597999999998,-0.0398679999999987,0.0097478,0.2538490000000004,-1.2128387999999992,0.0736808,0,sub_10
-0.0207040000000002,-0.0415485999999987,0.019293,0.2118868000000004,-1.2116321999999993,-0.0849243999999999,0,sub_10
-0.0141232000000002,-0.0429043999999987,0.031005,0.1039160000000004,-1.1809795999999992,-0.1974537999999999,0,sub_10
0.0477777999999998,-0.0452197999999987,0.0092192,-0.0108713999999995,-1.0995333999999992,-0.1660995999999999,0,sub_10
0.0694609999999998,-0.0343901999999987,-0.0426085999999999,-0.0171317999999995,-0.8639303999999992,-0.1517038,0,sub_10
0.0514191999999998,-0.0652059999999987,-0.0514569999999999,0.0579378000000004,-0.7904239999999992,-0.1640921999999999,0,sub_10
0.1076103999999998,-0.0517839999999987,-0.0430075999999999,0.0494068000000004,-0.7664119999999992,-0.1408952,0,sub_10
0.1415823999999998,-0.0359019999999987,-0.0455317999999999,0.0686054000000004,-0.7089769999999992,-0.081869,0,sub_10
0.1184925999999998,0.0017318000000012,-0.0304139999999999,0.1221922000000004,-0.6868779999999992,-0.1135696,0,sub_10
0.0994329999999998,0.0093248000000012,0.0310866,0.1319322000000004,-0.8742869999999993,-0.1418898,0,sub_10
0.1073365999999998,0.0366388000000012,0.0533154,0.0671012000000004,-0.9537519999999992,-0.086907,0,sub_10
0.0505299999999998,0.0294408000000012,0.0581286,0.1051646000000004,-0.9775119999999992,0.0142294,0,sub_10
-0.0098032000000001,0.0208432000000012,0.0371402,0.1749050000000004,-1.0700483999999992,0.0246628,0,sub_10
-0.0542092000000001,-0.0071649999999987,0.0166974,0.2085104000000004,-1.1277679999999992,-0.0089979999999999,0,sub_10
-0.0520606000000001,-0.0146763999999987,-0.0135459999999999,0.1713806000000004,-1.0442895999999993,-0.0202602,0,sub_10
-0.0240156000000002,-0.0076127999999987,-0.0374633999999999,0.1305356000000004,-0.8709689999999993,-0.0647782,0,sub_10
0.0096133999999997,0.0069774000000012,-0.0560817999999999,0.1050332000000004,-0.7013273999999992,-0.1083297999999999,0,sub_10
0.0380653999999997,0.0303912000000011,-0.0424033999999999,0.0728124000000004,-0.5799027999999992,-0.129434,0,sub_10
0.0744547999999997,0.0550458000000011,-0.0342623999999999,0.0461902000000004,-0.5093369999999992,-0.1175325999999999,0,sub_10
0.1037967999999997,0.0739366000000011,-0.0398703999999999,0.0568196000000004,-0.4746081999999991,-0.0737055999999999,0,sub_10
0.1138905999999997,0.0836428000000011,-0.0536597999999999,0.1019410000000004,-0.4856675999999991,-0.0112057999999999,0,sub_10
0.1176903999999997,0.0815052000000012,-0.0595857999999999,0.1505584000000004,-0.5212595999999992,0.05605,0,sub_10
0.1161203999999997,0.0663978000000012,-0.0585119999999999,0.1975674000000004,-0.5582431999999992,0.0997956,0,sub_10
0.1107315999999997,0.0530700000000012,-0.0517471999999999,0.2472712000000004,-0.6004213999999992,0.1083152,0,sub_10
0.1010217999999997,0.0426724000000012,-0.0405523999999999,0.2846396000000004,-0.6522819999999993,0.0979604,0,sub_10
0.0922953999999997,0.0332690000000012,-0.0283145999999999,0.2890198000000004,-0.6910077999999993,0.08159,0,sub_10
0.0789605999999998,0.0259050000000012,-0.0118451999999999,0.2797818000000004,-0.7404895999999992,0.0544544,0,sub_10
0.0684403999999998,0.0237862000000012,-0.0059069999999999,0.2827532000000004,-0.7774523999999993,0.0295244,0,sub_10
0.0573457999999998,0.0238702000000012,-0.0121807999999999,0.2945486000000004,-0.7806385999999993,0.0217044,0,sub_10
0.0319465999999998,0.0224466000000012,-0.0082417999999999,0.2830576000000004,-0.7888615999999992,0.01501,0,sub_10
0.0158113999999998,0.0155638000000012,-0.0017819999999999,0.2807664000000004,-0.7973067999999992,0.0026118,0,sub_10
0.0139219999999998,0.0145322000000012,-0.0058465999999999,0.3062144000000004,-0.7884327999999992,-0.0008537999999999,0,sub_10
0.0049395999999998,0.0124710000000012,-0.0111033999999999,0.3158540000000004,-0.7436801999999992,-0.0119531999999999,0,sub_10
-0.0026030000000001,0.0096066000000012,-0.0030401999999999,0.3149966000000004,-0.7625663999999992,-0.0300947999999999,0,sub_10
0.0145911999999997,0.0121996000000012,0.00046,0.3552588000000004,-0.7863195999999992,-0.0389698,0,sub_10
0.0309317999999997,0.0223910000000012,-0.0067197999999999,0.3971308000000004,-0.7700811999999992,-0.0335705999999999,0,sub_10
0.0418023999999997,0.0297464000000012,-0.0093929999999999,0.3913414000000004,-0.7344583999999992,-0.0392113999999999,0,sub_10
0.0463409999999998,0.0294424000000012,-0.0004345999999999,0.3812410000000004,-0.7571925999999991,-0.0460893999999999,0,sub_10
0.0516323999999998,0.0270996000000012,0.0083782,0.3926294000000004,-0.7552515999999991,-0.061822,0,sub_10
0.0495235999999998,0.0258212000000011,0.0051904,0.3997944000000004,-0.7451927999999992,-0.0793038,0,sub_10
0.0439437999999998,0.0237250000000011,0.0018844,0.3993234000000004,-0.7732409999999992,-0.0976446,0,sub_10
0.0389833999999998,0.0240446000000011,-0.0101643999999999,0.4092944000000004,-0.7890299999999992,-0.1005457999999999,0,sub_10
0.0316109999999998,0.0272572000000011,-0.0175715999999999,0.4149054000000005,-0.7718049999999993,-0.0973239999999999,0,sub_10
0.0305719999999998,0.0287494000000011,-0.0101239999999999,0.4197452000000004,-0.7315859999999993,-0.0894367999999999,0,sub_10
0.0372675999999998,0.0282328000000011,0.002097,0.4405510000000004,-0.6435201999999992,-0.0727399999999999,0,sub_10
0.0429637999999997,0.0315778000000011,0.005265,0.4624680000000004,-0.5378061999999992,-0.0481534,0,sub_10
0.0326915999999998,0.0309490000000012,0.0031578,0.4552560000000004,-0.4571283999999992,-0.0243789999999999,0,sub_10
0.0295395999999997,0.0256704000000012,-0.0010649999999999,0.4296676000000004,-0.4294383999999992,-0.0004514,0,sub_10
0.0198477999999998,0.0239778000000012,-0.0216009999999999,0.4028820000000004,-0.4366613999999992,0.0175306,0,sub_10
0.0113505999999998,0.0217236000000012,-0.0364095999999999,0.3527828000000004,-0.5202233999999992,0.0187832,0,sub_10
0.0130857999999998,0.0134482000000012,-0.0329649999999999,0.2907192000000004,-0.6092743999999992,0.017823,0,sub_10
0.0329113999999998,0.0119566000000012,-0.0172111999999999,0.2733780000000004,-0.6746015999999992,0.0126582,0,sub_10
0.0438823999999998,0.0174210000000011,-0.0112171999999999,0.3134142000000004,-0.6934843999999991,0.0114664,0,sub_10
0.0385023999999998,0.0197374000000011,-0.0116199999999999,0.3505516000000004,-0.6842679999999992,0.0187641999999999,0,sub_10
0.0270151999999998,0.0135130000000011,-0.0212779999999999,0.3932132000000004,-0.6371297999999992,0.0217791999999999,0,sub_10
0.0091141999999998,0.0078730000000012,-0.0341201999999999,0.4556570000000004,-0.6215211999999992,0.0070265999999999,0,sub_10
-0.0037626000000001,-0.0008211999999987,-0.0431423999999999,0.4997992000000004,-0.6467381999999992,-0.0120744,0,sub_10
-0.0047986000000001,-0.0067495999999987,-0.0413749999999999,0.5046934000000005,-0.6624701999999992,-0.0248386,0,sub_10
0.0034109999999998,-0.0091339999999987,-0.0342533999999999,0.4970714000000004,-0.6566609999999992,-0.0323767999999999,0,sub_10
0.0065033999999998,-0.0067675999999987,-0.0276891999999999,0.4970032000000004,-0.6641485999999992,-0.0246763999999999,0,sub_10
0.0053233999999998,-0.0072229999999987,-0.0184661999999999,0.5009768000000004,-0.6625367999999991,-0.0049953999999999,0,sub_10
-0.0017234000000001,-0.0114451999999987,-0.0101241999999999,0.5048482000000004,-0.6298439999999992,0.0210544,0,sub_10
-0.0001436000000002,-0.0163393999999987,-0.0069163999999999,0.5192914000000004,-0.6233751999999992,0.0425114,0,sub_10
0.0034795999999997,-0.0178047999999987,-0.0112135999999999,0.5530622000000005,-0.6393345999999992,0.0615683999999999,0,sub_10
0.0093873999999997,-0.0163979999999987,-0.0116459999999999,0.5679274000000005,-0.6360545999999992,0.080896,0,sub_10
0.0153971999999997,-0.0090777999999987,-0.0110297999999999,0.5587350000000004,-0.6222447999999992,0.0985466,0,sub_10
0.0144455999999997,-0.0019965999999987,-0.0064401999999999,0.5514276000000005,-0.6250249999999992,0.1074721999999999,0,sub_10
0.0090687999999998,0.0075674000000012,-0.0054503999999999,0.5429738000000004,-0.6442115999999991,0.1176926,0,sub_10
-0.0028286000000001,0.0064348000000012,0.0002882,0.5171122000000004,-0.6931567999999991,0.1256932,0,sub_10
-0.0185020000000001,0.0018380000000012,0.0045524,0.4976096000000004,-0.7614719999999991,0.1237216,0,sub_10
-0.0339568000000001,-0.0069753999999987,0.003573,0.4999304000000004,-0.8240809999999993,0.1144175999999999,0,sub_10
-0.0501394000000001,-0.0129373999999987,-0.0042743999999999,0.4991426000000004,-0.8645281999999993,0.1067726,0,sub_10
-0.0619570000000001,-0.0221847999999987,-0.0088079999999999,0.4842948000000005,-0.850392399999999,0.101096,0,sub_10
-0.0729946000000001,-0.0279259999999987,-0.0100191999999999,0.4526686000000005,-0.7729141999999992,0.0937254,0,sub_10
-0.0842754000000001,-0.0375037999999987,-0.0114295999999999,0.4093284000000005,-0.6485011999999991,0.080872,0,sub_10
-0.0902714000000002,-0.0394197999999987,-0.0077541999999999,0.3540078000000005,-0.5304405999999993,0.0685838,0,sub_10
-0.0867842000000002,-0.0440681999999987,-0.0053891999999999,0.3048454000000004,-0.4247485999999991,0.0587021999999999,0,sub_10
-0.0827110000000002,-0.0466647999999987,-0.0101115999999999,0.2793000000000004,-0.3338407999999991,0.0492182,0,sub_10
-0.0689076000000002,-0.0466793999999987,-0.0181779999999999,0.2741312000000004,-0.2634713999999992,0.0433212,0,sub_10
-0.0516944000000001,-0.0349151999999987,-0.0226831999999999,0.2702680000000004,-0.2297727999999992,0.0426076,0,sub_10
-0.0410528000000001,-0.0303019999999987,-0.0264833999999999,0.2642366000000004,-0.2003415999999991,0.0453028,0,sub_10
-0.0321682000000001,-0.0229017999999987,-0.0267033999999999,0.2662740000000004,-0.1724459999999992,0.0472041999999999,0,sub_10
-0.0350046000000002,-0.0279149999999987,-0.0236331999999999,0.2705962000000004,-0.1654097999999992,0.0420978,0,sub_10
-0.0348172000000001,-0.0244611999999987,-0.0229745999999999,0.2799290000000004,-0.1775875999999991,0.0423922,0,sub_10
-0.0318258000000001,-0.0249517999999987,-0.0247029999999999,0.2949778000000004,-0.1870669999999992,0.0555417999999999,0,sub_10
-0.0308410000000001,-0.0255569999999987,-0.0275145999999999,0.3079436000000004,-0.1831249999999992,0.070796,0,sub_10
-0.0361518000000001,-0.0258575999999987,-0.0276665999999999,0.3052224000000004,-0.1641825999999992,0.0780165999999999,0,sub_10
-0.0353334000000001,-0.0127581999999987,-0.0225013999999999,0.2854736000000004,-0.1332597999999992,0.0876668,0,sub_10
-0.0413890000000001,-0.0097647999999987,-0.0151299999999999,0.2537866000000004,-0.1148055999999992,0.0822943999999999,0,sub_10
-0.0551806000000001,-0.0086143999999987,-0.0124899999999999,0.2295350000000004,-0.1222949999999991,0.0582063999999999,0,sub_10
-0.0678474000000002,-0.0052947999999987,-0.0162263999999999,0.2191278000000003,-0.1464065999999991,0.0231269999999999,0,sub_10
-0.0733606000000001,-0.0007877999999987,-0.0229787999999999,0.2131630000000003,-0.1754487999999991,-0.0082832,0,sub_10
-0.0757354000000002,0.0017302000000012,-0.0313025999999999,0.2046760000000003,-0.1932011999999991,-0.0369481999999999,0,sub_10
-0.0758572000000001,0.0028310000000012,-0.0370887999999999,0.1919810000000004,-0.1869071999999991,-0.0547775999999999,0,sub_10
-0.0671344000000001,0.0005500000000012,-0.0388171999999999,0.1710278000000004,-0.1529417999999991,-0.0590267999999999,0,sub_10
-0.0518564000000001,-0.0034761999999987,-0.0342157999999999,0.1348964000000004,-0.1136439999999991,-0.0516383999999999,0,sub_10
-0.0430174000000001,-0.0116755999999987,-0.0302633999999999,0.1003846000000004,-0.0956495999999992,-0.0461341999999999,0,sub_10
-0.0402382000000001,-0.0196419999999987,-0.0290901999999999,0.0819858000000004,-0.1041169999999992,-0.0439017999999999,0,sub_10
-0.0385318000000001,-0.0189683999999987,-0.0347987999999999,0.0790988000000004,-0.1271255999999992,-0.0417559999999999,0,sub_10
-0.0314194000000001,-0.0127537999999987,-0.0393175999999999,0.0800832000000004,-0.1460883999999991,-0.0423655999999999,0,sub_10
-0.0247368000000001,-0.0061027999999988,-0.0448857999999999,0.0809664000000004,-0.1350305999999991,-0.0378871999999999,0,sub_10
-0.0181330000000001,-0.0026537999999988,-0.0458447999999999,0.0720682000000004,-0.1128741999999991,-0.0298591999999999,0,sub_10
-0.0106912000000001,0.0019866000000011,-0.0434401999999999,0.0626644000000004,-0.1035181999999991,-0.0171182,0,sub_10
-0.0052410000000001,0.0007036000000011,-0.0361867999999999,0.0527936000000004,-0.1052307999999991,-0.0065026,0,sub_10
