userAcceleration.x,userAcceleration.y,userAcceleration.z,rotationRate.x,rotationRate.y,rotationRate.z,label,subject
0.0027341999999996,-0.0004297999999987,0.0007088,0.0001666000000005,-0.0319827999999991,-0.0037422,0,sub_2
0.0081947999999996,0.0003934000000012,0.001675,-0.0030801999999994,-0.0394401999999991,-0.0058868,0,sub_2
0.0078389999999996,0.0014476000000012,0.0013878,-0.0112219999999994,-0.0381691999999991,-0.0020948,0,sub_2
0.0021503999999996,0.0078576000000012,0.0006498,-0.0173945999999994,-0.0239171999999991,0.0038307999999999,0,sub_2
-0.0046200000000003,0.0133626000000012,0.000523,-0.0169909999999994,-0.0192715999999992,0.0087465999999999,0,sub_2
-0.0100012000000003,0.0143794000000012,0.0018452,-0.0101687999999994,-0.0182395999999992,0.0111429999999999,0,sub_2
-0.0139044000000003,0.0137406000000012,0.0049604,0.0015964000000005,-0.0133735999999992,0.0095097999999999,0,sub_2
-0.0143192000000003,0.0129588000000012,0.0081036,0.0144190000000005,-0.0103903999999992,0.0053169999999999,0,sub_2
-0.0108606000000003,0.0087906000000012,0.0100824,0.0231702000000005,-0.0105913999999992,0.0017407999999999,0,sub_2
-0.0035576000000003,0.0054812000000012,0.0109648,0.0251050000000005,-0.0065141999999992,-0.0001794,0,sub_2
0.0019033999999996,0.0043898000000012,0.0107796,0.0212920000000005,0.0037490000000007,0.0010569999999999,0,sub_2
0.0028059999999996,0.0052966000000012,0.0083982,0.0170420000000005,0.0144286000000007,0.0050671999999999,0,sub_2
0.0008567999999996,0.0082288000000012,0.007014,0.0162268000000005,0.0267734000000007,0.0088913999999999,0,sub_2
-0.0024684000000003,0.0084964000000012,0.0037188,0.0201106000000005,0.0376206000000007,0.0101865999999999,0,sub_2
-0.0042776000000003,0.0086428000000012,-0.0006379999999999,0.0246374000000005,0.0463462000000007,0.0087113999999999,0,sub_2
-0.0044666000000003,0.0079278000000012,-0.0051023999999999,0.0289270000000005,0.0471996000000008,0.0046809999999999,0,sub_2
0.0015949999999996,0.0052462000000012,-0.0097729999999999,0.0300008000000005,0.0451400000000007,0.0004077999999999,0,sub_2
0.0105193999999996,0.0011114000000012,-0.0147461999999999,0.0248524000000005,0.0369176000000007,-0.0024056,0,sub_2
0.0198901999999996,0.0007168000000012,-0.0173109999999999,0.0147734000000005,0.0265700000000007,-0.0022598,0,sub_2
0.0231307999999996,0.0013038000000012,-0.0197833999999999,0.0050962000000005,0.0125912000000007,-0.0001836,0,sub_2
0.0229933999999996,0.0014578000000012,-0.0228601999999999,-0.0005413999999994,-0.0041731999999992,0.0023515999999999,0,sub_2
0.0198057999999996,0.0011612000000012,-0.0239899999999999,-0.0027651999999994,-0.0237681999999992,0.0027883999999999,0,sub_2
0.0158535999999996,0.0012970000000012,-0.0227995999999999,-0.0034897999999994,-0.0442121999999992,0.0011003999999999,0,sub_2
0.0116465999999996,0.0016726000000012,-0.0201771999999999,-0.0057035999999994,-0.0663277999999992,-0.0020912,0,sub_2
0.0116679999999996,0.0011680000000012,-0.0169165999999999,-0.0121963999999994,-0.0909851999999992,-0.0053096,0,sub_2
0.0156955999999996,-2.7399999998708663e-05,-0.0146611999999999,-0.0257427999999994,-0.1169019999999991,-0.00708,0,sub_2
0.0197821999999996,-0.0021759999999987,-0.0138527999999999,-0.0429195999999994,-0.1415357999999991,-0.0069548,0,sub_2
0.0204579999999996,-0.0033085999999987,-0.0138693999999999,-0.0583699999999994,-0.1597923999999992,-0.0046892,0,sub_2
0.0172239999999996,-0.0010373999999987,-0.0133829999999999,-0.0686731999999994,-0.1697845999999991,-0.0011164,0,sub_2
0.0107795999999996,0.0023100000000012,-0.0111331999999999,-0.0723377999999994,-0.1755343999999992,0.0014291999999999,0,sub_2
0.0010377999999996,0.0058646000000012,-0.0068693999999999,-0.0704213999999994,-0.1751201999999992,0.0027237999999999,0,sub_2
-0.0097102000000003,0.0094862000000012,-0.0024935999999999,-0.0639721999999994,-0.1647019999999991,0.0025419999999999,0,sub_2
-0.0135962000000003,0.0109262000000012,0.0005157999999999,-0.0557821999999994,-0.1512535999999991,0.0002259999999999,0,sub_2
-0.0109266000000003,0.0084644000000012,0.0017363999999999,-0.0503955999999994,-0.1463097999999992,-0.0040216,0,sub_2
-0.0008406000000003,0.0034044000000012,-0.00102,-0.0510141999999994,-0.1466775999999992,-0.0068088,0,sub_2
0.0120647999999996,-0.0023489999999987,-0.004135,-0.0593389999999994,-0.1514967999999991,-0.0085758,0,sub_2
0.0271683999999996,-0.0077151999999987,-0.0078148,-0.0770867999999994,-0.1626799999999992,-0.0091188,0,sub_2
0.0381941999999996,-0.0102271999999986,-0.0120071999999999,-0.1013041999999994,-0.1849713999999991,-0.0079776,0,sub_2
0.0413151999999996,-0.0110255999999986,-0.0143839999999999,-0.1236319999999994,-0.2109041999999991,-0.0036138,0,sub_2
0.0321289999999996,-0.0080989999999986,-0.0116971999999999,-0.1395143999999994,-0.2259333999999992,0.0033307999999999,0,sub_2
0.0153035999999996,0.0007616000000013,-0.0078341999999999,-0.1467889999999994,-0.2252247999999991,0.0098879999999999,0,sub_2
-0.0068682000000003,0.0111246000000013,7.180000000001421e-05,-0.1390843999999994,-0.2171029999999991,0.0144039999999999,0,sub_2
-0.0306626000000003,0.0201096000000013,0.0093026,-0.1199819999999994,-0.1926019999999992,0.0155601999999999,0,sub_2
-0.0475856000000003,0.0270304000000012,0.0184702,-0.0950339999999994,-0.1531921999999992,0.0128925999999999,0,sub_2
-0.0562072000000003,0.0299746000000012,0.0252566,-0.0662167999999994,-0.1095905999999991,0.0066285999999999,0,sub_2
-0.0567940000000003,0.0271786000000012,0.030496,-0.0335549999999994,-0.0651503999999992,0.0003905999999999,0,sub_2
-0.0533262000000003,0.0223222000000012,0.0319818,-0.0042783999999994,-0.0121845999999992,-0.0037456,0,sub_2
-0.0472306000000003,0.0187768000000012,0.0336756,0.0202868000000005,0.0412066000000007,-0.0036424,0,sub_2
-0.0441808000000003,0.0169382000000012,0.0325382,0.0393108000000005,0.0986550000000007,-0.0010194,0,sub_2
-0.0433438000000003,0.0188010000000012,0.0292668,0.0538388000000005,0.1533468000000007,0.0022167999999999,0,sub_2
-0.0447260000000003,0.0223668000000012,0.025103,0.0640906000000005,0.2061362000000008,0.0054253999999999,0,sub_2
-0.0453352000000003,0.0270544000000012,0.0198566,0.0770848000000005,0.2510362000000007,0.0078085999999999,0,sub_2
-0.0447410000000003,0.0299190000000012,0.0149003999999999,0.0969030000000005,0.2920894000000008,0.0072535999999999,0,sub_2
-0.0420600000000003,0.0306368000000012,0.0143853999999999,0.1218354000000005,0.3303600000000007,0.0054557999999999,0,sub_2
-0.0400908000000003,0.0262042000000012,0.0160081999999999,0.1487180000000005,0.3765018000000008,0.0049433999999999,0,sub_2
-0.0361398000000003,0.0209670000000012,0.0174807999999999,0.1758206000000005,0.4224366000000008,0.0027237999999999,0,sub_2
-0.0250196000000003,0.0148400000000012,0.0151805999999999,0.1966796000000004,0.4553994000000008,-0.0001636,0,sub_2
-0.0137464000000003,0.0080662000000012,0.0105064,0.2038110000000005,0.4726432000000008,-0.0029134,0,sub_2
-0.0016612000000003,0.0026422000000012,0.001514,0.1959432000000005,0.4758778000000008,-0.0057498,0,sub_2
0.0175917999999996,-0.0017595999999987,-0.0081119999999999,0.1766160000000005,0.4461268000000007,-0.0081968,0,sub_2
0.0352519999999996,-0.0058609999999986,-0.0162515999999999,0.1507784000000005,0.3952932000000008,-0.0074576,0,sub_2
0.0447685999999996,-0.0090273999999986,-0.0228735999999999,0.1195960000000005,0.3453178000000007,-0.0035522,0,sub_2
0.0487053999999996,-0.0097505999999986,-0.0312753999999999,0.0924598000000005,0.2948968000000008,0.0016639999999999,0,sub_2
0.0510797999999996,-0.0108681999999986,-0.0386145999999999,0.0720912000000005,0.2293320000000008,0.0052377999999999,0,sub_2
0.0484655999999996,-0.0111649999999986,-0.0453869999999999,0.0547346000000005,0.1661134000000008,0.0056249999999999,0,sub_2
0.0483277999999996,-0.0120565999999986,-0.0521411999999999,0.0356462000000005,0.0943904000000007,0.0030197999999999,0,sub_2
0.0517591999999996,-0.0136215999999986,-0.0526359999999999,0.0107468000000005,0.0096990000000008,-0.0015322,0,sub_2
0.0560539999999996,-0.0133939999999986,-0.0487405999999999,-0.0203325999999994,-0.0717807999999992,-0.0046358,0,sub_2
0.0533777999999996,-0.0097643999999986,-0.0432633999999999,-0.0496389999999994,-0.1343219999999992,-0.0034786,0,sub_2
0.0468855999999996,-0.0042075999999987,-0.0372551999999999,-0.0714253999999994,-0.1847479999999992,-0.0016434,0,sub_2
0.0353875999999996,-0.0027301999999986,-0.0302849999999999,-0.0854603999999994,-0.2219819999999991,-0.002121,0,sub_2
0.0250791999999996,-0.0048355999999986,-0.0247807999999999,-0.0904465999999994,-0.2438913999999992,-0.0066142,0,sub_2
0.0200629999999996,-0.0118587999999987,-0.0194909999999999,-0.0913757999999994,-0.2685709999999991,-0.014494,0,sub_2
0.0266365999999996,-0.0194451999999987,-0.0137617999999999,-0.1006667999999994,-0.3034429999999992,-0.023701,0,sub_2
0.0339753999999996,-0.0253079999999986,-0.0092303999999999,-0.1232079999999995,-0.3391361999999992,-0.0291538,0,sub_2
0.0384969999999996,-0.0230771999999987,-0.0077119999999999,-0.1551049999999994,-0.3603379999999991,-0.0274266,0,sub_2
0.0336147999999996,-0.0136909999999987,-0.0080705999999999,-0.1843957999999994,-0.3719679999999991,-0.0203602,0,sub_2
0.0219697999999996,-0.0018829999999987,-0.0077571999999999,-0.2040169999999994,-0.3687171999999992,-0.013459,0,sub_2
0.0040253999999996,0.0068308000000012,-0.0075729999999999,-0.2098825999999994,-0.3473881999999991,-0.010544,0,sub_2
-0.0110708000000003,0.0129708000000012,-0.0067041999999999,-0.2022539999999994,-0.3196941999999991,-0.0126706,0,sub_2
-0.0185720000000003,0.0153072000000012,-0.0051797999999999,-0.1859105999999994,-0.3026707999999991,-0.0179272,0,sub_2
-0.0184574000000003,0.0154114000000012,-0.0017157999999999,-0.1679135999999995,-0.2914211999999991,-0.0229434,0,sub_2
-0.0136598000000003,0.0134068000000012,0.0011158,-0.1518501999999994,-0.2774181999999991,-0.0222082,0,sub_2
-0.0098182000000003,0.0130858000000012,0.004228,-0.1345037999999994,-0.2559901999999992,-0.014637,0,sub_2
-0.0125130000000003,0.0145606000000012,0.0111864,-0.1134887999999994,-0.2203207999999992,-0.0019308,0,sub_2
-0.0287964000000003,0.0223056000000012,0.0238756,-0.0889813999999994,-0.1652829999999991,0.0126975999999999,0,sub_2
-0.0516924000000003,0.0310424000000012,0.0359942,-0.0595297999999994,-0.1053493999999991,0.0241495999999999,0,sub_2
-0.0749830000000003,0.0395848000000012,0.0480788,-0.0234367999999994,-0.0464759999999992,0.0285991999999999,0,sub_2
-0.0902848000000003,0.0422236000000012,0.05905,0.0154704000000005,0.0164554000000008,0.0281493999999998,0,sub_2
-0.0953408000000003,0.0419502000000012,0.064222,0.0528944000000005,0.0785524000000008,0.0244855999999998,0,sub_2
-0.0821562000000003,0.0350072000000012,0.0624096,0.0862300000000005,0.1298106000000007,0.0176025999999998,0,sub_2
-0.0593968000000003,0.0254408000000012,0.0576954,0.1075850000000005,0.1757774000000008,0.0123517999999998,0,sub_2
-0.0354754000000003,0.0168872000000012,0.0481742,0.1148170000000005,0.2196358000000008,0.0138415999999998,0,sub_2
-0.0181432000000003,0.0135216000000012,0.0338336,0.1138460000000004,0.2470986000000007,0.0199953999999999,0,sub_2
-0.0057756000000003,0.0122724000000012,0.0187342,0.1096064000000005,0.2607192000000008,0.0274257999999999,0,sub_2
-0.0010430000000003,0.0117582000000012,0.0052078,0.1066162000000005,0.2677298000000007,0.0350869999999999,0,sub_2
-0.0023804000000003,0.0112952000000012,-0.0055213999999999,0.1123580000000004,0.2681170000000007,0.0398267999999999,0,sub_2
-0.0047466000000003,0.0107234000000012,-0.0126607999999999,0.1251240000000005,0.2572176000000007,0.0371525999999999,0,sub_2
-0.0012706000000003,0.0086742000000012,-0.0173265999999999,0.1385118000000005,0.2339922000000007,0.0261661999999999,0,sub_2
0.0119631999999996,0.0008352000000012,-0.0210171999999999,0.1446296000000005,0.2031392000000008,0.0108661999999999,0,sub_2
0.0306805999999996,-0.0104961999999987,-0.0233501999999999,0.1389764000000005,0.1652932000000008,-0.0036526,0,sub_2
0.0520761999999996,-0.0201857999999986,-0.0285575999999999,0.1173002000000005,0.1268486000000008,-0.014437,0,sub_2
0.0724127999999996,-0.0279335999999986,-0.0350295999999999,0.0814790000000005,0.0796976000000008,-0.0201816,0,sub_2
0.0837743999999996,-0.0331807999999986,-0.0395319999999999,0.0355978000000005,0.0325534000000008,-0.018946,0,sub_2
0.0799727999999996,-0.0321993999999986,-0.0430317999999999,-0.0077055999999994,-0.0067327999999992,-0.0136434,0,sub_2
0.0671923999999996,-0.0249305999999986,-0.0461423999999999,-0.0420137999999994,-0.0407155999999992,-0.0104212,0,sub_2
0.0502955999999995,-0.0171409999999987,-0.0446549999999999,-0.0618059999999994,-0.0768651999999992,-0.0107268,0,sub_2
0.0336021999999995,-0.0105365999999987,-0.0414733999999999,-0.0670351999999994,-0.1051663999999991,-0.015,0,sub_2
0.0227323999999995,-0.0057855999999987,-0.0402631999999999,-0.0624013999999994,-0.1268809999999992,-0.023272,0,sub_2
0.0195373999999995,-0.0029253999999987,-0.0378425999999999,-0.0584289999999994,-0.1539171999999991,-0.0321826,0,sub_2
0.0206741999999995,-0.0035773999999987,-0.0337249999999999,-0.0587027999999994,-0.1726437999999991,-0.0375016,0,sub_2
0.0235893999999996,-0.0055321999999986,-0.0316879999999999,-0.0646897999999994,-0.1762413999999991,-0.0383934,0,sub_2
0.0251075999999996,-0.0051423999999986,-0.0275373999999999,-0.0779083999999994,-0.1717295999999991,-0.036355,0,sub_2
0.0240843999999996,-0.0048893999999986,-0.0226585999999999,-0.0954097999999994,-0.1684895999999991,-0.0322086,0,sub_2
0.0210997999999995,-0.0039903999999986,-0.0189429999999999,-0.1120613999999994,-0.1658925999999991,-0.0278418,0,sub_2
0.0165177999999995,-0.0017727999999986,-0.0173095999999999,-0.1216909999999994,-0.1677935999999991,-0.0236338,0,sub_2
0.0027201999999995,0.0057426000000012,-0.0103931999999999,-0.1232075999999994,-0.1692941999999992,-0.0200104,0,sub_2
-0.0093640000000004,0.0107722000000012,-0.0062027999999999,-0.1133731999999994,-0.1625209999999992,-0.0173866,0,sub_2
-0.0216880000000003,0.0179176000000012,0.0053305999999999,-0.0915229999999994,-0.1408759999999991,-0.014698,0,sub_2
-0.0347336000000003,0.0238946000000012,0.0201627999999999,-0.0607875999999995,-0.1038657999999992,-0.0106848,0,sub_2
-0.0486832000000003,0.0298266000000012,0.0357754,-0.0291707999999994,-0.0587701999999992,-0.0047528,0,sub_2
-0.0551550000000003,0.0302928000000012,0.0451994,0.0007418000000005,-0.0121805999999992,0.0020197999999999,0,sub_2
-0.0587934000000003,0.0293540000000012,0.0542018,0.0270118000000005,0.0324982000000007,0.0102647999999999,0,sub_2
-0.0588712000000003,0.0256126000000012,0.0563494,0.0464568000000005,0.0778400000000008,0.0184615999999999,0,sub_2
-0.0589172000000003,0.0229286000000012,0.0558978,0.0594518000000005,0.1269848000000008,0.0248987999999999,0,sub_2
-0.0554594000000003,0.0195706000000012,0.050358,0.0739538000000005,0.1738022000000008,0.0260081999999999,0,sub_2
-0.0485794000000003,0.0177778000000012,0.044341,0.0884396000000004,0.2146634000000008,0.0247751999999999,0,sub_2
-0.0440950000000003,0.0177620000000012,0.0369164,0.0991382000000004,0.2572650000000008,0.0236885999999999,0,sub_2
-0.0391788000000003,0.0194520000000012,0.0278044,0.1100234000000004,0.2932638000000008,0.0219705999999999,0,sub_2
-0.0301960000000003,0.0206732000000012,0.0176038,0.1210530000000004,0.3134976000000008,0.0198465999999999,0,sub_2
-0.0197120000000003,0.0209660000000012,0.009883,0.1290360000000005,0.3215936000000007,0.0187851999999999,0,sub_2
-0.0093986000000003,0.0185032000000012,0.003084,0.1339770000000005,0.3181926000000007,0.0183579999999999,0,sub_2
-0.0002556000000003,0.0141120000000012,-0.0040489999999999,0.1386002000000005,0.3026224000000008,0.0186237999999999,0,sub_2
0.0072817999999996,0.0081878000000012,-0.0117073999999999,0.1414964000000005,0.2832208000000007,0.0195233999999999,0,sub_2
0.0131449999999996,0.0036462000000012,-0.0175125999999999,0.1428914000000005,0.2631810000000008,0.0214815999999999,0,sub_2
0.0183997999999996,0.0015360000000012,-0.0202539999999999,0.1408464000000005,0.2378250000000007,0.0238497999999999,0,sub_2
0.0245005999999996,-0.0011285999999987,-0.0216687999999999,0.1328094000000005,0.2046118000000007,0.0225551999999999,0,sub_2
0.0336193999999996,-0.0059115999999987,-0.0231721999999999,0.1198620000000005,0.1658960000000007,0.0163195999999999,0,sub_2
0.0463299999999996,-0.0075863999999986,-0.0241059999999999,0.1026144000000005,0.1140096000000007,0.0040887999999999,0,sub_2
0.0573639999999996,-0.0146143999999986,-0.0282237999999999,0.0772194000000005,0.0495968000000007,-0.0120286,0,sub_2
0.0627241999999996,-0.0227373999999986,-0.0327033999999999,0.0445544000000005,-0.0148043999999992,-0.0247784,0,sub_2
0.0601569999999995,-0.0254391999999986,-0.0368713999999999,0.0104308000000005,-0.0615455999999992,-0.0279478,0,sub_2
0.0463953999999996,-0.0204891999999986,-0.0361283999999999,-0.0217341999999994,-0.0889491999999991,-0.0202326,0,sub_2
0.0185069999999996,-0.0198847999999987,-0.0328873999999999,-0.0444061999999994,-0.0825527999999991,-0.0018122,0,sub_2
-0.0288316000000003,-0.0232629999999987,-0.0189728,-0.0537329999999994,-0.0246667999999992,0.0083515999999999,0,sub_2
-0.0667848000000003,0.0002304000000012,-0.0047972,-0.0288239999999994,0.1017046000000008,0.0184529999999999,0,sub_2
-0.0557624000000003,0.0342634000000012,0.0112135999999999,0.0347708000000005,0.1401914000000008,0.0214595999999999,0,sub_2
-0.0389810000000003,0.0361864000000012,0.0329617999999999,0.0870046000000005,0.1118500000000007,0.0165675999999999,0,sub_2
-0.0325088000000003,0.0309278000000012,0.0444525999999999,0.1087572000000005,0.1296686000000007,0.0030715999999999,0,sub_2
-0.0048142000000003,0.0379662000000012,0.0412387999999999,0.1302818000000005,0.1204456000000007,-0.0001846,0,sub_2
0.0240251999999996,0.0168022000000012,0.0354599999999999,0.1150648000000005,0.0557390000000007,-0.002558,0,sub_2
0.0124149999999996,-0.0148859999999987,0.0207132,0.0622558000000005,0.0810592000000007,-0.0016774,0,sub_2
0.0039029999999996,-0.0158445999999987,-0.0024167999999999,0.0235146000000005,0.1500084000000007,-0.0011816,0,sub_2
0.0131043999999996,-0.0059829999999987,-0.0179349999999999,0.0111390000000005,0.1536590000000008,0.0023591999999999,0,sub_2
0.0210297999999996,9.220000000126764e-05,-0.0295433999999999,-0.0038783999999994,0.1387846000000007,0.0054779999999999,0,sub_2
0.0213693999999996,0.0071092000000012,-0.0430631999999999,-0.0074485999999994,0.1055544000000007,0.0069909999999999,0,sub_2
0.0156639999999996,0.0090654000000012,-0.0496129999999999,-0.0027567999999994,0.0578124000000007,0.0072985999999999,0,sub_2
0.0108229999999996,0.0086006000000012,-0.0548289999999999,0.0034526000000005,0.0143306000000007,0.0065429999999999,0,sub_2
0.0167977999999996,0.0055932000000012,-0.0499561999999999,0.0089500000000005,-0.0485229999999992,0.0023889999999999,0,sub_2
0.0213261999999996,0.0024772000000012,-0.0395689999999999,0.0080078000000005,-0.1188153999999992,-0.0007322,0,sub_2
0.0241611999999996,0.0003856000000012,-0.0240093999999999,-0.0028841999999994,-0.1703293999999992,-0.002665,0,sub_2
0.0246725999999996,-6.699999999871227e-05,-0.0063865999999999,-0.0199151999999994,-0.2084093999999992,-0.0020944000000001,0,sub_2
0.0242039999999996,-0.0006475999999987,0.0099966,-0.0405399999999994,-0.2318051999999991,0.0056963999999999,0,sub_2
0.0159117999999996,-0.0005353999999986,0.0185131999999999,-0.0572453999999994,-0.2328633999999992,0.0183997999999999,0,sub_2
-0.0033254000000003,0.0009996000000013,0.0255859999999999,-0.0621135999999994,-0.2105301999999992,0.0320103999999999,0,sub_2
-0.0203190000000003,0.0017146000000013,0.0305695999999999,-0.0513211999999994,-0.1760809999999992,0.0390919999999998,0,sub_2
-0.0320960000000003,0.0059320000000013,0.0319717999999999,-0.0315057999999994,-0.1396987999999991,0.0344835999999999,0,sub_2
-0.0223710000000003,0.0052394000000013,0.0297192,-0.0076881999999994,-0.1303261999999991,0.0143417999999999,0,sub_2
-0.0150088000000003,0.0028888000000012,0.02632,0.0066154000000005,-0.1481941999999991,-0.0051906,0,sub_2
0.0020471999999996,-0.0017263999999987,0.0208814,0.0024264000000005,-0.1434409999999991,-0.0180446,0,sub_2
0.0167981999999996,-0.0026363999999987,0.0090098,-0.0085951999999994,-0.1331509999999992,-0.0243306,0,sub_2
0.0318013999999996,-0.0065847999999987,-0.0011315999999999,-0.0243541999999994,-0.1220341999999991,-0.020182,0,sub_2
0.0232757999999996,-0.0051919999999987,-0.0084805999999999,-0.0419469999999994,-0.0802769999999991,-0.0045488,0,sub_2
0.0108625999999996,0.0006800000000012,-0.0163543999999999,-0.0504841999999994,-0.0206427999999991,0.0081337999999999,0,sub_2
-0.0011788000000003,0.0090272000000012,-0.0248835999999999,-0.0423097999999994,-0.0034239999999991,0.0107325999999999,0,sub_2
-0.0095838000000003,0.0124524000000012,-0.0284421999999999,-0.0305935999999994,-0.0115455999999991,0.0069793999999999,0,sub_2
-0.0157524000000003,0.0139860000000012,-0.0318721999999999,-0.0203957999999994,-0.0277477999999992,0.0006621999999999,0,sub_2
-0.0185616000000003,0.0162846000000012,-0.0318609999999999,-0.0134341999999994,-0.0516097999999991,-0.0054542,0,sub_2
-0.0170622000000003,0.0154906000000012,-0.0279505999999999,-0.0099467999999994,-0.0617003999999992,-0.0088108,0,sub_2
-0.0129494000000003,0.0102932000000012,-0.0225449999999999,-0.0077135999999994,-0.0624265999999992,-0.0085562,0,sub_2
-0.0068476000000003,0.0080804000000012,-0.0157071999999999,-0.0048699999999994,-0.0706083999999992,-0.0091424,0,sub_2
-0.0058894000000003,0.0107448000000012,-0.0002567999999999,0.0060320000000005,-0.0973243999999991,-0.0171262,0,sub_2
-0.0109372000000003,0.0134308000000012,0.0158643999999999,0.0202274000000005,-0.0995657999999991,-0.0212726,0,sub_2
-0.0133476000000003,0.0184696000000012,0.0263427999999999,0.0305786000000005,-0.0761621999999991,-0.022085,0,sub_2
-0.0133924000000003,0.0259124000000012,0.0327352,0.0371476000000005,-0.0338075999999991,-0.016966,0,sub_2
-0.0183144000000003,0.0298738000000012,0.0375453999999999,0.0403746000000005,0.0313284000000008,-0.0050628,0,sub_2
-0.0234294000000003,0.0245686000000012,0.0267461999999999,0.0366148000000005,0.1143624000000008,0.0125369999999999,0,sub_2
-0.0224398000000003,0.0188748000000012,0.0113888,0.0361712000000005,0.1673774000000008,0.0218661999999999,0,sub_2
-0.0179232000000003,0.0104206000000012,-0.0019143999999999,0.0424750000000005,0.1937716000000008,0.0225173999999999,0,sub_2
-0.0100046000000003,0.0008368000000012,-0.0107273999999999,0.0474286000000005,0.1935832000000008,0.0120837999999999,0,sub_2
0.0027843999999996,-0.0089395999999987,-0.0198353999999999,0.0447982000000005,0.1629730000000007,-0.0030642,0,sub_2
0.0203293999999996,-0.0143643999999987,-0.0279769999999999,0.0371968000000005,0.1202284000000007,-0.0163084,0,sub_2
0.0378089999999996,-0.0179805999999987,-0.0370681999999999,0.0216386000000005,0.0676946000000008,-0.0255364,0,sub_2
0.0450567999999995,-0.0182963999999987,-0.0409851999999999,0.0007008000000005,0.0136542000000008,-0.0262544,0,sub_2
0.0425407999999996,-0.0143057999999987,-0.0414763999999999,-0.0165109999999994,-0.0110275999999991,-0.0195064,0,sub_2
0.0342671999999996,-0.0081991999999987,-0.0357578,-0.0235993999999994,-0.0118935999999991,-0.0099408,0,sub_2
0.0218349999999996,-0.0008043999999987,-0.0238572,-0.0246593999999994,-0.0006371999999991,-0.000135,0,sub_2
0.0078477999999996,0.0047978000000012,-0.0105732,-0.0199029999999994,0.0208342000000008,0.0075617999999999,0,sub_2
0.0014977999999996,0.0090778000000012,-0.0015792,-0.0126079999999994,0.0333644000000008,0.0112287999999999,0,sub_2
0.0007567999999996,0.0111452000000012,0.0049201999999999,-0.0096715999999994,0.0233354000000008,0.0125439999999999,0,sub_2
