userAcceleration.x,userAcceleration.y,userAcceleration.z,rotationRate.x,rotationRate.y,rotationRate.z,label,subject
-0.0507784000000002,-0.0087465999999987,0.1172497999999999,-0.0013563999999994,0.0127064000000008,0.0034134,0,sub_19
-0.0501458000000002,-0.0081889999999987,0.1167901999999999,-0.0023993999999994,0.0132018000000008,0.0016872,0,sub_19
-0.0503870000000002,-0.0079223999999987,0.1169489999999999,-0.0034393999999994,0.0149728000000008,0.0006004,0,sub_19
-0.0505614000000002,-0.0071915999999987,0.1168689999999999,-0.0038335999999994,0.0192930000000008,0.0007966,0,sub_19
-0.0508078000000002,-0.0071085999999986,0.1162875999999999,-0.0048621999999994,0.0255306000000008,0.0016268,0,sub_19
-0.0506322000000002,-0.0070929999999986,0.1152267999999999,-0.0071719999999994,0.0328326000000008,0.0037288,0,sub_19
-0.0502130000000002,-0.0072027999999986,0.1154851999999999,-0.0095007999999994,0.0396474000000008,0.0064812,0,sub_19
-0.0502076000000002,-0.0071589999999986,0.1162879999999999,-0.0111877999999994,0.0464616000000007,0.0088106,0,sub_19
-0.0504090000000002,-0.0075123999999986,0.1158305999999999,-0.0128755999999994,0.0522140000000007,0.010287,0,sub_19
-0.0510224000000002,-0.0069663999999986,0.1154159999999999,-0.0143419999999994,0.0570314000000007,0.010746,0,sub_19
-0.0511116000000002,-0.0066219999999986,0.1144653999999999,-0.0164485999999994,0.0603656000000007,0.0097068,0,sub_19
-0.0523452000000002,-0.0057597999999986,0.1130869999999999,-0.0185533999999994,0.0628528000000007,0.0073868,0,sub_19
-0.0535800000000002,-0.0044951999999986,0.1113619999999999,-0.0212951999999994,0.0647082000000007,0.0037814,0,sub_19
-0.0537600000000002,-0.0034695999999986,0.1109291999999999,-0.0248885999999994,0.0659318000000007,-0.0008973999999999,0,sub_19
-0.0545202000000002,-0.0038983999999987,0.1110759999999999,-0.0289205999999994,0.0646924000000008,-0.0071195999999999,0,sub_19
-0.0555538000000002,-0.0042181999999986,0.1120057999999999,-0.0312503999999994,0.0625940000000007,-0.0131153999999999,0,sub_19
-0.0562404000000002,-0.0056751999999986,0.1126659999999999,-0.0329437999999994,0.0594288000000008,-0.0193187999999999,0,sub_19
-0.0561924000000002,-0.0066911999999986,0.1141095999999999,-0.0325259999999994,0.0553412000000007,-0.0248071999999999,0,sub_19
-0.0572170000000002,-0.0083645999999986,0.1151209999999999,-0.0308393999999993,0.0506020000000007,-0.0283631999999999,0,sub_19
-0.0575826000000002,-0.0097051999999986,0.1154365999999999,-0.0285135999999993,0.0473452000000007,-0.0302075999999999,0,sub_19
-0.0577002000000002,-0.0115511999999987,0.1154809999999999,-0.0274765999999994,0.0430244000000007,-0.0312047999999999,0,sub_19
-0.0571546000000002,-0.0124085999999987,0.1156261999999999,-0.0277275999999994,0.0384890000000007,-0.0307153999999999,0,sub_19
-0.0572546000000002,-0.0143755999999987,0.1159135999999999,-0.0288259999999993,0.0327352000000008,-0.0294337999999999,0,sub_19
-0.0568936000000002,-0.0158489999999986,0.1161745999999999,-0.0282193999999994,0.0263372000000008,-0.0283531999999999,0,sub_19
-0.0565624000000002,-0.0167161999999986,0.1164345999999999,-0.0259163999999994,0.0190750000000007,-0.0257639999999999,0,sub_19
-0.0565298000000002,-0.0166941999999986,0.1167989999999999,-0.0221609999999994,0.0123390000000007,-0.0222853999999999,0,sub_19
-0.0572242000000002,-0.0168919999999986,0.1172003999999999,-0.0173367999999994,0.0062376000000007,-0.0185863999999999,0,sub_19
-0.0571264000000002,-0.0159763999999986,0.1167825999999999,-0.0123001999999994,0.0005590000000007,-0.0142455999999999,0,sub_19
-0.0573046000000002,-0.0151299999999987,0.1157015999999999,-0.0081191999999994,-0.0051181999999992,-0.0094833999999999,0,sub_19
-0.0571030000000002,-0.0145231999999987,0.1145613999999999,-0.0047895999999994,-0.0103663999999992,-0.0047277999999999,0,sub_19
-0.0566382000000002,-0.0131583999999987,0.1133731999999999,-0.0016273999999994,-0.0142313999999992,-5.999999999301703e-07,0,sub_19
-0.0555682000000002,-0.0116895999999987,0.1125999999999999,0.0023940000000005,-0.0163965999999992,0.0051578,0,sub_19
-0.0547814000000002,-0.0102399999999986,0.1120625999999999,0.0070670000000005,-0.0157951999999991,0.0105306,0,sub_19
-0.0535652000000002,-0.0088979999999986,0.1123983999999999,0.0104372000000005,-0.0140827999999991,0.015898,0,sub_19
-0.0529354000000002,-0.0075177999999986,0.1123789999999999,0.0118926000000005,-0.0110853999999991,0.0212504,0,sub_19
-0.0530082000000002,-0.0076221999999986,0.1134855999999999,0.0129232000000005,-0.0074479999999991,0.0268126,0,sub_19
-0.0527342000000002,-0.0084423999999986,0.1140539999999999,0.0133128000000005,-0.0040213999999992,0.0323706,0,sub_19
-0.0532950000000002,-0.0098169999999986,0.1146563999999999,0.0137062000000005,-0.0005915999999992,0.0370742,0,sub_19
-0.0536258000000002,-0.0105081999999986,0.1146651999999999,0.0156332000000005,0.0047126000000007,0.0409266,0,sub_19
-0.0538670000000001,-0.0106515999999986,0.1145901999999999,0.0197026000000005,0.0102294000000007,0.0430844,0,sub_19
-0.0541176000000002,-0.0098629999999986,0.1138809999999999,0.0237788000000005,0.0140544000000007,0.0420398,0,sub_19
-0.0543096000000002,-0.0083083999999987,0.1133031999999999,0.0274380000000005,0.0163350000000007,0.0382048,0,sub_19
-0.0542452000000002,-0.0069347999999987,0.1133191999999999,0.0304580000000005,0.0169214000000007,0.0324446,0,sub_19
-0.0545882000000002,-0.0063501999999987,0.1140241999999999,0.0326208000000005,0.0158096000000007,0.025826,0,sub_19
-0.0551280000000002,-0.0062917999999987,0.1150703999999999,0.0328604000000005,0.0140654000000007,0.0191948,0,sub_19
-0.0549340000000002,-0.0077113999999987,0.1159219999999999,0.0298944000000005,0.0129646000000007,0.0142496,0,sub_19
-0.0555278000000002,-0.0086837999999987,0.1173677999999999,0.0252126000000005,0.0119312000000008,0.0103726,0,sub_19
-0.0560052000000002,-0.0096185999999987,0.1176681999999999,0.0194612000000005,0.0108988000000008,0.0071292,0,sub_19
-0.0567528000000002,-0.0099407999999987,0.1171383999999999,0.0139192000000005,0.0090136000000007,0.0038882,0,sub_19
-0.0567300000000002,-0.0106031999999987,0.1173631999999999,0.0090728000000005,0.0060958000000008,0.0008796,0,sub_19
-0.0572224000000002,-0.0103929999999987,0.1175321999999999,0.0076444000000005,0.0038062000000007,-0.0023195999999999,0,sub_19
-0.0573218000000002,-0.0098977999999987,0.1169821999999999,0.0072884000000005,0.0038520000000007,-0.0044459999999999,0,sub_19
-0.0572600000000002,-0.0091307999999987,0.1168039999999999,0.0067200000000005,0.0047482000000007,-0.0059341999999999,0,sub_19
-0.0566946000000002,-0.0089313999999987,0.1173965999999999,0.0057258000000005,0.0062834000000007,-0.0069987999999999,0,sub_19
-0.0568956000000002,-0.0084799999999987,0.1174989999999999,0.0044600000000005,0.0084226000000007,-0.0080785999999999,0,sub_19
-0.0564728000000002,-0.0083241999999987,0.1175813999999999,0.0023396000000005,0.0103518000000007,-0.0091639999999999,0,sub_19
-0.0563762000000002,-0.0094861999999987,0.1177735999999999,-0.0002149999999994,0.0103658000000007,-0.0104637999999999,0,sub_19
-0.0559288000000002,-0.0109251999999987,0.1182095999999999,-0.0026779999999994,0.0091308000000007,-0.0116973999999999,0,sub_19
-0.0560068000000002,-0.0120937999999987,0.1187063999999999,-0.0051475999999994,0.0074654000000007,-0.0118623999999999,0,sub_19
-0.0561442000000002,-0.0133715999999987,0.1186517999999999,-0.0065571999999994,0.0049416000000007,-0.0113777999999999,0,sub_19
-0.0571040000000002,-0.0141569999999987,0.1177267999999999,-0.0077611999999994,0.0009248000000007,-0.0106763999999999,0,sub_19
-0.0576660000000002,-0.0139557999999987,0.1174555999999999,-0.0083287999999994,-0.0041585999999992,-0.0101827999999999,0,sub_19
-0.0585366000000002,-0.0134165999999987,0.1170881999999999,-0.0077163999999994,-0.0097027999999992,-0.0095305999999999,0,sub_19
-0.0592426000000002,-0.0128255999999987,0.1154387999999999,-0.0062457999999994,-0.0150335999999992,-0.0097269999999999,0,sub_19
-0.0592850000000002,-0.0114127999999986,0.1145083999999999,-0.0041341999999994,-0.0203657999999992,-0.0101327999999999,0,sub_19
-0.0588940000000001,-0.0098209999999986,0.1142949999999998,-0.0017415999999994,-0.0253779999999992,-0.0102867999999999,0,sub_19
-0.0579578000000001,-0.0086699999999986,0.1139909999999999,0.0010882000000005,-0.0284723999999991,-0.0108673999999999,0,sub_19
-0.0573930000000001,-0.0076945999999986,0.1135585999999999,0.0037122000000005,-0.0298615999999991,-0.0114515999999999,0,sub_19
-0.0564820000000001,-0.0068743999999986,0.1136475999999999,0.0050626000000005,-0.0297547999999991,-0.0120467999999999,0,sub_19
-0.0561248000000002,-0.0070935999999986,0.1135547999999999,0.0053530000000005,-0.0281529999999991,-0.0126511999999999,0,sub_19
-0.0556898000000002,-0.0072705999999986,0.1139325999999999,0.0049436000000005,-0.0247407999999991,-0.0130855999999999,0,sub_19
-0.0561422000000002,-0.0068575999999986,0.1134097999999999,0.0045284000000005,-0.0215459999999991,-0.0124515999999999,0,sub_19
-0.0562500000000002,-0.0062069999999986,0.1127773999999999,0.0032596000000005,-0.0179237999999991,-0.0113967999999999,0,sub_19
-0.0564450000000002,-0.0062871999999986,0.1126127999999999,0.0022030000000005,-0.0148069999999991,-0.0103883999999999,0,sub_19
-0.0560714000000002,-0.0063535999999986,0.1126009999999999,0.0011464000000005,-0.0121145999999991,-0.0098067999999999,0,sub_19
-0.0553250000000002,-0.0074333999999986,0.1125217999999999,0.0011478000000005,-0.0115555999999991,-0.0094287999999999,0,sub_19
-0.0549860000000002,-0.0092035999999987,0.1125469999999999,0.0022104000000005,-0.0127029999999991,-0.0094685999999999,0,sub_19
-0.0541230000000002,-0.0112063999999987,0.1121335999999999,0.0036902000000005,-0.0153457999999991,-0.0088625999999999,0,sub_19
-0.0531624000000001,-0.0118059999999987,0.1114195999999999,0.0058066000000005,-0.0177027999999991,-0.0073493999999999,0,sub_19
-0.0521646000000002,-0.0117239999999987,0.1110559999999999,0.0081384000000005,-0.0185733999999991,-0.0047681999999999,0,sub_19
-0.0514098000000002,-0.0103677999999987,0.1103971999999998,0.0106932000000005,-0.0173143999999991,-0.0021881999999999,0,sub_19
-0.0502868000000002,-0.0090819999999987,0.1098313999999998,0.0108646000000005,-0.0135623999999991,0.0003152,0,sub_19
-0.0497474000000002,-0.0080041999999987,0.1099207999999999,0.0104036000000005,-0.0087403999999991,0.0021718,0,sub_19
-0.0490738000000002,-0.0079427999999987,0.1101577999999999,0.0082394000000005,-0.0032721999999991,0.003802,0,sub_19
-0.0493186000000002,-0.0083393999999987,0.1101697999999999,0.0060704000000005,0.0004940000000008,0.0047934,0,sub_19
-0.0497752000000002,-0.0095969999999987,0.1102019999999999,0.0041090000000005,0.0021324000000007,0.0049344,0,sub_19
-0.0511522000000002,-0.0100119999999987,0.1092205999999999,0.0028288000000005,0.0023492000000008,0.0051388,0,sub_19
-0.0527874000000002,-0.0101353999999987,0.1086345999999999,0.0024022000000005,0.0017142000000008,0.0044958,0,sub_19
-0.0544442000000002,-0.0098179999999987,0.1076869999999999,0.0036806000000005,0.0002226000000008,0.0034384,0,sub_19
-0.0549996000000002,-0.0085789999999987,0.1062681999999999,0.0044948000000005,-0.0009017999999991,0.0023554,0,sub_19
-0.0551004000000002,-0.0071359999999987,0.1051499999999999,0.0029658000000005,-0.0005291999999991,0.001895,0,sub_19
-0.0537866000000002,-0.0064105999999987,0.1056625999999999,0.0008042000000005,0.0007012000000007,0.0005746,0,sub_19
-0.0525528000000002,-0.0061791999999986,0.1062329999999999,-0.0022117999999994,0.0021460000000007,-0.0003247999999999,0,sub_19
-0.0520560000000002,-0.0061293999999986,0.1072233999999999,-0.0056525999999994,0.0040184000000007,-0.0012275999999999,0,sub_19
-0.0523628000000002,-0.0075037999999986,0.1086169999999999,-0.0088407999999994,0.0063750000000007,-0.0016801999999999,0,sub_19
-0.0533344000000002,-0.0082803999999986,0.1095993999999999,-0.0111791999999994,0.0085130000000007,-0.0014855999999999,0,sub_19
-0.0544322000000002,-0.0088873999999986,0.1101881999999999,-0.0126737999999994,0.0095784000000007,-0.0002155999999999,0,sub_19
-0.0549954000000002,-0.0092073999999986,0.1100421999999999,-0.0135497999999994,0.0104120000000007,0.0019224,0,sub_19
-0.0550116000000002,-0.0090971999999986,0.1101055999999999,-0.0142191999999994,0.0103900000000007,0.004704,0,sub_19
-0.0539882000000002,-0.0088749999999986,0.1101321999999999,-0.0148885999999994,0.0105802000000007,0.007699,0,sub_19
-0.0529234000000002,-0.0091569999999986,0.1106535999999999,-0.0157713999999994,0.0111956000000007,0.0111192,0,sub_19
-0.0517522000000002,-0.0105587999999986,0.1111929999999999,-0.0179313999999994,0.0128790000000008,0.0149564,0,sub_19
-0.0509284000000002,-0.0116521999999986,0.1123591999999999,-0.0205043999999994,0.0141500000000007,0.0189962,0,sub_19
-0.0506230000000002,-0.0135157999999986,0.1126921999999999,-0.0232933999999994,0.0149948000000007,0.0232486,0,sub_19
-0.0515176000000002,-0.0144107999999986,0.1138711999999999,-0.0243763999999994,0.0154084000000007,0.0272998,0,sub_19
-0.0524498000000001,-0.0143539999999986,0.1137927999999999,-0.0237661999999994,0.0154346000000007,0.0301132,0,sub_19
-0.0536570000000001,-0.0129913999999986,0.1140833999999999,-0.0205897999999994,0.0152448000000007,0.0314492,0,sub_19
-0.0550708000000001,-0.0103343999999986,0.1132337999999999,-0.0152613999999994,0.0163368000000007,0.0300212,0,sub_19
-0.0555936000000001,-0.0068989999999986,0.1134031999999999,-0.0092777999999994,0.0187136000000007,0.0264596,0,sub_19
-0.0554330000000001,-0.0026895999999986,0.1120177999999999,-0.0051981999999994,0.0223848000000007,0.020533,0,sub_19
-0.0546096000000002,-0.0002737999999986,0.1113285999999999,-0.0042987999999994,0.0256056000000007,0.0134848,0,sub_19
-0.0539346000000002,0.0008540000000013,0.1119065999999998,-0.0055273999999994,0.0296878000000007,0.0059936,0,sub_19
-0.0531432000000002,-8.439999999871623e-05,0.1136419999999998,-0.0095335999999994,0.0346252000000007,0.0001908,0,sub_19
-0.0531126000000002,-0.0025015999999987,0.1153105999999998,-0.0161295999999994,0.0396254000000007,-0.0045295999999999,0,sub_19
-0.0537260000000002,-0.0066061999999987,0.1170701999999998,-0.0231647999999994,0.0431306000000008,-0.0079693999999999,0,sub_19
-0.0554998000000002,-0.0100205999999987,0.1186841999999999,-0.0280739999999994,0.0461974000000008,-0.0101117999999999,0,sub_19
-0.0574826000000002,-0.0127623999999987,0.1191475999999999,-0.0312905999999994,0.0469112000000007,-0.0113847999999999,0,sub_19
-0.0594294000000002,-0.0144957999999987,0.1195491999999999,-0.0325945999999994,0.0452772000000007,-0.0132823999999999,0,sub_19
-0.0600512000000002,-0.0149087999999987,0.1188195999999999,-0.0315391999999994,0.0408072000000007,-0.0151919999999999,0,sub_19
-0.0603706000000002,-0.0147457999999987,0.1186529999999999,-0.0294275999999994,0.0344142000000007,-0.0166643999999999,0,sub_19
-0.0605872000000002,-0.0144107999999987,0.1186801999999998,-0.0271063999999994,0.0282292000000007,-0.0170675999999999,0,sub_19
-0.0599304000000002,-0.0136867999999987,0.1175445999999998,-0.0263021999999994,0.0233662000000008,-0.0168273999999999,0,sub_19
-0.0596202000000002,-0.0140705999999987,0.1173715999999998,-0.0259257999999994,0.0197772000000008,-0.0150961999999999,0,sub_19
-0.0602506000000002,-0.0140107999999987,0.1173871999999998,-0.0238357999999994,0.0193710000000007,-0.0116479999999999,0,sub_19
-0.0604996000000002,-0.0138709999999986,0.1165253999999999,-0.0219485999999994,0.0219458000000008,-0.0075641999999999,0,sub_19
-0.0600296000000002,-0.0137417999999986,0.1161937999999999,-0.0200535999999994,0.0260128000000008,-0.0036957999999999,0,sub_19
-0.0609392000000002,-0.0139985999999986,0.1159413999999999,-0.0172759999999993,0.0308872000000007,0.0003766,0,sub_19
-0.0603668000000002,-0.0132615999999986,0.1144669999999999,-0.0147011999999993,0.0376814000000007,0.0040178,0,sub_19
-0.0595700000000002,-0.0132431999999986,0.1139289999999999,-0.0136207999999994,0.0434190000000007,0.0067954,0,sub_19
-0.0586930000000002,-0.0126177999999987,0.1142377999999999,-0.0116945999999994,0.0470386000000007,0.009161,0,sub_19
-0.0580894000000002,-0.0122271999999987,0.1142401999999999,-0.0110553999999994,0.0478980000000007,0.0102394,0,sub_19
-0.0570510000000002,-0.0118819999999987,0.1145207999999999,-0.0108573999999994,0.0445020000000007,0.0102518,0,sub_19
-0.0572630000000002,-0.0117853999999986,0.1135245999999999,-0.0098171999999994,0.0376978000000007,0.00942,0,sub_19
-0.0577316000000002,-0.0115779999999986,0.1121703999999999,-0.0089991999999994,0.0274914000000007,0.0070952,0,sub_19
-0.0586340000000002,-0.0117129999999986,0.1105421999999999,-0.0092567999999994,0.0151452000000008,0.0045454,0,sub_19
-0.0598138000000002,-0.0114439999999986,0.1101283999999999,-0.0075959999999994,0.0023664000000008,0.0020096,0,sub_19
-0.0601604000000002,-0.0113199999999986,0.1103499999999999,-0.0037897999999994,-0.0078631999999991,-0.0005143999999999,0,sub_19
-0.0600526000000002,-0.0111629999999987,0.1109359999999999,-0.0001531999999994,-0.0172631999999991,-0.0028651999999999,0,sub_19
-0.0589378000000002,-0.0103673999999987,0.1115391999999999,0.0047694000000005,-0.0241159999999991,-0.0039281999999999,0,sub_19
-0.0578324000000002,-0.0100735999999987,0.1124643999999999,0.0092798000000005,-0.0284079999999992,-0.0056383999999999,0,sub_19
-0.0558344000000002,-0.0096509999999987,0.1123501999999999,0.0123062000000005,-0.0303521999999992,-0.0071483999999999,0,sub_19
-0.0540062000000002,-0.0084941999999987,0.1124117999999999,0.0136246000000005,-0.0318669999999992,-0.0080299999999999,0,sub_19
-0.0524184000000002,-0.0079701999999987,0.1136349999999999,0.0140562000000005,-0.0316519999999992,-0.0088817999999999,0,sub_19
-0.0521398000000002,-0.0082645999999987,0.1137565999999999,0.0132134000000005,-0.0299419999999992,-0.0095307999999999,0,sub_19
-0.0513704000000002,-0.0086317999999987,0.1134335999999999,0.0134346000000005,-0.0273895999999992,-0.0086777999999999,0,sub_19
-0.0520946000000002,-0.0089363999999986,0.1131077999999999,0.0147178000000005,-0.0242085999999992,-0.0061091999999999,0,sub_19
-0.0525726000000002,-0.0104151999999986,0.1127917999999999,0.0158478000000005,-0.0213147999999992,-0.0044457999999999,0,sub_19
-0.0530572000000002,-0.0107771999999986,0.1125529999999999,0.0165404000000005,-0.0199141999999992,-0.0019289999999999,0,sub_19
-0.0529236000000002,-0.0108027999999986,0.1130123999999999,0.0172348000000005,-0.0182997999999992,0.0003738,0,sub_19
-0.0533706000000002,-0.0103731999999986,0.1136685999999999,0.0172940000000005,-0.0162543999999992,0.0020308,0,sub_19
-0.0530284000000002,-0.0101781999999986,0.1142009999999999,0.0167188000000005,-0.0139895999999992,0.002615,0,sub_19
-0.0531684000000002,-0.0089643999999986,0.1140643999999999,0.0158740000000005,-0.0107957999999992,0.003887,0,sub_19
-0.0534530000000002,-0.0085601999999986,0.1136559999999999,0.0146024000000005,-0.0084493999999992,0.0043024,0,sub_19
-0.0541632000000002,-0.0082693999999986,0.1136377999999999,0.0130034000000005,-0.0072927999999992,0.003643,0,sub_19
-0.0548546000000002,-0.0086901999999986,0.1139641999999999,0.0111870000000005,-0.0071999999999992,0.0027696,0,sub_19
-0.0560820000000002,-0.0094749999999987,0.1139283999999999,0.0093698000000005,-0.0083809999999992,0.0008296,0,sub_19
-0.0567046000000002,-0.0104833999999987,0.1150223999999998,0.0077620000000005,-0.0106273999999992,-0.0013211999999999,0,sub_19
-0.0572768000000002,-0.0110041999999987,0.1156501999999998,0.0070136000000005,-0.0113861999999992,-0.0032541999999999,0,sub_19
-0.0575388000000002,-0.0119797999999987,0.1159363999999998,0.0053094000000005,-0.0118021999999992,-0.0043337999999999,0,sub_19
-0.0575940000000002,-0.0122259999999987,0.1166039999999999,0.0036072000000005,-0.0113675999999992,-0.0049871999999999,0,sub_19
-0.0569224000000002,-0.0122513999999987,0.1169491999999999,0.0023308000000005,-0.0100865999999992,-0.0045703999999999,0,sub_19
-0.0563682000000002,-0.0124203999999987,0.1162445999999999,0.0009468000000005,-0.0083275999999992,-0.0039455999999999,0,sub_19
-0.0564934000000002,-0.0120809999999987,0.1167193999999999,0.0002010000000005,-0.0065725999999992,-0.0028889999999999,0,sub_19
-0.0567912000000002,-0.0114415999999987,0.1165759999999999,0.0009528000000005,-0.0043947999999991,-0.0022499999999999,0,sub_19
-0.0570422000000002,-0.0111093999999987,0.1155781999999999,0.0006348000000005,-0.0034889999999991,-0.0022575999999999,0,sub_19
-0.0571082000000002,-0.0109865999999987,0.1152031999999999,-0.0001177999999994,-0.0044983999999991,-0.0024795999999999,0,sub_19
-0.0576748000000002,-0.0108547999999987,0.1151071999999999,-0.0005531999999994,-0.0066265999999991,-0.0026935999999999,0,sub_19
-0.0576712000000002,-0.0115349999999987,0.1147293999999999,-0.0009905999999994,-0.0096051999999991,-0.0033337999999999,0,sub_19
-0.0572334000000002,-0.0122953999999987,0.1152279999999999,-0.0014297999999994,-0.0130099999999992,-0.0039733999999999,0,sub_19
-0.0572940000000002,-0.0128473999999987,0.1156221999999999,0.0003464000000005,-0.0157003999999992,-0.0041787999999999,0,sub_19
-0.0570438000000002,-0.0135233999999986,0.1153955999999999,0.0031942000000005,-0.0173291999999992,-0.0043777999999999,0,sub_19
-0.0572264000000002,-0.0134509999999986,0.1151695999999999,0.0062516000000005,-0.0193865999999992,-0.0041475999999999,0,sub_19
-0.0569938000000002,-0.0136131999999986,0.1141389999999999,0.0090928000000005,-0.0218701999999992,-0.0037047999999999,0,sub_19
-0.0575526000000002,-0.0131195999999986,0.1137401999999999,0.0127816000000005,-0.0252107999999992,-0.0028275999999999,0,sub_19
-0.0577904000000001,-0.0135769999999986,0.1141523999999999,0.0178872000000005,-0.0275765999999992,-0.0017205999999999,0,sub_19
-0.0588650000000001,-0.0131727999999986,0.1141961999999999,0.0249238000000005,-0.0261201999999992,0.0008904,0,sub_19
-0.0595024000000001,-0.0125687999999986,0.1125701999999999,0.0326148000000005,-0.0208333999999992,0.004142,0,sub_19
-0.0597018000000001,-0.0111495999999986,0.1104091999999999,0.0381972000000005,-0.0145057999999992,0.008456,0,sub_19
-0.0600958000000002,-0.0100403999999986,0.1082521999999999,0.0424974000000005,-0.0094483999999992,0.0119082,0,sub_19
-0.0600592000000002,-0.0085325999999986,0.1067305999999999,0.0452972000000005,-0.0065137999999991,0.0147116,0,sub_19
-0.0594974000000002,-0.0090935999999987,0.1061907999999999,0.0463728000000005,-0.0091057999999991,0.0158008,0,sub_19
-0.0594022000000002,-0.0102467999999987,0.1073151999999999,0.0453024000000005,-0.0157331999999991,0.0155984,0,sub_19
-0.0594096000000002,-0.0113265999999987,0.1096519999999999,0.0450622000000005,-0.0242441999999991,0.013044,0,sub_19
-0.0589818000000002,-0.0118867999999987,0.1114539999999999,0.0441896000000005,-0.0316853999999991,0.0098426,0,sub_19
-0.0588996000000002,-0.0116385999999987,0.1123463999999999,0.0426778000000005,-0.0395477999999991,0.0059966,0,sub_19
-0.0595030000000002,-0.0097717999999986,0.1126837999999999,0.0413692000000005,-0.0461161999999991,0.0015154,0,sub_19
-0.0601092000000002,-0.0084237999999986,0.1132689999999999,0.0413474000000005,-0.0511977999999991,-0.0029587999999999,0,sub_19
-0.0613356000000002,-0.0084911999999986,0.1135009999999999,0.0408988000000005,-0.0552167999999991,-0.0063691999999999,0,sub_19
-0.0622908000000002,-0.0096529999999986,0.1144673999999999,0.0395892000000005,-0.0596639999999991,-0.0085029999999999,0,sub_19
-0.0630744000000002,-0.0113809999999986,0.1154593999999999,0.0380604000000005,-0.0639033999999992,-0.0091431999999999,0,sub_19
-0.0630470000000002,-0.0132249999999987,0.1172993999999999,0.0365476000000005,-0.0679469999999992,-0.0089349999999999,0,sub_19
-0.0627792000000002,-0.0149981999999987,0.1191221999999999,0.0358864000000005,-0.0719953999999992,-0.0082935999999999,0,sub_19
-0.0622220000000002,-0.0156559999999987,0.1201103999999999,0.0369314000000005,-0.0762627999999992,-0.0076397999999999,0,sub_19
-0.0619920000000002,-0.0157285999999987,0.1201145999999999,0.0390188000000005,-0.0800741999999992,-0.0069695999999999,0,sub_19
-0.0614072000000002,-0.0156931999999987,0.1197297999999999,0.0411072000000005,-0.0836725999999992,-0.0062995999999999,0,sub_19
-0.0607570000000002,-0.0146801999999987,0.1191951999999998,0.0412752000000005,-0.0872641999999992,-0.0056429999999999,0,sub_19
-0.0594714000000002,-0.0132607999999987,0.1185819999999999,0.0399544000000005,-0.0902095999999992,-0.0054247999999999,0,sub_19
-0.0583234000000002,-0.0118919999999987,0.1188315999999999,0.0384258000000005,-0.0923005999999992,-0.0056365999999999,0,sub_19
-0.0571886000000002,-0.0109429999999987,0.1193013999999999,0.0367120000000005,-0.0939981999999992,-0.0058599999999999,0,sub_19
-0.0562948000000002,-0.0098821999999987,0.1200545999999999,0.0350080000000005,-0.0946263999999992,-0.0071529999999999,0,sub_19
