userAcceleration.x,userAcceleration.y,userAcceleration.z,rotationRate.x,rotationRate.y,rotationRate.z,label,subject
-0.0336344000000002,-0.0010647999999986,0.1069997999999999,0.0018536000000005,-0.0165715999999991,0.0005526,0,sub_19
-0.0332892000000002,-0.0008091999999986,0.1075683999999999,0.0045922000000005,-0.0091885999999992,0.0046276,0,sub_19
-0.0332370000000002,-0.0010495999999987,0.1086373999999999,0.0086120000000005,0.0009492000000007,0.0112716,0,sub_19
-0.0328476000000002,-0.0010011999999987,0.1094267999999999,0.0137044000000005,0.0136348000000007,0.0192018,0,sub_19
-0.0326272000000002,-0.0009255999999987,0.1094923999999999,0.0173538000000005,0.0263738000000007,0.0271158,0,sub_19
-0.0324614000000002,-0.0001975999999987,0.1082469999999999,0.0188694000000005,0.0376348000000007,0.0335214,0,sub_19
-0.0325440000000002,0.0002390000000012,0.1067539999999999,0.0190876000000005,0.0420944000000007,0.0369354,0,sub_19
-0.0326214000000002,0.0004910000000013,0.1053447999999999,0.0181564000000005,0.0380016000000007,0.036514,0,sub_19
-0.0342416000000002,-0.0001081999999986,0.1051327999999999,0.0135788000000005,0.0269018000000007,0.0332986,0,sub_19
-0.0364308000000002,-0.0013655999999986,0.1050283999999999,0.0089992000000005,0.0149514000000007,0.029657,0,sub_19
-0.0385550000000002,-0.0031273999999986,0.1058475999999999,0.0057018000000005,0.0032104000000007,0.0258104,0,sub_19
-0.0396916000000002,-0.0043465999999986,0.1059227999999999,0.0039066000000005,-0.0066181999999991,0.021972,0,sub_19
-0.0406188000000002,-0.0050265999999986,0.1056023999999999,0.0028264000000005,-0.0138411999999991,0.0177008,0,sub_19
-0.0401432000000002,-0.0049563999999986,0.1045583999999999,0.0032532000000005,-0.0189353999999991,0.0125828,0,sub_19
-0.0387650000000002,-0.0036899999999986,0.1038933999999999,0.0041126000000005,-0.0242381999999991,0.0059726,0,sub_19
-0.0365394000000002,-0.0020481999999986,0.1041185999999999,0.0054052000000005,-0.0286877999999991,-0.0012765999999999,0,sub_19
-0.0348286000000002,-0.0009749999999986,0.1041939999999999,0.0051384000000005,-0.0297837999999991,-0.0085203999999999,0,sub_19
-0.0332882000000002,0.0001774000000012,0.1041635999999999,0.0029628000000005,-0.0272555999999991,-0.0147139999999999,0,sub_19
-0.0319648000000002,0.0015038000000012,0.1044233999999999,0.0005756000000005,-0.0223907999999991,-0.0189891999999999,0,sub_19
-0.0306868000000002,0.0022358000000012,0.1049059999999999,-0.0026659999999994,-0.0158261999999991,-0.0213495999999999,0,sub_19
-0.0301382000000002,0.0021600000000012,0.1052659999999999,-0.0063361999999994,-0.0079885999999991,-0.0220055999999999,0,sub_19
-0.0308360000000002,0.0011614000000012,0.1061953999999999,-0.0092993999999994,-0.0020153999999992,-0.0213929999999999,0,sub_19
-0.0321954000000002,5.200000000126709e-05,0.1068085999999999,-0.0107757999999994,0.0033102000000007,-0.0199145999999999,0,sub_19
-0.0339344000000002,-0.0012491999999986,0.1074241999999999,-0.0110487999999994,0.0076904000000007,-0.0179819999999999,0,sub_19
-0.0357624000000002,-0.0028331999999986,0.1079805999999999,-0.0109045999999994,0.0101508000000007,-0.0158303999999999,0,sub_19
-0.0370018000000002,-0.0035753999999986,0.1085767999999999,-0.0114109999999994,0.0096332000000007,-0.0143203999999999,0,sub_19
-0.0372814000000002,-0.0028163999999986,0.1080089999999999,-0.0142703999999994,0.0067846000000007,-0.0138919999999999,0,sub_19
-0.0365174000000002,-0.0024109999999986,0.1077157999999999,-0.0190547999999994,0.0013918000000007,-0.0149693999999999,0,sub_19
-0.0353412000000002,-0.0024931999999986,0.1070687999999999,-0.0237727999999994,-0.0054035999999992,-0.0164891999999999,0,sub_19
-0.0344190000000002,-0.0020547999999986,0.1068931999999999,-0.0263533999999994,-0.0115663999999992,-0.0182085999999999,0,sub_19
-0.0341956000000002,-0.0021637999999986,0.1065825999999999,-0.0269973999999994,-0.0139017999999992,-0.0197055999999999,0,sub_19
-0.0341030000000002,-0.0027869999999986,0.1059641999999999,-0.0253233999999994,-0.0116471999999992,-0.0203173999999999,0,sub_19
-0.0340822000000002,-0.0025813999999986,0.1055167999999999,-0.0225731999999994,-0.0066291999999992,-0.0202839999999999,0,sub_19
-0.0336806000000002,-0.0012837999999987,0.1049373999999999,-0.0196037999999994,-0.0009701999999992,-0.0208907999999999,0,sub_19
-0.0331288000000002,-0.0013545999999987,0.1039771999999999,-0.0183469999999994,0.0029920000000007,-0.0219347999999999,0,sub_19
-0.0326246000000002,-0.0018441999999986,0.1031997999999999,-0.0173151999999994,0.0048228000000007,-0.0225503999999999,0,sub_19
-0.0327212000000002,-0.0024417999999986,0.1043347999999999,-0.0164597999999994,0.0054580000000007,-0.0223315999999999,0,sub_19
-0.0329680000000002,-0.0033419999999986,0.1048521999999999,-0.0147575999999994,0.0056600000000007,-0.0210381999999999,0,sub_19
-0.0336982000000002,-0.0049481999999986,0.1055501999999999,-0.0141269999999994,0.0062858000000007,-0.0182573999999999,0,sub_19
-0.0344530000000002,-0.0048809999999986,0.1065453999999999,-0.0129091999999994,0.0086532000000007,-0.0148693999999999,0,sub_19
-0.0349930000000002,-0.0043863999999987,0.1066637999999999,-0.0125427999999994,0.0114496000000007,-0.0114879999999999,0,sub_19
-0.0348860000000002,-0.0041877999999987,0.1061153999999999,-0.0130367999999994,0.0129700000000007,-0.0078971999999999,0,sub_19
-0.0350962000000002,-0.0042645999999987,0.1062685999999999,-0.0148117999999994,0.0142818000000007,-0.0043151999999999,0,sub_19
-0.0349858000000002,-0.0046521999999987,0.1058229999999999,-0.0153047999999994,0.0149542000000007,-0.0017915999999999,0,sub_19
-0.0349110000000002,-0.0046295999999986,0.1045273999999999,-0.0157411999999994,0.0147350000000007,0.0001284,0,sub_19
-0.0350894000000002,-0.0047307999999986,0.1029461999999999,-0.0161775999999994,0.0134548000000007,0.0009816,0,sub_19
-0.0344506000000002,-0.0035389999999987,0.1016177999999999,-0.0168195999999994,0.0121822000000007,0.0001242,0,sub_19
-0.0335332000000002,-0.0019541999999987,0.1000981999999999,-0.0175065999999994,0.0103226000000007,-0.0022807999999999,0,sub_19
-0.0333478000000002,-0.0002993999999987,0.0992753999999999,-0.0190393999999994,0.0093216000000007,-0.0055473999999999,0,sub_19
-0.0327564000000002,0.0001204000000012,0.0987321999999999,-0.0199261999999994,0.0093844000000007,-0.0090245999999999,0,sub_19
-0.0319754000000002,-0.0002615999999987,0.0998295999999999,-0.0193183999999994,0.0098674000000007,-0.0122781999999999,0,sub_19
-0.0325488000000002,-0.0019425999999987,0.1003075999999999,-0.0174381999999994,0.0097022000000007,-0.0144537999999999,0,sub_19
-0.0336132000000002,-0.0041511999999987,0.1013979999999999,-0.0148767999999994,0.0090574000000007,-0.0152895999999999,0,sub_19
-0.0343834000000002,-0.0055989999999987,0.1023999999999999,-0.0119039999999994,0.0075488000000007,-0.0135575999999999,0,sub_19
-0.0351268000000002,-0.0068261999999986,0.1032983999999999,-0.0093655999999994,0.0049738000000007,-0.0111863999999999,0,sub_19
-0.0353370000000002,-0.0063915999999986,0.1037741999999999,-0.0070691999999994,0.0020114000000007,-0.0073193999999999,0,sub_19
-0.0351268000000002,-0.0051881999999986,0.1033749999999999,-0.0047651999999994,0.0003292000000007,-0.0038813999999999,0,sub_19
-0.0346960000000002,-0.0033813999999986,0.1025289999999999,-0.0022437999999994,-0.0009259999999992,-0.0008695999999999,0,sub_19
-0.0342160000000002,-0.0021489999999986,0.1010663999999999,-0.0001405999999994,-0.0019599999999992,0.0004298,0,sub_19
-0.0338406000000002,-0.0015823999999987,0.1006007999999999,0.0017530000000005,-0.0032019999999992,0.0006598,0,sub_19
-0.0345038000000002,-0.0014437999999987,0.0995367999999999,0.0036714000000005,-0.0046957999999992,-0.0003929999999999,0,sub_19
-0.0352002000000002,-0.0016809999999987,0.1000593999999999,0.0047306000000005,-0.0074649999999991,-0.0014501999999999,0,sub_19
-0.0351446000000002,-0.0018941999999987,0.1005385999999999,0.0055744000000005,-0.0106595999999991,-0.0025083999999999,0,sub_19
-0.0351022000000002,-0.0023949999999987,0.1024245999999999,0.0066622000000005,-0.0144589999999991,-0.0039519999999999,0,sub_19
-0.0347534000000002,-0.0028107999999987,0.1032331999999999,0.0081690000000005,-0.0189033999999991,-0.0043233999999999,0,sub_19
-0.0341244000000002,-0.0032483999999987,0.1037325999999999,0.0092490000000005,-0.0229219999999991,-0.0042711999999999,0,sub_19
-0.0332210000000002,-0.0033821999999987,0.1037939999999999,0.0103302000000005,-0.0265151999999991,-0.0040057999999999,0,sub_19
-0.0333242000000002,-0.0036469999999987,0.1042471999999999,0.0116238000000005,-0.0301099999999991,-0.0035253999999999,0,sub_19
-0.0329836000000002,-0.0035503999999987,0.1040455999999998,0.0126706000000005,-0.0333145999999991,-0.0022319999999999,0,sub_19
-0.0335636000000002,-0.0021333999999987,0.1041999999999999,0.0130792000000005,-0.0363029999999991,-0.0011571999999999,0,sub_19
-0.0331724000000002,-0.0014195999999987,0.1047419999999998,0.0124190000000005,-0.0399259999999992,-0.0003025999999999,0,sub_19
-0.0332730000000002,-0.0012417999999987,0.1054201999999999,0.0120324000000005,-0.0428999999999991,0.0008344,0,sub_19
-0.0324928000000002,-0.0013191999999987,0.1052117999999999,0.0114420000000005,-0.0441669999999991,0.0015404,0,sub_19
-0.0323536000000002,-0.0012733999999987,0.1048309999999999,0.0106420000000005,-0.0454299999999991,0.0013904,0,sub_19
-0.0319578000000002,-0.0023763999999986,0.1037341999999999,0.0098498000000005,-0.0456249999999991,0.0005982,0,sub_19
-0.0321262000000002,-0.0020259999999986,0.1015643999999999,0.0103406000000005,-0.0449731999999991,2.7600000000065072e-05,0,sub_19
-0.0319710000000002,-0.0013477999999986,0.0995985999999999,0.0107740000000005,-0.0449685999999991,-0.0014649999999999,0,sub_19
-0.0316186000000002,-0.0006047999999986,0.0980569999999999,0.0107740000000005,-0.0466661999999991,-0.0031719999999999,0,sub_19
-0.0309096000000002,-0.0009163999999987,0.0969651999999999,0.0112056000000005,-0.0470877999999991,-0.0046639999999999,0,sub_19
-0.0300862000000002,-0.0008435999999987,0.0972677999999999,0.0123558000000005,-0.0468913999999991,-0.0060959999999999,0,sub_19
-0.0293958000000002,-0.0020171999999987,0.0986865999999999,0.0135080000000005,-0.0471175999999991,-0.0083819999999999,0,sub_19
-0.0288336000000002,-0.0033857999999987,0.0997311999999999,0.0153032000000005,-0.0454337999999991,-0.0093839999999999,0,sub_19
-0.0291170000000002,-0.0045787999999987,0.1009995999999999,0.0181718000000005,-0.0412011999999991,-0.0093135999999999,0,sub_19
-0.0298110000000002,-0.0045299999999987,0.1016837999999999,0.0227494000000005,-0.0354873999999991,-0.0081649999999999,0,sub_19
-0.0307744000000002,-0.0045819999999987,0.1012661999999999,0.0274590000000005,-0.0291241999999991,-0.0051491999999999,0,sub_19
-0.0312776000000002,-0.0040729999999986,0.1009995999999999,0.0313180000000005,-0.0210577999999992,-0.0010733999999999,0,sub_19
-0.0312128000000002,-0.0027667999999987,0.1013271999999999,0.0332508000000005,-0.0144751999999992,0.0027772,0,sub_19
-0.0313362000000002,-0.0018977999999987,0.1008573999999999,0.0341926000000005,-0.0091919999999992,0.0058248,0,sub_19
-0.0309094000000002,-0.0011537999999987,0.1009775999999999,0.0329928000000005,-0.0058179999999992,0.0086462,0,sub_19
-0.0304178000000002,-2.399999999871268e-05,0.1010489999999999,0.0309396000000005,-0.0041383999999992,0.0097546,0,sub_19
-0.0303714000000002,0.0006808000000012,0.1011061999999999,0.0282462000000005,-0.0037297999999992,0.0095784,0,sub_19
-0.0310976000000002,0.0003568000000012,0.1006841999999999,0.0261988000000005,-0.0026817999999992,0.0087648,0,sub_19
-0.0312060000000002,0.0003104000000012,0.1010373999999999,0.0240698000000005,-0.0028821999999991,0.0074684,0,sub_19
-0.0312512000000002,-0.0010941999999987,0.1010779999999999,0.0221514000000005,-0.0047835999999991,0.0051074,0,sub_19
-0.0314010000000002,-0.0024583999999986,0.1023885999999999,0.0198052000000005,-0.0064721999999991,0.0031704,0,sub_19
-0.0316740000000002,-0.0027929999999986,0.1027843999999999,0.0183598000000005,-0.0071017999999991,0.001707,0,sub_19
-0.0319674000000002,-0.0028057999999986,0.1031317999999999,0.0169152000000005,-0.0075181999999991,0.0002434,0,sub_19
-0.0321372000000002,-0.0030037999999986,0.1036119999999999,0.0154736000000005,-0.0072955999999991,-0.0012211999999999,0,sub_19
-0.0325916000000002,-0.0022803999999986,0.1036007999999999,0.0151018000000005,-0.0058007999999991,-0.0020389999999999,0,sub_19
-0.0334244000000002,-0.0015123999999987,0.1030755999999999,0.0153700000000005,-0.0040961999999991,-0.0026387999999999,0,sub_19
-0.0336298000000002,-0.0017163999999987,0.1031185999999999,0.0149500000000005,-0.0028155999999991,-0.0028571999999999,0,sub_19
-0.0331964000000002,-0.0013941999999987,0.1028389999999999,0.0151702000000005,-0.0011127999999991,-0.0026441999999999,0,sub_19
-0.0329610000000002,-0.0003899999999987,0.1020465999999999,0.0156036000000005,0.0005894000000007,-0.0024295999999999,0,sub_19
-0.0329992000000002,0.0007860000000012,0.1016897999999999,0.0151878000000005,0.0023670000000007,-0.0019763999999999,0,sub_19
-0.0325746000000002,0.0010848000000012,0.1017365999999999,0.0149902000000005,0.0049970000000007,-0.0017365999999999,0,sub_19
-0.0322912000000002,0.0013782000000012,0.1016841999999999,0.0154326000000005,0.0080492000000007,-0.0010653999999999,0,sub_19
-0.0320310000000002,0.0006654000000012,0.1022873999999998,0.0150148000000005,0.0096130000000007,-0.0003983999999999,0,sub_19
-0.0313654000000002,-0.0002617999999987,0.1025333999999999,0.0145952000000005,0.0111750000000007,0.0006958,0,sub_19
-0.0310888000000002,-0.0010207999999987,0.1030759999999999,0.0135320000000005,0.0130920000000007,0.0017542,0,sub_19
-0.0299674000000002,-0.0012441999999987,0.1025553999999999,0.0122556000000005,0.0147976000000007,0.0025978,0,sub_19
-0.0301896000000002,-0.0007663999999987,0.1021643999999999,0.0103400000000005,0.0158696000000007,0.002583,0,sub_19
-0.0301422000000002,8.78000000012872e-05,0.1011433999999999,0.0086212000000005,0.0181568000000007,0.0021678,0,sub_19
-0.0309078000000002,0.0008082000000012,0.1007091999999999,0.0064756000000005,0.0204454000000007,0.0017496,0,sub_19
-0.0312114000000002,0.0013486000000012,0.1003977999999999,0.0047578000000005,0.0225212000000007,0.0009074,0,sub_19
-0.0314744000000002,0.0014214000000012,0.0999541999999999,0.0032532000000005,0.0237474000000007,-0.0007867999999999,0,sub_19
-0.0309814000000002,0.0004958000000012,0.0998865999999999,0.0019546000000005,0.0241174000000007,-0.0016237999999999,0,sub_19
-0.0308846000000002,5.000000000128704e-05,0.0996821999999999,0.0006744000000005,0.0234852000000007,-0.0022727999999999,0,sub_19
-0.0307216000000002,-0.0007351999999987,0.0997987999999999,-0.0006067999999994,0.0226400000000007,-0.0029215999999999,0,sub_19
-0.0305328000000002,-0.0012567999999986,0.0993533999999999,-0.0023165999999994,0.0215824000000007,-0.0033595999999999,0,sub_19
-0.0309998000000002,-0.0014079999999986,0.0999657999999999,-0.0041071999999994,0.0202500000000007,-0.0027089999999999,0,sub_19
-0.0314274000000002,-0.0023389999999986,0.1006861999999999,-0.0054721999999994,0.0184908000000007,-0.0022683999999999,0,sub_19
-0.0319834000000002,-0.0038325999999986,0.1016339999999999,-0.0064161999999993,0.0160884000000007,-0.0011831999999999,0,sub_19
-0.0320272000000002,-0.0048563999999986,0.1013203999999999,-0.0071485999999993,0.0138958000000007,0.0005444,0,sub_19
-0.0328528000000002,-0.0051461999999986,0.1006233999999999,-0.0076687999999993,0.0123382000000007,0.0031272,0,sub_19
-0.0330382000000002,-0.0051593999999986,0.0996409999999999,-0.0074707999999993,0.0116872000000007,0.0059068,0,sub_19
-0.0334908000000002,-0.0039745999999987,0.0981991999999999,-0.0072661999999993,0.0125276000000007,0.0086844,0,sub_19
-0.0335798000000002,-0.0021655999999987,0.0971787999999999,-0.0061993999999994,0.0142216000000007,0.010399,0,sub_19
-0.0342632000000002,-0.0009191999999987,0.0970157999999999,-0.0054419999999994,0.0166728000000007,0.0114716,0,sub_19
-0.0339450000000002,-0.0009475999999987,0.0975873999999999,-0.0046853999999994,0.0180622000000007,0.011691,0,sub_19
-0.0339888000000002,-0.0014443999999987,0.0980025999999999,-0.0039337999999994,0.0175374000000007,0.0110582,0,sub_19
-0.0335600000000002,-0.0023169999999987,0.0984613999999999,-0.0036145999999994,0.0150992000000007,0.009784,0,sub_19
-0.0335446000000002,-0.0035587999999987,0.0992301999999999,-0.0039401999999994,0.0113858000000007,0.0082932,0,sub_19
-0.0337928000000002,-0.0042789999999987,0.1001967999999999,-0.0033173999999994,0.0062754000000007,0.0070222,0,sub_19
-0.0343808000000002,-0.0045217999999987,0.1004503999999999,-0.0018343999999994,0.0018046000000007,0.0049018,0,sub_19
-0.0346830000000002,-0.0039937999999987,0.1006235999999999,-0.0005589999999994,-0.0018113999999992,0.0023518,0,sub_19
-0.0352058000000002,-0.0033023999999987,0.1005517999999999,0.0012550000000005,-0.0051399999999992,-0.0001901999999999,0,sub_19
-0.0357114000000002,-0.0023933999999987,0.1006203999999999,0.0030698000000005,-0.0082555999999992,-0.0027325999999999,0,sub_19
-0.0357048000000002,-0.0019247999999987,0.1002637999999999,0.0042418000000005,-0.0126445999999992,-0.0059187999999999,0,sub_19
-0.0354366000000002,-0.0014117999999987,0.1008895999999999,0.0058318000000005,-0.0183161999999992,-0.0084593999999999,0,sub_19
-0.0357086000000002,-0.0022139999999987,0.1020003999999999,0.0074190000000005,-0.0233535999999992,-0.0097189999999999,0,sub_19
-0.0356606000000002,-0.0028757999999987,0.1027539999999999,0.0093250000000005,-0.0274049999999992,-0.0105549999999999,0,sub_19
-0.0356068000000002,-0.0034819999999987,0.1027577999999999,0.0105862000000005,-0.0310339999999992,-0.0099005999999999,0,sub_19
-0.0352296000000002,-0.0041717999999987,0.1027325999999999,0.0124874000000005,-0.0338163999999992,-0.0083881999999999,0,sub_19
-0.0345020000000002,-0.0053723999999987,0.1024407999999999,0.0140838000000005,-0.0355151999999992,-0.0062379999999999,0,sub_19
-0.0341434000000002,-0.0051975999999987,0.1025225999999999,0.0161098000000005,-0.0363643999999992,-0.0038723999999999,0,sub_19
-0.0339252000000002,-0.0046317999999987,0.1030923999999999,0.0187778000000005,-0.0353041999999992,-9.199999999954731e-06,0,sub_19
-0.0334288000000002,-0.0037567999999987,0.1028413999999999,0.0220982000000005,-0.0319009999999992,0.0034284,0,sub_19
-0.0328220000000002,-0.0027803999999987,0.1027255999999999,0.0247852000000005,-0.0270041999999992,0.0068596,0,sub_19
-0.0328940000000002,-0.0013821999999987,0.1023343999999999,0.0264960000000005,-0.0225505999999992,0.0104978,0,sub_19
-0.0328128000000002,-0.0010945999999987,0.1013343999999999,0.0264978000000005,-0.0191535999999992,0.0134846,0,sub_19
-0.0329404000000002,-0.0013401999999987,0.1003685999999999,0.0247898000000005,-0.0178751999999992,0.0149666,0,sub_19
-0.0337102000000002,-0.0018331999999987,0.1005589999999999,0.0227978000000005,-0.0198247999999992,0.0153874,0,sub_19
-0.0351272000000002,-0.0022565999999987,0.1008941999999999,0.0212334000000005,-0.0224115999999992,0.0149576,0,sub_19
-0.0358400000000002,-0.0023391999999987,0.1011423999999999,0.0207396000000005,-0.0252109999999992,0.0134672,0,sub_19
-0.0365052000000002,-0.0015571999999987,0.1009899999999999,0.0202460000000005,-0.0286469999999991,0.0113366,0,sub_19
-0.0368364000000002,-0.0008841999999987,0.1022901999999999,0.0195418000000005,-0.0320795999999991,0.0085636,0,sub_19
-0.0365322000000002,-0.0006173999999987,0.1033023999999999,0.0186920000000005,-0.0337707999999991,0.0059962,0,sub_19
-0.0358872000000002,-0.0004083999999987,0.1046827999999999,0.0174234000000005,-0.0339683999999991,0.0032102,0,sub_19
-0.0354660000000002,-0.0004307999999987,0.1056317999999999,0.0150926000000005,-0.0326723999999991,0.0008422,0,sub_19
-0.0342842000000002,-0.0009245999999987,0.1066017999999999,0.0129770000000005,-0.0305267999999992,-0.0010979999999999,0,sub_19
-0.0336230000000002,-0.0014747999999987,0.1062735999999999,0.0110482000000005,-0.0282317999999992,-0.0026195999999999,0,sub_19
-0.0335620000000002,-0.0016301999999987,0.1061917999999999,0.0082680000000005,-0.0255075999999992,-0.0041477999999999,0,sub_19
-0.0334430000000002,-0.0014189999999987,0.1054715999999999,0.0056924000000005,-0.0242771999999992,-0.0052453999999999,0,sub_19
-0.0338052000000002,-0.0016085999999986,0.1053521999999999,0.0033292000000005,-0.0238971999999992,-0.0069811999999999,0,sub_19
-0.0345338000000002,-0.0016171999999986,0.1052239999999999,0.0016034000000005,-0.0241585999999992,-0.0087117999999999,0,sub_19
-0.0347252000000002,-0.0015119999999986,0.1048391999999999,0.0001126000000005,-0.0245751999999992,-0.0097897999999999,0,sub_19
-0.0339906000000002,-0.0018965999999986,0.1047005999999998,-0.0011705999999994,-0.0258463999999992,-0.0104379999999999,0,sub_19
-0.0337438000000002,-0.0030557999999986,0.1045823999999999,-0.0033203999999994,-0.0265303999999992,-0.0100415999999999,0,sub_19
-0.0328686000000002,-0.0034011999999987,0.1042119999999999,-0.0056805999999994,-0.0261503999999992,-0.0092207999999999,0,sub_19
-0.0321432000000002,-0.0038079999999987,0.1036453999999999,-0.0086819999999994,-0.0255565999999991,-0.0079773999999999,0,sub_19
-0.0315310000000002,-0.0034819999999986,0.1038225999999999,-0.0112563999999993,-0.0249643999999991,-0.0067309999999999,0,sub_19
-0.0320190000000002,-0.0035937999999986,0.1032307999999999,-0.0138347999999993,-0.0247999999999991,-0.0050567999999999,0,sub_19
-0.0316880000000002,-0.0016915999999987,0.1027293999999999,-0.0155493999999993,-0.0256497999999991,-0.0042129999999999,0,sub_19
-0.0314594000000002,-0.0003599999999987,0.1028615999999999,-0.0149119999999993,-0.0258667999999991,-0.0037809999999999,0,sub_19
-0.0308086000000002,0.0006002000000012,0.1035475999999999,-0.0121275999999993,-0.0233205999999991,-0.0035511999999999,0,sub_19
-0.0304752000000002,0.0002570000000012,0.1037897999999999,-0.0072241999999994,-0.0179893999999991,-0.0030923999999999,0,sub_19
-0.0300110000000002,-0.0005587999999987,0.1050331999999999,0.0004616000000005,-0.0088405999999992,-0.0006963999999999,0,sub_19
-0.0308636000000002,-0.0032509999999987,0.1055909999999999,0.0092354000000005,0.0069014000000007,0.0036216,0,sub_19
-0.0310444000000002,-0.0049613999999987,0.1043557999999999,0.0145952000000005,0.0249896000000007,0.010263,0,sub_19
-0.0315330000000002,-0.0059563999999987,0.1031273999999999,0.0165268000000005,0.0405304000000007,0.0175246,0,sub_19
-0.0317886000000002,-0.0055937999999987,0.1018571999999999,0.0161134000000005,0.0494562000000007,0.0234922,0,sub_19
-0.0323086000000002,-0.0042429999999987,0.1007225999999999,0.0133416000000005,0.0532872000000007,0.0268864,0,sub_19
-0.0325874000000002,-0.0024327999999987,0.0998687999999999,0.0099152000000005,0.0515904000000007,0.027933,0,sub_19
-0.0339598000000002,-0.0021391999999986,0.1002085999999999,0.0081928000000005,0.0471264000000007,0.0268584,0,sub_19
-0.0361636000000002,-0.0016751999999986,0.0990831999999999,0.0078992000000005,0.0427288000000007,0.025564,0,sub_19
-0.0380178000000002,-0.0012927999999986,0.0979343999999999,0.0069782000000005,0.0419520000000007,0.0251152,0,sub_19
-0.0386280000000002,-0.0003373999999986,0.0965605999999999,0.0064924000000005,0.0418178000000007,0.0233866,0,sub_19
-0.0379008000000002,-5.179999999867358e-05,0.0961119999999999,0.0053588000000005,0.0380718000000007,0.0197354,0,sub_19
-0.0367964000000002,0.0003466000000013,0.0963771999999999,0.0042158000000005,0.0304978000000007,0.0143798,0,sub_19
-0.0357116000000002,0.0001764000000012,0.0974955999999999,0.0044196000000005,0.0226370000000007,0.0086228,0,sub_19
-0.0346728000000002,-0.0016467999999987,0.0992799999999999,0.0063350000000005,0.0171088000000007,0.0041568,0,sub_19
-0.0329954000000002,-0.0043255999999987,0.1009071999999999,0.0066782000000005,0.0146710000000007,0.0020052,0,sub_19
-0.0318674000000002,-0.0065075999999987,0.1025629999999999,0.0055346000000005,0.0160640000000007,0.0021884,0,sub_19
-0.0306226000000002,-0.0067085999999987,0.1035495999999999,0.0035488000000005,0.0215018000000007,0.0038562,0,sub_19
-0.0294198000000002,-0.0059589999999987,0.1044521999999999,0.0017824000000005,0.0280052000000007,0.0053104,0,sub_19
-0.0288226000000002,-0.0045775999999987,0.1040971999999999,-0.0001935999999994,0.0338760000000007,0.0052684,0,sub_19
-0.0305046000000002,-0.0023495999999987,0.1020241999999999,-0.0003837999999994,0.0387778000000007,0.0050472,0,sub_19
-0.0327754000000002,-0.0002451999999987,0.0990207999999999,0.0013376000000005,0.0421798000000007,0.0052684,0,sub_19
-0.0359690000000002,0.0004488000000012,0.0958841999999999,0.0041096000000005,0.0413196000000007,0.0048616,0,sub_19
-0.0382142000000002,6.200000001306463e-06,0.0936487999999999,0.0063798000000005,0.0369710000000007,0.0044578,0,sub_19
