userAcceleration.x,userAcceleration.y,userAcceleration.z,rotationRate.x,rotationRate.y,rotationRate.z,label,subject
0.0130037999999996,0.0149942000000012,0.0076507999999999,0.0010392000000005,-0.0569905999999992,-0.0304026,0,sub_19
0.0131383999999996,0.0128280000000012,0.0091316,0.0115500000000005,-0.0524881999999991,-0.0362876,0,sub_19
0.0123871999999996,0.0099070000000012,0.0103662,0.0216456000000005,-0.0390947999999992,-0.0377296,0,sub_19
0.0120917999999996,0.0065240000000012,0.0117732,0.0270518000000005,-0.0203757999999992,-0.0349384,0,sub_19
0.0132713999999996,0.0035772000000012,0.0126394,0.0288106000000005,-0.0029351999999992,-0.0289664,0,sub_19
0.0148739999999996,0.0042896000000012,0.0125696,0.0269220000000005,0.0083336000000008,-0.021483,0,sub_19
0.0152983999999996,0.0054978000000012,0.0111212,0.0222300000000005,0.0134320000000008,-0.013584,0,sub_19
0.0153255999999996,0.0066538000000012,0.0096723999999999,0.0160154000000005,0.0123562000000008,-0.005474,0,sub_19
0.0146453999999996,0.0079794000000012,0.0084039999999999,0.0102162000000005,0.0085100000000008,0.0024287999999999,0,sub_19
0.0132079999999996,0.0105894000000012,0.0076189999999999,0.0031434000000005,0.0053108000000008,0.0094673999999999,0,sub_19
0.0121127999999996,0.0107882000000012,0.0078387999999999,-0.0052087999999994,0.0046760000000007,0.0156055999999999,0,sub_19
0.0127101999999996,0.0112768000000012,0.0092785999999999,-0.0111909999999994,0.0065998000000007,0.0191933999999999,0,sub_19
0.0129127999999996,0.0118572000000012,0.0103772,-0.0120319999999994,0.0093724000000008,0.0191839999999999,0,sub_19
0.0135983999999996,0.0127146000000012,0.0105978,-0.0100933999999994,0.0098064000000008,0.0155651999999999,0,sub_19
0.0131831999999995,0.0132478000000012,0.0098038,-0.0085761999999994,0.0074484000000007,0.0096279999999999,0,sub_19
0.0131699999999995,0.0144262000000012,0.0083282,-0.0076941999999994,0.0042480000000008,0.0017645999999999,0,sub_19
0.0125747999999996,0.0152954000000012,0.0070874,-0.0068131999999994,0.0004100000000007,-0.0065252,0,sub_19
0.0122103999999996,0.0163194000000012,0.006136,-0.0063579999999994,-0.0023645999999992,-0.0139648,0,sub_19
0.0117595999999996,0.0162872000000012,0.0053598,-0.0063219999999994,-0.0019479999999992,-0.019916,0,sub_19
0.0123441999999996,0.0162518000000012,0.0051516,-0.0045823999999994,0.0023190000000007,-0.0229002,0,sub_19
0.0126083999999996,0.0148060000000012,0.0056177999999999,-0.0022007999999994,0.0091318000000007,-0.0237468,0,sub_19
0.0128219999999996,0.0127136000000012,0.0059076,-0.0015545999999994,0.0158976000000007,-0.0224538,0,sub_19
0.0131589999999996,0.0105618000000012,0.0059003999999999,-0.0030563999999994,0.0205360000000007,-0.0201048,0,sub_19
0.0126467999999996,0.0097146000000012,0.0059385999999999,-0.0077817999999994,0.0207090000000007,-0.0171316,0,sub_19
0.0124179999999996,0.0089916000000012,0.0059119999999999,-0.0144427999999994,0.0168432000000007,-0.0148078,0,sub_19
0.0116181999999996,0.0100204000000012,0.0051878,-0.0202599999999994,0.0112684000000008,-0.0120486,0,sub_19
0.0113865999999996,0.0116782000000012,0.0052396,-0.0239189999999994,0.0072212000000008,-0.0090778,0,sub_19
0.0109189999999996,0.0128520000000012,0.0052088,-0.0256421999999994,0.0061518000000007,-0.0065248,0,sub_19
0.0115981999999996,0.0137228000000012,0.0055934,-0.0241475999999994,0.0091182000000008,-0.0037408,0,sub_19
0.0117965999999996,0.0136062000000012,0.0058008,-0.0207553999999994,0.0139960000000007,-0.0017776,0,sub_19
0.0116957999999996,0.0122656000000012,0.0064404,-0.0173631999999994,0.0180250000000007,-0.000668,0,sub_19
0.0112625999999996,0.0103740000000012,0.0062882,-0.0146253999999994,0.0186482000000007,0.0002275999999999,0,sub_19
0.0105267999999996,0.0087758000000012,0.0058152,-0.0136119999999994,0.0154424000000007,0.0011161999999999,0,sub_19
0.0095197999999996,0.0088928000000012,0.0050144,-0.0145313999999994,0.0088370000000007,0.0013547999999999,0,sub_19
0.0085447999999996,0.0105022000000012,0.0049246,-0.0169149999999994,0.0003248000000007,0.0009215999999999,0,sub_19
0.0078661999999996,0.0120192000000012,0.004709,-0.0197165999999994,-0.0071173999999992,-0.0003702,0,sub_19
0.0072133999999996,0.0125560000000012,0.00434,-0.0220721999999994,-0.0109363999999992,-0.0023046,0,sub_19
0.0076003999999996,0.0138514000000012,0.0046224,-0.0212089999999994,-0.0105065999999992,-0.0040082,0,sub_19
0.0084911999999996,0.0134558000000012,0.0048072,-0.0178383999999994,-0.0083415999999992,-0.0056312,0,sub_19
0.0092543999999996,0.0119620000000012,0.0043618,-0.0129711999999994,-0.0066037999999991,-0.0083112,0,sub_19
0.0095147999999996,0.0107766000000012,0.0043572,-0.0072687999999994,-0.0084923999999992,-0.0105536,0,sub_19
0.0102293999999996,0.0112880000000012,0.004149,-0.0024343999999994,-0.0133617999999991,-0.0125844,0,sub_19
0.0108507999999996,0.0106340000000012,0.0040824,-0.0010283999999994,-0.0212025999999992,-0.0144218,0,sub_19
0.0111753999999996,0.0097532000000012,0.0041554,-0.0017001999999994,-0.0292919999999991,-0.0154842,0,sub_19
0.0124715999999996,0.0094748000000012,0.0044028,-0.0036607999999994,-0.0361113999999991,-0.0133528,0,sub_19
0.0146331999999996,0.0097454000000012,0.0042366,-0.0071407999999994,-0.0392979999999991,-0.0095012,0,sub_19
0.0163069999999996,0.0096078000000012,0.0042698,-0.0097595999999994,-0.0390855999999991,-0.0039388,0,sub_19
0.0175209999999996,0.0107012000000012,0.003969,-0.0108761999999994,-0.0363243999999991,0.0022717999999999,0,sub_19
0.0184743999999996,0.0121040000000012,0.0038542,-0.0104951999999994,-0.0320795999999991,0.0091317999999999,0,sub_19
0.0189321999999996,0.0130312000000012,0.0035792,-0.0092551999999994,-0.0271961999999991,0.0153561999999999,0,sub_19
0.0188441999999996,0.0134384000000012,0.003811,-0.0084027999999994,-0.0231681999999992,0.0196297999999999,0,sub_19
0.0184239999999996,0.0141928000000012,0.0047402,-0.0092543999999994,-0.0212537999999992,0.0211167999999999,0,sub_19
0.0178827999999996,0.0147668000000012,0.0053882,-0.0107353999999994,-0.0193277999999991,0.0202493999999999,0,sub_19
0.0176313999999996,0.0146524000000012,0.0065178,-0.0130557999999994,-0.0165371999999992,0.0170249999999999,0,sub_19
0.0161231999999996,0.0144916000000012,0.008045,-0.0160149999999994,-0.0131063999999992,0.0121365999999999,0,sub_19
0.0144111999999996,0.0137302000000012,0.008683,-0.0191855999999994,-0.0094609999999992,0.0070329999999999,0,sub_19
0.0121935999999996,0.0128820000000012,0.0076856,-0.0238535999999994,-0.0064501999999991,0.0021331999999999,0,sub_19
0.0106817999999996,0.0125246000000012,0.0073384,-0.0304593999999994,-0.0062067999999991,-0.0017084,0,sub_19
0.0086457999999996,0.0129270000000012,0.0062306,-0.0398559999999994,-0.0089397999999991,-0.0047112,0,sub_19
0.0082835999999996,0.0130222000000012,0.0044554,-0.0511675999999994,-0.0122979999999991,-0.0075634,0,sub_19
0.0100951999999996,0.0128674000000012,0.0033118,-0.0611949999999994,-0.0145963999999991,-0.0101944,0,sub_19
0.0129147999999996,0.0121476000000012,0.0027676,-0.0671655999999994,-0.0162697999999991,-0.0127976,0,sub_19
0.0137335999999996,0.0110780000000012,0.0032184,-0.0683977999999994,-0.0167115999999991,-0.0161758,0,sub_19
0.0136187999999996,0.0093278000000012,0.0039174,-0.0638537999999994,-0.0148257999999991,-0.0205848,0,sub_19
0.0130211999999996,0.0071684000000012,0.0049305999999999,-0.0533293999999994,-0.0112581999999991,-0.024527,0,sub_19
0.0096943999999996,0.0056942000000012,0.0056661999999999,-0.0389711999999994,-0.0072855999999991,-0.02652,0,sub_19
0.0055081999999996,0.0042202000000012,0.0074025999999999,-0.0224897999999994,-0.0031175999999991,-0.0259348,0,sub_19
0.0028101999999996,0.0030356000000012,0.0073137999999999,-0.0060609999999994,-0.0004171999999991,-0.0228326,0,sub_19
0.0013059999999996,0.0044092000000012,0.0067298,0.0090732000000005,0.0014260000000008,-0.0173882,0,sub_19
0.0001175999999996,0.0059804000000012,0.006043,0.0212566000000005,0.0004788000000007,-0.0093604,0,sub_19
-0.0001826000000003,0.0067854000000012,0.005532,0.0287162000000005,-0.0066321999999992,-0.0009306,0,sub_19
0.0012439999999996,0.0082226000000012,0.0052152,0.0291172000000005,-0.0175535999999992,0.0074547999999999,0,sub_19
0.0046353999999996,0.0107560000000012,0.0052188,0.0248402000000005,-0.0250489999999992,0.0155895999999999,0,sub_19
0.0087771999999996,0.0121108000000012,0.0057071999999999,0.0190976000000005,-0.0280581999999991,0.0219991999999999,0,sub_19
0.0135157999999996,0.0134434000000012,0.0063779999999999,0.0131156000000005,-0.0271953999999991,0.0245199999999999,0,sub_19
0.0175107999999996,0.0134514000000012,0.0064336,0.0105734000000005,-0.0218651999999991,0.0257771999999999,0,sub_19
0.0198423999999996,0.0126220000000012,0.0058826,0.0144496000000005,-0.0146321999999991,0.0251539999999999,0,sub_19
0.0193011999999995,0.0100880000000012,0.0058515999999999,0.0226446000000005,-0.0092861999999991,0.0237505999999999,0,sub_19
0.0175703999999995,0.0071290000000012,0.0059424,0.0331722000000005,-0.0058709999999992,0.0236477999999999,0,sub_19
0.0137145999999995,0.0053370000000012,0.0058438,0.0462478000000005,-0.0024757999999992,0.0263401999999999,0,sub_19
0.0104031999999995,0.0064748000000012,0.0062388,0.0589024000000005,0.0028358000000007,0.0296681999999999,0,sub_19
0.0086093999999995,0.0083926000000012,0.0076184,0.0685814000000005,0.0109266000000007,0.0331855999999999,0,sub_19
0.0078243999999996,0.0106970000000012,0.0084574,0.0743664000000005,0.0179304000000007,0.0349261999999999,0,sub_19
0.0072699999999996,0.0126156000000012,0.0094386,0.0741568000000005,0.0187834000000007,0.0349235999999999,0,sub_19
0.0086267999999996,0.0140308000000012,0.0101614,0.0647608000000004,0.0141410000000007,0.0318729999999999,0,sub_19
0.0111999999999996,0.0155654000000012,0.0116926,0.0479102000000004,0.0084756000000008,0.0247123999999999,0,sub_19
0.0133181999999996,0.0163150000000012,0.01145,0.0311450000000005,0.0050264000000007,0.0149847999999999,0,sub_19
0.0155431999999996,0.0158334000000012,0.0115648,0.0193018000000005,0.0036948000000007,0.0042207999999999,0,sub_19
0.0164843999999996,0.0143906000000012,0.0103968,0.0151524000000005,0.0051062000000007,-0.006493,0,sub_19
0.0162251999999996,0.0119374000000012,0.0098216,0.0204010000000005,0.0107372000000007,-0.0150102,0,sub_19
0.0138525999999996,0.0093612000000012,0.0089216,0.0322564000000005,0.0184602000000007,-0.0196384,0,sub_19
0.0107227999999996,0.0077448000000012,0.0088266,0.0427404000000005,0.0250276000000007,-0.0193598,0,sub_19
0.0069049999999996,0.0072402000000012,0.0089736,0.0487254000000005,0.0311700000000007,-0.0154804,0,sub_19
0.0049453999999996,0.0084890000000012,0.0102092,0.0488718000000005,0.0367674000000007,-0.010558,0,sub_19
0.0033287999999996,0.0105796000000012,0.011495,0.0438868000000005,0.0398270000000007,-0.005882,0,sub_19
0.0039429999999996,0.0112432000000012,0.0125842,0.0358982000000005,0.0380020000000008,-0.0025024,0,sub_19
0.0057777999999996,0.0113416000000012,0.013054,0.0272656000000005,0.0329926000000008,-0.0014736,0,sub_19
0.0086317999999996,0.0121274000000012,0.0135032,0.0190704000000005,0.0290522000000007,-0.0017248,0,sub_19
0.0110187999999996,0.0117900000000012,0.0134034,0.0141638000000005,0.0288580000000007,-0.0021862,0,sub_19
0.0139009999999996,0.0105412000000012,0.0131386,0.0137476000000005,0.0299300000000007,-0.0034724,0,sub_19
0.0155467999999996,0.0097034000000012,0.0128986,0.0158948000000005,0.0320564000000007,-0.0043148,0,sub_19
0.0144141999999996,0.0097470000000012,0.0131208,0.0211496000000005,0.0357302000000007,-0.0044582,0,sub_19
0.0127733999999996,0.0088556000000012,0.0131632,0.0285330000000005,0.0387556000000008,-0.0041588,0,sub_19
0.0104495999999996,0.0081176000000012,0.013629,0.0348372000000005,0.0390152000000008,-0.0038634,0,sub_19
0.0078633999999996,0.0080474000000012,0.0145374,0.0392104000000005,0.0377866000000007,-0.0027248,0,sub_19
0.0053965999999996,0.0080690000000012,0.0154546,0.0425140000000005,0.0352860000000007,-0.0022332,0,sub_19
0.0050943999999996,0.0066256000000012,0.0167536,0.0433502000000005,0.0310236000000007,-0.0026492,0,sub_19
0.0048047999999996,0.0058208000000012,0.0180384,0.0420412000000005,0.0231512000000007,-0.0041436,0,sub_19
0.0058167999999996,0.0053454000000012,0.0193076,0.0400874000000005,0.0142156000000007,-0.0056412,0,sub_19
0.0067843999999996,0.0052472000000012,0.0202434,0.0381374000000005,0.0067688000000007,-0.0065,0,sub_19
0.0080587999999996,0.0048830000000012,0.0210452,0.0375048000000005,0.0038634000000007,-0.0060938,0,sub_19
0.0089217999999996,0.0048910000000012,0.0213396,0.0390184000000005,0.0052056000000008,-0.0041828,0,sub_19
0.0100281999999996,0.0046304000000012,0.0220656,0.0424678000000005,0.0110108000000007,-0.0011958,0,sub_19
0.0108001999999996,0.0052896000000012,0.0222096,0.0465744000000005,0.0206488000000008,0.0017909999999999,0,sub_19
0.0110445999999996,0.0069400000000012,0.0216982,0.0500544000000005,0.0322108000000008,0.0037027999999999,0,sub_19
0.0113259999999996,0.0090792000000012,0.0212666,0.0526512000000005,0.0409344000000007,0.0043505999999999,0,sub_19
0.0105221999999996,0.0104282000000012,0.0219758,0.0533066000000005,0.0434922000000007,0.0034973999999999,0,sub_19
0.0094393999999995,0.0107002000000012,0.021774,0.0506432000000005,0.0411936000000007,0.0019205999999999,0,sub_19
0.0082313999999996,0.0097442000000012,0.0222312,0.0432588000000005,0.0329460000000007,0.0003183999999999,0,sub_19
0.0075511999999996,0.0083600000000012,0.0231392,0.0332918000000005,0.0200192000000007,-0.0010822,0,sub_19
0.0079627999999995,0.0076514000000012,0.02401,0.0224694000000005,0.0077304000000008,-0.0014214,0,sub_19
0.0095345999999995,0.0079838000000012,0.0239362,0.0133674000000005,-0.0003083999999992,-0.0004722,0,sub_19
0.0115911999999996,0.0088996000000012,0.0246246,0.0063060000000005,-0.0030601999999992,0.0011911999999999,0,sub_19
0.0137603999999996,0.0095666000000012,0.0250516,0.0031150000000005,0.0005668000000008,0.0026597999999999,0,sub_19
0.0157191999999996,0.0095454000000012,0.0255948,0.0012224000000005,0.0076010000000007,0.0034921999999999,0,sub_19
0.0159313999999996,0.0085834000000012,0.0263972,0.0001824000000005,0.0131458000000007,0.0030505999999999,0,sub_19
0.0159325999999996,0.0082682000000012,0.0267908,-0.0003661999999994,0.0163204000000008,0.0006673999999999,0,sub_19
0.0152277999999996,0.0084232000000012,0.0262808,0.0018512000000005,0.0162954000000008,-0.003188,0,sub_19
0.0147033999999996,0.0101506000000012,0.025188,0.0042696000000005,0.0128634000000007,-0.0076786,0,sub_19
0.0143541999999996,0.0125114000000012,0.0242909999999999,0.0043322000000005,0.0075220000000007,-0.0121832,0,sub_19
0.0143573999999996,0.0156426000000012,0.0227363999999999,0.0001218000000005,0.0017662000000007,-0.0158626,0,sub_19
0.0150941999999996,0.0177430000000012,0.0223143999999999,-0.0097097999999994,-0.0047921999999992,-0.018914,0,sub_19
0.0151037999999995,0.0176860000000012,0.0228068,-0.0233925999999994,-0.0136807999999991,-0.0219892,0,sub_19
0.0144311999999996,0.0168092000000012,0.0239094,-0.0364323999999994,-0.0238421999999991,-0.026981,0,sub_19
0.0132949999999996,0.0153412000000012,0.0244082,-0.0442855999999994,-0.0336911999999991,-0.0328,0,sub_19
0.0123301999999996,0.0120148000000012,0.0249042,-0.0470063999999994,-0.0418503999999991,-0.0394398,0,sub_19
0.0115897999999996,0.0089746000000012,0.0243954,-0.0439573999999994,-0.0470511999999991,-0.044975,0,sub_19
0.0116975999999996,0.0080474000000012,0.0231378,-0.0381269999999994,-0.0480107999999992,-0.0479326,0,sub_19
0.0129497999999996,0.0077554000000012,0.021853,-0.0312305999999994,-0.0447309999999992,-0.0464016,0,sub_19
0.0149529999999996,0.0077368000000012,0.020744,-0.0241815999999994,-0.0375337999999992,-0.040807,0,sub_19
0.0166599999999996,0.0090080000000012,0.0196466,-0.0169155999999994,-0.0271509999999992,-0.0328648,0,sub_19
0.0173887999999996,0.0109742000000012,0.0174632,-0.0108969999999994,-0.0136883999999992,-0.023436,0,sub_19
0.0185593999999996,0.0129202000000012,0.01552,-0.0076425999999994,0.0017022000000007,-0.0142426,0,sub_19
0.0188315999999996,0.0149986000000012,0.0142348,-0.0058733999999994,0.0173178000000008,-0.006769,0,sub_19
0.0181011999999996,0.0152862000000012,0.0129124,-0.0051689999999994,0.0301802000000008,-0.002504,0,sub_19
0.0176625999999996,0.0151702000000012,0.0118726,-0.0049065999999994,0.0375134000000007,-0.0003714,0,sub_19
0.0174189999999996,0.0143372000000012,0.0118954,-0.0044721999999994,0.0381552000000007,-0.0014374,0,sub_19
0.0167825999999996,0.0130990000000012,0.012398,-0.0029805999999994,0.0343286000000007,-0.0048404,0,sub_19
0.0159383999999996,0.0115768000000012,0.0119688,-0.0021451999999994,0.0260336000000007,-0.009097,0,sub_19
0.0156287999999995,0.0118020000000012,0.011713,-0.0028149999999994,0.0159072000000007,-0.0140004,0,sub_19
0.0150033999999995,0.0124242000000012,0.0112796,-0.0053983999999994,0.0064300000000007,-0.0197726,0,sub_19
0.0141509999999995,0.0140470000000012,0.011992,-0.0086123999999994,-0.0004897999999992,-0.0251252,0,sub_19
0.0130281999999995,0.0157124000000012,0.012234,-0.0135265999999994,-0.0061245999999992,-0.0307048,0,sub_19
0.0122405999999996,0.0163410000000012,0.013439,-0.0194923999999994,-0.0083467999999992,-0.0362962,0,sub_19
0.0111581999999996,0.0146884000000012,0.0147216,-0.0233109999999994,-0.0076771999999992,-0.0405966,0,sub_19
0.0102939999999996,0.0124472000000012,0.0154248,-0.0226411999999994,-0.0034089999999992,-0.0429474,0,sub_19
0.0098957999999996,0.0095574000000012,0.0147308,-0.0209141999999994,0.0008468000000007,-0.0431544,0,sub_19
0.0098415999999996,0.0078466000000012,0.0134194,-0.0181315999999994,0.0046644000000007,-0.0412172,0,sub_19
0.0093253999999996,0.0080320000000012,0.012398,-0.0136079999999994,0.0066570000000007,-0.0381954,0,sub_19
0.0084611999999996,0.0100650000000012,0.0117348,-0.0080233999999994,0.0073674000000007,-0.0351646,0,sub_19
0.0077095999999996,0.0109592000000012,0.0114292,-0.0037331999999994,0.0046744000000007,-0.0323522,0,sub_19
0.0064629999999996,0.0101482000000012,0.0108926,0.0005542000000005,0.0009178000000008,-0.0299658,0,sub_19
0.0062009999999996,0.0090444000000012,0.0100996,0.0059054000000005,-0.0034815999999991,-0.027571,0,sub_19
0.0076263999999996,0.0070322000000012,0.008491,0.0120550000000005,-0.0067203999999991,-0.0221828,0,sub_19
0.0109383999999996,0.0060616000000012,0.0067728,0.0167072000000005,-0.0074107999999991,-0.01339,0,sub_19
0.0145515999999996,0.0069316000000012,0.0054212,0.0205230000000005,-0.0010803999999992,-0.0014074,0,sub_19
0.0185191999999996,0.0086578000000012,0.004431,0.0243636000000005,0.0124872000000007,0.0122753999999999,0,sub_19
0.0218023999999996,0.0090662000000012,0.0039996,0.0285854000000005,0.0326048000000007,0.0270669999999999,0,sub_19
0.0233565999999996,0.0103274000000012,0.003225,0.0334656000000005,0.0557074000000007,0.0407911999999999,0,sub_19
0.0238775999999996,0.0119446000000012,0.0026036,0.0362292000000005,0.0794692000000007,0.0512951999999999,0,sub_19
0.0229887999999996,0.0141002000000012,0.0027602,0.0358000000000005,0.1000660000000008,0.0568669999999999,0,sub_19
0.0220551999999996,0.0168064000000012,0.003341,0.0325942000000005,0.1149404000000007,0.0572991999999999,0,sub_19
0.0198549999999996,0.0189574000000012,0.0044248,0.0258200000000005,0.1224390000000007,0.0527557999999999,0,sub_19
0.0184339999999996,0.0190962000000012,0.0064628,0.0164738000000005,0.1216604000000008,0.0424365999999999,0,sub_19
0.0159035999999996,0.0190242000000012,0.0084156,0.0062734000000005,0.1145300000000008,0.0279445999999999,0,sub_19
0.0143767999999996,0.0182358000000012,0.0096014,-0.0050083999999994,0.1029344000000008,0.0121689999999999,0,sub_19
0.0119587999999996,0.0164234000000012,0.0112912,-0.0158749999999994,0.0892050000000007,-0.0031738,0,sub_19
0.0105769999999996,0.0147076000000012,0.0126032,-0.0233379999999994,0.0763032000000007,-0.0152892,0,sub_19
0.0088565999999996,0.0137152000000012,0.0130208,-0.0293113999999994,0.0676368000000007,-0.0222722,0,sub_19
0.0082055999999996,0.0118726000000012,0.0135458,-0.0323111999999994,0.0636044000000007,-0.02357,0,sub_19
0.0075627999999996,0.0107234000000012,0.0145218,-0.0318969999999994,0.0640162000000007,-0.020363,0,sub_19
0.0079895999999996,0.0107482000000012,0.015023,-0.0284925999999994,0.0690886000000007,-0.0130818,0,sub_19
0.0080931999999996,0.0122740000000012,0.0149642,-0.0244105999999994,0.0786032000000007,-0.0046436,0,sub_19
0.0080151999999996,0.0134816000000012,0.0152116,-0.0205285999999994,0.0902524000000007,0.0029357999999999,0,sub_19
0.0076551999999996,0.0141142000000012,0.0153628,-0.0170751999999994,0.1008406000000007,0.0098727999999998,0,sub_19
0.0073783999999996,0.0131658000000012,0.0151618,-0.0138417999999994,0.1086650000000007,0.0155297999999998,0,sub_19
0.0071271999999996,0.0110660000000012,0.014786,-0.0110475999999994,0.1120236000000007,0.0194803999999998,0,sub_19
0.0072475999999996,0.0086914000000012,0.0151942,-0.0093569999999994,0.1113666000000007,0.0224839999999998,0,sub_19
0.0078915999999996,0.0069694000000012,0.0155262,-0.0076729999999994,0.1085816000000007,0.0248493999999999,0,sub_19
0.0079609999999996,0.0062692000000012,0.0163536,-0.0050865999999994,0.1036522000000007,0.0258673999999999,0,sub_19
0.0080249999999996,0.0056956000000012,0.01728,-0.0007997999999994,0.0970132000000007,0.0266857999999998,0,sub_19
0.0074215999999996,0.0061342000000012,0.0181248,0.0043432000000005,0.0905860000000008,0.0270827999999999,0,sub_19
0.0066769999999996,0.0065340000000012,0.0190204,0.0094834000000005,0.0828830000000007,0.0268403999999999,0,sub_19
0.0055751999999996,0.0068696000000012,0.0207849999999999,0.0124736000000005,0.0713534000000008,0.0263743999999999,0,sub_19
0.0052353999999996,0.0063694000000012,0.0222043999999999,0.0119846000000005,0.0568698000000008,0.0257485999999999,0,sub_19
0.0049443999999996,0.0076946000000012,0.0230849999999999,0.0080766000000005,0.0415450000000008,0.0253137999999999,0,sub_19
0.0049523999999996,0.0098574000000012,0.0241069999999999,0.0018256000000005,0.0279296000000008,0.0257147999999999,0,sub_19
0.0049989999999996,0.0115028000000012,0.0256053999999999,-0.0037583999999994,0.0183308000000007,0.0266591999999999,0,sub_19
0.0056211999999996,0.0122876000000012,0.026524,-0.0065427999999994,0.0144748000000007,0.0276155999999999,0,sub_19
0.0057961999999996,0.0128628000000012,0.0269152,-0.0071761999999994,0.0150828000000007,0.0292223999999999,0,sub_19
