userAcceleration.x,userAcceleration.y,userAcceleration.z,rotationRate.x,rotationRate.y,rotationRate.z,label,subject
-0.0120436000000002,-0.0028607999999987,0.0409933999999999,0.0176932000000004,-0.0369893999999993,0.0153577999999999,0,sub_15
-0.0133632000000002,-0.0033023999999987,0.0412885999999999,0.0194298000000004,-0.0321165999999993,0.0123763999999999,0,sub_15
-0.0124248000000002,-0.0019211999999987,0.0402583999999999,0.0202994000000004,-0.0319211999999993,0.0076857999999999,0,sub_15
-0.0117342000000002,-0.0004203999999987,0.0390655999999999,0.0194478000000004,-0.0340669999999993,0.0038407999999999,0,sub_15
-0.0116602000000002,0.0011978000000012,0.0379661999999999,0.0177292000000004,-0.0385559999999992,0.0006333999999999,0,sub_15
-0.0123984000000002,0.0026450000000012,0.0372243999999999,0.0153446000000004,-0.0485543999999993,-0.0010796000000001,0,sub_15
-0.0140626000000002,0.0033328000000012,0.0371655999999999,0.0133820000000004,-0.0589829999999993,-0.0021482000000001,0,sub_15
-0.0162014000000002,0.0021344000000012,0.0374937999999999,0.0118462000000004,-0.0685641999999993,-0.0023604000000001,0,sub_15
-0.0170794000000002,0.0008134000000012,0.0360465999999999,0.0102746000000004,-0.0737101999999993,-0.0023482000000001,0,sub_15
-0.0181738000000002,-0.0002367999999987,0.0340057999999999,0.0091462000000004,-0.0748113999999993,-0.0019106000000001,0,sub_15
-0.0174084000000002,-0.0008709999999987,0.0316757999999999,0.0093268000000004,-0.0710109999999993,-0.0029658,0,sub_15
-0.0164768000000002,-0.0002759999999987,0.0286597999999999,0.0097216000000004,-0.0667859999999993,-0.0038064,0,sub_15
-0.0160322000000001,-0.0005345999999987,0.0253557999999999,0.0101088000000004,-0.0632045999999993,-0.003578,0,sub_15
-0.0174440000000001,-0.0005455999999987,0.0242083999999999,0.0105356000000004,-0.0629939999999993,-0.0033618,0,sub_15
-0.0177590000000001,-0.0008245999999987,0.0233175999999999,0.0113862000000004,-0.0636359999999993,-0.0033552,0,sub_15
-0.0194664000000001,-0.0010855999999987,0.0240667999999999,0.0126548000000004,-0.0651359999999993,-0.0022762,0,sub_15
-0.0218698000000001,-0.0018879999999987,0.0249753999999999,0.0136640000000004,-0.0666117999999993,-0.0005564000000001,0,sub_15
-0.0235962000000002,-0.0025123999999987,0.0266511999999999,0.0131796000000004,-0.0680821999999993,0.0011529999999998,0,sub_15
-0.0238032000000002,-0.0032895999999987,0.0278147999999999,0.0118396000000004,-0.0695513999999993,0.0032837999999998,0,sub_15
-0.0235124000000002,-0.0034327999999987,0.0285623999999999,0.0094234000000004,-0.0729351999999993,0.0056231999999998,0,sub_15
-0.0227476000000002,-0.0036159999999987,0.0283825999999999,0.0048696000000004,-0.0763149999999993,0.0088019999999998,0,sub_15
-0.0215860000000002,-0.0031721999999987,0.0276923999999999,-0.0007077999999995,-0.0792927999999993,0.0123987999999999,0,sub_15
-0.0205400000000002,-0.0015857999999987,0.0266989999999999,-0.0056459999999995,-0.0829103999999993,0.0155735999999999,0,sub_15
-0.0200376000000002,0.0004306000000012,0.0253739999999999,-0.0095133999999995,-0.0865281999999993,0.0179011999999999,0,sub_15
-0.0194612000000002,0.0022960000000012,0.0238181999999999,-0.0119257999999995,-0.0895577999999993,0.0196001999999999,0,sub_15
-0.0192242000000002,0.0038346000000012,0.0218493999999999,-0.0119745999999995,-0.0910955999999992,0.0191773999999999,0,sub_15
-0.0186058000000002,0.0054646000000012,0.0216681999999999,-0.0083711999999995,-0.0888043999999992,0.0170659999999999,0,sub_15
-0.0186294000000002,0.0072250000000012,0.0216165999999999,-0.0015423999999995,-0.0831067999999992,0.0128363999999999,0,sub_15
-0.0183350000000002,0.0081860000000012,0.0233077999999999,0.0072336000000004,-0.0737847999999992,0.0062657999999999,0,sub_15
-0.0178882000000002,0.0088124000000012,0.0261087999999999,0.0171428000000004,-0.0616401999999992,-0.00244,0,sub_15
-0.0147036000000002,0.0077934000000012,0.0305877999999999,0.0255620000000004,-0.0490623999999992,-0.011584,0,sub_15
-0.0089118000000002,0.0058118000000012,0.0333197999999999,0.0305454000000004,-0.0413729999999992,-0.0207458,0,sub_15
-0.0023224000000002,0.0033980000000012,0.0355329999999999,0.0316468000000004,-0.0409217999999993,-0.0280026,0,sub_15
0.0045533999999997,0.0020584000000012,0.0358877999999999,0.0284136000000004,-0.0515495999999993,-0.03143,0,sub_15
0.0101129999999997,0.0003256000000012,0.0352831999999999,0.0212822000000004,-0.0704907999999993,-0.0303872,0,sub_15
0.0130989999999997,1.700000000125733e-05,0.0334869999999999,0.0130408000000004,-0.0951961999999993,-0.0254992,0,sub_15
0.0129147999999997,-0.0013205999999987,0.0319649999999999,0.0060758000000004,-0.1177873999999992,-0.017614,0,sub_15
0.0118119999999997,-0.0024373999999987,0.0315465999999999,0.0017212000000004,-0.1278233999999993,-0.0082312,0,sub_15
0.0091391999999997,-0.0035797999999987,0.0318007999999999,0.0012936000000004,-0.1189101999999993,0.0009411999999998,0,sub_15
0.0059199999999997,-0.0034047999999987,0.0317155999999999,0.0045430000000004,-0.1004165999999993,0.0086311999999998,0,sub_15
0.0016755999999997,-0.0030639999999987,0.0316875999999999,0.0088786000000004,-0.0787265999999993,0.0152565999999998,0,sub_15
-0.0031980000000002,-0.0020727999999987,0.0324039999999999,0.0125796000000004,-0.0572413999999993,0.0203823999999998,0,sub_15
-0.0071396000000002,-0.0005587999999987,0.0322193999999999,0.0136944000000004,-0.0434093999999993,0.0235769999999998,0,sub_15
-0.0108884000000002,0.0013944000000012,0.0308471999999999,0.0106908000000004,-0.0442623999999993,0.0263343999999998,0,sub_15
-0.0145696000000002,0.0022980000000012,0.0308895999999999,0.0036150000000004,-0.0487245999999993,0.0294953999999999,0,sub_15
-0.0200556000000002,0.0040118000000012,0.0316117999999999,-0.0047075999999995,-0.0469987999999993,0.0313577999999999,0,sub_15
-0.0234296000000002,0.0068142000000012,0.0320903999999999,-0.0112951999999995,-0.0407979999999993,0.0315173999999998,0,sub_15
-0.0288066000000002,0.0088994000000012,0.0344941999999999,-0.0108023999999995,-0.0260989999999993,0.0315019999999998,0,sub_15
-0.0362862000000002,0.0077246000000012,0.0368839999999999,-0.0046955999999995,0.0013716000000006,0.0295865999999998,0,sub_15
-0.0423238000000002,0.0050046000000012,0.0383501999999999,0.0065628000000004,0.0337322000000006,0.0257781999999998,0,sub_15
-0.0455674000000001,0.0005586000000012,0.0391731999999999,0.0199368000000004,0.0616130000000006,0.0215629999999998,0,sub_15
-0.0479776000000001,-0.0046789999999987,0.0399587999999999,0.0356414000000004,0.0850148000000006,0.0165151999999998,0,sub_15
-0.0487458000000001,-0.0098011999999987,0.0386765999999999,0.0455620000000004,0.1043846000000006,0.0125005999999998,0,sub_15
-0.0467720000000001,-0.0135673999999987,0.0395519999999999,0.0533230000000004,0.1190704000000006,0.0095449999999998,0,sub_15
-0.0444960000000002,-0.0136143999999987,0.0399135999999999,0.0563744000000004,0.1318490000000006,0.0080543999999998,0,sub_15
-0.0426836000000002,-0.0097139999999987,0.0391733999999999,0.0551402000000004,0.1442020000000006,0.0101663999999998,0,sub_15
-0.0426796000000002,-0.0057805999999987,0.0371913999999999,0.0451050000000004,0.1510216000000006,0.0184197999999998,0,sub_15
-0.0426104000000002,-0.0004209999999987,0.0350655999999999,0.0313898000000004,0.1482578000000006,0.0287959999999999,0,sub_15
-0.0403254000000002,0.0033050000000012,0.0318251999999999,0.0150516000000004,0.1329278000000006,0.0404519999999999,0,sub_15
-0.0392486000000002,0.0042364000000012,0.0296349999999999,0.0001794000000004,0.1105652000000006,0.0512725999999999,0,sub_15
-0.0352854000000002,0.0009294000000013,0.0288001999999999,-0.0133983999999995,0.0888476000000006,0.0595377999999999,0,sub_15
-0.0313808000000001,-0.0021473999999986,0.0290739999999999,-0.0226635999999995,0.0737332000000006,0.0644061999999998,0,sub_15
-0.0281258000000001,-0.0065837999999986,0.0297159999999999,-0.0286821999999995,0.0658636000000006,0.0662969999999998,0,sub_15
-0.0279560000000001,-0.0072629999999986,0.0305737999999999,-0.0333849999999995,0.0650236000000006,0.0673333999999998,0,sub_15
-0.0283090000000001,-0.0066791999999986,0.0307501999999999,-0.0368431999999995,0.0638298000000006,0.0675099999999998,0,sub_15
-0.0310340000000002,-0.0047983999999987,0.0302609999999999,-0.0371043999999995,0.0602870000000006,0.0662161999999998,0,sub_15
-0.0329614000000002,-0.0008927999999987,0.0294937999999999,-0.0358777999999995,0.0543998000000006,0.0638677999999999,0,sub_15
-0.0344414000000002,0.0038456000000012,0.0281069999999999,-0.0338369999999995,0.0401988000000006,0.0619629999999999,0,sub_15
-0.0349572000000002,0.0082380000000012,0.0257637999999999,-0.0324861999999995,0.0153456000000006,0.0604943999999999,0,sub_15
-0.0342654000000002,0.0098984000000012,0.0242193999999999,-0.0313305999999995,-0.0115069999999993,0.0613913999999999,0,sub_15
-0.0324626000000002,0.0107060000000012,0.0237641999999999,-0.0310247999999995,-0.0358067999999993,0.0639883999999999,0,sub_15
-0.0308230000000002,0.0098424000000012,0.0232953999999999,-0.0324095999999995,-0.0549931999999993,0.0680625999999999,0,sub_15
-0.0293174000000002,0.0082824000000012,0.0250659999999999,-0.0320759999999995,-0.0705679999999993,0.0732123999999999,0,sub_15
-0.0269878000000002,0.0055666000000012,0.0305241999999999,-0.0314847999999995,-0.0754941999999993,0.0792047999999999,0,sub_15
-0.0254780000000002,0.0062962000000012,0.0355073999999999,-0.0325889999999995,-0.0789187999999993,0.0841153999999999,0,sub_15
-0.0291198000000002,0.0045208000000012,0.0404147999999999,-0.0347771999999995,-0.0832037999999993,0.0920105999999999,0,sub_15
-0.0317602000000002,-0.0002745999999987,0.0458049999999999,-0.0346021999999995,-0.0876947999999993,0.0960767999999999,0,sub_15
-0.0343798000000002,-0.0054657999999987,0.0500121999999999,-0.0358737999999995,-0.0832263999999993,0.0986257999999999,0,sub_15
-0.0335042000000002,-0.0089635999999987,0.0528795999999999,-0.0366927999999995,-0.0727949999999993,0.1013841999999999,0,sub_15
-0.0323868000000002,-0.0132907999999987,0.0544125999999999,-0.0348735999999995,-0.0480859999999993,0.1011515999999999,0,sub_15
-0.0277694000000002,-0.0128945999999987,0.0546769999999999,-0.0349921999999995,-0.0269929999999993,0.1011235999999999,0,sub_15
-0.0210258000000002,-0.0084369999999987,0.0553079999999999,-0.0377725999999995,-0.0265649999999992,0.1030263999999999,0,sub_15
-0.0152296000000002,-0.0055795999999987,0.0523681999999999,-0.0430027999999995,-0.0425593999999992,0.1113425999999999,0,sub_15
-0.0146206000000002,-0.0066367999999987,0.0483649999999999,-0.0416825999999995,-0.0813393999999993,0.1111877999999999,0,sub_15
-0.0044426000000002,-0.0035983999999987,0.0424387999999999,-0.0378893999999995,-0.1316647999999993,0.1189699999999999,0,sub_15
0.0049669999999997,-0.0012307999999987,0.0391107999999999,-0.0335829999999995,-0.1649389999999993,0.1245975999999998,0,sub_15
0.0127449999999997,-0.0003917999999987,0.0337129999999999,-0.0264731999999995,-0.1861007999999993,0.1357837999999999,0,sub_15
0.0244687999999997,-0.0001999999999987,0.0338453999999999,-0.0172831999999995,-0.2202621999999993,0.1459329999999999,0,sub_15
0.0371531999999997,0.0040260000000012,0.0338791999999999,-0.0136065999999995,-0.2407925999999993,0.1620081999999999,0,sub_15
0.0403699999999997,0.0027454000000012,0.0390857999999999,-0.0137243999999995,-0.2580855999999993,0.1710025999999999,0,sub_15
0.0435601999999997,0.0019194000000012,0.0404921999999999,-0.0079253999999995,-0.2934875999999993,0.1747203999999999,0,sub_15
0.0442077999999997,0.0003404000000012,0.0442245999999999,0.0048688000000004,-0.3459313999999993,0.1716723999999999,0,sub_15
0.0389885999999997,6.000000000125662e-05,0.0480783999999999,0.0413762000000004,-0.4079811999999993,0.1527789999999999,0,sub_15
0.0451863999999997,0.0040112000000012,0.0554819999999999,0.0591020000000004,-0.4754869999999993,0.1292747999999998,0,sub_15
0.0473769999999997,0.0060578000000012,0.0608779999999999,0.0695548000000004,-0.5344955999999993,0.1183137999999998,0,sub_15
0.0528977999999997,0.0051020000000012,0.0707643999999999,0.0869464000000004,-0.6118693999999995,0.1119113999999998,0,sub_15
0.0462177999999997,0.0029726000000012,0.0801325999999999,0.1032476000000004,-0.6568153999999994,0.0956321999999998,0,sub_15
0.0416391999999997,0.0003618000000012,0.0871957999999999,0.0981612000000004,-0.6678013999999994,0.0768099999999999,0,sub_15
0.0305533999999997,-0.0054653999999987,0.0907461999999999,0.1166302000000004,-0.6711549999999994,0.0470331999999998,0,sub_15
0.0259935999999997,-0.0058039999999987,0.0953155999999999,0.1411388000000004,-0.6759569999999993,0.0012769999999999,0,sub_15
0.0202801999999997,-0.0042165999999987,0.0970131999999999,0.1557464000000004,-0.6515389999999993,-0.0437312,0,sub_15
0.0273739999999997,0.0008456000000012,0.0949521999999999,0.1557508000000003,-0.6309733999999994,-0.071745,0,sub_15
0.0317301999999997,0.0056300000000012,0.0891771999999999,0.1557444000000004,-0.5953509999999993,-0.0822592,0,sub_15
0.0278569999999997,0.0090254000000012,0.0830317999999999,0.1514706000000004,-0.5454963999999993,-0.0785074,0,sub_15
0.0223847999999997,0.0133870000000012,0.0740865999999999,0.1527358000000004,-0.4977907999999993,-0.0749276000000001,0,sub_15
0.0198687999999997,0.0143902000000012,0.0612609999999999,0.1613170000000004,-0.4390215999999993,-0.0738748,0,sub_15
0.0192847999999997,0.0098586000000012,0.0531981999999999,0.1745124000000004,-0.3519269999999993,-0.0741078,0,sub_15
0.0218121999999997,0.0067620000000012,0.0504447999999999,0.1836558000000004,-0.2699091999999993,-0.0799174,0,sub_15
0.0280361999999997,0.0037660000000012,0.0483597999999999,0.1891008000000004,-0.2040689999999993,-0.0861594,0,sub_15
0.0302351999999997,-0.0018187999999987,0.0447397999999999,0.1850942000000004,-0.1435573999999993,-0.0837012,0,sub_15
0.0265145999999997,-0.0037011999999987,0.0430151999999999,0.1645650000000004,-0.0991981999999993,-0.0768512,0,sub_15
0.0191539999999997,-0.0017401999999987,0.0413067999999999,0.1425972000000004,-0.0906247999999993,-0.0706062,0,sub_15
0.0098653999999997,-2.6799999998743367e-05,0.0364241999999999,0.1131076000000004,-0.0914099999999993,-0.0618382,0,sub_15
-0.0009352000000002,0.0009258000000012,0.0309639999999999,0.0805772000000004,-0.0985983999999993,-0.0475284,0,sub_15
-0.0155722000000002,-0.0007611999999987,0.0217291999999999,0.0503804000000004,-0.1108995999999993,-0.0353322,0,sub_15
-0.0247548000000002,-0.0037605999999987,0.0128603999999999,0.0291870000000004,-0.1214831999999993,-0.0286308,0,sub_15
-0.0319488000000002,-0.0051371999999987,0.0044095999999999,0.0097832000000004,-0.1188429999999993,-0.0270614,0,sub_15
-0.0391354000000002,-0.0008045999999987,0.0008073999999999,-0.0033475999999995,-0.0993845999999993,-0.0276062,0,sub_15
-0.0401248000000002,0.0042180000000012,-0.0039424,-0.0052851999999995,-0.0658727999999993,-0.035782,0,sub_15
-0.0335796000000002,0.0107872000000012,-0.0013338,-0.0035185999999995,-0.0191491999999993,-0.0477944,0,sub_15
-0.0255870000000002,0.0202036000000012,-0.0022844,0.0014862000000004,0.0405268000000006,-0.0572362,0,sub_15
-0.0153454000000002,0.0251638000000012,-0.0058628,0.0126702000000004,0.1035686000000006,-0.0612982,0,sub_15
-0.0025228000000002,0.0238668000000012,-0.011143,0.0295482000000004,0.1550718000000006,-0.0618872,0,sub_15
0.0070185999999997,0.0195462000000012,-0.0139418,0.0427558000000004,0.2020930000000006,-0.0573686,0,sub_15
0.0206367999999997,0.0141634000000012,-0.0161442,0.0576002000000004,0.2329188000000006,-0.0534588,0,sub_15
0.0316935999999997,0.0064044000000012,-0.0117104,0.0691828000000004,0.2454520000000006,-0.0542486,0,sub_15
0.0427113999999997,0.0025926000000012,-0.0058584,0.0777358000000004,0.2403456000000006,-0.063369,0,sub_15
0.0560177999999997,0.0004786000000012,-0.001487,0.0849618000000004,0.2184380000000006,-0.0788864,0,sub_15
0.0687629999999997,0.0001416000000012,0.0044507999999999,0.0911006000000004,0.1893014000000006,-0.0971796,0,sub_15
0.0773019999999997,0.0007192000000012,0.0132755999999999,0.0912536000000004,0.1576292000000006,-0.1155114,0,sub_15
0.0860901999999997,0.0015428000000012,0.0225015999999999,0.0896564000000004,0.1172242000000006,-0.1329896,0,sub_15
0.0935433999999997,0.0014334000000012,0.0336949999999999,0.0805682000000004,0.0757640000000006,-0.1464596,0,sub_15
0.0982003999999997,0.0011414000000012,0.0467645999999999,0.0695472000000004,0.0323896000000006,-0.1590860000000001,0,sub_15
0.1023483999999997,0.0032920000000012,0.0562837999999999,0.0606474000000004,-0.0167327999999993,-0.1746812000000001,0,sub_15
0.1070495999999997,0.0070092000000012,0.0624835999999999,0.0543340000000004,-0.0575653999999993,-0.1877054,0,sub_15
0.1080045999999997,0.0124428000000012,0.0678585999999999,0.0518670000000004,-0.0922523999999993,-0.1957966000000001,0,sub_15
0.1042111999999997,0.0173002000000012,0.0739193999999999,0.0587664000000004,-0.1301749999999993,-0.2021090000000001,0,sub_15
0.0989521999999997,0.0212630000000012,0.0786779999999999,0.0678062000000004,-0.1632183999999993,-0.2049946000000001,0,sub_15
0.0848487999999997,0.0193308000000012,0.0826337999999999,0.0753670000000004,-0.1866945999999993,-0.2014934,0,sub_15
0.0693745999999997,0.0158870000000012,0.0872505999999999,0.0869798000000004,-0.2114599999999993,-0.1988168,0,sub_15
0.0541891999999997,0.0114826000000012,0.0942677999999999,0.1005754000000004,-0.2251421999999993,-0.198918,0,sub_15
0.0435559999999997,0.0101002000000012,0.0988233999999999,0.1095438000000004,-0.2224087999999993,-0.197577,0,sub_15
0.0352665999999997,0.0093438000000012,0.1021845999999999,0.1182632000000004,-0.2324383999999993,-0.2011352,0,sub_15
0.0372833999999997,0.0123842000000012,0.1048257999999999,0.1282206000000004,-0.2567273999999993,-0.2095804,0,sub_15
0.0347401999999997,0.0080040000000012,0.1079945999999999,0.1342454000000004,-0.2927557999999993,-0.2092784000000001,0,sub_15
0.0323015999999997,0.0012312000000012,0.1085613999999999,0.1326774000000004,-0.3505133999999993,-0.2030196000000001,0,sub_15
0.0229259999999997,-0.0078359999999987,0.1061405999999999,0.1327714000000004,-0.4238077999999993,-0.2022842,0,sub_15
0.0129367999999997,-0.0171815999999987,0.1015159999999999,0.1191972000000004,-0.4921847999999993,-0.1939592,0,sub_15
-0.0020136000000002,-0.0258035999999987,0.0967367999999999,0.1094124000000004,-0.5273271999999993,-0.1884276,0,sub_15
-0.0184162000000001,-0.0213609999999987,0.0865005999999999,0.0945502000000004,-0.5149017999999994,-0.1926066,0,sub_15
-0.0392618000000001,-0.0163481999999987,0.0732963999999999,0.0812990000000004,-0.4260067999999993,-0.1938814,0,sub_15
-0.0632522000000001,-0.0115889999999987,0.0648733999999999,0.0633570000000004,-0.2810931999999994,-0.1873558,0,sub_15
-0.1036632000000002,0.0008764000000012,0.0517067999999999,0.0554534000000004,-0.0884823999999993,-0.182744,0,sub_15
-0.1480244000000002,0.0169308000000012,0.0309253999999999,0.0356114000000004,0.1130920000000006,-0.1716042,0,sub_15
-0.1793126000000002,0.0244218000000012,0.0100689999999999,0.0288446000000004,0.2355666000000006,-0.1577078,0,sub_15
-0.2002716000000002,0.0372542000000012,-0.0138796,0.0453726000000004,0.2084568000000006,-0.159053,0,sub_15
-0.2118620000000002,0.0490654000000012,-0.0231534,0.0825138000000004,0.1048296000000006,-0.1706248,0,sub_15
-0.2050058000000002,0.0510802000000012,-0.0226852,0.1244572000000004,-0.0311629999999993,-0.1910948,0,sub_15
-0.1908986000000002,0.0475870000000012,-0.0132978,0.1612212000000004,-0.1845901999999993,-0.216065,0,sub_15
-0.1761938000000002,0.0385870000000012,-0.0038754,0.1807552000000004,-0.2774543999999993,-0.2399514000000001,0,sub_15
-0.1522800000000002,0.0166286000000012,0.0048223999999999,0.1713314000000004,-0.2999463999999993,-0.25473,0,sub_15
-0.1247710000000002,-0.0075909999999987,-0.0042714,0.1387416000000004,-0.3383811999999994,-0.2585404,0,sub_15
-0.0935458000000002,-0.0380243999999987,-0.0138275999999999,0.0944072000000004,-0.4092277999999993,-0.2452996,0,sub_15
-0.0611774000000002,-0.0722835999999987,-0.0188639999999999,0.0511968000000004,-0.4982549999999993,-0.2153636,0,sub_15
-0.0359304000000002,-0.1051759999999987,-0.0175681999999999,0.0102070000000004,-0.6035299999999993,-0.1734272,0,sub_15
-0.0260368000000002,-0.1237333999999987,-0.0058004,-0.0342989999999995,-0.6730437999999993,-0.1204514,0,sub_15
-0.0267452000000002,-0.1318617999999987,0.0072445999999999,-0.0821407999999995,-0.6711847999999992,-0.0590454,0,sub_15
-0.0336854000000002,-0.1317475999999987,0.0173895999999999,-0.1345611999999995,-0.5888045999999993,0.0097027999999999,0,sub_15
-0.0479866000000002,-0.1192191999999987,0.0263293999999999,-0.1894151999999995,-0.4329027999999993,0.0762033999999999,0,sub_15
-0.0624524000000002,-0.0963651999999987,0.0405415999999999,-0.2381241999999995,-0.2386741999999992,0.1431251999999999,0,sub_15
-0.0746504000000002,-0.0789897999999987,0.0516349999999999,-0.2680955999999995,-0.0566415999999993,0.2067749999999999,0,sub_15
-0.0806444000000002,-0.0481949999999987,0.0613009999999999,-0.2895537999999995,0.0701780000000006,0.2656419999999999,0,sub_15
-0.0879240000000002,0.0156070000000012,0.0560277999999999,-0.3014931999999995,0.1147904000000006,0.3082303999999999,0,sub_15
-0.0909490000000002,0.0715408000000012,0.046921,-0.3036847999999995,0.0818770000000006,0.3358173999999999,0,sub_15
-0.1015560000000002,0.1101708000000012,0.0284454,-0.3043913999999995,0.0228500000000006,0.3390927999999999,0,sub_15
-0.1087330000000002,0.1175368000000012,0.009433,-0.3030885999999995,-0.0365287999999993,0.3220865999999999,0,sub_15
-0.1160050000000002,0.0954714000000012,-0.0120697999999999,-0.2775891999999995,-0.0997355999999993,0.2823941999999999,0,sub_15
-0.1148730000000002,0.0426788000000012,-0.022285,-0.2189163999999995,-0.1606343999999993,0.2228479999999998,0,sub_15
-0.1008550000000002,-0.0054029999999987,-0.0197794,-0.1312371999999995,-0.1881393999999993,0.1521385999999998,0,sub_15
-0.0783588000000002,-0.0393809999999987,-0.008903,-0.0254601999999995,-0.1720505999999993,0.0864133999999998,0,sub_15
-0.0569508000000002,-0.0373859999999987,0.0132691999999999,0.0688426000000004,-0.1327491999999993,0.0331831999999999,0,sub_15
-0.0317562000000002,-0.0219601999999987,0.0426967999999999,0.1147338000000004,-0.0612149999999993,0.0064929999999999,0,sub_15
-0.0146988000000002,-0.0094079999999987,0.0746921999999999,0.1071610000000004,0.0176132000000006,0.0136029999999999,0,sub_15
-0.0097040000000002,-0.0025465999999987,0.0886927999999999,0.0627498000000004,0.0381132000000006,0.0403991999999999,0,sub_15
-0.0045058000000002,0.0054058000000012,0.0941775999999999,-0.0019393999999995,-0.0304033999999993,0.0746455999999999,0,sub_15
-0.0022122000000002,0.0069408000000012,0.0842593999999999,-0.0606937999999995,-0.1549753999999993,0.1092189999999999,0,sub_15
5.499999999976704e-05,0.0012968000000012,0.0646489999999999,-0.0828281999999995,-0.2676731999999993,0.1263003999999999,0,sub_15
0.0052873999999997,-0.0035219999999987,0.0471659999999999,-0.0734123999999995,-0.3077657999999993,0.1276993999999999,0,sub_15
0.0151843999999997,-0.0062673999999987,0.0426019999999999,-0.0503475999999995,-0.2624387999999993,0.1211795999999999,0,sub_15
0.0320475999999997,-0.0087689999999987,0.0515687999999999,-0.0272831999999995,-0.1772403999999993,0.1071309999999999,0,sub_15
0.0529115999999997,-0.0021783999999987,0.0649743999999999,-0.0129105999999995,-0.0783803999999993,0.0940723999999999,0,sub_15
0.0727331999999997,0.0045044000000012,0.0802627999999999,-0.0064573999999995,-0.0293597999999993,0.0840131999999999,0,sub_15
0.0992595999999997,0.0119250000000012,0.0859881999999999,-0.0070879999999995,-0.0352905999999993,0.0758977999999999,0,sub_15
0.1226323999999997,0.0165822000000012,0.0810921999999999,-0.0119565999999995,-0.0708667999999993,0.0791139999999999,0,sub_15
0.1401239999999997,0.0225938000000012,0.0646877999999999,-0.0192639999999995,-0.0672809999999993,0.0944407999999999,0,sub_15
0.1504425999999997,0.0239766000000012,0.0429491999999999,-0.0276857999999995,-0.0225883999999993,0.1139799999999999,0,sub_15
0.1580333999999997,0.0280964000000012,0.0247205999999999,-0.0372141999999995,0.0615200000000006,0.1343155999999999,0,sub_15
0.1591437999999997,0.0398490000000012,0.0107167999999999,-0.0421183999999995,0.1294226000000006,0.1540633999999999,0,sub_15
0.1518727999999997,0.0470504000000012,-0.0027555999999999,-0.0471453999999995,0.1653858000000006,0.1691509999999999,0,sub_15
0.1338801999999997,0.0427578000000012,-0.0128731999999999,-0.0427297999999995,0.1566120000000006,0.1749613999999999,0,sub_15
