userAcceleration.x,userAcceleration.y,userAcceleration.z,rotationRate.x,rotationRate.y,rotationRate.z,label,subject
-0.0033712000000003,0.0083636000000013,0.0073076,-0.0485363999999994,-0.0574535999999992,-0.1182896,0,sub_7
-0.0153676000000003,0.0116882000000012,0.0097384,-0.0454277999999994,-0.0575465999999992,-0.0977580000000001,0,sub_7
-0.0252482000000003,0.0113272000000013,0.0141775999999999,-0.0348779999999994,-0.0453819999999992,-0.0588166000000001,0,sub_7
-0.0262050000000003,0.0120740000000013,0.0183827999999999,-0.0164325999999994,-0.0202997999999992,-0.0070180000000001,0,sub_7
-0.0223442000000003,0.0080012000000013,0.0197253999999999,0.0086218000000005,0.0057976000000007,0.0448363999999998,0,sub_7
-0.0132990000000003,0.0029240000000013,0.0161139999999999,0.0309492000000005,0.0262170000000007,0.0804421999999998,0,sub_7
-0.0038178000000003,-0.0002635999999986,0.012455,0.0416362000000005,0.0410324000000007,0.0890545999999998,0,sub_7
0.0054325999999996,-0.0021033999999986,0.0066158,0.0432364000000005,0.0487436000000007,0.0706933999999999,0,sub_7
0.0106443999999996,-0.0030755999999986,0.0016538,0.0273814000000005,0.0459424000000007,0.0323547999999999,0,sub_7
0.0127389999999996,-0.0008219999999986,-0.0004229999999999,-0.0006361999999994,0.0325914000000007,-0.0143982,0,sub_7
0.0111859999999996,0.0015030000000013,0.0002486,-0.0250713999999994,0.0155800000000007,-0.0547122,0,sub_7
0.0066551999999996,0.0042402000000013,0.0005688,-0.0406095999999994,-0.0033315999999992,-0.0813244,0,sub_7
0.0002545999999996,0.0068218000000013,0.0014686,-0.0485201999999994,-0.0168005999999992,-0.0903714,0,sub_7
-0.0059974000000003,0.0076672000000013,0.0014392,-0.0443001999999994,-0.0207909999999992,-0.0826816,0,sub_7
-0.0059918000000003,0.0076606000000013,0.0010432,-0.0317585999999994,-0.0120785999999992,-0.0621314,0,sub_7
-0.0031292000000003,0.0079022000000013,0.0001058,-0.0181499999999994,0.0036328000000007,-0.0345324,0,sub_7
0.0026115999999996,0.0079558000000013,-0.0010323999999999,-0.0049745999999994,0.0192418000000007,-0.0066866000000001,0,sub_7
0.0077453999999996,0.0072104000000012,-0.0021219999999999,0.0058452000000005,0.0276364000000007,0.0158107999999999,0,sub_7
0.0130421999999995,0.0059850000000013,-0.0014559999999999,0.0119928000000005,0.0320352000000007,0.0293077999999999,0,sub_7
0.0129685999999995,0.0047088000000013,-0.0005847999999999,0.0147514000000005,0.0309508000000007,0.0316785999999999,0,sub_7
0.0098265999999995,0.0041262000000013,0.0015422,0.0124652000000005,0.0241666000000007,0.0253669999999999,0,sub_7
0.0053117999999996,0.0029286000000013,0.004658,0.0076322000000005,0.0154936000000007,0.0141263999999999,0,sub_7
0.0008237999999996,0.0025374000000013,0.0077916,0.0021704000000005,0.0081062000000007,0.0015977999999999,0,sub_7
-0.0034448000000003,0.0028974000000013,0.0093908,-0.0007393999999994,0.0013388000000007,-0.0083502000000001,0,sub_7
-0.0064736000000003,0.0033218000000013,0.0099628,-0.0017393999999994,-0.0031103999999992,-0.0135876,0,sub_7
-0.0069274000000003,0.0036082000000013,0.0110262,-0.0017431999999994,-0.0056601999999992,-0.0152936000000001,0,sub_7
-0.0066916000000003,0.0031946000000013,0.011724,-0.0017509999999994,-0.0065157999999992,-0.0144380000000001,0,sub_7
-0.0053804000000003,0.0026242000000013,0.012186,-0.0024015999999994,-0.0060983999999992,-0.0116656,0,sub_7
-0.0038556000000003,0.0012762000000013,0.013154,-0.0058307999999994,-0.0059111999999992,-0.0097910000000001,0,sub_7
-0.0006714000000003,0.0008804000000013,0.0136044,-0.0098915999999994,-0.0067749999999992,-0.0109104000000001,0,sub_7
0.0019243999999996,0.0011144000000013,0.012732,-0.0135101999999994,-0.0099607999999992,-0.0177922000000001,0,sub_7
0.0034205999999996,0.0020340000000012,0.0098298,-0.0162589999999994,-0.0137717999999992,-0.0289402000000001,0,sub_7
0.0048957999999996,0.0032952000000012,0.0062194,-0.0209157999999994,-0.0171405999999992,-0.0424522000000001,0,sub_7
0.0054307999999996,0.0035826000000012,0.0028684,-0.0268471999999993,-0.0200521999999992,-0.0550950000000001,0,sub_7
0.0021857999999996,0.0050866000000012,0.001772,-0.0323631999999993,-0.0221267999999992,-0.0643176000000001,0,sub_7
-0.0018206000000003,0.0053204000000012,-0.0001561999999999,-0.0334107999999993,-0.0191351999999992,-0.0656106000000001,0,sub_7
-0.0034586000000003,0.0057152000000013,-0.0006561999999999,-0.0327543999999993,-0.0112645999999992,-0.0576604000000001,0,sub_7
0.0002517999999996,0.0063962000000012,-0.0018489999999999,-0.0289087999999993,-0.0010813999999992,-0.0447770000000001,0,sub_7
0.0065833999999996,0.0103406000000012,-0.0007541999999999,-0.0201709999999993,0.0082224000000007,-0.0292946,0,sub_7
0.0149241999999996,0.0117530000000013,-0.0014535999999999,-0.0050703999999993,0.0106794000000007,-0.01205,0,sub_7
0.0239373999999996,0.0100414000000013,-0.0003901999999999,0.0059282000000005,0.0012246000000007,0.0038993999999999,0,sub_7
0.0280489999999996,0.0078754000000013,0.0022328,0.0121924000000005,-0.0218373999999992,0.0114503999999999,0,sub_7
0.0210641999999996,0.0053382000000013,0.0077596,0.0171608000000005,-0.0525475999999992,0.0147291999999999,0,sub_7
0.0092415999999996,0.0008554000000013,0.011174,0.0211372000000005,-0.0770733999999992,0.0122847999999999,0,sub_7
-0.0079754000000003,-0.0005477999999986,0.0173806,0.0156048000000005,-0.0853557999999992,0.0052667999999999,0,sub_7
-0.0268482000000003,0.0024312000000013,0.0218774,0.0121184000000005,-0.0695543999999992,-0.0056134000000001,0,sub_7
-0.0439746000000003,0.0034856000000013,0.025763,0.0106510000000005,-0.0301175999999992,-0.0148008000000001,0,sub_7
-0.0535662000000003,0.0019496000000013,0.027258,0.0062618000000005,0.0274246000000007,-0.0204,0,sub_7
-0.0582376000000003,0.0032064000000013,0.0287368,-0.0056357999999994,0.0890284000000007,-0.0177846,0,sub_7
-0.0557474000000003,0.0015534000000013,0.0256964,-0.0120277999999994,0.1456946000000007,-0.010638,0,sub_7
-0.0498388000000003,-0.0022341999999986,0.0241814,-0.0223373999999994,0.1902106000000007,0.0014105999999999,0,sub_7
-0.0398806000000003,-0.0032605999999986,0.0229332,-0.0335645999999993,0.2234258000000007,0.0164583999999999,0,sub_7
-0.0278604000000003,-0.0016377999999986,0.0165568,-0.0465617999999993,0.2372150000000007,0.0315733999999998,0,sub_7
-0.0112708000000003,-0.0005119999999986,0.0157194,-0.0593867999999993,0.2342030000000007,0.0390197999999998,0,sub_7
0.0033305999999996,0.0006948000000013,0.0143162,-0.0630119999999994,0.2279980000000007,0.0377751999999998,0,sub_7
0.0155425999999995,0.0031812000000013,0.011361,-0.0626049999999994,0.2098760000000007,0.0295237999999998,0,sub_7
0.0228971999999995,0.0053574000000013,0.0108678,-0.0605331999999994,0.1791906000000007,0.0180953999999998,0,sub_7
0.0252599999999995,0.0076226000000013,0.0152916,-0.0469625999999994,0.1487222000000007,0.0066925999999998,0,sub_7
0.0223719999999996,0.0068590000000013,0.0115162,-0.0276309999999994,0.1237510000000007,0.0008775999999998,0,sub_7
0.0207003999999996,0.0070360000000013,0.0101216,-0.0230679999999994,0.0945464000000007,0.0009469999999998,0,sub_7
0.0198871999999996,0.0070980000000013,0.0096508,-0.0193433999999994,0.0702390000000007,0.0024997999999998,0,sub_7
0.0204815999999996,0.0063150000000013,0.0045682,-0.0145249999999994,0.0518934000000007,0.0040523999999998,0,sub_7
0.0222933999999996,0.0049956000000013,0.0001958,-0.0152107999999994,0.0384556000000007,0.0036635999999998,0,sub_7
0.0231899999999996,0.0044560000000013,-0.0018127999999999,-0.0131255999999994,0.0233078000000007,0.0022283999999998,0,sub_7
0.0220047999999996,0.0049442000000013,-0.0017633999999999,-0.0082905999999994,0.0040972000000007,0.0020991999999998,0,sub_7
0.0193503999999996,0.0051442000000013,-0.0023657999999999,-0.0011389999999994,-0.0183319999999992,0.0056223999999998,0,sub_7
0.0158547999999996,0.0050954000000013,-0.0006349999999999,0.0055772000000005,-0.0403427999999992,0.0114921999999998,0,sub_7
0.0106657999999996,0.0046860000000013,0.0021504,0.0127102000000005,-0.0623331999999992,0.0166977999999998,0,sub_7
0.0045693999999996,0.0044472000000012,0.0060144,0.0168780000000005,-0.0819591999999992,0.0193157999999999,0,sub_7
-0.0021200000000003,0.0030028000000012,0.0099722,0.0206594000000005,-0.0947573999999992,0.0197859999999998,0,sub_7
-0.0081348000000003,0.0016466000000013,0.0143734,0.0206584000000005,-0.0975167999999992,0.0172257999999998,0,sub_7
-0.0121404000000003,0.0009174000000012,0.0183664,0.0196346000000005,-0.0923819999999992,0.0127255999999998,0,sub_7
-0.0133646000000003,0.0018608000000012,0.021331,0.0197056000000005,-0.0821331999999992,0.0071581999999998,0,sub_7
-0.0112758000000003,0.0027162000000013,0.0218374,0.0176590000000005,-0.0682551999999992,0.0015713999999998,0,sub_7
-0.0055180000000003,0.0026358000000013,0.0191652,0.0166812000000005,-0.0548035999999992,-0.0048620000000001,0,sub_7
0.0010907999999996,0.0036350000000013,0.016952,0.0139650000000005,-0.0471035999999992,-0.0100184,0,sub_7
0.0074239999999996,0.0043078000000013,0.013143,0.0118514000000004,-0.0468659999999992,-0.0143064,0,sub_7
0.0108241999999996,0.0046708000000013,0.0095088,0.0077732000000004,-0.0526025999999992,-0.0147548,0,sub_7
0.0111119999999996,0.0050734000000013,0.0077428,0.0070834000000005,-0.0615569999999992,-0.0126118,0,sub_7
0.0083051999999996,0.0055484000000013,0.0061724,0.0074526000000005,-0.0705219999999992,-0.0087522,0,sub_7
0.0047481999999996,0.0049918000000013,0.0044912,0.0099728000000005,-0.0756593999999992,-0.0048824,0,sub_7
0.0017489999999996,0.0046766000000013,0.0042714,0.0123008000000005,-0.0763211999999992,-0.0012334,0,sub_7
-0.0011068000000003,0.0041668000000013,0.0048252,0.0140212000000005,-0.0729199999999992,-0.0007986000000001,0,sub_7
-0.0037646000000003,0.0031766000000013,0.0038352,0.0144844000000005,-0.0667353999999992,-0.0027260000000001,0,sub_7
-0.0066260000000003,0.0034878000000013,0.0041404,0.0121872000000005,-0.0584071999999992,-0.00553,0,sub_7
-0.0087230000000003,0.0034470000000013,0.005161,0.0086240000000005,-0.0475151999999992,-0.0089872,0,sub_7
-0.0103894000000003,0.0034026000000013,0.0062758,0.0067766000000005,-0.0338627999999992,-0.0115812,0,sub_7
-0.0096530000000003,0.0036494000000013,0.0039366,0.0104768000000005,-0.0183199999999992,-0.0122162,0,sub_7
-0.0070558000000003,0.0039744000000013,0.004364,0.0094664000000005,-0.0042607999999992,-0.0107458,0,sub_7
-0.0034172000000003,0.0038052000000013,0.0043382,0.0114260000000005,0.0063776000000007,-0.008823,0,sub_7
-0.0002430000000003,0.0043370000000013,0.0036088,0.0135780000000005,0.0131766000000007,-0.0060392000000001,0,sub_7
0.0022483999999996,0.0045938000000012,0.002588,0.0139970000000005,0.0148658000000007,-0.0026202000000001,0,sub_7
0.0038389999999996,0.0044262000000012,0.0040238,0.0088416000000005,0.0106090000000007,0.0007675999999998,0,sub_7
0.0039721999999996,0.0051428000000012,0.0037326,0.0068848000000005,0.0046418000000007,0.0028979999999999,0,sub_7
0.0033413999999996,0.0051544000000012,0.0040234,0.0042842000000005,-0.0017511999999992,0.0054517999999998,0,sub_7
0.0034649999999996,0.0058620000000012,0.0049764,0.0042392000000005,-0.0090059999999992,0.0082379999999998,0,sub_7
0.0025569999999996,0.0053892000000012,0.0048964,0.0061222000000005,-0.0162607999999992,0.0093285999999998,0,sub_7
0.0005631999999996,0.0050640000000012,0.00625,0.0056668000000005,-0.0224387999999992,0.0095469999999998,0,sub_7
-0.0012092000000003,0.0045392000000013,0.0069028,0.0071336000000005,-0.0279851999999992,0.0099915999999998,0,sub_7
-0.0023704000000003,0.0040264000000013,0.0084282,0.0062600000000005,-0.0326683999999992,0.0097777999999999,0,sub_7
-0.0044396000000003,0.0026570000000013,0.0089748,0.0032574000000005,-0.0364911999999992,0.0093345999999999,0,sub_7
-0.0057602000000003,0.0026672000000013,0.0107955999999999,-0.0025055999999994,-0.0377459999999992,0.0084413999999999,0,sub_7
-0.0065100000000003,0.0025228000000013,0.0116615999999999,-0.0059051999999994,-0.0355991999999992,0.0073465999999999,0,sub_7
-0.0079872000000003,0.0017732000000012,0.0128729999999999,-0.0077947999999994,-0.0304723999999992,0.0056175999999999,0,sub_7
-0.0091386000000003,0.0014604000000012,0.0135973999999999,-0.0090329999999994,-0.0225789999999992,0.0041033999999999,0,sub_7
-0.0098524000000003,0.0012532000000012,0.0144957999999999,-0.0096223999999993,-0.0125581999999992,0.0028043999999999,0,sub_7
-0.0129160000000003,0.0009760000000013,0.0141391999999999,-0.0087189999999993,-0.0014823999999992,0.0027965999999999,0,sub_7
-0.0156168000000003,0.0010848000000013,0.0130165999999999,-0.0075927999999993,0.0119354000000007,0.0030009999999999,0,sub_7
-0.0165744000000003,0.0016914000000013,0.0127802,-0.0081687999999993,0.0270610000000007,0.0038321999999998,0,sub_7
-0.0181856000000003,0.0024990000000013,0.0111988,-0.0059679999999993,0.0428160000000007,0.0046817999999999,0,sub_7
-0.0179096000000003,0.0033754000000013,0.0102713999999999,-0.0044081999999994,0.0585724000000007,0.0057407999999998,0,sub_7
-0.0147650000000003,0.0041124000000013,0.0102929999999999,-0.0017901999999994,0.0719832000000007,0.0063827999999998,0,sub_7
-0.0116436000000003,0.0051078000000013,0.0105222,0.0005866000000005,0.0794284000000007,0.0072443999999998,0,sub_7
-0.0073994000000003,0.0052912000000013,0.0099416,0.0036180000000005,0.0806846000000007,0.0074801999999999,0,sub_7
-0.0023502000000003,0.0052326000000013,0.0103535999999999,0.0044956000000005,0.0770498000000007,0.0072799999999998,0,sub_7
0.0024011999999996,0.0048880000000013,0.0101254,0.0057826000000005,0.0693664000000007,0.0068741999999999,0,sub_7
0.0083673999999996,0.0047900000000013,0.0092064,0.0064160000000005,0.0584902000000007,0.0062541999999999,0,sub_7
0.0142545999999996,0.0040060000000012,0.0085298,0.0061836000000005,0.0439984000000007,0.0047781999999999,0,sub_7
0.0161069999999996,0.0039338000000012,0.0080394,0.0044038000000005,0.0278124000000007,0.0047865999999999,0,sub_7
0.0153769999999996,0.0040606000000012,0.0079416,0.0019790000000005,0.0116242000000007,0.0058585999999998,0,sub_7
0.0128715999999996,0.0049950000000012,0.0077787999999999,-0.0006561999999993,-0.0034995999999992,0.0073549999999998,0,sub_7
0.0090159999999996,0.0057448000000012,0.0086651999999999,-0.0024245999999993,-0.0147947999999992,0.0097071999999998,0,sub_7
0.0057821999999996,0.0066958000000012,0.0099935999999999,-0.0026763999999993,-0.0203453999999992,0.0127035999999998,0,sub_7
0.0048827999999996,0.0074532000000012,0.0108453999999999,-0.0001255999999994,-0.0216359999999992,0.0135775999999998,0,sub_7
0.0056063999999996,0.0077848000000012,0.010822,0.0030740000000005,-0.0214357999999992,0.0140269999999998,0,sub_7
0.0043509999999996,0.0062870000000012,0.0113232,0.0056412000000005,-0.0201655999999992,0.0138297999999998,0,sub_7
0.0020819999999996,0.0048880000000013,0.0117392,0.0058622000000005,-0.0182497999999992,0.0140425999999999,0,sub_7
-0.0007096000000003,0.0038056000000013,0.011039,0.0058814000000005,-0.0129275999999992,0.0151041999999999,0,sub_7
-0.0036060000000003,0.0024052000000013,0.0108334,0.0046338000000005,-0.0037695999999992,0.0170065999999999,0,sub_7
-0.0056726000000003,0.0017662000000013,0.0105706,0.0025480000000005,0.0083760000000007,0.0184719999999998,0,sub_7
-0.0055602000000003,0.0020432000000013,0.009983,0.0021758000000005,0.0220068000000007,0.0199473999999998,0,sub_7
-0.0044762000000003,0.0029384000000013,0.0089916,0.0020180000000005,0.0347892000000007,0.0203571999999998,0,sub_7
-0.0035662000000003,0.0029008000000013,0.0089294,0.0037624000000005,0.0426678000000007,0.0199319999999998,0,sub_7
-0.0030688000000003,0.0035090000000013,0.0087878,0.0059278000000005,0.0458704000000007,0.0190881999999998,0,sub_7
-0.0026748000000003,0.0043546000000013,0.0090822,0.0091506000000005,0.0473630000000007,0.0186811999999999,0,sub_7
-0.0021298000000003,0.0055072000000013,0.0091162,0.0125792000000005,0.0467262000000007,0.0178509999999999,0,sub_7
-0.0011920000000003,0.0064528000000013,0.0106926,0.0162172000000005,0.0450240000000007,0.0168099999999999,0,sub_7
-0.0002374000000003,0.0077626000000013,0.0130716,0.0189854000000005,0.0420374000000007,0.0181147999999998,0,sub_7
0.0012335999999995,0.0081960000000013,0.0152132,0.0238556000000005,0.0371064000000007,0.0215733999999999,0,sub_7
0.0050887999999995,0.0085576000000013,0.0165332,0.0304126000000005,0.0300296000000007,0.0273967999999999,0,sub_7
0.0085819999999995,0.0075910000000013,0.0179114,0.0341832000000005,0.0195562000000007,0.0325641999999999,0,sub_7
0.0116989999999995,0.0050162000000013,0.0166376,0.0362364000000005,0.0052598000000007,0.0362287999999998,0,sub_7
0.0145083999999995,0.0031122000000013,0.0140348,0.0340362000000005,-0.0096029999999992,0.0353625999999998,0,sub_7
0.0145687999999996,0.0019806000000013,0.0114242,0.0273744000000005,-0.0248575999999992,0.0297655999999998,0,sub_7
0.0098229999999996,0.0003752000000013,0.009269,0.0175418000000005,-0.0381647999999992,0.0194437999999998,0,sub_7
0.0040009999999996,0.0008510000000013,0.0078472,0.0092374000000005,-0.0440193999999992,0.0089093999999998,0,sub_7
-0.0034194000000003,0.0022560000000013,0.0072548,0.0028898000000005,-0.0407235999999992,-0.0005546,0,sub_7
-0.0091382000000003,0.0028304000000013,0.0068444,0.0001984000000005,-0.0291817999999992,-0.0074248,0,sub_7
-0.0114262000000003,0.0023216000000013,0.0062264,-0.0001313999999994,-0.0106325999999992,-0.0104418000000001,0,sub_7
-0.0112548000000003,0.0024908000000013,0.0058582,-0.0004699999999994,0.0098186000000007,-0.0096158000000001,0,sub_7
-0.0097276000000003,0.0020708000000013,0.0045492,0.0004406000000005,0.0276128000000007,-0.006452,0,sub_7
-0.0073682000000003,0.0017702000000013,0.002652,0.0028180000000005,0.0417704000000007,-0.0009232000000001,0,sub_7
-0.0062640000000003,0.0016210000000013,0.0001904,0.0056012000000005,0.0525126000000007,0.0058945999999998,0,sub_7
-0.0064898000000003,0.0023160000000013,-0.0015193999999999,0.0087958000000005,0.0592078000000007,0.0120795999999998,0,sub_7
-0.0064084000000003,0.0034714000000013,-0.0017837999999999,0.0128400000000005,0.0631382000000007,0.0163511999999998,0,sub_7
-0.0068058000000003,0.0042430000000013,-0.0015449999999999,0.0158254000000005,0.0650358000000007,0.0187197999999998,0,sub_7
-0.0071108000000003,0.0033014000000013,-0.0004075999999999,0.0158274000000005,0.0648252000000007,0.0180789999999998,0,sub_7
-0.0067582000000003,0.0026784000000013,0.0018048,0.0128594000000005,0.0640038000000007,0.0129319999999998,0,sub_7
-0.0032954000000003,0.0036296000000013,0.0036412,0.0069194000000005,0.0655146000000007,0.0042997999999999,0,sub_7
0.0002707999999996,0.0028898000000013,0.0040386,0.0003624000000005,0.0678968000000007,-0.0086106000000001,0,sub_7
0.0061035999999996,0.0015064000000013,0.0052782,-0.0098191999999994,0.0709310000000007,-0.0215472000000001,0,sub_7
0.0128115999999996,0.0034902000000013,0.005742,-0.0176689999999994,0.0726702000000007,-0.0323294,0,sub_7
0.0186981999999996,0.0048290000000013,0.005791,-0.0251285999999994,0.0701314000000007,-0.0392578,0,sub_7
0.0217537999999996,0.0053708000000013,0.005734,-0.0311241999999993,0.0635552000000007,-0.041214,0,sub_7
0.0237835999999996,0.0067816000000013,0.0065316,-0.0343861999999993,0.0550238000000007,-0.0360984,0,sub_7
0.0243349999999996,0.0091686000000013,0.0060604,-0.0323357999999994,0.0458174000000007,-0.026672,0,sub_7
0.0231587999999996,0.0095566000000013,0.0062906,-0.0303125999999994,0.0358874000000007,-0.016459,0,sub_7
0.0227633999999996,0.0095314000000013,0.0052762,-0.0257191999999993,0.0263814000000007,-0.007938,0,sub_7
0.0225083999999996,0.0090024000000013,0.005815,-0.0206913999999993,0.0162442000000007,-0.0017632,0,sub_7
0.0213075999999996,0.0077826000000013,0.0052042,-0.0165007999999993,0.0046390000000007,-0.0007198,0,sub_7
0.0184619999999996,0.0051232000000013,0.004545,-0.0139923999999993,-0.0067257999999992,-0.0050296000000001,0,sub_7
0.0152449999999996,0.0033716000000013,0.0051566,-0.0129369999999993,-0.0145911999999992,-0.0103534000000001,0,sub_7
0.0082259999999996,0.0016744000000013,0.006603,-0.0110405999999994,-0.0214095999999992,-0.0118268,0,sub_7
-0.0016878000000003,0.0006048000000013,0.0075504,-0.0100635999999994,-0.0264081999999992,-0.0117002000000001,0,sub_7
-0.0119840000000003,0.0010250000000013,0.0098792,-0.0079995999999994,-0.0252389999999992,-0.0098648000000001,0,sub_7
-0.0191852000000003,0.0017896000000013,0.0104528,-0.0024995999999994,-0.0166349999999992,-0.0054510000000001,0,sub_7
-0.0234824000000003,0.0017628000000013,0.0096286,0.0006734000000005,-0.0043973999999992,-0.0019128,0,sub_7
-0.0211922000000003,0.0027684000000013,0.0077314,0.0023874000000005,0.0095736000000007,-0.0043692,0,sub_7
-0.0135080000000003,0.0031448000000013,0.0040582,0.0024708000000005,0.0213186000000007,-0.0112202,0,sub_7
-0.0023688000000003,0.0021874000000013,-0.0016229999999999,-0.0021601999999994,0.0266964000000007,-0.0200188,0,sub_7
0.0081273999999996,0.0036602000000013,-0.0052375999999999,-0.0106709999999994,0.0218670000000007,-0.030327,0,sub_7
0.0170955999999996,0.0057526000000013,-0.0082049999999999,-0.0158659999999994,0.0093072000000007,-0.0400348,0,sub_7
0.0214205999999996,0.0077892000000013,-0.0080985999999999,-0.0200315999999994,-0.0064723999999992,-0.0446038,0,sub_7
0.0210311999999996,0.0101290000000013,-0.0064401999999999,-0.0193183999999994,-0.0208093999999992,-0.0412358000000001,0,sub_7
0.0172583999999996,0.0122442000000013,-0.0020945999999999,-0.0154321999999994,-0.0313627999999992,-0.0278092000000001,0,sub_7
0.0098557999999996,0.0127222000000012,0.0056304,-0.0081503999999994,-0.0385489999999992,-0.0068858000000001,0,sub_7
-0.0002634000000003,0.0110590000000012,0.0182876,0.0032328000000005,-0.0425323999999992,0.0203315999999998,0,sub_7
-0.0121724000000003,0.0066178000000013,0.0325922,0.0167440000000005,-0.0473773999999992,0.0479921999999998,0,sub_7
-0.0219266000000003,0.0004984000000013,0.0409732,0.0281626000000005,-0.0502681999999992,0.0683717999999998,0,sub_7
-0.0247860000000003,-0.0061205999999986,0.0422312,0.0309354000000005,-0.0468833999999992,0.0720187999999998,0,sub_7
-0.0198528000000003,-0.0090161999999986,0.0344272,0.0207348000000005,-0.0409771999999992,0.0558543999999998,0,sub_7
-0.0113938000000003,-0.0096793999999986,0.0214346,-0.0017751999999994,-0.0377275999999992,0.0220883999999998,0,sub_7
-0.0007008000000003,-0.0069361999999986,0.005192,-0.0274455999999994,-0.0357039999999992,-0.0219530000000001,0,sub_7
0.0076053999999996,-0.0034393999999986,-0.0063217999999999,-0.0480207999999994,-0.0360555999999992,-0.0625374000000001,0,sub_7
0.0085663999999996,0.0016806000000013,-0.0117627999999999,-0.0576013999999994,-0.0450235999999992,-0.0891470000000001,0,sub_7
0.0012435999999996,0.0058808000000013,-0.0102447999999999,-0.0524995999999994,-0.0565173999999992,-0.0963606000000001,0,sub_7
-0.0084532000000003,0.0119924000000013,-0.0043965999999999,-0.0350835999999994,-0.0632283999999992,-0.0849070000000001,0,sub_7
-0.0167644000000003,0.0130888000000013,0.0063764,-0.0115013999999994,-0.0610869999999992,-0.0571746000000001,0,sub_7
-0.0221758000000003,0.0112190000000013,0.0172008,0.0122942000000005,-0.0517315999999992,-0.0221860000000001,0,sub_7
-0.0196844000000003,0.0054052000000013,0.0197318,0.0318608000000005,-0.0370219999999992,0.0095613999999998,0,sub_7
