userAcceleration.x,userAcceleration.y,userAcceleration.z,rotationRate.x,rotationRate.y,rotationRate.z,label,subject
-0.0095544000000003,0.0086800000000012,0.0183282,0.0216312000000005,-0.0153477999999991,0.0070637999999999,0,sub_16
-0.0104714000000003,0.0075090000000012,0.019834,0.0184334000000005,-0.0163949999999991,0.0053335999999999,0,sub_16
-0.0108088000000003,0.0065642000000012,0.0208538,0.0163008000000005,-0.0172355999999991,0.0042515999999999,0,sub_16
-0.0109704000000003,0.0059468000000012,0.0212142,0.0141652000000005,-0.0178665999999991,0.0040237999999999,0,sub_16
-0.0108054000000003,0.0048094000000012,0.0210348,0.0126648000000005,-0.0185039999999991,0.0048687999999999,0,sub_16
-0.0103924000000003,0.0046444000000012,0.0211686,0.0113768000000005,-0.0191429999999991,0.0059287999999999,0,sub_16
-0.0095252000000003,0.0056014000000012,0.02132,0.0096660000000005,-0.0195649999999991,0.0063445999999999,0,sub_16
-0.0100486000000003,0.0054052000000012,0.0221936,0.0066844000000005,-0.0187005999999991,0.0058953999999999,0,sub_16
-0.0100910000000003,0.0061410000000012,0.0228664,0.0034972000000005,-0.0171919999999991,0.0043755999999999,0,sub_16
-0.0101548000000003,0.0076046000000012,0.0239605999999999,0.0001016000000005,-0.0150417999999991,0.0024263999999999,0,sub_16
-0.0107378000000003,0.0070404000000012,0.0245201999999999,-0.0030797999999994,-0.0122549999999991,0.0009049999999999,0,sub_16
-0.0110884000000003,0.0063540000000012,0.0239997999999999,-0.0051991999999993,-0.0096881999999991,0.0002459999999999,0,sub_16
-0.0108714000000003,0.0063784000000012,0.0242147999999999,-0.0058305999999993,-0.0077683999999991,0.0002391999999999,0,sub_16
-0.0109230000000003,0.0067092000000012,0.0245917999999999,-0.0064639999999994,-0.0050015999999991,0.0015131999999999,0,sub_16
-0.0104124000000003,0.0071678000000012,0.0246099999999999,-0.0062449999999994,-0.0026629999999991,0.0025797999999999,0,sub_16
-0.0096324000000003,0.0079698000000012,0.0250765999999999,-0.0070887999999994,-0.0007415999999991,0.0023577999999999,0,sub_16
-0.0086190000000003,0.0087566000000012,0.0253909999999999,-0.0087841999999994,0.0011844000000008,0.0017025999999999,0,sub_16
-0.0075954000000003,0.0084742000000012,0.0257121999999999,-0.0104969999999994,-8.799999999910927e-05,0.0016921999999999,0,sub_16
-0.0069860000000003,0.0062700000000012,0.0265895999999999,-0.0117819999999994,-0.0009365999999991,0.0018979999999999,0,sub_16
-0.0072356000000003,0.0050240000000012,0.0270809999999999,-0.0140287999999994,-0.0009045999999991,0.0031653999999999,0,sub_16
-0.0070734000000003,0.0050106000000012,0.0268073999999999,-0.0145707999999994,-0.0002435999999991,0.0055119999999999,0,sub_16
-0.0073204000000003,0.0056452000000012,0.0269303999999999,-0.0148983999999994,0.0004174000000008,0.0076463999999999,0,sub_16
-0.0073888000000003,0.0065458000000012,0.0274059999999999,-0.0158505999999994,0.0034286000000008,0.0087051999999999,0,sub_16
-0.0072692000000003,0.0080938000000012,0.0273209999999999,-0.0165913999999994,0.0047398000000008,0.0084857999999999,0,sub_16
-0.0072996000000003,0.0085976000000012,0.0281081999999999,-0.0174371999999994,0.0051740000000008,0.0071973999999999,0,sub_16
-0.0076900000000003,0.0091176000000012,0.0284567999999999,-0.0187153999999994,0.0047558000000008,0.0063343999999999,0,sub_16
-0.0077560000000003,0.0093982000000012,0.0293309999999999,-0.0189353999999994,0.0032652000000008,0.0063347999999999,0,sub_16
-0.0073250000000003,0.0090384000000012,0.0293625999999999,-0.0185163999999994,0.0013470000000008,0.0061265999999999,0,sub_16
-0.0069206000000003,0.0083096000000012,0.0298517999999999,-0.0185211999999994,0.0002816000000008,0.0061277999999999,0,sub_16
-0.0065362000000003,0.0074952000000012,0.0302005999999999,-0.0187317999999994,7.280000000087078e-05,0.0052719999999999,0,sub_16
-0.0059504000000003,0.0075468000000012,0.0305667999999999,-0.0193643999999994,0.0005062000000008,0.0039851999999999,0,sub_16
-0.0056946000000003,0.0073826000000012,0.0304377999999999,-0.0210599999999994,0.0011590000000008,0.0020497999999999,0,sub_16
-0.0063512000000003,0.0083470000000012,0.0309675999999999,-0.0231849999999994,0.0020230000000008,0.0009655999999999,0,sub_16
-0.0074058000000003,0.0097570000000012,0.0308829999999999,-0.0240375999999994,0.0020268000000008,0.0007459999999999,0,sub_16
-0.0077802000000003,0.0108336000000012,0.0312143999999999,-0.0240451999999994,0.0011710000000008,0.0016015999999999,0,sub_16
-0.0084086000000003,0.0100842000000012,0.0318076,-0.0231973999999994,0.0009506000000008,0.0026759999999999,0,sub_16
-0.0091558000000003,0.0089996000000012,0.0327718,-0.0217037999999994,0.0017942000000008,0.0035397999999999,0,sub_16
-0.0092912000000003,0.0079086000000012,0.0318327999999999,-0.0204227999999994,0.0030638000000008,0.0046153999999999,0,sub_16
-0.0089262000000003,0.0071674000000012,0.0320097999999999,-0.0197779999999994,0.0045514000000008,0.0050453999999999,0,sub_16
-0.0083018000000003,0.0074566000000012,0.0318309999999999,-0.0189149999999994,0.0062546000000008,0.0046219999999999,0,sub_16
-0.0083254000000003,0.0071534000000012,0.0321823999999999,-0.0189005999999994,0.0081772000000008,0.0033377999999999,0,sub_16
-0.0077168000000003,0.0077764000000012,0.0313451999999999,-0.0201701999999994,0.0096764000000008,0.0024725999999999,0,sub_16
-0.0069410000000003,0.0079588000000012,0.0320372,-0.0210207999999994,0.0094696000000008,0.0016123999999999,0,sub_16
-0.0063666000000003,0.0073846000000012,0.0332232,-0.0212291999999994,0.0096868000000008,0.0007559999999999,0,sub_16
-0.0071644000000003,0.0061864000000012,0.0339398,-0.0218625999999994,0.0107560000000008,0.0003229999999999,0,sub_16
-0.0073070000000003,0.0070094000000012,0.033549,-0.0222863999999994,0.0113968000000008,0.0003191999999999,0,sub_16
-0.0078744000000003,0.0067368000000012,0.0338838,-0.0220711999999994,0.0120344000000008,0.0005333999999999,0,sub_16
-0.0082116000000003,0.0079978000000012,0.0339708,-0.0218491999999994,0.0139512000000008,0.0005323999999999,0,sub_16
-0.0087626000000003,0.0089262000000012,0.033429,-0.0218415999999994,0.0158678000000008,0.0007437999999999,0,sub_16
-0.0086242000000003,0.0094688000000012,0.0334614,-0.0214099999999994,0.0175682000000008,0.0013853999999999,0,sub_16
-0.0083512000000003,0.0089772000000012,0.033752,-0.0205517999999994,0.0196914000000008,0.0024569999999999,0,sub_16
-0.0082018000000003,0.0093602000000012,0.034329,-0.0194867999999994,0.0205348000000008,0.0037451999999999,0,sub_16
-0.0086194000000003,0.0086434000000012,0.0347612,-0.0182083999999994,0.0207408000000008,0.0043947999999999,0,sub_16
-0.0090014000000003,0.0074242000000012,0.0349246,-0.0177939999999994,0.0202966000000008,0.0041707999999999,0,sub_16
-0.0092938000000003,0.0067170000000012,0.0349582,-0.0184443999999994,0.0198580000000008,0.0035123999999999,0,sub_16
-0.0091938000000003,0.0070856000000012,0.035244,-0.0190995999999994,0.0183540000000008,0.0028551999999999,0,sub_16
-0.0091826000000003,0.0070214000000012,0.0353996,-0.0186849999999994,0.0181220000000008,0.0028447999999999,0,sub_16
-0.0093318000000003,0.0067138000000012,0.0359354,-0.0178399999999994,0.0195896000000008,0.0036897999999999,0,sub_16
-0.0094578000000003,0.0073728000000012,0.0360291999999999,-0.0165539999999994,0.0223488000000008,0.0051907999999999,0,sub_16
-0.0096082000000003,0.0072966000000012,0.0361751999999999,-0.0150527999999994,0.0253212000000008,0.0064791999999999,0,sub_16
-0.0103346000000003,0.0069430000000012,0.0359329999999999,-0.0140243999999994,0.0283444000000008,0.0068719999999999,0,sub_16
-0.0106012000000003,0.0072736000000012,0.0366367999999999,-0.0138485999999994,0.0309470000000008,0.0066183999999999,0,sub_16
-0.0111318000000003,0.0068288000000012,0.0372441999999999,-0.0147385999999994,0.0331296000000008,0.0057169999999999,0,sub_16
-0.0107654000000003,0.0077406000000012,0.0375791999999999,-0.0149931999999994,0.0344570000000008,0.0050347999999999,0,sub_16
-0.0109358000000003,0.0083774000000012,0.0377009999999999,-0.0152477999999993,0.0359964000000008,0.0045659999999999,0,sub_16
-0.0111112000000003,0.0088590000000012,0.0386797999999999,-0.0150237999999993,0.0381270000000008,0.0043511999999999,0,sub_16
-0.0115066000000003,0.0090476000000012,0.037833,-0.0148055999999994,0.0385548000000008,0.0037111999999999,0,sub_16
-0.0107768000000003,0.0098412000000012,0.0373926,-0.0141711999999993,0.0372744000000008,0.0037171999999999,0,sub_16
-0.0111406000000003,0.0087232000000012,0.0379404,-0.0139625999999993,0.0357840000000008,0.0032931999999999,0,sub_16
-0.0107176000000003,0.0081774000000012,0.038723,-0.0128855999999994,0.0347438000000008,0.0028425999999999,0,sub_16
-0.0099934000000003,0.0075782000000012,0.0383872,-0.0120237999999994,0.0343392000000008,0.0034577999999999,0,sub_16
-0.0094598000000003,0.0076916000000012,0.0391758,-0.0117935999999994,0.0364910000000008,0.0047063999999999,0,sub_16
-0.0091398000000003,0.0074830000000012,0.0395562,-0.0104857999999994,0.0405580000000008,0.0055325999999999,0,sub_16
-0.0086582000000003,0.0083664000000012,0.0392294,-0.0091761999999994,0.0452636000000008,0.0065717999999999,0,sub_16
-0.0088634000000003,0.0090202000000012,0.039296,-0.0076709999999994,0.0484516000000008,0.0072189999999999,0,sub_16
-0.0085978000000003,0.0098318000000012,0.0394898,-0.0068127999999994,0.0495138000000008,0.0072235999999999,0,sub_16
-0.0080874000000003,0.0098588000000012,0.0401336,-0.0052649999999994,0.0484450000000008,0.0061407999999999,0,sub_16
-0.0080676000000003,0.0097720000000012,0.0403034,-0.0050023999999994,0.0461034000000008,0.0048371999999999,0,sub_16
-0.0071876000000003,0.0096368000000012,0.0402714,-0.0051683999999994,0.0429126000000008,0.0031041999999999,0,sub_16
-0.0058846000000003,0.0094624000000012,0.0399048,-0.0055525999999994,0.0397184000000008,0.0024379999999999,0,sub_16
-0.0051730000000003,0.0090312000000012,0.0404346,-0.0052983999999994,0.0373690000000008,0.0030569999999999,0,sub_16
-0.0050708000000003,0.0083422000000012,0.0397898,-0.0040333999999994,0.0362900000000008,0.0054173999999999,0,sub_16
-0.0049992000000003,0.0084020000000012,0.039865,-0.0027721999999994,0.0345708000000008,0.0079919999999999,0,sub_16
-0.0058450000000003,0.0076668000000012,0.0406062,-0.0015109999999994,0.0328516000000008,0.0105667999999999,0,sub_16
-0.0064510000000003,0.0070216000000012,0.0406262,-0.0005909999999994,0.0308838000000008,0.0120489999999999,0,sub_16
-0.0066862000000003,0.0071030000000012,0.0403528,0.0005414000000005,0.0274290000000008,0.0122525999999999,0,sub_16
-0.0064926000000003,0.0076252000000012,0.0409578,0.0010394000000005,0.0239814000000008,0.0111697999999999,0,sub_16
-0.0064010000000003,0.0068888000000012,0.0410259999999999,0.0015394000000005,0.0207478000000008,0.0098731999999999,0,sub_16
-0.0066752000000003,0.0070920000000012,0.0407919999999999,0.0024670000000005,0.0179380000000008,0.0087925999999999,0,sub_16
-0.0069882000000003,0.0079454000000012,0.0409387999999999,0.0026728000000005,0.0153840000000008,0.0079425999999999,0,sub_16
-0.0073676000000003,0.0076386000000012,0.0405099999999999,0.0024594000000005,0.0147482000000008,0.0073009999999999,0,sub_16
-0.0078926000000003,0.0074050000000012,0.0395341999999999,0.0018116000000005,0.0128338000000008,0.0070851999999999,0,sub_16
-0.0079476000000003,0.0076426000000012,0.039587,0.0011666000000005,0.0115586000000008,0.0068687999999999,0,sub_16
-0.0074432000000003,0.0077630000000012,0.0397678,0.0005642000000005,0.0096020000000008,0.0066407999999999,0,sub_16
-0.0069654000000003,0.0078056000000012,0.040636,0.0012420000000005,0.0082774000000007,0.0070619999999999,0,sub_16
-0.0067582000000003,0.0087808000000012,0.0409148,0.0029896000000005,0.0075882000000008,0.0074895999999999,0,sub_16
-0.0060448000000003,0.0101622000000012,0.0414578,0.0049564000000005,0.0079646000000008,0.0077039999999999,0,sub_16
-0.0058334000000003,0.0112312000000012,0.040809,0.0073442000000005,0.0072734000000008,0.0081361999999999,0,sub_16
-0.0058472000000003,0.0115512000000012,0.0401016,0.0094684000000005,0.0055598000000008,0.0085805999999999,0,sub_16
-0.0066290000000003,0.0106970000000012,0.0392936,0.0111640000000005,0.0027850000000008,0.0083821999999999,0,sub_16
-0.0063786000000003,0.0093350000000012,0.0396264,0.0113572000000005,-0.0019019999999991,0.0081759999999999,0,sub_16
-0.0065420000000003,0.0070946000000012,0.0397082,0.0115486000000005,-0.0065907999999991,0.0083969999999999,0,sub_16
-0.0072676000000003,0.0064236000000012,0.0403552,0.0117456000000005,-0.0100013999999991,0.0086163999999999,0,sub_16
-0.0078774000000003,0.0058920000000012,0.0407832,0.0119484000000005,-0.0119213999999991,0.0090475999999999,0,sub_16
-0.0073746000000003,0.0064656000000012,0.0409392,0.0123684000000005,-0.0127775999999991,0.0096925999999999,0,sub_16
-0.0080042000000003,0.0073546000000012,0.0407146,0.0134354000000005,-0.0125691999999991,0.0099133999999999,0,sub_16
-0.0087386000000003,0.0086022000000012,0.0411078,0.0142956000000005,-0.0117173999999991,0.0092771999999999,0,sub_16
-0.0082340000000003,0.0090242000000012,0.0406206,0.0147300000000005,-0.0106509999999991,0.0086377999999999,0,sub_16
-0.0079568000000003,0.0091942000000012,0.0406288,0.0149530000000005,-0.0095821999999991,0.0075697999999999,0,sub_16
-0.0076732000000003,0.0089852000000012,0.0405968,0.0141072000000005,-0.0093601999999991,0.0060681999999999,0,sub_16
-0.0073498000000003,0.0088844000000012,0.0407104,0.0124040000000005,-0.0099873999999991,0.0045615999999999,0,sub_16
-0.0064200000000003,0.0097264000000012,0.0409942,0.0104788000000005,-0.0116825999999991,0.0039093999999999,0,sub_16
-0.0064830000000003,0.0095220000000012,0.0410088,0.0096158000000005,-0.0140223999999991,0.0036927999999999,0,sub_16
-0.0066240000000003,0.0091278000000012,0.0404256,0.0093910000000005,-0.0157293999999991,0.0045477999999999,0,sub_16
-0.0067912000000003,0.0100858000000012,0.0399582,0.0102410000000005,-0.0168419999999991,0.0054017999999999,0,sub_16
-0.0073254000000003,0.0098868000000012,0.0394982,0.0117398000000005,-0.0166757999999991,0.0056177999999999,0,sub_16
-0.0082694000000003,0.0086440000000012,0.0379434,0.0130348000000005,-0.0160759999999991,0.0041225999999999,0,sub_16
-0.0083146000000003,0.0086812000000012,0.0377052,0.0130516000000005,-0.0161065999999991,0.0015509999999999,0,sub_16
-0.0076170000000003,0.0088792000000012,0.0380404,0.0122120000000005,-0.0169857999999991,-0.001239,0,sub_16
-0.0077868000000003,0.0080074000000012,0.0381718,0.0111480000000005,-0.0176159999999991,-0.0025276,0,sub_16
-0.0076646000000003,0.0080870000000012,0.0380394,0.0109290000000005,-0.0180447999999991,-0.001674,0,sub_16
-0.0076910000000003,0.0079006000000012,0.0380687999999999,0.0111300000000005,-0.0180567999999991,0.0011047999999999,0,sub_16
-0.0081808000000003,0.0081728000000012,0.0383945999999999,0.0119776000000005,-0.0163673999999991,0.0040995999999999,0,sub_16
-0.0085722000000003,0.0092648000000012,0.0378823999999999,0.0133062000000005,-0.0144377999999991,0.0059841999999999,0,sub_16
-0.0081958000000003,0.0099942000000012,0.0373555999999999,0.0146398000000005,-0.0135651999999991,0.0057335999999999,0,sub_16
-0.0079150000000003,0.0100932000000012,0.0369787999999999,0.0153360000000005,-0.0135365999999991,0.0039839999999999,0,sub_16
-0.0075024000000003,0.0102644000000012,0.0369882,0.0151806000000005,-0.0139273999999991,0.0013745999999999,0,sub_16
-0.0072352000000003,0.0102998000000012,0.0361952,0.0141662000000005,-0.0151691999999991,-0.0008124,0,sub_16
-0.0070560000000003,0.0100670000000012,0.0360192,0.0126756000000005,-0.0162223999999991,-0.0025308,0,sub_16
-0.0075514000000003,0.0100696000000012,0.035994,0.0113972000000005,-0.0164283999999991,-0.0031804,0,sub_16
-0.0077174000000003,0.0098722000000012,0.0360268,0.0101160000000005,-0.0168489999999991,-0.0034024,0,sub_16
-0.0081116000000003,0.0098334000000012,0.035489,0.0097100000000005,-0.0167761999999991,-0.0036662,0,sub_16
-0.0085758000000003,0.0098600000000012,0.0353868,0.0101574000000005,-0.0164941999999991,-0.0037106,0,sub_16
-0.0091042000000003,0.0097282000000012,0.0354052,0.0120936000000005,-0.0166459999999991,-0.003103,0,sub_16
-0.0087760000000003,0.0096082000000012,0.0352642,0.0133870000000005,-0.0172223999999991,-0.0022858,0,sub_16
-0.0088668000000003,0.0099242000000012,0.0355754,0.0146832000000005,-0.0175841999999991,-0.0018962,0,sub_16
-0.0089874000000003,0.0087716000000012,0.036111,0.0148918000000005,-0.0180135999999991,-0.0012532,0,sub_16
-0.0090552000000003,0.0079428000000012,0.036707,0.0150986000000005,-0.0190811999999991,-0.0008232,0,sub_16
-0.0091726000000003,0.0073850000000012,0.0363472,0.0146672000000005,-0.0199327999999991,-0.0006116,0,sub_16
-0.0099358000000003,0.0072158000000012,0.0363044,0.0140088000000005,-0.0197967999999991,0.0001881999999999,0,sub_16
-0.0096794000000003,0.0075886000000012,0.0360614,0.0137782000000005,-0.0192369999999991,0.0012039999999999,0,sub_16
-0.0092164000000003,0.0095872000000012,0.0354066,0.0135466000000005,-0.0191023999999991,0.0020067999999999,0,sub_16
-0.0082404000000003,0.0097728000000012,0.0347002,0.0133216000000005,-0.0187497999999991,0.0015273999999999,0,sub_16
-0.0075860000000003,0.0092774000000012,0.0351783999999999,0.0124526000000005,-0.0198835999999991,0.0004045999999999,0,sub_16
-0.0072584000000003,0.0078870000000012,0.0351623999999999,0.0115972000000005,-0.0222165999999991,-0.0015212,0,sub_16
-0.0076942000000003,0.0067830000000012,0.0346609999999999,0.0096702000000005,-0.0251865999999991,-0.0030262,0,sub_16
-0.0075598000000003,0.0060362000000012,0.0352721999999999,0.0085880000000005,-0.0290161999999991,-0.0034562,0,sub_16
-0.0083470000000003,0.0062808000000012,0.0352795999999999,0.0072492000000005,-0.0328709999999991,-0.0024358,0,sub_16
-0.0088862000000003,0.0074038000000012,0.0351756,0.0063430000000005,-0.0350247999999991,-0.0009874,0,sub_16
-0.0090378000000003,0.0090082000000012,0.0353592,0.0062978000000005,-0.0356891999999991,0.0002513999999999,0,sub_16
-0.0096024000000003,0.0093134000000012,0.0359804,0.0068984000000005,-0.0357141999999991,0.0008529999999999,0,sub_16
-0.0109236000000003,0.0085552000000012,0.0359555999999999,0.0077212000000005,-0.0344589999999991,0.0008135999999999,0,sub_16
-0.0114944000000003,0.0080192000000012,0.0362597999999999,0.0083700000000005,-0.0329681999999991,0.0003887999999999,0,sub_16
-0.0118464000000003,0.0069388000000012,0.0364937999999999,0.0088054000000005,-0.0312643999999991,0.0001759999999999,0,sub_16
-0.0118830000000003,0.0062856000000012,0.0370279999999999,0.0083304000000005,-0.0305981999999991,0.0001395999999999,0,sub_16
-0.0115552000000003,0.0067456000000012,0.0370675999999999,0.0076410000000005,-0.0297199999999991,0.0005285999999999,0,sub_16
-0.0105524000000003,0.0071418000000012,0.0377592,0.0058886000000005,-0.0288345999999991,5.5599999999953735e-05,0,sub_16
-0.0100214000000003,0.0075062000000012,0.0385676,0.0041390000000005,-0.0273099999999991,-0.000418,0,sub_16
-0.0098518000000003,0.0078364000000012,0.0390574,0.0023894000000005,-0.0257853999999991,-0.0008918,0,sub_16
-0.0099978000000003,0.0079464000000012,0.0385264,0.0011208000000005,-0.0238609999999991,-0.001544,0,sub_16
-0.0097020000000003,0.0083894000000012,0.0385496,0.0004884000000005,-0.0225787999999991,-0.0019774,0,sub_16
-0.0098762000000003,0.0083320000000012,0.0385126,0.0013458000000005,-0.0213051999999991,-0.0015456,0,sub_16
-0.0095988000000003,0.0080652000000012,0.0382633999999999,0.0017156000000005,-0.0197631999999991,-0.0011366,0,sub_16
-0.0095800000000003,0.0077628000000012,0.0380985999999999,0.0020844000000005,-0.0184341999999991,-0.0007272,0,sub_16
-0.0097938000000003,0.0075194000000012,0.0379661999999999,0.0024550000000005,-0.0164667999999991,-0.0001052,0,sub_16
-0.0103754000000003,0.0072398000000012,0.0382773999999999,0.0017674000000005,-0.0130027999999991,8.039999999995367e-05,0,sub_16
-0.0099872000000003,0.0080356000000012,0.0377917999999999,0.0006568000000005,-0.0093215999999991,-0.0003784,0,sub_16
-0.0096144000000003,0.0081152000000012,0.0374417999999999,2.8200000000577284e-05,-0.0076115999999991,-0.0012396,0,sub_16
-0.0089318000000003,0.0083560000000012,0.0370705999999999,-0.0001717999999994,-0.0056891999999991,-0.0023118,0,sub_16
-0.0078744000000003,0.0079708000000012,0.0374725999999999,-0.0003793999999994,-0.0050467999999991,-0.002955,0,sub_16
-0.0078072000000003,0.0062698000000012,0.0379169999999999,-0.0004459999999994,-0.0041179999999991,-0.0029652,0,sub_16
-0.0083984000000003,0.0052974000000012,0.0381617999999999,-0.0007327999999994,-0.0031943999999991,-0.0014814,0,sub_16
-0.0093676000000003,0.0053540000000012,0.039162,-0.0003785999999994,-0.0009989999999991,0.0010733999999999,0,sub_16
-0.0105572000000003,0.0061838000000012,0.0404308,-0.0004509999999994,0.0011978000000008,0.0036253999999999,0,sub_16
-0.0116212000000003,0.0072180000000012,0.0417618,-0.0005129999999994,0.0048894000000008,0.0053209999999999,0,sub_16
-0.0113636000000003,0.0094066000000012,0.042013,-0.0002833999999994,0.0082984000000008,0.0051045999999999,0,sub_16
-0.0108236000000003,0.0103346000000012,0.0418931999999999,-0.0006831999999994,0.0106578000000008,0.0014667999999999,0,sub_16
-0.0085186000000003,0.0108446000000012,0.0405811999999999,-0.0027891999999994,0.0111144000000008,-0.0043168,0,sub_16
-0.0063472000000003,0.0102564000000012,0.0385055999999999,-0.0055495999999994,0.0081652000000008,-0.0103144,0,sub_16
-0.0048200000000003,0.0095398000000012,0.0368687999999999,-0.0083951999999993,0.0031862000000008,-0.0150312,0,sub_16
-0.0035424000000003,0.0083542000000012,0.0358217999999999,-0.0106169999999993,-0.0026583999999991,-0.0169652,0,sub_16
-0.0030440000000003,0.0076306000000012,0.0367318,-0.0109289999999993,-0.0061847999999991,-0.0141884,0,sub_16
-0.0055526000000003,0.0071334000000012,0.0378456,-0.0093205999999993,-0.0063227999999991,-0.0079844,0,sub_16
-0.0072838000000003,0.0069008000000012,0.0400676,-0.0051383999999994,-0.0017891999999991,-5.920000000002659e-05,0,sub_16
-0.0099368000000003,0.0073160000000012,0.0427463999999999,0.0010456000000005,0.0056128000000008,0.0083065999999999,0,sub_16
-0.0122372000000003,0.0084576000000012,0.0453851999999999,0.0076688000000005,0.0138732000000008,0.0147515999999999,0,sub_16
-0.0139172000000003,0.0093846000000012,0.0469431999999999,0.0123234000000005,0.0210198000000008,0.0169109999999999,0,sub_16
-0.0126394000000003,0.0098514000000012,0.0471019999999999,0.0140062000000005,0.0262808000000008,0.0137109999999999,0,sub_16
-0.0105108000000003,0.0102486000000012,0.0455649999999999,0.0103566000000005,0.0283790000000008,0.0068457999999999,0,sub_16
-0.0065512000000003,0.0101844000000012,0.0426586,0.0034968000000005,0.0258116000000008,-0.0025994,0,sub_16
-0.0038336000000003,0.0079038000000012,0.038983,-0.0048825999999994,0.0172848000000008,-0.0122612,0,sub_16
-0.0018042000000003,0.0063028000000012,0.0355748,-0.0127975999999994,0.0066846000000008,-0.0184986,0,sub_16
-0.0010746000000003,0.0064704000000012,0.0351814,-0.0166833999999994,-0.0041643999999991,-0.0193664,0,sub_16
-0.0040110000000003,0.0053480000000012,0.037974,-0.0154539999999994,-0.0122775999999991,-0.0161428,0,sub_16
-0.0076010000000003,0.0041014000000012,0.0404862,-0.0107991999999994,-0.0140265999999991,-0.0090578,0,sub_16
-0.0100820000000003,0.0054312000000012,0.0439109999999999,-0.0036063999999994,-0.0081945999999991,0.0003877999999999,0,sub_16
-0.0120806000000003,0.0070934000000012,0.0470977999999999,0.0048916000000005,0.0021112000000008,0.0087685999999999,0,sub_16
-0.0135250000000003,0.0073564000000012,0.0477509999999999,0.0110618000000005,0.0137156000000008,0.0141403999999999,0,sub_16
-0.0124832000000003,0.0084622000000012,0.0462283999999999,0.0142532000000005,0.0227916000000008,0.0150081999999999,0,sub_16
-0.0098672000000003,0.0091642000000012,0.0442021999999999,0.0127410000000005,0.0255096000000008,0.0115781999999999,0,sub_16
