userAcceleration.x,userAcceleration.y,userAcceleration.z,rotationRate.x,rotationRate.y,rotationRate.z,label,subject
-0.0261592000000002,-0.0130503999999987,0.0377731999999999,0.0641690000000004,-0.1024875999999993,-0.0530334,0,sub_12
-0.0257744000000001,-0.0132459999999987,0.0441636,0.0610614000000004,-0.0941177999999993,-0.0654572,0,sub_12
-0.0222462000000002,-0.0143859999999987,0.0498561999999999,0.0481550000000004,-0.0848503999999993,-0.080728,0,sub_12
-0.0158144000000001,-0.0139431999999987,0.0575035999999999,0.0249788000000004,-0.0819381999999993,-0.096276,0,sub_12
-0.0087876000000001,-0.0116363999999987,0.0634208,-0.0061609999999995,-0.0898817999999993,-0.1073792,0,sub_12
-0.0017672000000001,-0.0115965999999987,0.0642532,-0.0432153999999995,-0.1217081999999993,-0.108238,0,sub_12
0.0026487999999998,-0.0194353999999987,0.0566161999999999,-0.0849173999999995,-0.1763727999999993,-0.094786,0,sub_12
-0.0031850000000001,-0.0173567999999987,0.0482412,-0.1225893999999995,-0.2236457999999993,-0.0684968,0,sub_12
-0.0167924000000001,-0.0133431999999987,0.034319,-0.1480749999999995,-0.2599053999999993,-0.036368,0,sub_12
-0.0362844000000001,-0.0115151999999987,0.0213372,-0.1495565999999995,-0.2713265999999993,-0.0028216,0,sub_12
-0.0602676000000002,-0.0081489999999987,0.0109486,-0.1286757999999995,-0.2470229999999993,0.0284851999999999,0,sub_12
-0.0854028000000002,0.0076494000000012,0.004992,-0.0878181999999994,-0.1976305999999993,0.0554127999999999,0,sub_12
-0.1020670000000002,0.0111566000000012,0.0036588,-0.0322099999999994,-0.1469917999999993,0.0775281999999999,0,sub_12
-0.1158610000000002,0.0077092000000012,0.0113156,0.0254258000000004,-0.0735587999999993,0.0985601999999999,0,sub_12
-0.1292178000000002,0.0020866000000012,0.0222452,0.0665242000000004,0.0220950000000006,0.1181663999999999,0,sub_12
-0.1384160000000002,-0.0086161999999987,0.0329416,0.0910312000000004,0.1233702000000006,0.1316673999999999,0,sub_12
-0.1364548000000002,-0.0250135999999987,0.0433637999999999,0.1059356000000004,0.2168268000000006,0.1374201999999999,0,sub_12
-0.1303058000000002,-0.0363689999999987,0.0530251999999999,0.1193108000000004,0.2958274000000006,0.1365577999999999,0,sub_12
-0.1192062000000001,-0.0412579999999987,0.0597171999999999,0.1332256000000004,0.3486356000000007,0.1318869999999999,0,sub_12
-0.1026652000000002,-0.0429493999999987,0.0658909999999999,0.1412182000000004,0.3648222000000006,0.1263673999999999,0,sub_12
-0.0887096000000002,-0.0373307999999987,0.0712419999999999,0.1442006000000004,0.3544098000000006,0.1170011999999999,0,sub_12
-0.0771980000000001,-0.0320613999999987,0.0773678,0.1414028000000004,0.3348756000000007,0.1026923999999999,0,sub_12
-0.0656480000000002,-0.0289027999999987,0.082356,0.1261998000000004,0.3081436000000007,0.0876653999999999,0,sub_12
-0.0561192000000002,-0.0293243999999987,0.0860592,0.0966192000000004,0.2650496000000006,0.0742681999999999,0,sub_12
-0.0498006000000001,-0.0311299999999987,0.084469,0.0637738000000004,0.2081168000000006,0.0612929999999999,0,sub_12
-0.0454358000000002,-0.0313645999999987,0.0817141999999999,0.0330756000000004,0.1571298000000006,0.0513161999999999,0,sub_12
-0.0477538000000001,-0.0294799999999987,0.077359,0.0066716000000004,0.1152766000000006,0.0445623999999999,0,sub_12
-0.0526174000000001,-0.0262829999999987,0.0716522,-0.0170943999999995,0.0900350000000006,0.0371647999999999,0,sub_12
-0.0546958000000001,-0.0228429999999987,0.064951,-0.0341679999999995,0.0790568000000006,0.0268045999999999,0,sub_12
-0.0520414000000001,-0.0193505999999987,0.0613262,-0.0441553999999995,0.0784918000000006,0.0169079999999999,0,sub_12
-0.0423874000000001,-0.0139677999999987,0.0567216,-0.0482603999999995,0.0595750000000006,0.0092123999999998,0,sub_12
-0.0334802000000001,-0.0116703999999987,0.0542524,-0.0494255999999995,0.0276278000000006,0.0068619999999999,0,sub_12
-0.0310832000000001,-0.0121455999999987,0.0517706,-0.0472313999999995,-0.0113823999999993,0.0096713999999999,0,sub_12
-0.0345468000000002,-0.0109603999999987,0.047734,-0.0435811999999995,-0.0604045999999993,0.0107945999999998,0,sub_12
-0.0393188000000001,-0.0103117999999987,0.0439163999999999,-0.0319449999999995,-0.0957923999999992,0.0053331999999998,0,sub_12
-0.0448032000000001,-0.0130435999999987,0.0447563999999999,-0.0123373999999995,-0.1196807999999992,-0.005642,0,sub_12
-0.0464704000000001,-0.0135569999999987,0.0513738,0.0067924000000004,-0.1537655999999992,-0.0231972000000001,0,sub_12
-0.0385566000000001,-0.0138013999999987,0.0590133999999999,0.0212240000000004,-0.1918691999999992,-0.0439848000000001,0,sub_12
-0.0284182000000001,-0.0121811999999987,0.0641887999999999,0.0319258000000004,-0.2476639999999993,-0.0596482,0,sub_12
-0.0216400000000001,-0.0088951999999987,0.0689327999999999,0.0425480000000004,-0.3147761999999993,-0.0688884,0,sub_12
-0.0191850000000001,-0.0029495999999987,0.0664205999999999,0.0498766000000004,-0.3980871999999993,-0.0736444,0,sub_12
-0.0190440000000001,0.0012662000000012,0.0556771999999999,0.0548494000000004,-0.4799121999999993,-0.0750004,0,sub_12
-0.0196402000000001,0.0037410000000012,0.040156,0.0629380000000004,-0.5283179999999993,-0.0714636,0,sub_12
-0.0074586000000001,0.0032182000000012,0.0336274,0.0929156000000004,-0.5035011999999993,-0.0697904,0,sub_12
0.0075723999999998,0.0029144000000012,0.0268412,0.1068192000000004,-0.4933333999999993,-0.0671426,0,sub_12
0.0261531999999998,0.0008930000000012,0.0244163999999999,0.0998662000000004,-0.4673417999999992,-0.060815,0,sub_12
0.0478917999999998,0.0027780000000012,0.0183705999999999,0.0919900000000004,-0.4019615999999993,-0.047067,0,sub_12
0.0539189999999998,0.0066380000000012,0.0142335999999999,0.0839748000000004,-0.3662007999999992,-0.032,0,sub_12
0.0442413999999998,0.0116078000000012,0.0033785999999999,0.0584578000000004,-0.3783191999999993,-0.0163532,0,sub_12
0.0309261999999998,0.0140852000000012,-0.0072173999999999,0.0494588000000004,-0.3736527999999993,-0.0033898,0,sub_12
0.0143831999999998,0.0157300000000012,-0.0173423999999999,0.0588808000000004,-0.3575285999999993,0.0054147999999999,0,sub_12
-0.0038486000000001,0.0113590000000012,-0.0125893999999999,0.0753248000000004,-0.3520559999999993,0.0078727999999999,0,sub_12
-0.0132938000000001,0.0082482000000012,-0.0022005999999999,0.0922638000000004,-0.3327313999999993,0.0090345999999999,0,sub_12
-0.0246432000000001,0.0025866000000012,0.0106925999999999,0.1075418000000004,-0.2991423999999993,0.0142257999999999,0,sub_12
-0.0370732000000001,-0.0018317999999987,0.0259677999999999,0.1181640000000004,-0.2536195999999993,0.0227873999999999,0,sub_12
-0.0539030000000001,-0.0075685999999987,0.0436806,0.1279412000000004,-0.2012957999999993,0.0362481999999999,0,sub_12
-0.0729852000000002,-0.0113193999999987,0.0555617999999999,0.1328532000000004,-0.1372463999999993,0.0520101999999998,0,sub_12
-0.0908792000000001,-0.0187897999999987,0.0714057999999999,0.1342248000000004,-0.0537965999999993,0.0677225999999999,0,sub_12
-0.1036148000000001,-0.0261589999999987,0.0893168,0.1316056000000004,0.0433046000000006,0.0829621999999999,0,sub_12
-0.1128046000000001,-0.0313261999999987,0.104053,0.1174624000000004,0.1412932000000006,0.0994021999999999,0,sub_12
-0.1153676000000002,-0.0377485999999987,0.1138022,0.0929072000000004,0.2446616000000006,0.1114895999999999,0,sub_12
-0.1119806000000001,-0.0428573999999987,0.115583,0.0579206000000004,0.3480880000000006,0.1181627999999999,0,sub_12
-0.1021692000000001,-0.0453435999999987,0.1077356,0.0178066000000004,0.4432506000000006,0.1179741999999999,0,sub_12
-0.0880868000000002,-0.0428969999999987,0.0946066,-0.0263461999999995,0.5352578000000007,0.1111385999999999,0,sub_12
-0.0688210000000001,-0.0397395999999987,0.0815746,-0.0673003999999995,0.6191884000000007,0.0966443999999999,0,sub_12
-0.0458432000000001,-0.0311581999999987,0.069389,-0.1053785999999995,0.6754236000000007,0.0792147999999999,0,sub_12
-0.0226300000000001,-0.0191585999999987,0.0549978,-0.1429603999999995,0.7035184000000007,0.0656703999999999,0,sub_12
-0.0031608000000002,-0.0063107999999987,0.0391647999999999,-0.1688989999999995,0.7183338000000006,0.0594881999999999,0,sub_12
0.0087205999999997,-4.7399999998797234e-05,0.0263281999999999,-0.1790003999999995,0.6975084000000007,0.0547441999999999,0,sub_12
0.0142461999999997,0.0053794000000011,0.0057007999999999,-0.1687075999999994,0.6012224000000007,0.0421207999999999,0,sub_12
0.0300319999999997,0.0066584000000011,0.0245552,-0.1846165999999995,0.5131302000000006,0.0278083999999999,0,sub_12
0.0447713999999997,0.0147754000000011,0.0180396,-0.2216117999999995,0.3383984000000006,0.0132461999999999,0,sub_12
0.0429499999999997,0.0137654000000011,0.0225564,-0.2203303999999995,0.2325504000000006,0.0020675999999999,0,sub_12
0.0377729999999998,0.0198358000000011,0.0286846,-0.2041407999999995,0.1285352000000006,-0.0008906,0,sub_12
0.0320545999999998,0.0248772000000011,0.047412,-0.2016549999999995,0.1140300000000006,0.0012817999999999,0,sub_12
0.0133381999999998,0.0343462000000011,0.0104402,-0.1804307999999995,0.0953934000000006,0.0080767999999999,0,sub_12
0.0012423999999998,0.0309988000000012,-0.0019129999999999,-0.0890677999999995,0.1653262000000006,0.0227257999999999,0,sub_12
0.0063089999999998,0.0382390000000012,-0.0098241999999999,-0.0315779999999995,0.1516488000000006,0.0366045999999999,0,sub_12
0.0173395999999998,0.0331926000000012,-0.0120901999999999,0.0022888000000004,0.1493554000000006,0.0479535999999999,0,sub_12
0.0234603999999998,0.0267838000000012,-0.0166413999999999,0.0336886000000004,0.1242582000000006,0.0631601999999999,0,sub_12
0.0199903999999998,0.0152008000000012,-0.0030345999999999,0.0725642000000004,0.0929878000000006,0.0705221999999999,0,sub_12
0.0073821999999998,0.0030462000000012,0.0205066,0.0690256000000004,0.0561782000000006,0.0613579999999999,0,sub_12
-0.0041500000000001,-0.0061325999999987,0.0329418,0.0564250000000004,0.0290174000000006,0.0439685999999999,0,sub_12
-0.0179112000000001,-0.0070731999999987,0.0329908,0.0420706000000004,-0.0123965999999993,0.0227395999999999,0,sub_12
-0.0255902000000001,-0.0076109999999987,0.0287016,0.0362366000000004,-0.0553385999999993,0.0032813999999999,0,sub_12
-0.0226040000000001,-0.0065903999999987,0.0247441999999999,0.0351150000000004,-0.0849121999999993,-0.0067608,0,sub_12
-0.0170024000000001,-0.0011395999999987,0.0207965999999999,0.0357436000000004,-0.0938699999999993,-0.0057078,0,sub_12
-0.0160766000000001,-0.0006835999999987,0.0164477999999999,0.0407994000000004,-0.1047681999999993,-0.0020266,0,sub_12
-0.0110776000000001,-0.0019759999999987,0.0202587999999999,0.0529682000000004,-0.1003485999999993,0.0010437999999999,0,sub_12
-0.0069366000000001,-0.0017255999999987,0.0261181999999999,0.0576556000000004,-0.0959147999999993,0.0070527999999999,0,sub_12
-0.0124332000000001,0.0002800000000012,0.0296139999999999,0.0631650000000004,-0.1014853999999993,0.0100893999999999,0,sub_12
-0.0201298000000001,-0.0017559999999987,0.0324479999999999,0.0756964000000004,-0.1179199999999993,0.0065661999999999,0,sub_12
-0.0257172000000001,-0.0047273999999987,0.0377319999999999,0.0854884000000004,-0.1287969999999993,0.0008801999999999,0,sub_12
-0.0342572000000001,-0.0051361999999987,0.0417127999999999,0.0884336000000004,-0.1443355999999993,-0.005275,0,sub_12
-0.0382412000000002,-0.0077471999999987,0.0470462,0.0888356000000004,-0.1598497999999993,-0.0152936,0,sub_12
-0.0342400000000001,-0.0090403999999987,0.0535953999999999,0.0862702000000004,-0.1676965999999993,-0.022138,0,sub_12
-0.0329984000000001,-0.0081887999999987,0.0581091999999999,0.0756064000000004,-0.1674427999999993,-0.0230674,0,sub_12
-0.0346506000000001,-0.0089147999999987,0.0597735999999999,0.0664488000000004,-0.1631513999999993,-0.0227096,0,sub_12
-0.0342462000000001,-0.0077671999999987,0.0640215999999999,0.0611920000000004,-0.1467241999999993,-0.023622,0,sub_12
-0.0346238000000001,-0.0059075999999987,0.0712377999999999,0.0313826000000004,-0.0812279999999993,-0.0198548,0,sub_12
-0.0386138000000001,-0.0092439999999987,0.0740222,-0.0169555999999995,-0.0054505999999993,-0.0136666,0,sub_12
-0.0412216000000002,-0.0143755999999987,0.0752142,-0.0621477999999995,0.0528666000000006,-0.0127752,0,sub_12
-0.0421476000000001,-0.0091739999999987,0.0756842,-0.1050093999999995,0.1043708000000006,-0.0150634,0,sub_12
-0.0423286000000001,-0.0070323999999987,0.0700298,-0.1470461999999995,0.1533000000000006,-0.013497,0,sub_12
-0.0455462000000001,-0.0071947999999987,0.0586082,-0.1542337999999995,0.1690878000000006,-0.012713,0,sub_12
-0.0490708000000001,-0.0029431999999987,0.0470784,-0.1337259999999995,0.1662788000000006,-0.0206848,0,sub_12
-0.0452446000000001,0.0014656000000012,0.0364676,-0.1101783999999995,0.1772994000000007,-0.0265166,0,sub_12
-0.0376588000000002,-0.0037449999999987,0.0324246,-0.0862097999999995,0.1912842000000006,-0.0280762,0,sub_12
-0.0309508000000001,-0.0067603999999987,0.0277046,-0.0654685999999995,0.2029220000000006,-0.0260234,0,sub_12
-0.0259844000000001,-0.0072281999999987,0.0200212,-0.0499719999999995,0.1868818000000006,-0.0241854,0,sub_12
-0.0188754000000001,-0.0098937999999987,0.0171682,-0.0338515999999995,0.1720982000000006,-0.0174308,0,sub_12
-0.0191644000000001,-0.0109529999999986,0.0160898,-0.0203299999999995,0.1490134000000006,-0.01047,0,sub_12
-0.0243744000000001,-0.0118971999999987,0.0102593999999999,-0.0106375999999995,0.1246790000000006,-0.0073802,0,sub_12
-0.0266472000000001,-0.0168497999999987,0.0074979999999999,0.0011876000000004,0.0926972000000006,-0.0117432,0,sub_12
-0.0212362000000001,-0.0243771999999987,0.0120031999999999,0.0028006000000004,0.0713876000000006,-0.012132,0,sub_12
-0.0172518000000001,-0.0209199999999987,0.0178647999999999,-0.0082137999999995,0.0464804000000006,-0.0076904,0,sub_12
-0.0166408000000001,-0.0141415999999987,0.0200017999999999,-0.0194193999999995,0.0230792000000006,-0.0066706,0,sub_12
-0.0196848000000001,-0.0104811999999987,0.0207101999999999,-0.0259105999999995,0.0003160000000006,-0.0094642000000001,0,sub_12
-0.0226624000000001,-0.0024999999999987,0.0190501999999999,-0.0336589999999995,-0.0158439999999993,-0.0107794,0,sub_12
-0.0269258000000001,0.0090614000000012,0.0133289999999999,-0.0319643999999995,-0.0211659999999993,-0.0133244,0,sub_12
-0.0266460000000001,0.0066194000000012,0.0115357999999999,-0.0289329999999995,-0.0120125999999993,-0.013956,0,sub_12
-0.0236014000000001,0.0014204000000012,0.0167017999999999,-0.0339579999999995,0.0139790000000006,-0.0093242,0,sub_12
-0.0215616000000001,0.0036394000000012,0.0174744,-0.0418019999999995,0.0344230000000006,-0.0002184,0,sub_12
-0.0220344000000001,-0.0014571999999987,0.0248828,-0.0444695999999995,0.0629622000000006,0.0046401999999999,0,sub_12
-0.0244484000000001,-0.0095709999999987,0.0344834,-0.0524569999999995,0.0911084000000006,0.0058301999999999,0,sub_12
-0.0319160000000001,-0.0108733999999987,0.035015,-0.0674789999999995,0.1194974000000006,0.0056889999999999,0,sub_12
-0.0415628000000001,-0.0113403999999987,0.0303744,-0.0828539999999995,0.1670514000000006,0.0082979999999999,0,sub_12
-0.0482774000000002,-0.0190061999999987,0.0267396,-0.1003347999999995,0.2286430000000006,0.0187791999999999,0,sub_12
-0.0528900000000001,-0.0141409999999987,0.0110224,-0.1230083999999995,0.2836102000000006,0.0386329999999999,0,sub_12
-0.0570970000000001,-0.0040587999999987,-0.0138773999999999,-0.1378927999999995,0.3144774000000007,0.0579311999999999,0,sub_12
-0.0549718000000001,-0.0036415999999987,-0.0328749999999999,-0.1196409999999995,0.3550466000000006,0.0731753999999999,0,sub_12
-0.0485618000000001,-0.0008419999999987,-0.0480737999999999,-0.0893233999999995,0.3280298000000007,0.0898725999999999,0,sub_12
-0.0356940000000001,0.0005392000000012,-0.0501999999999999,-0.0566785999999995,0.2858898000000006,0.1029435999999999,0,sub_12
-0.0199928000000001,-0.0113953999999987,-0.0380695999999999,-0.0208925999999995,0.2309538000000006,0.1164801999999999,0,sub_12
-0.0126890000000001,-0.0059429999999987,-0.0151541999999999,0.0085362000000004,0.1945408000000006,0.1387081999999999,0,sub_12
-0.0142458000000001,-0.0088359999999987,-0.0055277999999999,-0.0010547999999995,0.1133238000000006,0.1570889999999999,0,sub_12
-0.0150408000000001,-0.0174799999999987,0.0096082,0.0042222000000004,0.1015522000000006,0.1652297999999999,0,sub_12
-0.0219670000000001,-0.0180089999999987,0.0239801999999999,0.0235402000000004,0.0816618000000006,0.1675267999999999,0,sub_12
-0.0407298000000001,-0.0062663999999987,0.0306081999999999,0.0339474000000004,0.0656676000000006,0.1622789999999999,0,sub_12
-0.0535494000000001,-0.0097175999999987,0.0319215999999999,0.0615674000000004,0.0624728000000006,0.1381203999999999,0,sub_12
-0.0547594000000001,-0.0092905999999987,0.054268,0.1107076000000004,0.0901352000000006,0.1042451999999999,0,sub_12
-0.0473626000000001,-0.0041041999999987,0.0734783999999999,0.1230908000000004,0.0576320000000006,0.0699765999999999,0,sub_12
-0.0358976000000001,-0.0044283999999987,0.0826074,0.1063692000000004,0.0122094000000006,0.0417167999999999,0,sub_12
-0.0190102000000001,-0.0056249999999987,0.095666,0.0852018000000004,-0.0624283999999993,0.0239319999999999,0,sub_12
-0.0093066000000001,-0.0124703999999987,0.0987144,0.0601722000000004,-0.1765193999999993,0.0189895999999998,0,sub_12
-0.0062466000000001,-0.0075599999999987,0.110301,0.0286828000000004,-0.2081375999999993,0.0145371999999998,0,sub_12
-0.0065988000000001,-0.0109873999999987,0.1053894,-0.0069925999999995,-0.2167507999999993,0.0149397999999998,0,sub_12
-0.0104390000000001,-0.0044947999999987,0.09474,-0.0260445999999995,-0.1802625999999993,0.0175373999999998,0,sub_12
-0.0167678000000001,-0.0070027999999987,0.0867548,-0.0261367999999995,-0.1103617999999993,0.0129605999999998,0,sub_12
-0.0187262000000001,-0.0104383999999987,0.089638,-0.0423705999999995,-0.0307889999999993,0.0012083999999999,0,sub_12
-0.0208802000000001,-0.0129445999999987,0.070125,-0.0609099999999995,-0.0332491999999993,-0.0068228,0,sub_12
-0.0255180000000001,-0.0094357999999987,0.0605152,-0.0557371999999995,-0.0274915999999993,-0.0125624,0,sub_12
-0.0276174000000001,-0.0158453999999987,0.057552,-0.0478653999999995,-0.0417571999999993,-0.0216758,0,sub_12
-0.0292976000000001,-0.0064041999999987,0.0467162,-0.0494375999999995,-0.0694079999999993,-0.0319062,0,sub_12
-0.0280726000000001,-5.159999999877693e-05,0.0380124,-0.0410871999999995,-0.0711089999999993,-0.0399642,0,sub_12
-0.0265612000000001,0.0011380000000012,0.0339578,-0.0240547999999995,-0.0841461999999992,-0.0445286,0,sub_12
-0.0274202000000001,0.0057598000000012,0.0341601999999999,-0.0062205999999995,-0.1118741999999993,-0.0522732,0,sub_12
-0.0262080000000001,0.0062702000000011,0.0351813999999999,0.0060236000000004,-0.1466227999999993,-0.057698,0,sub_12
-0.0283544000000001,0.0011136000000012,0.0404841999999999,0.0196650000000004,-0.1534737999999993,-0.0612258,0,sub_12
-0.0326890000000002,-0.0007655999999987,0.0453367999999999,0.0204618000000004,-0.1647737999999993,-0.0599238,0,sub_12
-0.0346432000000001,-0.0036435999999987,0.0443403999999999,0.0099634000000004,-0.1709293999999993,-0.056571,0,sub_12
-0.0369402000000001,-0.0010303999999987,0.0396343999999999,0.0029450000000004,-0.1640939999999993,-0.0549198,0,sub_12
-0.0376208000000002,0.0023398000000012,0.0375897999999999,0.0006238000000004,-0.1576967999999993,-0.0543032,0,sub_12
-0.0363246000000001,0.0045508000000012,0.0313833999999999,-0.0010973999999995,-0.1608865999999993,-0.0543112,0,sub_12
-0.0303324000000001,0.0032676000000012,0.0217211999999999,0.0071484000000004,-0.1843249999999993,-0.0608466,0,sub_12
-0.0262064000000001,0.0064584000000012,0.0205461999999999,0.0305332000000004,-0.2101599999999993,-0.0672732,0,sub_12
-0.0206582000000001,0.0049198000000012,0.021614,0.0496706000000004,-0.2312935999999993,-0.0735216,0,sub_12
-0.0163972000000001,0.0095782000000012,0.0198448,0.0637350000000004,-0.2434545999999993,-0.0815262,0,sub_12
-0.0065052000000001,0.0003844000000012,0.0226756,0.0814286000000004,-0.2520189999999993,-0.0863054,0,sub_12
-0.0057508000000001,-0.0012971999999987,0.0311639999999999,0.0933766000000004,-0.2524859999999993,-0.086435,0,sub_12
-0.0070468000000001,-0.0015955999999987,0.0375511999999999,0.0922828000000004,-0.2567499999999992,-0.084728,0,sub_12
-0.0143714000000001,-0.0058029999999987,0.0449101999999999,0.0873024000000004,-0.2671955999999993,-0.0789812,0,sub_12
-0.0252482000000001,-0.0083831999999987,0.0523741999999999,0.0808466000000004,-0.2699803999999993,-0.0696224,0,sub_12
-0.0374214000000001,-0.0055323999999987,0.0546635999999999,0.0710016000000004,-0.2674259999999993,-0.0605078,0,sub_12
-0.0422356000000001,-0.0045429999999987,0.0551252,0.0697596000000004,-0.2482893999999993,-0.0498588,0,sub_12
-0.0444552000000001,-0.0024205999999987,0.05374,0.0741248000000004,-0.2134165999999993,-0.036627,0,sub_12
-0.0390950000000001,-0.0056419999999987,0.0499878,0.0771830000000004,-0.1847167999999993,-0.02361,0,sub_12
-0.0310034000000001,-0.0072035999999987,0.0473804,0.0830016000000004,-0.1594337999999993,-0.0109968,0,sub_12
-0.0264914000000001,-0.0049683999999987,0.044038,0.0840234000000004,-0.1582043999999993,0.0003319999999999,0,sub_12
-0.0241642000000001,-0.0025241999999987,0.0415891999999999,0.0816016000000004,-0.1665385999999993,0.0086579999999999,0,sub_12
-0.0245048000000001,-0.0040943999999987,0.0387553999999999,0.0749362000000004,-0.1693191999999993,0.0171607999999999,0,sub_12
-0.0345760000000001,-0.0094705999999987,0.0311415999999999,0.0668884000000004,-0.1509879999999993,0.0219949999999999,0,sub_12
-0.0514588000000001,-0.0308711999999987,0.0262053999999999,0.0666902000000004,-0.1229631999999993,0.0467403999999999,0,sub_12
-0.0733680000000001,-0.0293953999999987,0.0338437999999999,0.0578412000000004,-0.0462491999999993,0.0508529999999999,0,sub_12
-0.0775944000000002,-0.0326973999999987,0.036401,0.0522464000000004,-0.0229805999999993,0.0437055999999999,0,sub_12
-0.0793152000000001,-0.0371707999999987,0.0398,0.0574296000000004,0.0281460000000006,0.0402297999999999,0,sub_12
-0.0790458000000002,-0.0323689999999987,0.0487258,0.0509910000000004,0.0605506000000006,0.0401149999999999,0,sub_12
-0.0725736000000001,-0.0132119999999987,0.0524202,0.0333626000000004,0.0920394000000006,0.0123633999999999,0,sub_12
-0.0522268000000002,-0.0216827999999987,0.0475592,0.0302182000000004,0.0871904000000006,0.0016373999999999,0,sub_12
-0.0461820000000001,-0.0203801999999987,0.0477348,0.0192936000000004,0.1245160000000006,0.0008723999999999,0,sub_12
-0.0419212000000001,-0.0140641999999987,0.0455934,-0.0050115999999995,0.1203740000000006,-0.0078378,0,sub_12
-0.0268990000000001,-0.0084673999999987,0.0406951999999999,-0.0105075999999995,0.1215004000000006,-0.0183462,0,sub_12
-0.0098234000000001,-0.0040397999999987,0.0381663999999999,-0.0101777999999995,0.0951000000000006,-0.023224,0,sub_12
0.0003575999999998,0.0033962000000011,0.0336057999999999,-0.0124773999999995,0.0550664000000006,-0.0263934,0,sub_12
0.0076565999999998,0.0047236000000011,0.0276287999999999,-0.0087613999999995,0.0273560000000006,-0.026332,0,sub_12
0.0059201999999998,0.0040484000000011,0.0239915999999999,0.0022016000000004,0.0044942000000006,-0.0196032,0,sub_12
-0.0100852000000001,0.0023848000000011,0.0255736,0.0123678000000004,0.0001472000000006,-0.0069216,0,sub_12
-0.0294884000000001,-0.0004723999999987,0.0267002,0.0174696000000004,0.0043562000000006,0.0016543999999999,0,sub_12
-0.0414770000000001,-0.0029763999999987,0.0282768,0.0230230000000004,0.0098590000000006,0.0059589999999999,0,sub_12
-0.0486774000000001,-0.0058947999999987,0.031543,0.0311618000000004,0.0185582000000006,0.0079275999999999,0,sub_12
