userAcceleration.x,userAcceleration.y,userAcceleration.z,rotationRate.x,rotationRate.y,rotationRate.z,label,subject
0.0541735999999997,0.0047920000000012,0.0308224,0.0412092000000004,-0.3108893999999993,-0.1602486,0,sub_12
0.0553373999999997,0.0053716000000012,0.0342906,0.0495782000000004,-0.3356817999999993,-0.1479806,0,sub_12
0.0542211999999997,0.0057008000000012,0.0378952,0.0509444000000004,-0.3466225999999993,-0.1304382000000001,0,sub_12
0.0528763999999997,0.0081344000000012,0.0416062,0.0448808000000003,-0.3409515999999993,-0.1048504,0,sub_12
0.0486483999999998,0.0082862000000012,0.0404984,0.0286232000000003,-0.3173771999999993,-0.0720928000000001,0,sub_12
0.0410323999999998,0.0081782000000011,0.0393608,0.0207302000000003,-0.2842445999999994,-0.0392892,0,sub_12
0.0320093999999998,0.0052766000000011,0.0385404,0.0154064000000004,-0.2534475999999994,-0.0107376,0,sub_12
0.0221467999999998,0.0021966000000011,0.0391378,0.0081200000000004,-0.2335033999999993,0.0163187999999999,0,sub_12
0.0111713999999998,-0.0022201999999987,0.0412952,-0.0055885999999995,-0.2211947999999993,0.0403489999999999,0,sub_12
0.0009255999999998,-0.0068723999999987,0.0459278,-0.0263115999999995,-0.2109597999999993,0.0562143999999999,0,sub_12
-0.0080884000000001,-0.0116753999999987,0.048789,-0.0496093999999995,-0.2087923999999993,0.0671583999999999,0,sub_12
-0.0159006000000001,-0.0124939999999987,0.0504822,-0.0763287999999994,-0.2123491999999993,0.0740265999999999,0,sub_12
-0.0243722000000001,-0.0144611999999987,0.0508072,-0.1068581999999994,-0.2086505999999993,0.0812861999999999,0,sub_12
-0.0337452000000001,-0.0165347999999987,0.0504174,-0.1392611999999994,-0.1957787999999993,0.0872391999999999,0,sub_12
-0.0435330000000001,-0.0179473999999987,0.0502992,-0.1776241999999994,-0.1792659999999993,0.0935729999999999,0,sub_12
-0.0548536000000001,-0.0192383999999987,0.0497498,-0.2144867999999994,-0.1657231999999993,0.0954345999999999,0,sub_12
-0.0684430000000001,-0.0214395999999987,0.04151,-0.2403461999999994,-0.1815845999999993,0.0884375999999999,0,sub_12
-0.0812766000000001,-0.0249171999999987,0.0361538,-0.2373341999999995,-0.1993975999999993,0.0649805999999999,0,sub_12
-0.0871468000000001,-0.0246401999999987,0.035379,-0.2201109999999995,-0.1933793999999993,0.0368919999999999,0,sub_12
-0.0887960000000001,-0.0255689999999987,0.034776,-0.1950121999999995,-0.1863445999999993,0.0141983999999999,0,sub_12
-0.0906868000000002,-0.0244411999999987,0.0356216,-0.1701757999999995,-0.1829599999999993,-0.0012284,0,sub_12
-0.0918680000000001,-0.0230767999999987,0.0413506,-0.1474747999999995,-0.1710815999999993,-0.007708,0,sub_12
-0.0967448000000002,-0.0204669999999987,0.048788,-0.1352685999999995,-0.1675223999999993,-0.0063788,0,sub_12
-0.1056944000000001,-0.0203629999999987,0.0520042,-0.1206111999999995,-0.1888965999999993,-0.0056412,0,sub_12
-0.1158180000000002,-0.0199497999999987,0.0519484,-0.0957225999999995,-0.2130747999999993,-0.005256,0,sub_12
-0.1220968000000001,-0.0205181999999987,0.0532594,-0.0664111999999995,-0.2027531999999993,-0.004884,0,sub_12
-0.1262738000000001,-0.0233005999999987,0.0605002,-0.0405219999999995,-0.1440669999999993,-0.0018204,0,sub_12
-0.1240156000000001,-0.0267217999999987,0.0655702,-0.0282739999999995,-0.0676627999999993,0.0082085999999999,0,sub_12
-0.1216712000000001,-0.0302411999999987,0.070831,-0.0228559999999995,0.0134320000000006,0.0233111999999999,0,sub_12
-0.1188132000000001,-0.0308021999999987,0.0755154,-0.0234121999999995,0.0949720000000006,0.0387989999999999,0,sub_12
-0.1161324000000001,-0.0301225999999987,0.077925,-0.0244555999999994,0.1635156000000006,0.0547271999999999,0,sub_12
-0.1124380000000001,-0.0277931999999987,0.0770456,-0.0195379999999994,0.2279944000000006,0.0696339999999999,0,sub_12
-0.1083730000000001,-0.0239745999999987,0.0762262,-0.0051773999999994,0.3035236000000006,0.0835243999999999,0,sub_12
-0.1035818000000002,-0.0214869999999987,0.0761362,0.0149568000000005,0.3803168000000006,0.0959579999999999,0,sub_12
-0.0992368000000002,-0.0229099999999987,0.0771154,0.0393344000000004,0.4466762000000006,0.1033069999999999,0,sub_12
-0.0947500000000002,-0.0242015999999987,0.0733774,0.0618756000000004,0.4774888000000006,0.1038521999999999,0,sub_12
-0.0904196000000002,-0.0245717999999987,0.0688448,0.0825554000000004,0.4665790000000006,0.0969601999999999,0,sub_12
-0.0853784000000001,-0.0244059999999987,0.0640026,0.1044454000000004,0.4331090000000007,0.0830553999999999,0,sub_12
-0.0814462000000002,-0.0241181999999987,0.0581062,0.1201526000000004,0.3966942000000006,0.0650519999999999,0,sub_12
-0.0775306000000002,-0.0233923999999987,0.0532587999999999,0.1286136000000004,0.3590392000000006,0.0437949999999999,0,sub_12
-0.0717840000000002,-0.0250023999999987,0.0571543999999999,0.1352186000000004,0.3358778000000006,0.0227199999999999,0,sub_12
-0.0636356000000002,-0.0258741999999987,0.0602585999999999,0.1296604000000004,0.3163654000000006,0.0054009999999999,0,sub_12
-0.0553304000000001,-0.0238781999999987,0.0616799999999999,0.1069788000000004,0.2928332000000007,-0.0041276,0,sub_12
-0.0467406000000001,-0.0228037999999987,0.064588,0.0872546000000004,0.2662932000000006,-0.0099998,0,sub_12
-0.0396826000000001,-0.0205815999999987,0.0642346,0.0672854000000004,0.2331476000000006,-0.015438,0,sub_12
-0.0348764000000001,-0.0175657999999987,0.0615558,0.0463020000000004,0.2093894000000006,-0.0232454,0,sub_12
-0.0247790000000001,-0.0197499999999987,0.062777,0.0337476000000004,0.2096762000000006,-0.030811,0,sub_12
-0.0119908000000001,-0.0191283999999987,0.0649294,0.0246492000000004,0.2199620000000006,-0.0377244,0,sub_12
0.0008065999999998,-0.0163585999999987,0.0658938,0.0075898000000004,0.2159992000000006,-0.0442478,0,sub_12
0.0180829999999998,-0.0090483999999988,0.0662994,-0.0097365999999995,0.2045624000000006,-0.0462768,0,sub_12
0.0402801999999998,-0.0049657999999987,0.0664169999999999,-0.0225009999999995,0.1766522000000006,-0.0352206,0,sub_12
0.0528537999999998,0.0064916000000011,0.0635811999999999,-0.0362339999999995,0.1335764000000006,-0.0136832,0,sub_12
0.0617587999999998,0.0178900000000011,0.0546753999999999,-0.0461529999999995,0.0908878000000006,0.0142897999999999,0,sub_12
0.0688451999999998,0.0234952000000011,0.0449487999999999,-0.0408641999999995,0.0740868000000006,0.0553679999999999,0,sub_12
0.0691605999999998,0.0268954000000011,0.0355887999999999,-0.0296253999999995,0.0996614000000006,0.0968605999999999,0,sub_12
0.0637597999999997,0.0286568000000011,0.0288038,-0.0156631999999995,0.1548678000000006,0.1317113999999999,0,sub_12
0.0592747999999997,0.0241368000000012,0.026481,0.0007534000000004,0.2228934000000006,0.1554533999999999,0,sub_12
0.0529287999999997,0.0135596000000012,0.0320702,0.0156716000000004,0.2784002000000006,0.1676641999999999,0,sub_12
0.0476713999999997,0.0080444000000012,0.0395408,0.0154348000000004,0.3188884000000006,0.1659015999999999,0,sub_12
0.0419375999999997,-0.0007217999999987,0.0507202,0.0072064000000004,0.3372494000000006,0.1634705999999999,0,sub_12
0.0332187999999998,-0.0049481999999987,0.0577172,-0.0164155999999995,0.3458756000000006,0.1579533999999999,0,sub_12
0.0219647999999998,-0.0071065999999987,0.0580524,-0.0427969999999995,0.3538878000000006,0.1485721999999999,0,sub_12
0.0146139999999998,-0.0033371999999987,0.0554854,-0.0634011999999995,0.3650772000000006,0.1387997999999999,0,sub_12
0.0077093999999998,0.0015578000000012,0.049986,-0.0830875999999995,0.3877796000000006,0.1262417999999998,0,sub_12
0.0111921999999998,0.0058898000000012,0.0417576,-0.0925139999999995,0.4130088000000006,0.1122565999999998,0,sub_12
0.0174651999999998,0.0162688000000012,0.0327886,-0.0868369999999995,0.4288072000000006,0.0992437999999999,0,sub_12
0.0276995999999997,0.0215570000000012,0.0287204,-0.0829503999999995,0.4309566000000006,0.0911497999999999,0,sub_12
0.0390323999999997,0.0208586000000012,0.0263132,-0.0759175999999995,0.4258314000000006,0.0880007999999999,0,sub_12
0.0474577999999997,0.0189024000000012,0.0268324,-0.0649353999999995,0.4027744000000006,0.0902435999999999,0,sub_12
0.0463405999999997,0.0158424000000011,0.0283193999999999,-0.0610433999999995,0.3699372000000006,0.0935175999999999,0,sub_12
0.0431481999999997,0.0065740000000012,0.0325742,-0.0622779999999995,0.3358396000000007,0.0967571999999999,0,sub_12
0.0368735999999998,0.0027864000000012,0.0331076,-0.0632933999999995,0.3015342000000007,0.0985031999999999,0,sub_12
0.0260475999999998,-0.0010917999999987,0.0317232,-0.0653345999999995,0.2736354000000006,0.0974565999999999,0,sub_12
0.0160509999999998,-0.0056503999999987,0.0281145999999999,-0.0643743999999995,0.2399644000000006,0.0946987999999999,0,sub_12
0.0065619999999998,-0.0047289999999987,0.0259532,-0.0610871999999995,0.2009622000000006,0.0911095999999999,0,sub_12
-0.0053200000000001,-0.0008433999999987,0.0221122,-0.0597211999999995,0.1587830000000006,0.0845199999999999,0,sub_12
-0.0170540000000001,-0.0007953999999987,0.0197167999999999,-0.0546061999999995,0.1406780000000006,0.0749345999999999,0,sub_12
-0.0245520000000001,-0.0008839999999987,0.0176463999999999,-0.0506735999999995,0.1426110000000006,0.0636061999999999,0,sub_12
-0.0256164000000002,0.0023582000000012,0.0183997999999999,-0.0452183999999995,0.1569172000000006,0.0510207999999998,0,sub_12
-0.0234302000000001,0.0011172000000012,0.0203823999999999,-0.0403783999999995,0.1788870000000006,0.0405577999999998,0,sub_12
-0.0178406000000001,-0.0033231999999987,0.0248003999999999,-0.0382691999999995,0.2149100000000006,0.0345443999999998,0,sub_12
-0.0125380000000001,-0.0050127999999987,0.0293116,-0.0398065999999995,0.2511408000000006,0.0329917999999999,0,sub_12
-0.0135230000000001,-0.0065401999999987,0.0337874,-0.0439829999999995,0.2707592000000006,0.0322963999999999,0,sub_12
-0.0188716000000001,-0.0091301999999987,0.0386076,-0.0514137999999995,0.2759112000000006,0.0290333999999999,0,sub_12
-0.0227200000000001,-0.0114663999999987,0.0441356,-0.0573431999999995,0.2806406000000006,0.0236447999999999,0,sub_12
-0.0249242000000001,-0.0143975999999987,0.0496446,-0.0592559999999995,0.2776834000000006,0.0189349999999999,0,sub_12
-0.0253842000000001,-0.0146495999999987,0.0501728,-0.0638173999999995,0.2544976000000006,0.0135915999999999,0,sub_12
-0.0233802000000001,-0.0123267999999987,0.0500013999999999,-0.0722511999999994,0.2281140000000006,0.0120709999999999,0,sub_12
-0.0222424000000001,-0.0116253999999987,0.0465168,-0.0838469999999994,0.2149322000000006,0.0152113999999999,0,sub_12
-0.0240642000000001,-0.0102891999999987,0.0373268,-0.0999237999999995,0.2030392000000006,0.0196009999999999,0,sub_12
-0.0248430000000001,-0.0067895999999987,0.0252875999999999,-0.1157659999999995,0.1949838000000006,0.0231325999999999,0,sub_12
-0.0264920000000001,-0.0038259999999987,0.0164275999999999,-0.1254223999999995,0.1866930000000006,0.0269213999999999,0,sub_12
-0.0274286000000002,-0.0020357999999987,0.0097759999999999,-0.1278135999999995,0.1781740000000006,0.0281975999999999,0,sub_12
-0.0277550000000001,3.720000000124127e-05,0.0045445999999999,-0.1254953999999995,0.1715622000000006,0.0280085999999999,0,sub_12
-0.0257836000000001,0.0017094000000012,0.0032418,-0.1169747999999995,0.1681244000000006,0.0278587999999999,0,sub_12
-0.0242918000000001,0.0022852000000012,0.0044118,-0.1076131999999995,0.1600042000000006,0.0257981999999999,0,sub_12
-0.0209114000000001,0.0015074000000012,0.0083073999999999,-0.0984677999999995,0.1514578000000006,0.0239501999999999,0,sub_12
-0.0196284000000001,0.0010098000000012,0.0120739999999999,-0.0906007999999995,0.1439786000000006,0.0227327999999999,0,sub_12
-0.0170400000000001,0.0007834000000012,0.0185207999999999,-0.0833575999999995,0.1416088000000006,0.0230001999999999,0,sub_12
-0.0165760000000001,0.0007742000000012,0.0250115999999999,-0.0769785999999995,0.1383838000000006,0.0247579999999999,0,sub_12
-0.0162244000000001,-0.0004237999999987,0.0306905999999999,-0.0669865999999995,0.1336478000000006,0.0282521999999999,0,sub_12
-0.0167728000000001,-0.0011483999999987,0.037729,-0.0546483999999995,0.1280540000000006,0.0311229999999999,0,sub_12
-0.0138718000000001,-0.0040521999999987,0.0439262,-0.0435615999999995,0.1265220000000006,0.0316297999999999,0,sub_12
-0.0105406000000001,-0.0054363999999987,0.0463176,-0.0348497999999995,0.1156368000000006,0.0289271999999999,0,sub_12
-0.0050782000000001,-0.0069137999999987,0.050973,-0.0274247999999995,0.1009306000000006,0.0238703999999999,0,sub_12
0.0002811999999997,-0.0056607999999987,0.0552869999999999,-0.0287385999999994,0.0885976000000006,0.0189631999999999,0,sub_12
0.0062319999999997,-0.0035529999999987,0.0566087999999999,-0.0342949999999995,0.0843654000000006,0.0165797999999999,0,sub_12
0.0069133999999997,-0.0010017999999987,0.0525949999999999,-0.0385921999999995,0.0779880000000006,0.0167715999999999,0,sub_12
0.0078773999999997,-0.0001539999999987,0.0488734,-0.0401095999999995,0.0745766000000006,0.0186881999999999,0,sub_12
0.0076703999999997,0.0009368000000012,0.0431704,-0.0403651999999995,0.0673250000000006,0.0208321999999999,0,sub_12
0.0056257999999998,0.0011018000000012,0.0368316,-0.0333881999999995,0.0534504000000006,0.0213259999999999,0,sub_12
0.0026173999999998,0.0007252000000012,0.0311474,-0.0228115999999995,0.0306258000000006,0.0190789999999999,0,sub_12
0.0033395999999998,0.0013510000000012,0.0306004,-0.0124455999999995,0.0080166000000006,0.0164029999999999,0,sub_12
0.0016129999999998,0.0016858000000012,0.0303006,-0.0033511999999995,-0.0118215999999993,0.0145691999999999,0,sub_12
-0.0017130000000001,0.0015006000000012,0.0294853999999999,0.0044870000000004,-0.0259047999999993,0.0131465999999999,0,sub_12
-0.0048268000000001,0.0008488000000012,0.0278174,0.0114842000000004,-0.0372151999999993,0.0117143999999999,0,sub_12
-0.0087514000000001,-0.0005185999999987,0.0266565999999999,0.0176290000000004,-0.0470363999999993,0.0115561999999999,0,sub_12
-0.0145384000000001,-0.0020517999999987,0.0250233999999999,0.0220772000000004,-0.0549323999999993,0.0109563999999999,0,sub_12
-0.0196296000000002,-0.0036793999999987,0.0239304,0.0271674000000004,-0.0619801999999993,0.0107871999999999,0,sub_12
-0.0251438000000001,-0.0050851999999987,0.0231242,0.0331198000000004,-0.0666889999999993,0.0110483999999999,0,sub_12
-0.0302354000000001,-0.0063027999999987,0.0237789999999999,0.0371778000000004,-0.0654265999999993,0.0115023999999999,0,sub_12
-0.0323776000000001,-0.0068447999999987,0.0245232,0.0384896000000004,-0.0577637999999993,0.0121425999999999,0,sub_12
-0.0306984000000001,-0.0064767999999987,0.0261473999999999,0.0400072000000004,-0.0509571999999993,0.0136399999999999,0,sub_12
-0.0297654000000001,-0.0048297999999987,0.0266531999999999,0.0430040000000004,-0.0475639999999993,0.0149383999999999,0,sub_12
-0.0287350000000001,-0.0032419999999987,0.0249545999999999,0.0473022000000004,-0.0461085999999993,0.0164329999999999,0,sub_12
-0.0260274000000001,-0.0021809999999987,0.0240099999999999,0.0526672000000004,-0.0444445999999993,0.0181485999999999,0,sub_12
-0.0233978000000001,-0.0020299999999987,0.0228631999999999,0.0603600000000004,-0.0481107999999993,0.0188191999999999,0,sub_12
-0.0204268000000001,-0.0025571999999987,0.0217028,0.0680366000000004,-0.0564599999999993,0.0184271999999999,0,sub_12
-0.0160106000000001,-0.0031147999999987,0.0231016,0.0735708000000004,-0.0662947999999993,0.0184495999999999,0,sub_12
-0.0131790000000001,-0.0051477999999987,0.0274376,0.0762890000000004,-0.0795103999999993,0.0176309999999999,0,sub_12
-0.0117496000000001,-0.0073385999999987,0.0312456,0.0755798000000004,-0.0969699999999993,0.0155119999999999,0,sub_12
-0.0112716000000001,-0.0090447999999987,0.0340772,0.0725322000000004,-0.1131405999999993,0.0127339999999999,0,sub_12
-0.0127272000000001,-0.0107617999999987,0.037325,0.0671528000000003,-0.1269551999999993,0.0088685999999999,0,sub_12
-0.0142518000000001,-0.0123319999999987,0.0389406,0.0583730000000004,-0.1390481999999993,0.0036951999999999,0,sub_12
-0.0144064000000001,-0.0122525999999987,0.0399114,0.0472594000000004,-0.1479379999999993,-0.0012848,0,sub_12
-0.0153118000000001,-0.0123197999999987,0.0415794,0.0359344000000004,-0.1564009999999993,-0.006267,0,sub_12
-0.0180110000000001,-0.0111803999999987,0.0438648,0.0250372000000004,-0.1652889999999993,-0.0118866,0,sub_12
-0.0222076000000001,-0.0091379999999987,0.045286,0.0179950000000004,-0.1697213999999993,-0.016203,0,sub_12
-0.0272600000000001,-0.0073379999999987,0.0460768,0.0171588000000004,-0.1684297999999993,-0.0187742,0,sub_12
-0.0312066000000001,-0.0045839999999987,0.0448306,0.0229544000000004,-0.1595067999999993,-0.0174634,0,sub_12
-0.0348118000000001,-0.0018343999999987,0.0442704,0.0332614000000004,-0.1382645999999993,-0.010582,0,sub_12
-0.0371572000000001,-0.0008775999999987,0.04521,0.0437980000000004,-0.1080961999999993,0.0016307999999999,0,sub_12
-0.0393754000000001,-0.0019489999999987,0.0474938,0.0520002000000004,-0.0732401999999993,0.0157439999999999,0,sub_12
-0.0424754000000001,-0.0044031999999987,0.0505778,0.0565758000000004,-0.0392193999999993,0.0287647999999999,0,sub_12
-0.0458390000000001,-0.0091409999999987,0.0560452,0.0549714000000004,-0.0085653999999993,0.0366191999999999,0,sub_12
-0.0481234000000001,-0.0137219999999987,0.0601454,0.0480192000000004,0.0138194000000006,0.0391057999999999,0,sub_12
-0.0491210000000001,-0.0164721999999987,0.0607908,0.0376398000000004,0.0283528000000006,0.0366645999999999,0,sub_12
-0.0488022000000001,-0.0182729999999987,0.0605784,0.0257552000000004,0.0373642000000006,0.0312287999999999,0,sub_12
-0.0477920000000001,-0.0193851999999987,0.060096,0.0115178000000004,0.0423468000000006,0.0230043999999999,0,sub_12
-0.0463192000000001,-0.0176465999999987,0.0560698,-0.0016623999999995,0.0443464000000006,0.0139367999999999,0,sub_12
-0.0437172000000001,-0.0146139999999987,0.0503544,-0.0107999999999995,0.0450484000000006,0.0061807999999999,0,sub_12
-0.0419296000000002,-0.0125447999999987,0.046472,-0.0165093999999995,0.0497830000000006,-0.0007018,0,sub_12
-0.0366024000000001,-0.0096441999999987,0.0403206,-0.0196717999999995,0.0519502000000006,-0.007136,0,sub_12
-0.0295774000000001,-0.0062241999999987,0.034634,-0.0187961999999995,0.0523912000000006,-0.011617,0,sub_12
-0.0201198000000001,-0.0048245999999987,0.0339872,-0.0173111999999995,0.0466488000000006,-0.015445,0,sub_12
-0.0129586000000001,-0.0042687999999987,0.036859,-0.0171235999999995,0.0368638000000006,-0.0194904,0,sub_12
-0.0072434000000001,-0.0033019999999987,0.0392908,-0.0173971999999995,0.0191982000000006,-0.0237426,0,sub_12
-0.0066274000000001,-0.0029917999999987,0.0421609999999999,-0.0185233999999995,0.0021732000000006,-0.0275742,0,sub_12
-0.0095966000000001,-0.0026381999999987,0.0443769999999999,-0.0202811999999995,-0.0114469999999993,-0.029919,0,sub_12
-0.0168964000000001,-0.0038833999999987,0.0458183999999999,-0.0211433999999995,-0.0152711999999993,-0.0318428,0,sub_12
-0.0212016000000002,-0.0051825999999987,0.0465547999999999,-0.0232627999999995,-0.0129167999999993,-0.0327152,0,sub_12
-0.0245428000000001,-0.0068057999999987,0.0471705999999999,-0.0266403999999995,-0.0058697999999993,-0.033816,0,sub_12
-0.0260458000000001,-0.0082851999999987,0.0486029999999999,-0.0293777999999994,0.0005382000000006,-0.0355524,0,sub_12
-0.0260612000000001,-0.0095315999999987,0.0502993999999999,-0.0316807999999994,0.0073762000000006,-0.0385684,0,sub_12
-0.0248856000000001,-0.0088267999999987,0.0477701999999999,-0.0335771999999995,0.0103750000000006,-0.0409356,0,sub_12
-0.0254032000000001,-0.0071993999999987,0.0440759999999999,-0.0312127999999994,0.0112310000000006,-0.0439112,0,sub_12
-0.0254578000000001,-0.0046041999999987,0.0414916,-0.0256327999999995,0.0150432000000006,-0.0441296,0,sub_12
-0.0257538000000001,-0.0027009999999987,0.0390878,-0.0191935999999995,0.0233138000000006,-0.041143,0,sub_12
-0.0249748000000001,-0.0014151999999987,0.0372364,-0.0127525999999995,0.0347690000000006,-0.035383,0,sub_12
-0.0245062000000001,-0.0009801999999987,0.0374233999999999,-0.0067305999999995,0.0506888000000006,-0.0268542,0,sub_12
-0.0252048000000001,-0.0018677999999987,0.0373026,-0.0030509999999995,0.0689552000000006,-0.017063,0,sub_12
-0.0265028000000001,-0.0056509999999987,0.0366237999999999,-0.0030069999999995,0.0863948000000006,-0.0093938,0,sub_12
-0.0278310000000001,-0.0078755999999987,0.0367255999999999,-0.0065805999999995,0.1021580000000006,-0.0055934,0,sub_12
-0.0277576000000001,-0.0104763999999987,0.0362873999999999,-0.0118687999999995,0.1141008000000006,-0.0039364,0,sub_12
-0.0272418000000001,-0.0112431999999987,0.0345407999999999,-0.0183545999999995,0.1196300000000006,-0.0051658,0,sub_12
-0.0273118000000001,-0.0111473999999987,0.0324705999999999,-0.0237791999999995,0.1226040000000006,-0.0076662,0,sub_12
-0.0276752000000001,-0.0082311999999987,0.0304229999999999,-0.0260023999999995,0.1251432000000006,-0.0107848,0,sub_12
-0.0267572000000001,-0.0058025999999987,0.0270765999999999,-0.0252565999999995,0.1263826000000006,-0.0111036,0,sub_12
-0.0267996000000001,-0.0027935999999987,0.0239663999999999,-0.0223761999999995,0.1284642000000006,-0.0107676,0,sub_12
-0.0230462000000001,-0.0012887999999987,0.0223709999999999,-0.0178971999999995,0.1290834000000006,-0.009669,0,sub_12
-0.0175244000000001,-7.639999999877801e-05,0.021682,-0.0147195999999995,0.1241712000000006,-0.009427,0,sub_12
-0.0108720000000001,-0.0005883999999987,0.0204358,-0.0108625999999995,0.1082566000000006,-0.0095002,0,sub_12
-0.0063372000000001,-0.0012815999999987,0.0209624,-0.0057541999999995,0.0840360000000006,-0.0114768,0,sub_12
-0.0033232000000001,-0.0016793999999987,0.0210164,-3.039999999953913e-05,0.0530006000000006,-0.0147224,0,sub_12
-0.0039568000000001,-0.0012385999999987,0.0213546,0.0073944000000004,0.0204688000000006,-0.0181676,0,sub_12
-0.0062324000000001,-0.0012051999999987,0.0219862,0.0158966000000004,-0.0088743999999993,-0.0207548,0,sub_12
-0.0092814000000001,-0.0015015999999987,0.0237278,0.0226344000000004,-0.0312593999999993,-0.023029,0,sub_12
-0.0113880000000001,-0.0022789999999987,0.02543,0.0251346000000004,-0.0474491999999993,-0.0257682,0,sub_12
-0.0119746000000001,-0.0035817999999987,0.026932,0.0250896000000004,-0.0604333999999992,-0.0287428,0,sub_12
-0.0130354000000001,-0.0051393999999987,0.0278283999999999,0.0224928000000004,-0.0721277999999993,-0.032378,0,sub_12
-0.0137982000000001,-0.0058767999999987,0.0274093999999999,0.0198566000000004,-0.0821231999999993,-0.0358462,0,sub_12
-0.0155306000000001,-0.0058649999999987,0.0263911999999999,0.0174338000000004,-0.0897851999999993,-0.0369658,0,sub_12
-0.0184132000000001,-0.0053249999999987,0.0243453999999999,0.0184266000000004,-0.0953353999999993,-0.036355,0,sub_12
-0.0211952000000002,-0.0045955999999987,0.0235633999999999,0.0209188000000004,-0.0979149999999993,-0.0340284,0,sub_12
-0.0243634000000001,-0.0048429999999987,0.0235975999999999,0.0234148000000004,-0.0987933999999993,-0.0308494,0,sub_12
-0.0267534000000001,-0.0056203999999987,0.0247089999999999,0.0253246000000004,-0.0979605999999993,-0.0276324,0,sub_12
-0.0286832000000001,-0.0054141999999987,0.025467,0.0257312000000004,-0.0996775999999993,-0.02485,0,sub_12
-0.0298358000000001,-0.0066143999999987,0.0262445999999999,0.0251082000000004,-0.0988525999999993,-0.0218128,0,sub_12
-0.0319902000000002,-0.0074701999999987,0.0257249999999999,0.0236412000000004,-0.0969549999999993,-0.0198512,0,sub_12
-0.0318654000000001,-0.0069449999999987,0.0248675999999999,0.0221800000000004,-0.0935669999999993,-0.0176776,0,sub_12
