userAcceleration.x,userAcceleration.y,userAcceleration.z,rotationRate.x,rotationRate.y,rotationRate.z,label,subject
-0.0157328000000002,0.0072540000000012,0.0248358,0.0036898000000004,-0.1183007999999992,0.0020727999999999,0,sub_11
-0.0135904000000001,0.0065098000000012,0.0236244,0.0038496000000004,-0.1323545999999992,-4.440000000005412e-05,0,sub_11
-0.0074966000000001,0.0077390000000012,0.020901,0.0030592000000004,-0.1470345999999992,0.0005857999999999,0,sub_11
-0.0045854000000001,0.0067462000000012,0.0190782,0.0020716000000004,-0.1566065999999992,0.0027033999999999,0,sub_11
-0.0045912000000001,0.0051284000000012,0.0168588,0.0015472000000004,-0.1608425999999992,0.0020401999999999,0,sub_11
-0.0021892000000001,0.0064488000000012,0.0139072,0.0005788000000004,-0.1682753999999992,0.0020187999999999,0,sub_11
0.0003685999999997,0.0080216000000012,0.0135898,-0.0001905999999995,-0.1772071999999993,0.0037099999999999,0,sub_11
-0.0023636000000002,0.0077864000000012,0.0131454,0.0021324000000004,-0.1821173999999993,0.0041597999999999,0,sub_11
-0.0035826000000002,0.0076994000000012,0.0105222,0.0055272000000004,-0.1874513999999993,0.0031221999999999,0,sub_11
-0.0014580000000002,0.0081280000000012,0.007957,0.0061270000000004,-0.1953409999999993,0.0042045999999999,0,sub_11
0.0013289999999997,0.0079388000000012,0.0070324,0.0041138000000004,-0.1995697999999993,0.0054379999999999,0,sub_11
0.0027573999999997,0.0080858000000012,0.0046624,0.0004560000000004,-0.1914293999999992,0.0051483999999999,0,sub_11
0.0052583999999997,0.0074932000000012,0.0019154,-0.0048635999999995,-0.1743305999999992,0.0037673999999999,0,sub_11
0.0085951999999997,0.0074692000000012,0.001113,-0.0103755999999995,-0.1529683999999993,0.0019523999999999,0,sub_11
0.0100789999999997,0.0082376000000012,-0.0003299999999999,-0.0135375999999995,-0.1301263999999993,0.0010065999999999,0,sub_11
0.0091089999999997,0.0076784000000012,-0.0011313999999999,-0.0155599999999995,-0.1054047999999993,0.0009605999999999,0,sub_11
0.0067587999999997,0.0060698000000012,-0.0020587999999999,-0.0156821999999995,-0.0851641999999993,0.0009337999999999,0,sub_11
0.0059617999999997,0.0076914000000012,-0.0005737999999999,-0.0158495999999995,-0.0732393999999993,0.0026265999999999,0,sub_11
0.0068419999999997,0.0104834000000012,0.0026946,-0.0177449999999995,-0.0645103999999993,0.0058067999999999,0,sub_11
0.0042307999999997,0.0098180000000012,0.0059356,-0.0211391999999995,-0.0502611999999993,0.0063725999999999,0,sub_11
0.0041293999999997,0.0091284000000012,0.005661,-0.0226091999999995,-0.0362273999999993,0.0058839999999999,0,sub_11
0.0097947999999997,0.0109418000000012,0.0060852,-0.0249413999999995,-0.0230471999999993,0.0064585999999999,0,sub_11
0.0142145999999997,0.0109262000000012,0.005508,-0.0274369999999995,0.0010004000000006,0.0068043999999999,0,sub_11
0.0137869999999997,0.0091560000000012,0.0010196,-0.0292645999999995,0.0313832000000006,0.0062879999999999,0,sub_11
0.0152593999999997,0.0113728000000012,-0.0031827999999999,-0.0312945999999995,0.0566814000000006,0.0075189999999999,0,sub_11
0.0125737999999997,0.0127322000000012,-0.0022695999999999,-0.0352603999999995,0.0779408000000006,0.0081007999999999,0,sub_11
0.0038113999999998,0.0124510000000011,0.000304,-0.0390145999999995,0.0970758000000006,0.0069775999999999,0,sub_11
-0.0053590000000001,0.0117996000000011,0.0012892,-0.0426139999999995,0.1025772000000007,0.0052321999999999,0,sub_11
-0.0110742000000001,0.0112580000000012,0.0053174,-0.0456135999999995,0.0987570000000007,0.0041479999999999,0,sub_11
-0.0150236000000001,0.0093488000000012,0.0113498,-0.0484037999999995,0.0934472000000007,0.0024261999999999,0,sub_11
-0.0151536000000001,0.0088312000000012,0.0152736,-0.0507709999999995,0.0885568000000007,0.0019885999999999,0,sub_11
-0.0130350000000002,0.0076132000000012,0.0154482,-0.0535735999999995,0.0825994000000007,0.0024039999999999,0,sub_11
-0.0099906000000002,0.0071458000000012,0.0168222,-0.0559885999999995,0.0763936000000007,0.0034309999999999,0,sub_11
-0.0079114000000001,0.0081464000000012,0.0190152,-0.0575395999999995,0.0725284000000007,0.0044611999999999,0,sub_11
-0.0063524000000001,0.0096542000000012,0.0200972,-0.0575949999999995,0.0699328000000006,0.0063547999999999,0,sub_11
-0.0056610000000001,0.0090210000000012,0.0203166,-0.0561605999999995,0.0669044000000006,0.0086865999999999,0,sub_11
-0.0039870000000001,0.0102950000000012,0.0229478,-0.0541159999999995,0.0593910000000006,0.0131647999999999,0,sub_11
-0.0025268000000001,0.0114936000000012,0.0248428,-0.0533267999999995,0.0521160000000006,0.0202299999999999,0,sub_11
-0.0039926000000001,0.0083458000000012,0.027405,-0.0514561999999995,0.0482454000000006,0.0275119999999999,0,sub_11
-0.0039980000000001,0.0060144000000012,0.0258788,-0.0461887999999995,0.0454166000000006,0.0328659999999999,0,sub_11
-0.0047526000000001,0.0046370000000012,0.024985,-0.0402679999999995,0.0445072000000006,0.0371539999999999,0,sub_11
-0.0049758000000001,0.0055954000000012,0.0191684,-0.0330821999999995,0.0378502000000006,0.0391079999999999,0,sub_11
-0.0078630000000001,0.0025946000000012,0.0130028,-0.0235501999999995,0.0275770000000006,0.0376647999999999,0,sub_11
-0.0059526000000001,0.0032762000000012,0.004592,-0.0140183999999995,0.0143328000000007,0.0332341999999999,0,sub_11
0.0008475999999997,0.0041562000000012,0.0048862,-0.0087195999999995,0.0030360000000006,0.0298673999999999,0,sub_11
0.0048069999999997,0.0032836000000012,0.0076556,-0.0061599999999995,-0.0005811999999993,0.0264715999999999,0,sub_11
0.0062093999999997,-0.0002077999999987,0.0126696,-0.0071577999999995,0.0092452000000006,0.0208973999999999,0,sub_11
0.0123195999999997,0.0029246000000012,0.0192856,-0.0104797999999995,0.0239808000000006,0.0150867999999999,0,sub_11
0.0155905999999997,0.0040056000000012,0.0268058,-0.0161423999999995,0.0427896000000006,0.0109397999999999,0,sub_11
0.0105699999999997,0.0026372000000012,0.0285154,-0.0205133999999995,0.0618164000000006,0.0044511999999999,0,sub_11
0.0082603999999997,0.0040010000000012,0.0269048,-0.0210743999999995,0.0744364000000007,-0.0015752,0,sub_11
0.0055531999999997,0.0037712000000012,0.025908,-0.0189007999999995,0.0817068000000006,-0.0041574,0,sub_11
0.0015703999999997,0.0016092000000012,0.0241364,-0.0161147999999995,0.0842816000000007,-0.0052336,0,sub_11
-0.0025874000000002,0.0014682000000012,0.0239482,-0.0129363999999995,0.0793702000000007,-0.0052052,0,sub_11
-0.0054718000000002,0.0027982000000012,0.0254226,-0.0093665999999995,0.0689084000000007,-0.0028166,0,sub_11
-0.0072920000000002,0.0041908000000012,0.0284432,-0.0055843999999995,0.0582330000000007,-0.0004264,0,sub_11
-0.0084338000000002,0.0031874000000012,0.0297642,-0.0010799999999995,0.0532154000000007,0.0008643999999999,0,sub_11
-0.0101862000000002,0.0022182000000012,0.0305412,0.0051266000000004,0.0469144000000006,0.0019549999999999,0,sub_11
-0.0098722000000002,0.0025988000000012,0.0293526,0.0111008000000004,0.0369896000000006,0.0036895999999999,0,sub_11
-0.0091104000000002,0.0024410000000012,0.0284816,0.0149574000000004,0.0298454000000006,0.0045511999999999,0,sub_11
-0.0090514000000002,0.0022474000000012,0.0265442,0.0164822000000004,0.0242084000000006,0.0034717999999999,0,sub_11
-0.0078712000000002,0.0045834000000012,0.0267075999999999,0.0171042000000004,0.0176116000000006,0.0009209999999999,0,sub_11
-0.0051760000000002,0.0072380000000012,0.0279811999999999,0.0166860000000004,0.0159232000000006,-0.0027116,0,sub_11
-0.0029796000000002,0.0063556000000012,0.029432,0.0169338000000004,0.0191362000000006,-0.0072004,0,sub_11
-0.0014604000000002,0.0051854000000012,0.0289075999999999,0.0184524000000004,0.0210630000000006,-0.0108241999999999,0,sub_11
-0.0013528000000002,0.0046726000000012,0.0270312,0.0190888000000004,0.0180864000000006,-0.0129521999999999,0,sub_11
-0.0007518000000002,0.0047964000000012,0.0268228,0.0188390000000004,0.0097790000000007,-0.0131569999999999,0,sub_11
-0.0016320000000002,0.0038126000000012,0.025871,0.0198820000000004,0.0038124000000007,-0.013783,0,sub_11
-0.0025424000000001,0.0049280000000012,0.021668,0.0232778000000004,-0.0015207999999993,-0.0150344,0,sub_11
-0.0016090000000001,0.0072910000000012,0.0188168,0.0270792000000004,-0.0115425999999992,-0.0162768,0,sub_11
0.0010905999999997,0.0077156000000012,0.0190536,0.0315574000000004,-0.0200489999999992,-0.0170934,0,sub_11
0.0013305999999997,0.0067844000000012,0.0205906,0.0341592000000004,-0.0200215999999992,-0.0192158,0,sub_11
0.0029151999999997,0.0071044000000012,0.0189042,0.0335366000000004,-0.0240361999999992,-0.0200738,0,sub_11
0.0049619999999997,0.0076710000000012,0.0196386,0.0292608000000004,-0.0323049999999992,-0.0194562,0,sub_11
0.0040827999999997,0.0065602000000012,0.0204074,0.0252252000000004,-0.0348211999999992,-0.019058,0,sub_11
0.0011833999999997,0.0056006000000012,0.0187972,0.0233220000000004,-0.0318283999999993,-0.0199296,0,sub_11
0.0007671999999997,0.0066050000000012,0.0133096,0.0245926000000004,-0.0345999999999993,-0.0205582,0,sub_11
2.2399999999783836e-05,0.0075104000000012,0.0122028,0.0279892000000004,-0.0392955999999993,-0.021383,0,sub_11
-0.0003838000000001,0.0079430000000012,0.014216,0.0322556000000004,-0.0407967999999993,-0.0226332,0,sub_11
0.0003913999999998,0.0076736000000012,0.0150064,0.0345950000000004,-0.0433581999999993,-0.0234682,0,sub_11
0.0027053999999997,0.0084218000000012,0.0161774,0.0345644000000004,-0.0482659999999992,-0.0215394,0,sub_11
0.0036639999999997,0.0083110000000012,0.0180332,0.0339138000000004,-0.0478485999999993,-0.018767,0,sub_11
0.0042735999999997,0.0056436000000012,0.0181022,0.0345750000000004,-0.0408293999999992,-0.0164212,0,sub_11
0.0027357999999997,0.0036090000000012,0.0141304,0.0362944000000004,-0.0350947999999993,-0.0134254,0,sub_11
0.0011161999999997,0.0062562000000012,0.0122448,0.0399428000000004,-0.0340877999999993,-0.0108424,0,sub_11
0.0004975999999997,0.0076900000000012,0.0122885999999999,0.0442390000000004,-0.0328639999999993,-0.0097508,0,sub_11
-0.0004576000000001,0.0074158000000012,0.0139886,0.0466244000000004,-0.0299273999999993,-0.009102,0,sub_11
-0.0039264000000001,0.0096984000000012,0.0123356,0.0451404000000004,-0.0329445999999993,-0.0080454,0,sub_11
-0.0061590000000001,0.0121298000000012,0.0123114,0.0397986000000004,-0.0410563999999992,-0.008291,0,sub_11
-0.0066176000000001,0.0099978000000012,0.01464,0.0316972000000004,-0.0408099999999992,-0.0096298,0,sub_11
-0.0073060000000001,0.0078924000000012,0.0128796,0.0225596000000004,-0.0362885999999992,-0.013545,0,sub_11
-0.0062198000000002,0.0075700000000012,0.0092686,0.0142382000000004,-0.0392303999999992,-0.0165904,0,sub_11
-0.0048218000000002,0.0083384000000012,0.0125184,0.0058408000000004,-0.0381545999999992,-0.0197022,0,sub_11
-0.0037640000000002,0.0090580000000012,0.0151957999999999,0.0002650000000004,-0.0274969999999993,-0.0238748,0,sub_11
-0.0033224000000001,0.0113418000000012,0.0131646,-0.0019005999999995,-0.0170667999999993,-0.0273824,0,sub_11
-0.0018902000000001,0.0131080000000012,0.0126106,-0.0021927999999995,-0.0143241999999992,-0.0280896,0,sub_11
-0.0055366000000001,0.0115868000000012,0.0129826,-0.0005521999999995,-0.0092429999999993,-0.0292136,0,sub_11
-0.0077638000000001,0.0079844000000012,0.0085382,0.0030980000000004,-0.0060521999999993,-0.031115,0,sub_11
-0.0051006000000001,0.0071882000000012,0.0035144,0.0054354000000004,-0.0081907999999993,-0.031096,0,sub_11
-0.0024176000000002,0.0076694000000012,0.0004662,0.0068896000000004,-0.0148091999999992,-0.028941,0,sub_11
-0.0010374000000002,0.0080712000000012,-0.0006011999999999,0.0081982000000004,-0.0148015999999992,-0.0266016,0,sub_11
0.0019811999999997,0.0083290000000012,-0.0022203999999999,0.0088848000000004,-0.0111683999999993,-0.0246984,0,sub_11
0.0062189999999997,0.0100546000000012,-0.0017945999999999,0.0095562000000004,-0.0107317999999993,-0.0225776,0,sub_11
0.0071537999999997,0.0110658000000012,0.000261,0.0102228000000004,-0.0111481999999993,-0.020242,0,sub_11
0.0082443999999997,0.0087592000000011,0.0004168,0.0102628000000004,-0.0096405999999993,-0.0189816,0,sub_11
0.0062187999999997,0.0053124000000011,-0.0013617999999999,0.0100514000000004,-0.0087893999999992,-0.0185568,0,sub_11
0.0059879999999997,0.0058644000000011,-0.0023231999999999,0.0087616000000004,-0.0102787999999993,-0.017923,0,sub_11
0.0065777999999997,0.0062538000000012,0.0011106,0.0065942000000004,-0.0080055999999992,-0.0162026,0,sub_11
0.0045633999999997,0.0050286000000012,0.0043112,0.0059232000000004,-0.0048863999999993,-0.0142592,0,sub_11
0.0003131999999997,0.0059576000000012,0.00783,0.0054560000000004,-0.0036859999999992,-0.0120982,0,sub_11
-0.0031902000000002,0.0076920000000012,0.0111852,0.0047638000000004,-0.0054659999999992,-0.0103624,0,sub_11
-0.0046342000000002,0.0087228000000012,0.0127274,0.0040544000000004,-0.0123541999999993,-0.009902,0,sub_11
-0.0064284000000001,0.0088162000000012,0.0103186,0.0016718000000004,-0.0215021999999992,-0.0111888,0,sub_11
-0.0056594000000002,0.0090916000000012,0.0072252,-0.0032587999999995,-0.0287201999999993,-0.0133506,0,sub_11
-0.0046268000000002,0.0080320000000011,0.0045082,-0.0098753999999995,-0.0314573999999993,-0.0157434,0,sub_11
7.699999999978349e-05,0.0081014000000011,0.0031066,-0.0160689999999995,-0.0335629999999993,-0.0166386,0,sub_11
0.0033815999999997,0.0066520000000011,0.0053398,-0.0199837999999995,-0.0269029999999993,-0.0164012,0,sub_11
0.0052319999999997,0.0049586000000012,0.0063938,-0.0213371999999995,-0.0177045999999993,-0.0137992,0,sub_11
0.0045851999999997,0.0028352000000011,0.0070308,-0.0207767999999995,-0.0097921999999992,-0.0109684,0,sub_11
0.0057487999999997,0.0041118000000012,0.0081092,-0.0198087999999995,-0.0059301999999992,-0.007916,0,sub_11
0.0070995999999997,0.0080992000000011,0.0117318,-0.0179893999999995,-0.0014361999999992,-0.0037902,0,sub_11
0.0075331999999997,0.0110786000000011,0.014799,-0.0162833999999995,0.0032254000000007,0.0011293999999999,0,sub_11
0.0019091999999997,0.0104280000000011,0.0153734,-0.0128617999999995,0.0091620000000007,0.0054185999999999,0,sub_11
-0.0004970000000002,0.0124634000000012,0.015716,-0.0070195999999995,0.0126430000000006,0.0095849999999999,0,sub_11
-0.0024240000000002,0.0108644000000011,0.0174982,0.0003000000000004,0.0127090000000006,0.0139797999999999,0,sub_11
-0.0091350000000002,0.0058432000000012,0.0187398,0.0052716000000004,0.0098116000000007,0.0155845999999999,0,sub_11
-0.0150220000000002,0.0048644000000012,0.0172258,0.0059642000000004,0.0016138000000006,0.0143889999999999,0,sub_11
-0.0117130000000002,0.0098222000000012,0.017891,0.0021606000000004,-0.0116747999999993,0.0114593999999999,0,sub_11
-0.0122796000000002,0.0091832000000012,0.0213276,-0.0036003999999995,-0.0163231999999993,0.0067249999999999,0,sub_11
-0.0092668000000002,0.0112512000000012,0.020082,-0.0095421999999995,-0.0160611999999992,-0.000367,0,sub_11
-0.0027256000000002,0.0137016000000012,0.018173,-0.0135731999999995,-0.0156021999999993,-0.0050958,0,sub_11
0.0003439999999997,0.0120380000000011,0.018878,-0.0155387999999995,-0.0073763999999992,-0.0084322,0,sub_11
0.0032339999999997,0.0108514000000011,0.0153506,-0.0176937999999995,0.0078740000000007,-0.01007,0,sub_11
0.0089359999999997,0.0131718000000011,0.0095668,-0.0230677999999995,0.0205730000000007,-0.0102314,0,sub_11
0.0136509999999997,0.0110682000000011,0.0090346,-0.0292761999999995,0.0396582000000007,-0.0082704,0,sub_11
0.0148311999999997,0.0095724000000011,0.0082212,-0.0341439999999995,0.0711002000000007,-0.0073842,0,sub_11
0.0174629999999997,0.0103896000000012,0.0036712,-0.0393777999999995,0.0939138000000007,-0.0070228,0,sub_11
0.0103479999999997,0.0088130000000012,0.003401,-0.0408149999999995,0.1054282000000007,-0.0081158,0,sub_11
0.0020125999999997,0.0072858000000012,0.0039168,-0.0363091999999995,0.1084056000000007,-0.0106518,0,sub_11
-0.0061452000000002,0.0087538000000012,0.0031326,-0.0312093999999995,0.1003052000000006,-0.0140242,0,sub_11
-0.0117050000000002,0.0075588000000012,0.0043066,-0.0317371999999995,0.0790582000000007,-0.0188724,0,sub_11
-0.0158856000000001,0.0070348000000012,0.008745,-0.0342111999999995,0.0537630000000006,-0.0220198,0,sub_11
-0.0127258000000001,0.0070640000000012,0.0142402,-0.0390437999999995,0.0291024000000007,-0.0219798,0,sub_11
-0.0090798000000001,0.0043724000000012,0.0190642,-0.0449921999999995,-0.0006907999999992,-0.0161728,0,sub_11
-0.0113228000000002,0.0002202000000012,0.024508,-0.0449603999999995,-0.0266799999999992,-0.007765,0,sub_11
-0.0138874000000002,-0.0014221999999987,0.0282548,-0.0348651999999995,-0.0499761999999992,0.0017357999999999,0,sub_11
-0.0137884000000002,-0.0044891999999987,0.03309,-0.0185697999999995,-0.0715849999999993,0.0102093999999999,0,sub_11
-0.0129882000000002,-0.0064185999999987,0.0382932,0.0001044000000004,-0.0880811999999992,0.0167701999999999,0,sub_11
-0.0111362000000002,-0.0037975999999987,0.0439514,0.0182266000000004,-0.0902791999999993,0.0179677999999999,0,sub_11
-0.0083766000000002,0.0009108000000012,0.0461956,0.0293230000000004,-0.0855095999999992,0.0147241999999999,0,sub_11
-0.0048052000000002,0.0069470000000012,0.0454392,0.0306542000000004,-0.0730221999999993,0.0079841999999999,0,sub_11
-0.0021072000000002,0.0133032000000012,0.0426566,0.0256016000000004,-0.0566775999999992,0.0011945999999999,0,sub_11
-0.0117834000000002,0.0141658000000012,0.037537,0.0164516000000004,-0.0492695999999992,-0.0049712,0,sub_11
-0.0305318000000002,0.0146804000000011,0.029485,0.0027384000000004,-0.0593195999999992,-0.0102918,0,sub_11
-0.0481780000000002,0.0163388000000012,0.021346,-0.0112227999999995,-0.0871511999999992,-0.0178312,0,sub_11
-0.0478322000000002,0.0142874000000012,0.0127126,-0.0209251999999995,-0.1196737999999993,-0.0281122,0,sub_11
-0.0333068000000001,0.0114542000000012,0.0046532,-0.0301571999999995,-0.1425403999999993,-0.0387694,0,sub_11
-0.0020906000000001,0.0119980000000011,-0.0014323999999999,-0.0411769999999995,-0.1372721999999993,-0.050757,0,sub_11
0.0379761999999998,0.0111512000000011,-0.0056421999999999,-0.0522395999999995,-0.0915333999999993,-0.0602332,0,sub_11
0.0787543999999998,0.0092040000000011,-0.0097225999999999,-0.0632013999999995,-0.0121773999999993,-0.0584286,0,sub_11
0.0967563999999997,0.0077202000000011,-0.0110839999999999,-0.0675889999999995,0.0713638000000006,-0.0433376,0,sub_11
0.0875421999999997,0.0024378000000011,-0.0143629999999999,-0.0611911999999995,0.1413428000000006,-0.0198818,0,sub_11
0.0620265999999997,-0.0025035999999987,-0.0165407999999999,-0.0422077999999995,0.1716152000000007,0.0122585999999999,0,sub_11
0.0280497999999997,-0.0078639999999987,-0.0143871999999999,-0.0125763999999995,0.1541086000000006,0.0488075999999999,0,sub_11
-0.0190820000000002,-0.0119457999999987,-0.0054623999999999,0.0237286000000004,0.0973960000000007,0.0805395999999999,0,sub_11
-0.0492644000000002,-0.0084483999999987,0.0040682,0.0576664000000004,0.0184026000000007,0.1007871999999999,0,sub_11
-0.0605770000000002,-0.0012175999999987,0.0175832,0.0867610000000004,-0.0598799999999992,0.1073267999999999,0,sub_11
-0.0519404000000002,0.0031218000000012,0.0341265999999999,0.1024222000000004,-0.1031161999999992,0.0991997999999999,0,sub_11
-0.0316638000000002,0.0079478000000012,0.0493989999999999,0.0989034000000004,-0.1055437999999992,0.0789223999999999,0,sub_11
0.0006925999999997,0.0121844000000012,0.0592271999999999,0.0789140000000004,-0.0750807999999992,0.0529329999999999,0,sub_11
0.0118617999999998,0.0160016000000012,0.064621,0.0466458000000004,-0.0171245999999992,0.0263549999999999,0,sub_11
0.0109721999999998,0.0168414000000012,0.0569996,0.0082272000000004,0.0500112000000007,0.0005769999999999,0,sub_11
0.0010009999999998,0.0177366000000012,0.0426244,-0.0256323999999995,0.0906974000000006,-0.0215034,0,sub_11
-0.0119784000000001,0.0172536000000012,0.0257178,-0.0465683999999995,0.0936926000000006,-0.0393358,0,sub_11
-0.0230238000000001,0.0172774000000012,0.0095984,-0.0557127999999995,0.0655250000000006,-0.0532002,0,sub_11
-0.0248118000000001,0.0105500000000012,-0.0046795999999999,-0.0545445999999995,0.0155494000000007,-0.0569234,0,sub_11
-0.0169096000000001,0.0053424000000012,-0.0096871999999999,-0.0436447999999995,-0.0400517999999992,-0.0475392,0,sub_11
-0.0019172000000001,0.0014604000000012,-0.0076929999999999,-0.0228791999999995,-0.0748463999999992,-0.0284986,0,sub_11
0.0134425999999998,-0.0035395999999987,-0.0023785999999999,0.0032382000000004,-0.0797197999999992,-0.0045954,0,sub_11
0.0281931999999998,-0.0065373999999987,0.0055006,0.0298926000000004,-0.0596693999999992,0.0197067999999999,0,sub_11
0.0401505999999997,-0.0056977999999987,0.0142746,0.0514024000000004,-0.0221059999999992,0.0392771999999999,0,sub_11
0.0457583999999997,-0.0020481999999987,0.0228546,0.0616696000000004,0.0221340000000007,0.0506419999999999,0,sub_11
0.0415127999999997,0.0042082000000012,0.0255848,0.0617554000000004,0.0696466000000007,0.0516763999999999,0,sub_11
0.0349715999999997,0.0119094000000012,0.025381,0.0550534000000004,0.1172188000000006,0.0436903999999999,0,sub_11
0.0273841999999997,0.0158572000000012,0.02185,0.0440726000000004,0.1556710000000007,0.0290631999999999,0,sub_11
0.0170097999999997,0.0164082000000011,0.0201404,0.0359486000000004,0.1847350000000006,0.0140141999999999,0,sub_11
0.0040939999999997,0.0144256000000011,0.01697,0.0357194000000004,0.2152568000000006,0.0005137999999999,0,sub_11
-0.0043920000000002,0.0115668000000012,0.0148236,0.0364708000000004,0.2331782000000007,-0.0063404,0,sub_11
-0.0109194000000002,0.0115924000000011,0.015134,0.0351926000000004,0.2336088000000007,-0.00635,0,sub_11
-0.0191474000000002,0.0135160000000011,0.0180778,0.0346202000000004,0.2329306000000007,-0.0035114,0,sub_11
-0.0219336000000002,0.0149824000000011,0.0192128,0.0311028000000004,0.2367564000000007,-0.005613,0,sub_11
-0.0192618000000002,0.0165228000000011,0.0213366,0.0250270000000004,0.2350756000000006,-0.0137074,0,sub_11
-0.0184988000000002,0.0141912000000011,0.0228106,0.0168798000000004,0.2415212000000006,-0.0275952,0,sub_11
-0.0193250000000002,0.0099396000000012,0.020277,0.0049128000000004,0.2496966000000006,-0.0445028,0,sub_11
-0.0178290000000002,0.0095152000000012,0.0123274,-0.0099617999999995,0.2504398000000006,-0.0576399999999999,0,sub_11
-0.0159854000000002,0.0096784000000012,0.0045198,-0.0259713999999995,0.2413652000000006,-0.0654313999999999,0,sub_11
-0.0132252000000002,0.0123356000000012,-0.0022885999999999,-0.0452459999999995,0.2224834000000006,-0.0687465999999999,0,sub_11
-0.0111938000000002,0.0125666000000012,-0.0084809999999999,-0.0600529999999995,0.1882476000000006,-0.0662411999999999,0,sub_11
-0.0080460000000002,0.0103462000000012,-0.0137103999999999,-0.0646927999999995,0.1452092000000006,-0.0557486,0,sub_11
-0.0071186000000002,0.0017952000000012,-0.0151789999999999,-0.0572125999999995,0.0999688000000006,-0.0379046,0,sub_11
