userAcceleration.x,userAcceleration.y,userAcceleration.z,rotationRate.x,rotationRate.y,rotationRate.z,label,subject
0.0380559999999996,-0.0008277999999987,0.0023599999999999,-0.0180657999999995,0.0078756000000009,-0.0066333999999999,0,sub_3
0.0379045999999996,0.0001248000000012,0.0035879999999999,-0.0189753999999995,0.0058898000000009,-0.0064363999999999,0,sub_3
0.0380051999999997,0.0012042000000012,0.0046943999999999,-0.0186039999999995,0.0043250000000009,-0.0060173999999999,0,sub_3
0.0379053999999997,0.0008714000000012,0.0049475999999999,-0.0180181999999995,0.0038212000000009,-0.0047435999999999,0,sub_3
0.0381493999999997,0.0007458000000012,0.0053667999999999,-0.0170055999999995,0.0028914000000009,-0.0038935999999999,0,sub_3
0.0382841999999997,0.0005760000000012,0.0055561999999999,-0.0174893999999995,0.0013278000000009,-0.0030533999999999,0,sub_3
0.0384339999999997,-0.0004985999999987,0.0055267999999999,-0.0189877999999995,0.0004800000000009,-0.0028492,0,sub_3
0.0380189999999997,-0.0007649999999987,0.0058607999999999,-0.0207003999999995,-0.001004599999999,-0.003073,0,sub_3
0.0374105999999997,-0.0004781999999987,0.0065721999999999,-0.0211727999999995,-0.002779199999999,-0.0035039999999999,0,sub_3
0.0374245999999997,0.0001970000000012,0.0067161999999998,-0.0203657999999995,-0.003710199999999,-0.0028587999999999,0,sub_3
0.0382065999999997,0.0015816000000012,0.0074033999999998,-0.0180623999999995,-0.005492799999999,-0.0036973999999999,0,sub_3
0.0379765999999997,0.0025552000000012,0.0071211999999998,-0.0144817999999995,-0.006433599999999,-0.0030327999999999,0,sub_3
0.0373271999999997,0.0026712000000012,0.0071073999999998,-0.0108991999999995,-0.006311599999999,-0.0017285999999999,0,sub_3
0.0374019999999997,0.0025394000000012,0.0079565999999999,-0.0074927999999995,-0.006542599999999,-0.000209,0,sub_3
0.0372101999999996,0.0017458000000012,0.0086975999999999,-0.0045047999999995,-0.005915599999999,0.0002383999999999,0,sub_3
0.0364053999999996,0.0005514000000012,0.0086541999999999,-0.0025797999999995,-0.003583799999999,0.0015305999999999,0,sub_3
0.0359317999999996,0.0003628000000012,0.0092007999999999,-0.0021415999999995,-0.001240799999999,0.0013169999999999,0,sub_3
0.0361053999999996,4.420000000124231e-05,0.0097691999999999,-0.0021789999999995,0.0004122000000009,2.539999999996278e-05,0,sub_3
0.0359695999999996,-0.0001327999999987,0.0094269999999999,-0.0028535999999995,0.0022822000000009,-0.0016982,0,sub_3
0.0360035999999996,0.0003786000000012,0.0091051999999999,-0.0043845999999995,0.0039404000000009,-0.0030004,0,sub_3
0.0359431999999996,0.0011044000000012,0.0091859999999999,-0.0050687999999994,0.0045288000000009,-0.0038678,0,sub_3
0.0360831999999996,0.0012182000000012,0.0095921999999999,-0.0044707999999994,0.0057510000000009,-0.0045136,0,sub_3
0.0358187999999996,0.0018304000000012,0.0096579999999999,-0.0027579999999994,0.0080844000000009,-0.0034364,0,sub_3
0.0353309999999996,0.0023280000000012,0.0091967999999999,-0.0014711999999994,0.0106324000000009,-0.0023624,0,sub_3
0.0347319999999996,0.0027944000000012,0.0088459999999998,3.300000000048904e-05,0.0138196000000009,-0.0015013999999999,0,sub_3
0.0343171999999996,0.0029354000000012,0.0084817999999998,0.0013008000000004,0.0175826000000009,-0.0006419999999999,0,sub_3
0.0347225999999996,0.0035546000000012,0.0081029999999998,0.0017130000000004,0.0209224000000009,0.0002122,0,sub_3
0.0346611999999996,0.0032250000000012,0.0076817999999998,0.0010592000000004,0.0234180000000009,-8.399999999997375e-06,0,sub_3
0.0348875999999996,0.0031964000000012,0.0070045999999998,0.0012610000000004,0.0259124000000009,-0.0006501999999999,0,sub_3
0.0354167999999996,0.0026300000000012,0.0065731999999999,0.0025230000000004,0.0273362000000009,-0.0008558,0,sub_3
0.0355515999999996,0.0019258000000012,0.0057383999999999,0.0038090000000004,0.0283978000000009,-0.0010618,0,sub_3
0.0355969999999996,0.0013334000000012,0.0043949999999999,0.0050894000000004,0.0273324000000009,-0.0021197999999999,0,sub_3
0.0358011999999996,0.0008996000000012,0.0034387999999999,0.0070196000000004,0.0255616000000009,-0.0029477999999999,0,sub_3
0.0369603999999996,0.0002674000000012,0.0031369999999999,0.0085210000000004,0.0235782000000009,-0.0035649999999999,0,sub_3
0.0391701999999997,-0.0005811999999987,0.0032969999999999,0.0087354000000004,0.0201080000000009,-0.0041891999999999,0,sub_3
0.0416343999999997,-0.0010431999999987,0.0041547999999999,0.0072380000000004,0.0151540000000009,-0.0052507999999999,0,sub_3
0.0444021999999997,-0.0018107999999987,0.0054119999999999,0.0046746000000004,0.0110534000000008,-0.0056798,0,sub_3
0.0475261999999997,-0.0012969999999987,0.0062413999999999,0.0003974000000004,0.0095742000000008,-0.0050668,0,sub_3
0.0506153999999997,0.0002586000000012,0.0089205999999999,-0.0030395999999995,0.0053218000000009,-0.0042308,0,sub_3
0.0529041999999997,0.0021518000000012,0.0109855999999999,-0.0047925999999995,-0.003837799999999,-0.0031632,0,sub_3
0.0522831999999997,0.0040176000000012,0.0106839999999999,-0.0026533999999995,-0.011141199999999,-0.000346,0,sub_3
0.0482801999999997,0.0044088000000012,0.0099095999999999,0.0029238000000004,-0.0127057999999989,0.0029149999999999,0,sub_3
0.0467853999999997,0.0030650000000012,0.0085893999999999,0.0132220000000004,-0.0095945999999989,0.0049211999999999,0,sub_3
0.0478809999999996,0.0004248000000012,0.0052781999999999,0.0233010000000004,-0.0066999999999989,0.0079943999999999,0,sub_3
0.0501569999999996,-0.0010885999999987,0.0019611999999999,0.0314538000000004,-0.005501399999999,0.0106289999999999,0,sub_3
0.0528683999999996,-0.0018175999999987,0.0016699999999999,0.0378366000000004,-0.010420599999999,0.0098251999999999,0,sub_3
0.0556331999999996,-0.0010833999999987,0.0021745999999999,0.0439966000000004,-0.019591599999999,0.0068889999999999,0,sub_3
0.0548549999999996,0.0005098000000012,0.0050401999999999,0.0490936000000004,-0.028118799999999,0.0037308,0,sub_3
0.0504977999999996,0.0016550000000012,0.0091289999999999,0.0544518000000004,-0.026630799999999,-7.939999999999719e-05,0,sub_3
0.0438957999999996,0.0019410000000012,0.0132637999999999,0.0605692000000004,-0.010886399999999,-0.0047449999999999,0,sub_3
0.0402289999999996,0.0019628000000012,0.0169669999999999,0.0661020000000004,0.0170052000000009,-0.0096437999999999,0,sub_3
0.0389129999999997,0.0008052000000012,0.0195519999999999,0.0663272000000004,0.0500320000000009,-0.015441,0,sub_3
0.0405623999999997,-0.0006721999999987,0.0201037999999999,0.0586538000000004,0.0792636000000009,-0.0242794,0,sub_3
0.0448001999999997,-0.0018495999999987,0.0189865999999998,0.0437182000000004,0.1023598000000009,-0.0376472,0,sub_3
0.0490073999999997,-0.0034117999999987,0.0175645999999998,0.0240116000000004,0.1186784000000009,-0.05212,0,sub_3
0.0543723999999996,-0.0062963999999987,0.0147689999999998,0.0025732000000004,0.1290390000000009,-0.0670244,0,sub_3
0.0608713999999996,-0.0078525999999987,0.0121705999999998,-0.0152291999999995,0.1333854000000009,-0.0812422,0,sub_3
0.0667039999999996,-0.0087945999999987,0.0105751999999998,-0.0264571999999994,0.1319434000000009,-0.0922021999999999,0,sub_3
0.0709019999999996,-0.0085117999999987,0.0096073999999999,-0.0283389999999994,0.1259750000000009,-0.0981771999999999,0,sub_3
0.0758197999999996,-0.0067811999999987,0.0093569999999999,-0.0223403999999995,0.1191172000000009,-0.1017458,0,sub_3
0.0790253999999996,-0.0041663999999987,0.0096195999999999,-0.0114457999999995,0.1132932000000009,-0.1016497999999999,0,sub_3
0.0782951999999996,-0.0018989999999987,0.0104181999999999,0.0023986000000004,0.1081298000000009,-0.1011192,0,sub_3
0.0751703999999996,-0.0003027999999987,0.0118297999999999,0.0169040000000004,0.1065902000000009,-0.1016568,0,sub_3
0.0710415999999996,-0.0008407999999987,0.0139161999999999,0.0299398000000004,0.1084724000000009,-0.1041318,0,sub_3
0.0658833999999996,-0.0016009999999987,0.0161095999999999,0.0391426000000004,0.1097384000000009,-0.108983,0,sub_3
0.0601079999999996,-0.0027893999999987,0.0179629999999999,0.0451662000000004,0.1084010000000009,-0.1176862,0,sub_3
0.0585065999999996,-0.0051445999999987,0.0208811999999999,0.0477566000000004,0.1021780000000009,-0.1270482,0,sub_3
0.0610603999999996,-0.0060939999999987,0.0235213999999999,0.0451774000000004,0.0846828000000009,-0.136859,0,sub_3
0.0674599999999996,-0.0058223999999987,0.0255837999999999,0.0382914000000004,0.0571940000000009,-0.147969,0,sub_3
0.0764207999999996,-0.0063253999999987,0.0255241999999999,0.0298924000000004,0.0250250000000009,-0.1595108,0,sub_3
0.0849227999999996,-0.0075245999999987,0.0254497999999999,0.0189040000000004,-0.008771399999999,-0.1697992,0,sub_3
0.0893381999999997,-0.0067693999999987,0.0255415999999999,0.0057964000000004,-0.037454999999999,-0.178186,0,sub_3
0.0902459999999996,-0.0060453999999987,0.0257353999999999,-0.0049355999999995,-0.054874399999999,-0.181657,0,sub_3
0.0853963999999996,-0.0062159999999987,0.0261241999999999,-0.0132835999999995,-0.058107999999999,-0.1789222,0,sub_3
0.0806187999999997,-0.0042151999999987,0.0283507999999999,-0.0184077999999995,-0.052632199999999,-0.1725439999999999,0,sub_3
0.0775007999999997,-0.0024883999999987,0.0315351999999999,-0.0198893999999995,-0.042274799999999,-0.1646512,0,sub_3
0.0736403999999997,-0.0023769999999987,0.0323049999999999,-0.0224293999999995,-0.028510599999999,-0.1552745999999999,0,sub_3
0.0679487999999997,-0.0014743999999987,0.0317799999999999,-0.0277335999999995,-0.014516199999999,-0.1478403999999999,0,sub_3
0.0647327999999997,0.0006384000000012,0.0308011999999999,-0.0351613999999994,-0.001934599999999,-0.1442764,0,sub_3
0.0612709999999997,-0.0006979999999987,0.0293667999999999,-0.0462203999999994,0.0098076000000009,-0.1407368,0,sub_3
0.0575023999999996,-0.0007753999999987,0.0286891999999999,-0.0613611999999994,0.0189928000000009,-0.1335904,0,sub_3
0.0569677999999996,0.0001762000000012,0.0287035999999999,-0.0748113999999995,0.0273086000000009,-0.1236538,0,sub_3
0.0518519999999996,-0.0001399999999987,0.0263613999999999,-0.0826811999999995,0.0449710000000009,-0.1115536,0,sub_3
0.0445347999999996,-0.0006817999999987,0.0232631999999999,-0.0832445999999995,0.0760228000000009,-0.0974968,0,sub_3
0.0353575999999996,-0.0016147999999987,0.0192985999999999,-0.0747801999999995,0.1204706000000009,-0.084676,0,sub_3
0.0290953999999997,-0.0020913999999987,0.0136353999999999,-0.0596335999999995,0.1723708000000009,-0.077368,0,sub_3
0.0236957999999997,-0.0024063999999987,0.0085847999999999,-0.0399887999999995,0.2225732000000009,-0.0755812,0,sub_3
0.0267711999999997,-0.0030675999999987,0.0059867999999999,-0.0205899999999995,0.2589542000000009,-0.0804016,0,sub_3
0.0321045999999997,-0.0047967999999987,0.0049103999999999,-0.0046875999999995,0.2723562000000009,-0.089917,0,sub_3
0.0387613999999997,-0.0055203999999987,0.0038783999999999,0.0062018000000004,0.2623394000000009,-0.0994374,0,sub_3
0.0395851999999996,-0.0051433999999987,0.0029445999999999,0.0161574000000004,0.2408074000000009,-0.1046814,0,sub_3
0.0374907999999997,-0.0040013999999987,0.0009845999999999,0.0263064000000004,0.2188322000000009,-0.1058644,0,sub_3
0.0318275999999997,-0.0016343999999987,-0.000973,0.0379710000000004,0.2074814000000009,-0.1012818,0,sub_3
0.0244143999999997,0.0019802000000012,-0.0026126,0.0507590000000004,0.2127288000000008,-0.0926534,0,sub_3
0.0159877999999996,0.0038654000000012,-0.0034762,0.0632046000000004,0.2350290000000009,-0.0857584,0,sub_3
0.0123809999999997,0.0034992000000012,-0.0035818,0.0737856000000004,0.2643878000000009,-0.0842266,0,sub_3
0.0123925999999997,0.0029760000000012,-0.0027432,0.0811744000000004,0.2910068000000009,-0.0874136,0,sub_3
0.0141519999999996,0.0049316000000012,0.0001643999999999,0.0883250000000004,0.3106018000000009,-0.0920888,0,sub_3
0.0152523999999996,0.0050584000000012,0.0036539999999999,0.0939446000000004,0.3233784000000009,-0.0952706,0,sub_3
0.0177351999999996,0.0062522000000012,0.0078347999999999,0.0986588000000004,0.3284726000000009,-0.0946034,0,sub_3
0.0194853999999996,0.0082262000000012,0.0116691999999999,0.1009714000000004,0.3275848000000009,-0.0877496,0,sub_3
0.0196437999999996,0.0106222000000012,0.0142333999999999,0.1030342000000004,0.3228460000000009,-0.0766196,0,sub_3
0.0184919999999996,0.0086192000000012,0.0147009999999999,0.1046606000000004,0.3164024000000009,-0.0650632,0,sub_3
0.0171333999999996,0.0070180000000011,0.0120841999999999,0.1099278000000004,0.3127166000000009,-0.0536986,0,sub_3
0.0139543999999997,0.0074852000000011,0.0092367999999999,0.1246190000000004,0.3173054000000009,-0.0418514,0,sub_3
0.0092851999999997,0.0090602000000012,0.0067333999999999,0.1521420000000004,0.3271810000000009,-0.0312032,0,sub_3
0.0017283999999997,0.0129124000000012,0.0086959999999999,0.1946290000000004,0.3416974000000009,-0.0219519999999999,0,sub_3
-0.0052530000000003,0.0164500000000012,0.0096699999999999,0.2433652000000004,0.3706766000000009,-0.0118211999999999,0,sub_3
-0.0096412000000003,0.0206194000000012,0.0124383999999999,0.2900032000000004,0.4079706000000008,-0.0012881999999999,0,sub_3
-0.0109020000000003,0.0209496000000012,0.0128309999999999,0.3253246000000004,0.4438118000000008,0.0093811999999999,0,sub_3
-0.0104384000000003,0.0205306000000012,0.0108793999999999,0.3512654000000005,0.4826634000000009,0.0212629999999999,0,sub_3
-0.0068428000000003,0.0162210000000012,0.0057341999999999,0.3648344000000004,0.5236836000000009,0.0343373999999999,0,sub_3
-0.0010038000000003,0.0124120000000012,0.0021637999999999,0.3717486000000004,0.5530200000000008,0.0446029999999999,0,sub_3
0.0083483999999996,0.0062170000000012,-0.000885,0.3764744000000004,0.5678856000000009,0.0525217999999999,0,sub_3
0.0152051999999996,0.0029144000000012,-0.0008672,0.3798558000000004,0.568269200000001,0.0602361999999999,0,sub_3
0.0199855999999996,-0.0013481999999987,0.0014735999999999,0.3786932000000004,0.5546068000000008,0.0679367999999999,0,sub_3
0.0242229999999997,-0.0063403999999987,0.0030533999999999,0.3732420000000004,0.5371210000000008,0.0764669999999999,0,sub_3
0.0262715999999996,-0.0092519999999987,0.0037055999999999,0.3637222000000004,0.516241400000001,0.0847593999999999,0,sub_3
0.0260765999999996,-0.0076937999999987,0.0037789999999999,0.3486634000000004,0.4934792000000009,0.0891697999999999,0,sub_3
0.0300671999999996,-0.0055331999999987,0.0008485999999999,0.3293908000000004,0.475235600000001,0.0860673999999999,0,sub_3
0.0344439999999996,-0.0025055999999987,-0.002293,0.3061006000000004,0.4591606000000009,0.0769523999999999,0,sub_3
0.0387841999999996,-0.0001491999999987,-0.0051578,0.2789572000000004,0.4377830000000009,0.0652533999999999,0,sub_3
0.0438505999999996,-0.0003423999999987,-0.006545,0.2485816000000004,0.4079004000000009,0.0520471999999999,0,sub_3
0.0479553999999996,-0.0037703999999987,-0.006751,0.2156110000000004,0.3703568000000009,0.0388327999999999,0,sub_3
0.0485127999999996,-0.0077669999999987,-0.0045992,0.1832326000000004,0.3240682000000009,0.0275565999999999,0,sub_3
0.0476579999999996,-0.0073055999999987,-0.002682,0.1516770000000004,0.2728688000000009,0.018215,0,sub_3
0.0460407999999996,-0.0028377999999987,-0.0002562,0.1209902000000004,0.2223166000000009,0.0061014,0,sub_3
0.0438541999999996,0.0014880000000012,0.0011839999999999,0.0916202000000004,0.1796438000000009,-0.0062267999999999,0,sub_3
0.0405047999999996,0.0042646000000012,-8.100000000006922e-05,0.0688934000000004,0.1456736000000009,-0.0161697999999999,0,sub_3
0.0371331999999996,0.0084520000000012,-0.0011516,0.0538854000000004,0.1227442000000009,-0.0232956,0,sub_3
0.0342789999999996,0.0077786000000012,-0.00331,0.0421018000000004,0.1070398000000009,-0.0284851999999999,0,sub_3
0.0319535999999996,0.0046938000000012,-0.0048872,0.0360690000000004,0.0904570000000009,-0.0321381999999999,0,sub_3
0.0319229999999997,0.0039124000000012,-0.0053754,0.0349130000000004,0.0700102000000009,-0.032761,0,sub_3
0.0323529999999997,0.0057864000000012,-0.003341,0.0356524000000004,0.0465636000000009,-0.0308029999999999,0,sub_3
0.0318987999999997,0.0050424000000012,-0.0005796,0.0363824000000004,0.0271404000000009,-0.0226545999999999,0,sub_3
0.0316173999999997,0.0058184000000012,0.0014613999999999,0.0394852000000004,0.0149468000000009,-0.0130034,0,sub_3
0.0293267999999996,0.0104430000000012,-0.0025412,0.0492838000000004,0.0114512000000009,-0.0039368,0,sub_3
0.0263751999999997,0.0168570000000012,-0.00522,0.0768470000000004,0.0132472000000009,-0.0015896,0,sub_3
0.0234591999999996,0.0233278000000012,-0.0038712,0.1110746000000004,0.0180354000000009,-0.0073181999999999,0,sub_3
0.0212123999999997,0.0272656000000012,0.0016871999999999,0.1410444000000004,0.0164810000000009,-0.0216139999999999,0,sub_3
0.0193639999999996,0.0291540000000012,0.0051425999999999,0.1620354000000004,0.0092130000000009,-0.0378882,0,sub_3
0.0204873999999997,0.0309850000000012,0.0075525999999999,0.1759478000000004,0.0047466000000009,-0.0518858,0,sub_3
0.0214239999999997,0.0303368000000012,0.0024055999999999,0.1923794000000004,-0.001462799999999,-0.0583859999999999,0,sub_3
0.0229269999999997,0.0303566000000012,-0.0043748,0.2381952000000004,-0.015681199999999,-0.0589022,0,sub_3
0.0248299999999996,0.0298222000000012,-0.0054178,0.3038150000000004,-0.030852799999999,-0.0513742,0,sub_3
0.0262123999999996,0.0247734000000012,-0.001325,0.3655704000000004,-0.038817199999999,-0.0312774,0,sub_3
0.0244951999999996,0.0172280000000012,0.0037547999999999,0.4093842000000004,-0.045886399999999,-0.0063932,0,sub_3
0.0235527999999996,0.0106460000000012,0.0081119999999999,0.4268118000000004,-0.044523599999999,0.0106045999999999,0,sub_3
0.0227521999999996,0.0046296000000012,0.0131687999999999,0.4065394000000004,-0.038088399999999,0.0172913999999999,0,sub_3
0.0236435999999996,0.0015128000000012,0.0125603999999999,0.3596522000000004,-0.030448799999999,0.0122537999999999,0,sub_3
0.0258629999999996,0.0017826000000012,0.0130709999999999,0.3075014000000005,-0.019544599999999,-0.0054296,0,sub_3
0.0300661999999996,-0.0001931999999987,0.0153313999999999,0.2547586000000004,-0.001380599999999,-0.0265448,0,sub_3
0.0313517999999996,-0.0034607999999987,0.0175945999999999,0.1975234000000004,0.0174254000000009,-0.0444874,0,sub_3
0.0321485999999996,-0.0064143999999987,0.0159477999999999,0.1394596000000004,0.0458056000000009,-0.058389,0,sub_3
0.0314195999999996,-0.0084211999999987,0.0105511999999999,0.0876066000000004,0.0803386000000009,-0.0711868,0,sub_3
0.0325081999999996,-0.0092997999999987,0.0037251999999999,0.0481198000000004,0.1124856000000009,-0.0841087999999999,0,sub_3
0.0343283999999996,-0.0106709999999987,0.0007563999999999,0.0190468000000004,0.1354346000000009,-0.0969463999999999,0,sub_3
0.0386711999999996,-0.0111783999999987,0.0028077999999999,-0.0094291999999995,0.1538870000000008,-0.1046465999999999,0,sub_3
0.0419183999999996,-0.0128147999999987,0.0014783999999999,-0.0464945999999995,0.1699864000000009,-0.1025759999999999,0,sub_3
0.0428465999999996,-0.0132255999999987,-0.0034048,-0.0827437999999995,0.1854128000000009,-0.0928075999999999,0,sub_3
0.0430763999999996,-0.0145599999999987,-0.0066856,-0.1141153999999995,0.1935810000000009,-0.0836368,0,sub_3
0.0438387999999996,-0.0166563999999987,-0.009677,-0.1444409999999995,0.1970584000000009,-0.0744526,0,sub_3
0.0427211999999996,-0.0193513999999987,-0.0107502,-0.1720139999999995,0.1985974000000009,-0.0624693999999999,0,sub_3
0.0415975999999996,-0.0226253999999987,-0.008194,-0.1953501999999995,0.1941526000000009,-0.0495944,0,sub_3
0.0404581999999996,-0.0183779999999987,-2.4000000000069105e-05,-0.2231825999999995,0.1873756000000009,-0.0356796,0,sub_3
0.0422737999999996,-0.0233159999999987,0.0077237999999999,-0.2589087999999995,0.1778684000000009,-0.0248074,0,sub_3
0.0455609999999996,-0.0120149999999987,0.0171431999999999,-0.2959057999999995,0.1728304000000009,-0.0115998,0,sub_3
0.0471445999999996,0.0042674000000012,0.0233309999999999,-0.3354553999999995,0.1642008000000009,-0.0037464,0,sub_3
0.0459003999999997,0.0213850000000012,0.0263459999999999,-0.3691989999999995,0.1583496000000009,-0.00312,0,sub_3
0.0440923999999997,0.0227374000000012,0.0213069999999999,-0.3896673999999995,0.1544030000000009,-0.0107354,0,sub_3
0.0392267999999997,0.0249554000000012,0.0095267999999999,-0.3900337999999995,0.1606120000000009,-0.01801,0,sub_3
0.0337733999999997,0.0153618000000012,-0.0051032,-0.3680103999999995,0.1639712000000009,-0.0246972,0,sub_3
0.0342207999999996,0.0002784000000012,-0.016109,-0.3223313999999995,0.1695564000000009,-0.0224626,0,sub_3
0.0381175999999996,-0.0140773999999987,-0.0218782,-0.2692465999999995,0.1725138000000009,-0.0088498,0,sub_3
0.0430899999999996,-0.0181683999999987,-0.0232614,-0.2198535999999995,0.1671510000000009,0.0107299999999999,0,sub_3
0.0481741999999996,-0.0103693999999987,-0.019619,-0.1863361999999995,0.1435172000000009,0.0310769999999999,0,sub_3
0.0532103999999996,-0.0049397999999987,-0.0128562,-0.1716291999999994,0.1029432000000009,0.0417003999999999,0,sub_3
0.0548721999999996,0.0015510000000012,-0.0070152,-0.1694977999999995,0.0545736000000009,0.0413499999999999,0,sub_3
0.0542111999999996,0.0085772000000012,-0.0031134,-0.1705295999999995,0.0092192000000009,0.0356325999999999,0,sub_3
0.0518937999999996,0.0129102000000012,-0.0005566,-0.1702427999999995,-0.024858999999999,0.0326871999999999,0,sub_3
0.0452019999999997,0.0143066000000012,0.0006337999999999,-0.1613559999999995,-0.044479199999999,0.0297833999999999,0,sub_3
0.0367561999999997,0.0128922000000012,0.0002363999999999,-0.1511427999999995,-0.055362799999999,0.0253819999999999,0,sub_3
0.0313467999999996,0.0101688000000012,-0.0018698,-0.1469127999999995,-0.067930799999999,0.0211547999999999,0,sub_3
0.0299739999999997,0.0057982000000012,-0.0049148,-0.1454795999999995,-0.083480399999999,0.0190481999999999,0,sub_3
0.0308413999999996,0.0012748000000012,-0.0051588,-0.1445065999999995,-0.104363199999999,0.0190817999999999,0,sub_3
0.0339883999999997,-0.0011773999999987,-0.0042674,-0.1474079999999995,-0.127172399999999,0.0246455999999999,0,sub_3
0.0377937999999997,-0.0004817999999987,-0.005085,-0.1490195999999995,-0.143186999999999,0.0349097999999999,0,sub_3
0.0379283999999997,0.0043234000000012,-0.0065012,-0.1465007999999995,-0.151132199999999,0.0445703999999999,0,sub_3
0.0364415999999997,0.0141326000000012,-0.005894,-0.1373455999999995,-0.1624759999999991,0.0459495999999999,0,sub_3
0.0356173999999997,0.0259762000000012,-0.0062784,-0.1241265999999995,-0.178706199999999,0.0403131999999999,0,sub_3
0.0363269999999996,0.0330680000000012,-0.0018528,-0.1094139999999995,-0.198124599999999,0.0314865999999999,0,sub_3
0.0368649999999996,0.0384574000000012,0.0037047999999999,-0.0968379999999995,-0.217325799999999,0.0234993999999999,0,sub_3
0.0369389999999996,0.0396640000000012,0.0108175999999999,-0.0874821999999995,-0.231817199999999,0.0163193999999999,0,sub_3
0.0344901999999996,0.0311380000000012,0.0150997999999999,-0.0878991999999995,-0.237536599999999,0.0084189999999999,0,sub_3
0.0314639999999996,0.0190582000000012,0.0186133999999999,-0.0961719999999995,-0.239373799999999,-0.0044552,0,sub_3
0.0275929999999996,0.0104992000000012,0.0180801999999999,-0.1063465999999995,-0.241612599999999,-0.0218286,0,sub_3
0.0245587999999996,0.0039550000000012,0.0205277999999999,-0.1114127999999995,-0.247063399999999,-0.0395894,0,sub_3
0.0234193999999996,0.0004644000000012,0.0244939999999999,-0.1120183999999995,-0.252971999999999,-0.0532594,0,sub_3
0.0247959999999996,0.0023368000000012,0.0286991999999999,-0.1105143999999995,-0.256150799999999,-0.0587996,0,sub_3
0.0283483999999996,0.0074348000000012,0.0331691999999999,-0.1062257999999995,-0.248719999999999,-0.0560018,0,sub_3
