userAcceleration.x,userAcceleration.y,userAcceleration.z,rotationRate.x,rotationRate.y,rotationRate.z,label,subject
0.0082595999999997,0.0052016000000012,0.0068741999999998,0.0155702000000005,0.0092430000000007,-0.0071455999999999,0,sub_2
0.0077283999999997,0.0050796000000012,0.0053893999999999,0.0108734000000005,0.0074188000000007,-0.0076095999999999,0,sub_2
0.0077867999999997,0.0056766000000012,0.0031253999999999,0.0065958000000005,0.0055862000000007,-0.0063613999999999,0,sub_2
0.0079953999999997,0.0076702000000012,0.0004805999999999,0.0050908000000005,0.0043080000000007,-0.0050883999999999,0,sub_2
0.0069593999999997,0.0084528000000012,-0.0021578,0.0057242000000005,0.0036632000000007,-0.0042283999999999,0,sub_2
0.0052411999999997,0.0084772000000012,-0.0017102,0.0078560000000005,0.0042906000000007,-0.0031459999999999,0,sub_2
0.0036527999999997,0.0074954000000012,0.0003889999999999,0.0104146000000005,0.0047044000000007,-0.0022739999999999,0,sub_2
0.0029391999999997,0.0072046000000012,0.0030625999999999,0.0127370000000005,0.0040220000000007,-0.0026867999999999,0,sub_2
0.0027389999999997,0.0061048000000012,0.0052891999999999,0.0135592000000005,0.0012168000000007,-0.0037479999999999,0,sub_2
0.0034545999999997,0.0057426000000012,0.0055887999999999,0.0133194000000005,-0.0007313999999992,-0.0050315999999999,0,sub_2
0.0041423999999997,0.0057976000000012,0.0041095999999999,0.0122290000000005,-0.0014009999999992,-0.0056817999999999,0,sub_2
0.0039965999999997,0.0058456000000012,0.0040737999999999,0.0096526000000005,0.0002756000000007,-0.0057043999999999,0,sub_2
0.0039453999999997,0.0059336000000012,0.0039637999999999,0.0062474000000005,0.0024172000000007,-0.0055171999999999,0,sub_2
0.0032913999999997,0.0065734000000012,0.0031819999999999,0.0030516000000005,0.0043426000000007,-0.0046873999999999,0,sub_2
0.0023065999999997,0.0073858000000012,0.0033677999999999,0.0015038000000005,0.0042902000000007,-0.0038453999999999,0,sub_2
0.0023875999999997,0.0079076000000012,0.0041085999999999,0.0027212000000005,0.0014620000000007,-0.0038349999999999,0,sub_2
0.0025161999999997,0.0081782000000012,0.0043201999999999,0.0058560000000005,-0.0024365999999992,-0.0042371999999999,0,sub_2
0.0020941999999997,0.0077080000000012,0.0057941999999999,0.0075000000000005,-0.0052663999999992,-0.0042237999999999,0,sub_2
0.0021563999999997,0.0073434000000012,0.0073509999999999,0.0080896000000005,-0.0055349999999992,-0.0044347999999999,0,sub_2
0.0021391999999997,0.0065058000000012,0.0088931999999999,0.0072408000000005,-0.0044665999999992,-0.0044419999999999,0,sub_2
0.0028419999999997,0.0057256000000012,0.0077705999999999,0.0051234000000005,-0.0008371999999992,-0.0044613999999999,0,sub_2
0.0045953999999997,0.0057476000000012,0.0066957999999999,0.0034222000000005,0.0006594000000007,-0.0042615999999999,0,sub_2
0.0066709999999997,0.0062818000000012,0.0058283999999999,0.0027754000000005,1.9200000000769644e-05,-0.0034107999999999,0,sub_2
0.0061185999999997,0.0058708000000012,0.0061737999999999,0.0026936000000005,-0.0011277999999992,-0.0019029999999999,0,sub_2
0.0051861999999997,0.0066018000000012,0.0043549999999999,0.0024030000000005,-0.0018453999999992,-0.0010379999999999,0,sub_2
0.0047545999999997,0.0070346000000012,0.0037177999999999,0.0021134000000005,-0.0031987999999992,-0.0010267999999999,0,sub_2
0.0047071999999997,0.0067340000000012,0.0038101999999999,0.0018286000000005,-0.0039111999999992,-0.0014435999999999,0,sub_2
0.0047935999999997,0.0060306000000012,0.0031441999999999,0.0013352000000005,-0.0044063999999992,-0.0027167999999999,0,sub_2
0.0056813999999997,0.0071852000000012,0.0039031999999998,0.0002626000000005,-0.0056809999999992,-0.0027225999999999,0,sub_2
0.0054035999999997,0.0077210000000012,0.0065573999999998,-0.0008061999999994,-0.0046179999999992,-0.0012359999999999,0,sub_2
0.0029099999999997,0.0081658000000012,0.0091809999999998,-0.0010137999999994,-0.0010045999999992,0.001108,0,sub_2
0.0006209999999997,0.0085764000000012,0.0098593999999998,-2.2999999999435625e-05,0.0033830000000007,0.002625,0,sub_2
-0.0002770000000002,0.0088704000000012,0.0112407999999999,0.0022414000000005,0.0056380000000007,0.0035126,0,sub_2
0.0007145999999997,0.0080446000000012,0.0103009999999999,0.0042952000000005,0.0070476000000007,0.0029044,0,sub_2
0.0021097999999997,0.0069384000000012,0.0081649999999999,0.0057052000000005,0.0080316000000007,0.0027194,0,sub_2
0.0045971999999997,0.0065884000000012,0.0062581999999999,0.0049736000000005,0.0073186000000007,0.0025216,0,sub_2
0.0062681999999997,0.0068784000000012,0.0055055999999999,0.0034724000000005,0.0060438000000007,0.00294,0,sub_2
0.0062659999999997,0.0074272000000012,0.0043301999999999,0.0028380000000005,0.0077488000000007,0.0033608,0,sub_2
0.0057787999999997,0.0078622000000012,0.0042483999999999,0.0036962000000005,0.0092356000000007,0.003792,0,sub_2
0.0052501999999997,0.0080432000000012,0.0067545999999999,0.0044556000000005,0.0064016000000007,0.0036126,0,sub_2
0.0036439999999997,0.0080714000000012,0.0087097999999999,0.0058570000000005,0.0044158000000007,0.0038638,0,sub_2
0.0017487999999997,0.0079366000000012,0.0098989999999999,0.0072698000000005,0.0047744000000007,0.0038984,0,sub_2
0.0011721999999997,0.0072470000000012,0.0096859999999999,0.0084684000000005,0.0040720000000007,0.0030782,0,sub_2
0.0020421999999997,0.0063914000000012,0.0098027999999999,0.0090250000000005,0.0025212000000008,0.0018276,0,sub_2
0.0042817999999997,0.0056320000000012,0.0088633999999999,0.0092412000000005,0.0016742000000008,0.0003348,0,sub_2
0.0066947999999997,0.0050214000000012,0.0077503999999999,0.0081744000000005,0.0006170000000008,-0.0007393999999999,0,sub_2
0.0092037999999997,0.0045790000000012,0.0060633999999999,0.0053284000000005,0.0001584000000007,-0.0009457999999999,0,sub_2
0.0096081999999997,0.0054182000000012,0.0057477999999999,0.0020622000000005,0.0020414000000007,-0.0003033999999999,0,sub_2
0.0086803999999997,0.0065976000000012,0.0049817999999999,-0.0009867999999994,0.0052004000000007,0.000766,0,sub_2
0.0071861999999997,0.0079096000000012,0.0048675999999999,-0.0027517999999994,0.0089948000000007,0.0016298,0,sub_2
0.0057335999999997,0.0085430000000012,0.0059019999999999,-0.0028097999999994,0.0121466000000007,0.0018654,0,sub_2
0.0042389999999997,0.0090962000000012,0.0072743999999998,-0.0015189999999994,0.0142734000000007,0.001658,0,sub_2
0.0044395999999997,0.0089156000000012,0.0065261999999998,0.0001966000000005,0.0161850000000007,0.0016674,0,sub_2
0.0057839999999997,0.0083730000000012,0.0058737999999999,0.0025514000000005,0.0174568000000007,0.001255,0,sub_2
0.0073811999999997,0.0076004000000012,0.0061913999999998,0.0053254000000005,0.0168106000000007,0.0006344,0,sub_2
0.0090693999999997,0.0071330000000012,0.0071075999999998,0.0063262000000005,0.0140166000000007,0.0002418,0,sub_2
0.0096043999999997,0.0062090000000012,0.0079815999999998,0.0049730000000005,0.0105882000000007,0.000688,0,sub_2
0.0084271999999997,0.0060894000000012,0.0086973999999998,0.0014882000000005,0.0080176000000007,0.0015456,0,sub_2
0.0063763999999997,0.0065538000000012,0.0082361999999998,-0.0013431999999994,0.0077910000000007,0.0017636,0,sub_2
0.0047961999999997,0.0067212000000012,0.0066351999999998,-0.0033057999999994,0.0101214000000007,0.0011298,0,sub_2
0.0040097999999997,0.0074550000000012,0.0049375999999998,-0.0028705999999994,0.0116128000000007,0.0007036,0,sub_2
0.0049435999999997,0.0090524000000012,0.0048433999999999,-0.0007425999999994,0.0099026000000007,0.0002934,0,sub_2
0.0060233999999997,0.0091346000000012,0.0068013999999998,0.0028374000000005,0.0073258000000007,-0.0003025999999999,0,sub_2
0.0056185999999997,0.0073972000000012,0.0085045999999999,0.0055678000000005,0.0060286000000007,-0.0004787999999999,0,sub_2
0.0056121999999997,0.0065454000000012,0.0096665999999999,0.0059426000000005,0.0036710000000007,0.0001846,0,sub_2
0.0059333999999997,0.0055798000000012,0.0099063999999999,0.0035552000000005,0.0030310000000007,-2.8199999999969047e-05,0,sub_2
0.0063203999999997,0.0044774000000012,0.0083561999999999,0.0005342000000005,0.0036722000000007,-0.0004605999999999,0,sub_2
0.0059243999999997,0.0050076000000012,0.0059701999999999,-0.0024557999999994,0.0036800000000007,0.0001594,0,sub_2
0.0064443999999997,0.0064440000000012,0.0050481999999999,-0.0052457999999994,0.0015532000000007,0.0016382,0,sub_2
0.0059757999999997,0.0075272000000012,0.0047949999999998,-0.0063117999999994,0.0026188000000007,0.002484,0,sub_2
0.0046311999999997,0.0079608000000012,0.0051031999999998,-0.0035673999999994,0.0036534000000007,0.0029326,0,sub_2
0.0037675999999997,0.0082114000000012,0.0062073999999998,0.0010966000000005,0.0036196000000007,0.0025414,0,sub_2
0.0043723999999997,0.0069516000000012,0.0086437999999999,0.0046870000000005,0.0012494000000008,0.0012912,0,sub_2
0.0042923999999997,0.0058726000000012,0.0105167999999999,0.0057206000000005,-0.0004719999999991,-0.0001913999999999,0,sub_2
0.0037667999999997,0.0051388000000012,0.0109925999999999,0.0054704000000005,-0.0019801999999991,-0.0006151999999999,0,sub_2
0.0041187999999997,0.0052636000000012,0.0104211999999999,0.0024794000000005,-0.0028219999999991,-0.0006349999999999,0,sub_2
0.0043693999999997,0.0053880000000012,0.0088489999999999,-0.0009317999999994,-0.0021709999999991,-0.0006597999999999,0,sub_2
0.0040705999999997,0.0064274000000012,0.0061961999999999,-0.0030579999999994,-0.0002469999999992,-0.0004633999999999,0,sub_2
0.0036949999999997,0.0073496000000012,0.0049585999999999,-0.0030857999999994,0.0012216000000007,0.0001742,0,sub_2
0.0045903999999997,0.0077282000000012,0.0052687999999999,-0.0024775999999994,0.0009870000000007,-3.599999999996904e-05,0,sub_2
0.0047151999999997,0.0072998000000012,0.0060029999999999,-0.0012299999999994,0.0005372000000007,-0.0002415999999999,0,sub_2
0.0039517999999997,0.0075386000000012,0.0077173999999999,2.340000000054399e-05,0.0013656000000007,-0.0004487999999999,0,sub_2
0.0040449999999997,0.0075552000000012,0.0082057999999999,0.0014882000000005,0.0015550000000007,-0.0008673999999999,0,sub_2
0.0053441999999997,0.0075014000000012,0.0072657999999999,0.0027656000000005,0.0004870000000007,-0.0012843999999999,0,sub_2
0.0055059999999997,0.0070518000000012,0.0065523999999999,0.0027580000000005,-0.0005807999999992,-0.0006421999999999,0,sub_2
0.0053993999999997,0.0070420000000012,0.0071445999999999,0.0014758000000005,0.0002706000000007,0.0006296,0,sub_2
0.0051669999999997,0.0074116000000012,0.0072539999999999,-0.0004445999999994,0.0013384000000007,0.001683,0,sub_2
0.0046947999999997,0.0073696000000012,0.0072849999999999,-0.0015327999999994,0.0025772000000007,0.0025254,0,sub_2
0.0048175999999997,0.0074936000000012,0.0063619999999999,-0.0009159999999994,0.0025352000000007,0.0025268,0,sub_2
0.0055739999999997,0.0080460000000012,0.0052567999999999,0.0003352000000005,0.0010004000000007,0.002321,0,sub_2
0.0054799999999997,0.0080514000000012,0.0048213999999999,0.0013672000000005,-0.0015995999999992,0.0023286,0,sub_2
0.0052789999999997,0.0066508000000012,0.0050519999999999,0.0019688000000005,-0.0046259999999992,0.0027612,0,sub_2
0.0059695999999997,0.0073206000000012,0.0054179999999999,0.0008934000000005,-0.0065397999999992,0.0027562,0,sub_2
0.0059711999999997,0.0081776000000012,0.0064247999999999,-0.0008241999999994,-0.0088773999999992,0.0027472,0,sub_2
0.0057651999999997,0.0087462000000012,0.0068343999999999,-0.0021119999999994,-0.0105773999999992,0.0027404,0,sub_2
0.0056595999999997,0.0083612000000012,0.0057875999999999,-0.0021243999999994,-0.0104083999999992,0.0018828,0,sub_2
0.0059583999999997,0.0083352000000012,0.0047875999999999,-0.0027693999999994,-0.0078959999999992,0.0016586,0,sub_2
0.0053659999999997,0.0070880000000012,0.0052327999999999,-0.0023483999999994,-0.0056003999999992,0.0014421999999999,0,sub_2
0.0056663999999997,0.0064966000000012,0.0057069999999999,-0.0027855999999994,-0.0043671999999992,0.0012212,0,sub_2
0.0054279999999997,0.0063260000000012,0.0060125999999999,-0.0025913999999994,-0.0046291999999992,0.0014338,0,sub_2
0.0051237999999997,0.0073758000000012,0.0066173999999999,-0.0021789999999994,-0.0065531999999992,0.0027209999999999,0,sub_2
0.0053951999999997,0.0079146000000012,0.0069113999999999,-0.0002681999999994,-0.0078417999999992,0.0035905999999999,0,sub_2
0.0058313999999997,0.0073278000000012,0.0064643999999999,0.0014252000000005,-0.0078875999999992,0.004026,0,sub_2
0.0052705999999997,0.0068024000000012,0.0069251999999999,0.0029206000000005,-0.0047359999999992,0.0042422,0,sub_2
0.0056835999999997,0.0066690000000012,0.0081957999999999,0.0031340000000005,-0.0030671999999992,0.003383,0,sub_2
0.0069571999999997,0.0060686000000012,0.0092659999999999,0.0029196000000005,-0.0020343999999992,0.0020944,0,sub_2
0.0078175999999997,0.0058288000000012,0.0089835999999999,0.0024842000000005,-0.0024929999999992,0.00102,0,sub_2
0.0090525999999997,0.0063208000000012,0.0088979999999999,0.0016250000000005,-0.0037683999999992,0.0010156,0,sub_2
0.0107829999999997,0.0063330000000012,0.0091621999999999,0.0009726000000005,-0.0067481999999992,0.0008012,0,sub_2
0.0110011999999997,0.0056214000000012,0.0096581999999999,0.0009696000000005,-0.0078115999999992,0.0003752,0,sub_2
0.0116731999999997,0.0058970000000012,0.0113889999999999,0.0007370000000005,-0.0103913999999992,0.0001598,0,sub_2
0.0112807999999997,0.0061108000000012,0.0127273999999999,0.0005092000000005,-0.0116937999999991,0.0001564,0,sub_2
0.0095171999999997,0.0061692000000012,0.0126245999999999,-0.0001413999999994,-0.0123547999999991,-6.439999999996896e-05,0,sub_2
0.0077445999999997,0.0069604000000012,0.0104091999999999,-0.0007807999999994,-0.0102467999999991,-7.499999999994897e-05,0,sub_2
0.0075273999999997,0.0076650000000012,0.0077347999999999,0.0007118000000005,-0.0092091999999991,-0.0007101999999999,0,sub_2
0.0067221999999997,0.0075662000000012,0.0057625999999999,0.0058348000000005,-0.0109229999999991,-0.0028085999999999,0,sub_2
0.0072855999999997,0.0074290000000012,0.0061325999999999,0.0122236000000005,-0.0171101999999992,-0.0061743999999999,0,sub_2
0.0085745999999997,0.0072554000000012,0.0083587999999999,0.0177598000000005,-0.0228691999999992,-0.0093329999999999,0,sub_2
0.0091431999999997,0.0054290000000012,0.0107021999999999,0.0202988000000005,-0.0286381999999992,-0.0118743999999999,0,sub_2
0.0092615999999997,0.0043854000000012,0.0124407999999999,0.0173036000000005,-0.0297071999999992,-0.0127513999999999,0,sub_2
0.0086557999999997,0.0043802000000012,0.0119983999999999,0.0094122000000006,-0.0271415999999992,-0.0125989999999999,0,sub_2
0.0066607999999997,0.0056480000000012,0.0101715999999999,0.0010930000000006,-0.0241509999999992,-0.0118091999999999,0,sub_2
0.0045203999999997,0.0081668000000012,0.0057119999999999,-0.0038169999999994,-0.0228739999999992,-0.0116343999999999,0,sub_2
0.0032467999999997,0.0106288000000012,0.0018813999999999,-0.0033911999999994,-0.0230883999999992,-0.0116311999999999,0,sub_2
0.0018115999999997,0.0111728000000012,-0.000732,0.0030022000000005,-0.0250273999999992,-0.0117975999999999,0,sub_2
0.0022631999999997,0.0114654000000012,-0.0018916,0.0117562000000005,-0.0239917999999992,-0.0119513999999999,0,sub_2
0.0035185999999997,0.0108332000000012,-0.0013406,0.0188056000000005,-0.0206101999999991,-0.0112719999999999,0,sub_2
0.0036941999999997,0.0089320000000012,0.0014293999999999,0.0226630000000005,-0.0146633999999991,-0.0099771999999999,0,sub_2
0.0027973999999997,0.0071266000000012,0.0030569999999999,0.0250326000000005,-0.0076451999999991,-0.0089077999999999,0,sub_2
0.0034891999999997,0.0068336000000012,0.0034681999999999,0.0246284000000005,-0.0018905999999992,-0.0091379999999999,0,sub_2
0.0043061999999997,0.0061392000000012,0.0034861999999999,0.0216482000000005,0.0002520000000008,-0.0095951999999999,0,sub_2
0.0042999999999997,0.0052342000000012,0.0028773999999999,0.0161158000000005,0.0034680000000007,-0.0098515999999999,0,sub_2
0.0045509999999997,0.0047420000000012,0.0034889999999999,0.0099338000000005,0.0049802000000007,-0.0096829999999999,0,sub_2
0.0052217999999997,0.0056226000000012,0.0045881999999999,0.0024802000000005,0.0082020000000007,-0.0097391999999999,0,sub_2
0.0042771999999997,0.0071920000000012,0.0044741999999999,-0.0028359999999994,0.0126930000000008,-0.0093547999999999,0,sub_2
0.0028847999999997,0.0082482000000012,0.0034117999999999,-0.0034629999999994,0.0163302000000007,-0.0091591999999999,0,sub_2
0.0031979999999997,0.0089852000000012,0.0030591999999999,-0.0004817999999994,0.0150572000000007,-0.0095729999999999,0,sub_2
0.0040199999999997,0.0086832000000012,0.0031741999999999,0.0033440000000005,0.0118636000000007,-0.0099783999999999,0,sub_2
0.0042259999999997,0.0076616000000012,0.0040309999999999,0.0065182000000005,0.0069646000000007,-0.0095315999999999,0,sub_2
0.0041619999999997,0.0067714000000012,0.0055345999999999,0.0073578000000005,0.0050556000000007,-0.0088913999999999,0,sub_2
0.0049927999999997,0.0058394000000012,0.0050797999999999,0.0060746000000005,0.0050576000000007,-0.0082593999999999,0,sub_2
0.0053631999999997,0.0053094000000012,0.0042341999999999,0.0039436000000005,0.0059164000000007,-0.0080615999999999,0,sub_2
0.0061535999999997,0.0051542000000012,0.0025099999999999,0.0009594000000005,0.0067782000000007,-0.0078699999999999,0,sub_2
0.0071391999999997,0.0053936000000012,0.0029149999999999,-0.0033129999999994,0.0070288000000007,-0.0074815999999999,0,sub_2
0.0071227999999997,0.0054912000000012,0.0035697999999999,-0.0075901999999994,0.0066388000000007,-0.0066651999999999,0,sub_2
0.0055567999999997,0.0063242000000012,0.0053599999999999,-0.0101669999999994,0.0049636000000007,-0.0056217999999999,0,sub_2
0.0042579999999997,0.0064740000000012,0.0054299999999999,-0.0097557999999994,0.0030666000000007,-0.0049843999999999,0,sub_2
0.0029311999999997,0.0068798000000012,0.0056437999999999,-0.0074175999999994,0.0018054000000007,-0.0051887999999999,0,sub_2
0.0023049999999997,0.0066414000000012,0.0053133999999998,-0.0040065999999994,0.0007300000000007,-0.0055909999999999,0,sub_2
0.0023759999999997,0.0064848000000012,0.0057867999999998,-0.0020995999999994,-0.0031083999999992,-0.0064273999999999,0,sub_2
0.0027253999999997,0.0064022000000012,0.0061373999999998,-0.0029783999999994,-0.0051783999999992,-0.0072773999999999,0,sub_2
0.0023657999999997,0.0071618000000012,0.0066133999999998,-0.0053429999999994,-0.0049019999999992,-0.0074999999999999,0,sub_2
0.0020569999999997,0.0072456000000012,0.0065367999999999,-0.0072827999999994,-0.0046287999999992,-0.0072923999999999,0,sub_2
0.0012295999999997,0.0074992000000012,0.0058559999999999,-0.0079411999999993,-0.0041469999999992,-0.0070759999999999,0,sub_2
-0.0001276000000002,0.0064156000000012,0.0058745999999999,-0.0079557999999993,-0.0021785999999992,-0.0062159999999999,0,sub_2
-0.0013658000000002,0.0060698000000012,0.0080523999999999,-0.0088033999999993,-0.0002605999999992,-0.0055833999999999,0,sub_2
-0.0018284000000002,0.0061040000000012,0.0089091999999999,-0.0092289999999994,0.0001660000000007,-0.0053731999999999,0,sub_2
-0.0024986000000002,0.0069562000000012,0.0078335999999999,-0.0085821999999993,0.0016552000000007,-0.0053705999999999,0,sub_2
-0.0020382000000002,0.0074096000000012,0.0067715999999999,-0.0070857999999994,0.0020768000000007,-0.0055741999999999,0,sub_2
-0.0004060000000002,0.0086646000000012,0.0051885999999999,-0.0052107999999994,0.0002312000000007,-0.0051011999999999,0,sub_2
0.0010071999999997,0.0077478000000012,0.0031295999999999,-0.0029003999999994,0.0007260000000007,-0.0042009999999999,0,sub_2
0.0013301999999997,0.0061030000000012,0.0029089999999999,-0.0018597999999994,0.0039934000000007,-0.0028857999999998,0,sub_2
0.0024155999999997,0.0046450000000012,0.0037401999999999,-0.0029575999999994,0.0059906000000007,-0.0017975999999999,0,sub_2
0.0033617999999997,0.0042246000000012,0.0046737999999999,-0.0068379999999994,0.0062924000000007,-0.0005129999999999,0,sub_2
0.0033801999999997,0.0038946000000012,0.0050153999999999,-0.0104605999999994,0.0075826000000007,-0.0003263999999999,0,sub_2
0.0031663999999997,0.0048324000000012,0.0049183999999999,-0.0132401999999994,0.0073750000000007,0.0007228,0,sub_2
0.0036897999999997,0.0066868000000012,0.0043535999999999,-0.0158525999999994,0.0076380000000007,0.0020268,0,sub_2
0.0035413999999997,0.0081540000000012,0.0042281999999999,-0.0169673999999994,0.0091724000000007,0.003767,0,sub_2
0.0028975999999997,0.0088540000000012,0.0028783999999999,-0.0138061999999994,0.0115484000000007,0.0044676,0,sub_2
0.0041127999999997,0.0085424000000012,0.0019519999999999,-0.0095905999999994,0.0109388000000007,0.004966,0,sub_2
0.0055517999999997,0.0080176000000012,0.0025851999999999,-0.0066601999999994,0.0086318000000007,0.0048166,0,sub_2
0.0057679999999997,0.0065318000000012,0.0044731999999999,-0.0049559999999994,0.0077746000000007,0.004616,0,sub_2
0.0063501999999997,0.0059168000000012,0.0053247999999999,-0.0043129999999994,0.0079872000000007,0.004193,0,sub_2
0.0075451999999997,0.0052110000000012,0.0062117999999999,-0.0058027999999994,0.0088446000000007,0.0041816,0,sub_2
0.0074233999999997,0.0048158000000012,0.0068689999999999,-0.0081753999999994,0.0109964000000007,0.0044214,0,sub_2
0.0067211999999997,0.0049294000000012,0.0061727999999999,-0.0101241999999994,0.0125076000000007,0.0046648,0,sub_2
0.0066701999999997,0.0057528000000012,0.0058447999999999,-0.0116615999999994,0.0106084000000007,0.0049156,0,sub_2
0.0063307999999997,0.0054982000000012,0.0051001999999999,-0.0127703999999994,0.0091338000000007,0.0051688,0,sub_2
0.0056187999999997,0.0060782000000012,0.0051097999999999,-0.0128053999999994,0.0093592000000007,0.005641,0,sub_2
0.0056699999999997,0.0068254000000012,0.0051855999999999,-0.0108841999999994,0.0095656000000007,0.005654,0,sub_2
0.0063399999999997,0.0065932000000012,0.0045557999999999,-0.0081053999999994,0.0101968000000007,0.0052454,0,sub_2
0.0070807999999997,0.0059422000000012,0.0038471999999999,-0.0059677999999994,0.0101928000000007,0.0044056,0,sub_2
0.0079617999999997,0.0053218000000012,0.0053813999999999,-0.0057685999999994,0.0087102000000007,0.0038124,0,sub_2
0.0081283999999997,0.0043036000000012,0.0061979999999999,-0.0074927999999994,0.0068072000000007,0.0034198,0,sub_2
0.0076955999999997,0.0046932000000012,0.0052069999999999,-0.0098521999999994,0.0059718000000007,0.0030214,0,sub_2
0.0073141999999997,0.0054594000000012,0.0045617999999999,-0.0115715999999994,0.0053462000000007,0.0028408,0,sub_2
0.0072079999999997,0.0059310000000012,0.0031771999999999,-0.0117991999999994,0.0049260000000007,0.0033114,0,sub_2
0.0063587999999997,0.0067676000000012,0.0026313999999999,-0.0111657999999994,0.0042812000000007,0.0041712,0,sub_2
0.0052423999999997,0.0080574000000012,0.0025879999999999,-0.0098863999999994,0.0044880000000007,0.0046072,0,sub_2
0.0040197999999997,0.0074128000000012,0.0043075999999999,-0.0090269999999994,0.0061876000000007,0.0050384,0,sub_2
0.0025313999999997,0.0069136000000012,0.0053625999999999,-0.0062483999999994,0.0070310000000007,0.0048432,0,sub_2
0.0030531999999997,0.0078564000000012,0.0050639999999999,-0.0028231999999994,0.0065998000000007,0.0040538,0,sub_2
0.0041833999999997,0.0079448000000012,0.0045313999999999,0.0008134000000005,0.0057418000000007,0.0032664,0,sub_2
0.0055659999999997,0.0072444000000012,0.0043941999999999,0.0027440000000005,0.0055274000000007,0.0028934,0,sub_2
0.0078709999999997,0.0053484000000012,0.0052941999999999,0.0029676000000005,0.0051066000000007,0.0022952,0,sub_2
0.0105953999999997,0.0041374000000012,0.0065665999999999,-0.0019361999999994,0.0036368000000007,0.0020898,0,sub_2
0.0117091999999997,0.0023772000000012,0.0091839999999999,-0.0102739999999994,0.0002562000000007,0.0022496,0,sub_2
0.0104037999999997,0.0034546000000012,0.0070811999999999,-0.0184011999999994,-0.0033399999999991,0.0028382,0,sub_2
0.0095925999999997,0.0045506000000012,0.0043425999999999,-0.0237337999999994,-0.0078139999999991,0.0041144,0,sub_2
0.0084209999999997,0.0074018000000012,-0.0001198,-0.0248027999999994,-0.0129427999999991,0.0056348,0,sub_2
