userAcceleration.x,userAcceleration.y,userAcceleration.z,rotationRate.x,rotationRate.y,rotationRate.z,label,subject
-0.0114742000000002,0.0087232000000012,0.0245617999999998,-0.0055865999999994,0.0279302000000008,-0.0006705999999999,0,sub_2
-0.0119642000000002,0.0074088000000012,0.0255113999999998,-0.0043033999999994,0.0281406000000008,-0.0010891999999999,0,sub_2
-0.0119856000000002,0.0072064000000012,0.0263657999999998,-0.0034583999999994,0.0257958000000008,-0.0015075999999999,0,sub_2
-0.0128804000000002,0.0079370000000012,0.0275227999999998,-0.0036803999999994,0.0238792000000008,-0.0015065999999999,0,sub_2
-0.0131442000000002,0.0076764000000012,0.0281737999999999,-0.0050435999999994,0.0235946000000008,-0.0015129999999999,0,sub_2
-0.0125212000000002,0.0079710000000012,0.0291361999999999,-0.0068277999999994,0.0239534000000008,-0.0021639999999999,0,sub_2
-0.0125288000000002,0.0084140000000012,0.0304213999999999,-0.0079679999999994,0.0251620000000008,-0.0028117999999999,0,sub_2
-0.0127826000000002,0.0082488000000012,0.0304639999999999,-0.0091111999999994,0.0259436000000008,-0.0032453999999999,0,sub_2
-0.0121770000000002,0.0076012000000012,0.0292765999999999,-0.0102601999999994,0.0245982000000008,-0.0045307999999999,0,sub_2
-0.0114060000000002,0.0076182000000012,0.0265079999999999,-0.0115403999999994,0.0231174000000008,-0.0060333999999999,0,sub_2
-0.0107194000000002,0.0078854000000012,0.0240071999999999,-0.0123995999999994,0.0209932000000008,-0.0068913999999999,0,sub_2
-0.0090688000000002,0.0077950000000012,0.0218917999999999,-0.0122083999999994,0.0163044000000008,-0.0066703999999999,0,sub_2
-0.0077426000000002,0.0084054000000012,0.0215591999999999,-0.0110045999999994,0.0104742000000008,-0.0057839999999999,0,sub_2
-0.0078720000000002,0.0097136000000012,0.0225585999999999,-0.0106505999999994,0.0061358000000008,-0.0042645999999999,0,sub_2
-0.0091376000000002,0.0095598000000012,0.0251937999999999,-0.0098677999999994,0.0024342000000008,-0.0025291999999999,0,sub_2
-0.0108366000000002,0.0089696000000012,0.0250697999999999,-0.0088601999999994,0.0004398000000008,-0.0016489999999999,0,sub_2
-0.0106272000000002,0.0088340000000012,0.0244017999999999,-0.0076439999999993,-0.0032571999999991,-0.0014059999999999,0,sub_2
-0.0098808000000002,0.0081486000000012,0.0244081999999999,-0.0083043999999993,-0.0079411999999991,-0.0016181999999999,0,sub_2
-0.0090542000000002,0.0071538000000012,0.0241379999999999,-0.0085367999999993,-0.0113527999999991,-0.0007607999999999,0,sub_2
-0.0097534000000002,0.0080526000000012,0.0237851999999999,-0.0096219999999993,-0.0136993999999991,0.0009438,0,sub_2
-0.0102570000000002,0.0090522000000012,0.0253927999999998,-0.0109235999999993,-0.0177633999999991,0.0022544,0,sub_2
-0.0123830000000002,0.0097456000000012,0.0271969999999998,-0.0119897999999994,-0.0175643999999991,0.00292,0,sub_2
-0.0152004000000002,0.0108374000000012,0.0278119999999998,-0.0111221999999994,-0.0146015999999991,0.0033822,0,sub_2
-0.0170970000000002,0.0118576000000012,0.0284783999999998,-0.0096193999999994,-0.0133427999999991,0.0032099999999999,0,sub_2
-0.0175030000000002,0.0117888000000012,0.0287153999999998,-0.0076877999999994,-0.0116595999999991,0.0030401999999999,0,sub_2
-0.0177934000000002,0.0112742000000012,0.0274369999999999,-0.0061701999999994,-0.0054895999999991,0.0038974,0,sub_2
-0.0184146000000002,0.0112418000000012,0.0258779999999999,-0.0059413999999994,-0.0008083999999991,0.005175,0,sub_2
-0.0174454000000002,0.0108300000000012,0.0247475999999999,-0.0065709999999994,0.0028106000000008,0.0064478,0,sub_2
-0.0151208000000002,0.0111690000000012,0.0232789999999999,-0.0082531999999994,0.0036254000000008,0.0084006,0,sub_2
-0.0128332000000002,0.0107932000000012,0.0218547999999999,-0.0099575999999994,0.0008134000000008,0.0116396,0,sub_2
-0.0121220000000002,0.0108966000000012,0.0207777999999999,-0.0118877999999994,-0.0039189999999991,0.0157342,0,sub_2
-0.0134644000000002,0.0107198000000012,0.0241421999999998,-0.0086653999999994,-0.0007895999999991,0.0207092,0,sub_2
-0.0165218000000002,0.0113190000000012,0.0310991999999998,0.0044106000000005,0.0087056000000008,0.0236084,0,sub_2
-0.0220430000000002,0.0108522000000012,0.0406401999999998,0.0251662000000005,0.0182344000000008,0.0203228,0,sub_2
-0.0276446000000002,0.0105012000000012,0.0514327999999998,0.0438102000000005,0.0252436000000008,0.0095482,0,sub_2
-0.0287888000000002,0.0087010000000012,0.0603749999999999,0.0524600000000005,0.0344408000000008,-0.0068537999999999,0,sub_2
-0.0223030000000002,0.0057912000000012,0.0599573999999999,0.0449402000000005,0.0436278000000008,-0.0258987999999999,0,sub_2
-0.0105266000000002,0.0002078000000012,0.0483125999999999,0.0153722000000005,0.0409454000000008,-0.0412369999999999,0,sub_2
0.0063961999999997,-0.0022031999999987,0.0269917999999999,-0.0300487999999994,0.0346544000000008,-0.0462127999999999,0,sub_2
0.0245143999999997,-0.0027761999999987,0.0017295999999999,-0.0734001999999994,0.0285112000000008,-0.0366463999999999,0,sub_2
0.0357577999999997,0.0013112000000013,-0.0206638,-0.1008347999999994,0.0143838000000008,-0.0156353999999999,0,sub_2
0.0326677999999997,0.0082108000000012,-0.0334314,-0.1027937999999994,-0.0157545999999991,0.0104542,0,sub_2
0.0185879999999997,0.0211240000000012,-0.0305032,-0.0736321999999994,-0.0538815999999991,0.0359168,0,sub_2
-0.0016588000000002,0.0309326000000012,-0.0152176,-0.0222203999999994,-0.0875769999999991,0.0527698,0,sub_2
-0.0263664000000002,0.0338236000000012,0.0088387999999999,0.0393988000000005,-0.1087585999999991,0.0530456,0,sub_2
-0.0463140000000002,0.0291440000000012,0.0365885999999999,0.0970482000000005,-0.1273045999999991,0.0370532,0,sub_2
-0.0549434000000002,0.0222818000000012,0.0600469999999999,0.1324028000000005,-0.1308211999999992,0.0114856,0,sub_2
-0.0496962000000002,0.0089202000000012,0.0716005999999999,0.1318586000000005,-0.1001163999999991,-0.0160857999999999,0,sub_2
-0.0351018000000002,-0.0081113999999986,0.0699737999999999,0.0963618000000005,-0.0548239999999991,-0.0383653999999999,0,sub_2
-0.0137060000000002,-0.0159021999999986,0.0602101999999999,0.0323572000000005,-0.0153585999999992,-0.0486907999999999,0,sub_2
0.0067989999999997,-0.0137707999999987,0.0441313999999999,-0.0413429999999994,0.0183274000000007,-0.0439075999999999,0,sub_2
0.0210035999999997,-0.0063573999999987,0.0261573999999999,-0.1023597999999994,0.0378578000000007,-0.0266263999999999,0,sub_2
0.0247527999999997,0.0046358000000012,0.0115999999999999,-0.1327145999999994,0.0350686000000008,-0.0054491999999999,0,sub_2
0.0104603999999997,0.0223320000000012,0.0065633999999999,-0.1240971999999994,0.0114932000000008,0.0119676,0,sub_2
-0.0087366000000002,0.0327496000000012,0.0038847999999999,-0.0800453999999994,-0.0191959999999991,0.0193862,0,sub_2
-0.0268204000000002,0.0335984000000012,0.0013813999999999,-0.0178033999999994,-0.0488397999999991,0.0160344,0,sub_2
-0.0367476000000002,0.0272740000000013,0.0034829999999999,0.0400212000000005,-0.0728945999999991,0.0040988,0,sub_2
-0.0393916000000002,0.0179196000000013,0.0099709999999999,0.0767692000000005,-0.0767997999999991,-0.0101673999999999,0,sub_2
-0.0277156000000002,0.0054424000000013,0.0177959999999999,0.0841428000000005,-0.0603801999999991,-0.0201781999999999,0,sub_2
-0.0131718000000002,-0.0027129999999986,0.0249307999999999,0.0629196000000005,-0.0355889999999991,-0.0209991999999999,0,sub_2
0.0002163999999997,-0.0040119999999986,0.0315363999999998,0.0285248000000006,-0.0022725999999991,-0.0144477999999999,0,sub_2
0.0057723999999997,-0.0008969999999987,0.0357699999999999,-0.0069349999999994,0.0350812000000008,-0.0042769999999999,0,sub_2
0.0021843999999997,0.0045434000000012,0.0352233999999998,-0.0320161999999994,0.0545054000000008,0.0051346,0,sub_2
-0.0071162000000002,0.0096496000000012,0.0301961999999998,-0.0388133999999994,0.0547086000000008,0.010212,0,sub_2
-0.0165142000000002,0.0141574000000012,0.0244309999999999,-0.0289829999999994,0.0459276000000008,0.0098622,0,sub_2
-0.0238180000000002,0.0154690000000012,0.0201137999999999,-0.0132421999999994,0.0318238000000008,0.0067856,0,sub_2
-0.0249336000000002,0.0141798000000012,0.0160963999999998,0.0046246000000005,0.0145226000000008,0.0022324,0,sub_2
-0.0189316000000002,0.0118016000000012,0.0140271999999999,0.0193050000000005,0.0012772000000008,-0.0014935999999999,0,sub_2
-0.0115954000000002,0.0099078000000012,0.0152641999999999,0.0240210000000005,0.0037622000000008,-0.0014599999999999,0,sub_2
-0.0057436000000002,0.0081404000000012,0.0182043999999999,0.0198042000000005,0.0152164000000008,0.0010636,0,sub_2
-0.0030466000000002,0.0073220000000012,0.0223955999999998,0.0113304000000005,0.0290290000000007,0.0035542,0,sub_2
-0.0043732000000002,0.0067946000000012,0.0247213999999999,0.0017822000000005,0.0413532000000007,0.006253,0,sub_2
-0.0079614000000002,0.0070976000000012,0.0249575999999999,-0.0060819999999994,0.0466484000000007,0.0070496,0,sub_2
-0.0106656000000002,0.0078432000000012,0.0253573999999999,-0.0088701999999994,0.0421890000000007,0.005754,0,sub_2
-0.0127882000000002,0.0086172000000012,0.0247135999999999,-0.0067709999999994,0.0328140000000007,0.0040714,0,sub_2
-0.0142026000000002,0.0097400000000012,0.0237643999999998,-0.0027637999999994,0.0215114000000007,0.0032594,0,sub_2
-0.0137196000000002,0.0110872000000012,0.0221185999999999,0.0010702000000005,0.0128340000000008,0.001782,0,sub_2
-0.0128576000000002,0.0109404000000012,0.0221951999999999,0.0040710000000005,0.0096946000000008,0.00136,0,sub_2
-0.0118880000000002,0.0098698000000012,0.0213159999999999,0.0053800000000005,0.0101822000000008,0.001135,0,sub_2
-0.0098218000000002,0.0093760000000012,0.0216959999999999,0.0032714000000005,0.0102540000000008,0.001314,0,sub_2
-0.0076178000000002,0.0088948000000012,0.0217211999999999,-0.0005443999999994,0.0105440000000008,0.0016944,0,sub_2
-0.0064216000000002,0.0083254000000012,0.0231381999999999,-0.0033171999999994,0.0109788000000008,0.001888,0,sub_2
-0.0067572000000002,0.0081262000000012,0.0243617999999999,-0.0050433999999994,0.0067236000000008,0.0018813999999999,0,sub_2
-0.0071002000000002,0.0085718000000012,0.0254371999999999,-0.0059321999999994,-0.0013685999999991,0.0016719999999999,0,sub_2
-0.0080832000000002,0.0088332000000012,0.0259505999999999,-0.0052831999999994,-0.0076613999999991,0.0010587999999999,0,sub_2
-0.0096276000000002,0.0081972000000012,0.0254759999999999,-0.0037709999999994,-0.0118265999999991,0.0004487999999999,0,sub_2
-0.0117582000000002,0.0076432000000012,0.0245743999999999,-0.0037563999999994,-0.0157775999999991,0.0008961999999999,0,sub_2
-0.0117118000000002,0.0084280000000012,0.0246295999999999,-0.0047883999999994,-0.0152507999999991,0.0013306,0,sub_2
-0.0116228000000002,0.0087012000000012,0.0241137999999999,-0.0058071999999994,-0.0119533999999991,0.0015479999999999,0,sub_2
-0.0117052000000002,0.0084220000000012,0.0230517999999999,-0.0057993999999994,-0.0104611999999991,0.0013323999999999,0,sub_2
-0.0111812000000002,0.0094686000000012,0.0233633999999999,-0.0049459999999994,-0.0108885999999991,0.0009116,0,sub_2
-0.0101912000000002,0.0102634000000012,0.0244123999999999,-0.0030313999999994,-0.0123857999999991,0.0007134,0,sub_2
-0.0099872000000002,0.0101902000000012,0.0239213999999999,-0.0013383999999994,-0.0139791999999991,0.0007462,0,sub_2
-0.0114486000000002,0.0105958000000012,0.0238521999999999,-7.479999999947931e-05,-0.0157859999999991,0.0012036,0,sub_2
-0.0135552000000002,0.0107866000000012,0.0239651999999999,0.0009848000000005,-0.0154613999999991,0.001657,0,sub_2
-0.0149282000000002,0.0106540000000012,0.0240317999999999,0.0009834000000005,-0.0144913999999991,0.0014612,0,sub_2
-0.0153136000000002,0.0101944000000012,0.0242535999999999,0.0001332000000005,-0.0118165999999991,0.0018982,0,sub_2
-0.0157924000000002,0.0099196000000012,0.0242867999999999,-0.0011383999999994,-0.0092579999999991,0.002527,0,sub_2
-0.0152546000000002,0.0096932000000012,0.0232855999999999,-0.0013431999999994,-0.0067031999999992,0.0031632,0,sub_2
-0.0148408000000002,0.0102954000000012,0.0234275999999999,-0.0011259999999994,-0.0050027999999992,0.004017,0,sub_2
-0.0147534000000002,0.0102098000000012,0.0237059999999999,0.0001582000000005,-0.0028569999999992,0.0046718,0,sub_2
-0.0151544000000002,0.0104564000000012,0.0241237999999999,0.0020902000000005,-7.01999999992025e-05,0.004262,0,sub_2
-0.0158124000000002,0.0107158000000012,0.0247789999999999,0.0048680000000005,0.0010092000000007,0.0038604,0,sub_2
-0.0154226000000002,0.0103592000000012,0.0252809999999999,0.0059408000000005,0.0023086000000008,0.003233,0,sub_2
-0.0139284000000002,0.0095438000000012,0.0242867999999999,0.0061638000000005,0.0048874000000008,0.0030254,0,sub_2
-0.0129106000000002,0.0089788000000012,0.0237809999999999,0.0051104000000005,0.0082982000000008,0.003441,0,sub_2
-0.0120194000000002,0.0092270000000012,0.0236333999999999,0.0042570000000005,0.0087256000000008,0.0038618,0,sub_2
-0.0110734000000002,0.0096260000000012,0.0239341999999999,0.0029816000000005,0.0095830000000008,0.0036382,0,sub_2
-0.0106928000000002,0.0100964000000012,0.0229677999999999,0.0036140000000005,0.0093232000000007,0.0042826,0,sub_2
-0.0112456000000002,0.0105028000000012,0.0230427999999999,0.0048828000000005,0.0077846000000007,0.0045058,0,sub_2
-0.0116408000000002,0.0103106000000012,0.0228721999999999,0.0065810000000005,0.0064592000000007,0.0043044,0,sub_2
-0.0123422000000002,0.0089976000000012,0.0228715999999999,0.0076430000000005,0.0059882000000007,0.0040976,0,sub_2
-0.0120984000000002,0.0092834000000012,0.0221805999999999,0.0082678000000005,0.0038118000000007,0.0045308,0,sub_2
-0.0118072000000002,0.0099644000000012,0.0237485999999999,0.0069740000000005,0.0010456000000008,0.004739,0,sub_2
-0.0112274000000002,0.0107062000000012,0.0242419999999999,0.0050460000000005,-0.0004399999999991,0.004941,0,sub_2
-0.0113796000000002,0.0101010000000012,0.0245187999999999,0.0044022000000005,-0.0010777999999991,0.005151,0,sub_2
-0.0112988000000002,0.0102488000000012,0.0239517999999999,0.0044002000000005,-0.0010793999999991,0.0055782,0,sub_2
-0.0109202000000002,0.0093690000000012,0.0230871999999999,0.0044042000000005,-0.0008997999999991,0.0055732,0,sub_2
-0.0118586000000002,0.0088240000000012,0.0225303999999999,0.0046208000000005,-0.0013583999999991,0.0051432,0,sub_2
-0.0131654000000002,0.0084062000000012,0.0224121999999999,0.0050458000000005,-0.0024585999999992,0.005143,0,sub_2
-0.0138958000000002,0.0093340000000012,0.0220113999999999,0.0048270000000005,-0.0046209999999991,0.0049258,0,sub_2
-0.0133244000000002,0.0104126000000012,0.0218559999999999,0.0044016000000005,-0.0055035999999991,0.004492,0,sub_2
-0.0139094000000002,0.0104330000000012,0.0219907999999999,0.0048304000000005,-0.0057155999999991,0.0038544,0,sub_2
-0.0133146000000002,0.0098830000000012,0.0214101999999999,0.0054792000000005,-0.0042247999999991,0.0034298,0,sub_2
-0.0124170000000002,0.0093014000000012,0.0228459999999999,0.0061406000000005,-0.0023037999999991,0.0027848,0,sub_2
-0.0113884000000002,0.0090378000000012,0.0238185999999999,0.0061636000000005,0.0002578000000008,0.0023484,0,sub_2
-0.0113774000000002,0.0084772000000012,0.0219359999999999,0.0068240000000005,0.0026026000000008,0.0023438,0,sub_2
-0.0104886000000002,0.0089292000000012,0.0206205999999999,0.0079130000000005,0.0053718000000008,0.0023418,0,sub_2
-0.0101024000000002,0.0090850000000012,0.0209485999999999,0.0094220000000005,0.0066482000000008,0.0023446,0,sub_2
-0.0100348000000002,0.0091840000000012,0.0201955999999999,0.0107042000000005,0.0074944000000008,0.0027798,0,sub_2
-0.0104714000000002,0.0091742000000012,0.0200037999999999,0.0115654000000005,0.0096202000000008,0.0032104,0,sub_2
-0.0107804000000002,0.0095748000000012,0.0216977999999999,0.0109340000000005,0.0117520000000008,0.003417,0,sub_2
-0.0115384000000002,0.0090770000000012,0.0221175999999999,0.0100934000000005,0.0139004000000008,0.0038264,0,sub_2
-0.0116682000000002,0.0092052000000012,0.0211641999999999,0.0090432000000005,0.0164774000000008,0.0038064,0,sub_2
-0.0111626000000002,0.0084870000000012,0.0213725999999999,0.0077844000000005,0.0194836000000008,0.0031436,0,sub_2
-0.0107616000000002,0.0080144000000012,0.0227907999999998,0.0065198000000005,0.0214240000000008,0.0026956,0,sub_2
-0.0110606000000002,0.0078726000000012,0.0236197999999998,0.0058886000000005,0.0216584000000008,0.0020406,0,sub_2
-0.0110408000000002,0.0083244000000012,0.0231455999999998,0.0046102000000005,0.0216646000000008,0.0016042,0,sub_2
-0.0106492000000002,0.0088972000000012,0.0224683999999999,0.0037616000000005,0.0223084000000008,0.0011702,0,sub_2
-0.0107398000000002,0.0096286000000012,0.0213731999999999,0.0039788000000005,0.0229478000000008,0.0009572,0,sub_2
-0.0101648000000002,0.0099558000000012,0.0200743999999999,0.0046158000000005,0.0233720000000008,0.0005194,0,sub_2
-0.0101122000000002,0.0099654000000012,0.0205849999999999,0.0041866000000005,0.0242254000000008,0.0002874,0,sub_2
-0.0105708000000002,0.0103376000000012,0.0211307999999999,0.0035384000000005,0.0235888000000007,-0.0001577999999999,0,sub_2
-0.0116364000000002,0.0098880000000012,0.0205617999999999,0.0031074000000005,0.0235916000000008,-0.0008161999999999,0,sub_2
-0.0117868000000002,0.0090424000000012,0.0198885999999999,0.0026754000000005,0.0231690000000007,-0.0016875999999999,0,sub_2
-0.0109756000000002,0.0088910000000012,0.0197317999999999,0.0020294000000005,0.0214684000000007,-0.0021171999999999,0,sub_2
-0.0096068000000002,0.0096604000000012,0.0198043999999999,0.0005292000000005,0.0197700000000008,-0.0023391999999999,0,sub_2
-0.0100160000000002,0.0095824000000012,0.0217239999999999,-0.0007529999999994,0.0193484000000008,-0.0023477999999999,0,sub_2
-0.0106152000000002,0.0095248000000012,0.0239713999999999,-0.0011825999999994,0.0182864000000008,-0.0027765999999999,0,sub_2
-0.0118722000000002,0.0099718000000012,0.0227817999999999,-0.0018543999999994,0.0144526000000008,-0.0034379999999999,0,sub_2
-0.0113532000000002,0.0095226000000012,0.0213509999999999,-0.0029527999999994,0.0104082000000008,-0.0043157999999999,0,sub_2
-0.0114016000000002,0.0083170000000012,0.0210249999999999,-0.0036187999999994,0.0078526000000008,-0.0049787999999999,0,sub_2
-0.0102158000000002,0.0079638000000012,0.0207679999999999,-0.0049315999999994,0.0040202000000008,-0.0054309999999999,0,sub_2
-0.0091758000000002,0.0086042000000012,0.0200681999999999,-0.0077581999999994,-0.0032201999999991,-0.0048213999999999,0,sub_2
-0.0079550000000002,0.0096366000000012,0.0208975999999998,-0.0097043999999994,-0.0081169999999991,-0.0039741999999999,0,sub_2
-0.0097138000000002,0.0102364000000012,0.0201337999999999,-0.0097139999999994,-0.0093987999999991,-0.0031179999999999,0,sub_2
-0.0112674000000002,0.0102300000000012,0.0190945999999999,-0.0084635999999994,-0.0113187999999991,-0.0033419999999999,0,sub_2
-0.0117712000000002,0.0098646000000012,0.0193965999999999,-0.0072159999999994,-0.0143023999999991,-0.0039917999999999,0,sub_2
-0.0116482000000002,0.0096524000000012,0.0206433999999999,-0.0059663999999994,-0.0168599999999991,-0.0046421999999999,0,sub_2
-0.0127276000000002,0.0091880000000012,0.0215775999999999,-0.0055721999999993,-0.0192041999999991,-0.0046579999999999,0,sub_2
-0.0134006000000002,0.0101938000000012,0.0225129999999999,-0.0060335999999993,-0.0217591999999991,-0.0044657999999999,0,sub_2
-0.0131968000000002,0.0104280000000012,0.0210791999999999,-0.0062545999999994,-0.0234627999999991,-0.0044651999999999,0,sub_2
-0.0130048000000002,0.0103708000000012,0.0195637999999999,-0.0062515999999994,-0.0221869999999991,-0.0038259999999999,0,sub_2
-0.0133916000000002,0.0097456000000012,0.0197799999999999,-0.0060325999999994,-0.0202727999999991,-0.0031859999999999,0,sub_2
-0.0129110000000002,0.0094766000000012,0.0217425999999999,-0.0062775999999993,-0.0190167999999991,-0.0025681999999999,0,sub_2
-0.0134818000000002,0.0089762000000012,0.0229071999999999,-0.0071665999999993,-0.0183983999999991,-0.0017403999999999,0,sub_2
-0.0139888000000002,0.0089574000000012,0.0247213999999999,-0.0078441999999993,-0.0182069999999991,-0.0009105999999999,0,sub_2
-0.0147314000000002,0.0091264000000012,0.0246295999999999,-0.0076645999999993,-0.0178029999999991,-0.0007159999999999,0,sub_2
-0.0142368000000002,0.0098188000000012,0.0236333999999999,-0.0068379999999994,-0.0161219999999991,-0.0007321999999999,0,sub_2
-0.0137000000000002,0.0098976000000012,0.0222119999999999,-0.0063979999999994,-0.0129283999999991,-0.0005195999999999,0,sub_2
-0.0135286000000002,0.0099286000000012,0.0225877999999999,-0.0063873999999994,-0.0103725999999991,-0.0003091999999999,0,sub_2
-0.0131060000000002,0.0101136000000012,0.0221839999999999,-0.0061681999999994,-0.0086705999999991,0.0001174,0,sub_2
-0.0129412000000002,0.0105378000000012,0.0223435999999999,-0.0053399999999994,-0.0061793999999991,0.0007458,0,sub_2
-0.0134386000000002,0.0103206000000012,0.0220049999999999,-0.0042983999999994,-0.0034767999999991,0.0015892,0,sub_2
-0.0139592000000002,0.0101298000000012,0.0226277999999999,-0.0032633999999994,-0.0024777999999991,0.002221,0,sub_2
-0.0140090000000002,0.0092142000000012,0.0230281999999999,-0.0020103999999994,-0.0004141999999991,0.0028529999999999,0,sub_2
-0.0147346000000002,0.0100398000000012,0.0246263999999999,-0.0016051999999994,0.0029306000000008,0.0034774,0,sub_2
-0.0155512000000002,0.0095416000000012,0.0250947999999999,-0.0009621999999994,0.0037796000000008,0.0036944,0,sub_2
-0.0153712000000002,0.0090370000000012,0.0247861999999999,-0.0013841999999994,0.0044220000000008,0.0032634,0,sub_2
-0.0139322000000002,0.0096254000000012,0.0234409999999999,-0.0015957999999994,0.0050610000000008,0.0034748,0,sub_2
-0.0123790000000002,0.0107022000000012,0.0236339999999998,-0.0014037999999994,0.0056188000000008,0.0034692,0,sub_2
-0.0122144000000002,0.0089982000000012,0.0231817999999999,-0.0007791999999994,0.0074534000000008,0.0034652,0,sub_2
-0.0115660000000002,0.0082280000000012,0.0228763999999999,-0.0001575999999994,0.0086490000000008,0.003462,0,sub_2
-0.0109970000000002,0.0080076000000012,0.0227705999999999,0.0004496000000005,0.0072854000000008,0.0041028,0,sub_2
-0.0113908000000002,0.0078154000000012,0.0234065999999999,0.0004244000000005,0.0072040000000008,0.0043102,0,sub_2
-0.0116214000000002,0.0073378000000012,0.0221207999999999,0.0004186000000005,0.0065622000000008,0.004952,0,sub_2
-0.0111494000000002,0.0082696000000012,0.0215929999999999,0.0008310000000005,0.0037894000000008,0.0053856,0,sub_2
-0.0104090000000002,0.0094230000000012,0.0220785999999999,0.0008176000000005,0.0014432000000008,0.0060294,0,sub_2
-0.0111542000000002,0.0097142000000012,0.0228311999999999,0.0010368000000005,0.0028886000000008,0.0060342,0,sub_2
-0.0122064000000002,0.0094728000000012,0.0231955999999999,0.0018942000000005,0.0032690000000008,0.005404,0,sub_2
-0.0117164000000002,0.0094508000000012,0.0234327999999999,0.0029554000000005,0.0013060000000008,0.0045646,0,sub_2
-0.0106780000000002,0.0090666000000012,0.0230381999999999,0.0040116000000005,-0.0008735999999991,0.00458,0,sub_2
-0.0114626000000002,0.0088898000000012,0.0220973999999999,0.0044422000000005,0.0003572000000008,0.0048004,0,sub_2
-0.0119220000000002,0.0090518000000012,0.0220729999999999,0.0048738000000005,0.0014210000000008,0.004802,0,sub_2
-0.0119570000000002,0.0087634000000012,0.0214559999999999,0.0059434000000005,0.0016322000000008,0.004382,0,sub_2
-0.0123894000000002,0.0086358000000012,0.0206077999999999,0.0070178000000005,0.0022720000000008,0.0033204,0,sub_2
-0.0125528000000002,0.0084716000000012,0.0202699999999999,0.0068252000000005,0.0031412000000008,0.0026874,0,sub_2
-0.0121056000000002,0.0086508000000012,0.0212963999999999,0.0059888000000005,0.0033726000000008,0.0022642,0,sub_2
-0.0121218000000002,0.0084304000000012,0.0207337999999999,0.0053704000000005,0.0053050000000008,0.0024816,0,sub_2
-0.0121596000000002,0.0091002000000012,0.0194409999999999,0.0051818000000005,0.0082994000000008,0.0031278,0,sub_2
