userAcceleration.x,userAcceleration.y,userAcceleration.z,rotationRate.x,rotationRate.y,rotationRate.z,label,subject
0.0110663999999997,0.0136850000000012,0.0732947999999999,0.0342180000000005,0.0942678000000007,0.052617,0,sub_16
0.0090001999999997,0.0204154000000012,0.0702679999999999,0.0308196000000005,0.1151450000000007,0.0633042,0,sub_16
0.0076179999999997,0.0252492000000012,0.0675985999999999,0.0276450000000005,0.1288160000000007,0.064388,0,sub_16
0.0067993999999997,0.0274006000000012,0.0655539999999999,0.0253066000000005,0.1303732000000007,0.057161,0,sub_16
0.0070123999999997,0.0287916000000012,0.0630043999999999,0.0233786000000005,0.1230020000000007,0.0446072,0,sub_16
0.0093933999999997,0.0316772000000012,0.0583887999999999,0.0231290000000005,0.1066868000000007,0.029513,0,sub_16
0.0130905999999997,0.0350232000000012,0.0551095999999999,0.0265016000000005,0.0837204000000007,0.015679,0,sub_16
0.0152693999999997,0.0374192000000012,0.0526661999999999,0.0330462000000004,0.0583832000000007,0.0059296,0,sub_16
0.0172765999999997,0.0364732000000012,0.0517683999999999,0.0406502000000004,0.0358542000000007,0.0007748,0,sub_16
0.0180049999999997,0.0338660000000012,0.0522657999999999,0.0493154000000005,0.0171362000000007,0.0007502,0,sub_16
0.0156057999999997,0.0300294000000012,0.0546667999999999,0.0567060000000004,0.0045816000000007,0.0056226,0,sub_16
0.0125195999999997,0.0239000000000012,0.0586355999999999,0.0623954000000004,-0.0024447999999992,0.0147488,0,sub_16
0.0095205999999997,0.0195230000000012,0.0627657999999999,0.0657530000000004,-0.0041441999999992,0.0257745999999999,0,sub_16
0.0050155999999997,0.0170326000000012,0.0666259999999999,0.0669892000000005,-0.0020657999999992,0.0377447999999999,0,sub_16
0.0007453999999997,0.0164740000000012,0.0673749999999999,0.0686722000000005,0.0038484000000007,0.0490719999999999,0,sub_16
-0.0025598000000002,0.0162164000000012,0.0671061999999999,0.0722966000000005,0.0123212000000007,0.058273,0,sub_16
-0.0050076000000002,0.0186818000000012,0.0647325999999999,0.0751706000000005,0.0215128000000007,0.0632609999999999,0,sub_16
-0.0064192000000002,0.0222894000000012,0.0614559999999999,0.0761386000000005,0.0313602000000007,0.0656712,0,sub_16
-0.0050344000000002,0.0269918000000012,0.0587635999999999,0.0794584000000005,0.0403550000000007,0.066176,0,sub_16
-0.0032892000000002,0.0300594000000012,0.0577565999999999,0.0821392000000005,0.0472310000000007,0.064329,0,sub_16
-0.0017870000000002,0.0314314000000012,0.0575119999999999,0.0835398000000005,0.0517772000000007,0.060126,0,sub_16
-0.0015654000000002,0.0314932000000012,0.0573217999999999,0.0835782000000005,0.0547820000000007,0.0545678,0,sub_16
-0.0042916000000002,0.0294926000000012,0.0568017999999999,0.0825516000000005,0.0558826000000007,0.0466541999999999,0,sub_16
-0.0072424000000002,0.0264836000000012,0.0547979999999999,0.0787512000000004,0.0561440000000007,0.0378677999999999,0,sub_16
-0.0092106000000002,0.0241766000000012,0.0545161999999999,0.0743048000000004,0.0572514000000007,0.0312123999999999,0,sub_16
-0.0091276000000002,0.0214038000000012,0.0546757999999999,0.0690656000000004,0.0598330000000007,0.0298963999999999,0,sub_16
-0.0065194000000002,0.0203150000000012,0.0555843999999999,0.0676624000000005,0.0677020000000007,0.0350095999999999,0,sub_16
-0.0011840000000002,0.0207098000000012,0.0559107999999999,0.0709600000000005,0.0815022000000007,0.0446345999999999,0,sub_16
0.0025635999999997,0.0222074000000012,0.0558179999999999,0.0787338000000005,0.0946458000000007,0.0547189999999999,0,sub_16
0.0054441999999997,0.0237328000000012,0.0553365999999999,0.0873476000000005,0.1024694000000007,0.062466,0,sub_16
0.0063683999999997,0.0266684000000012,0.0537381999999999,0.0956720000000005,0.1047770000000007,0.0642301999999999,0,sub_16
0.0048801999999997,0.0280600000000012,0.0519701999999999,0.0984506000000005,0.1007398000000007,0.0591271999999999,0,sub_16
0.0033639999999997,0.0282062000000012,0.0519795999999999,0.0939650000000005,0.0895046000000007,0.0488553999999999,0,sub_16
0.0018915999999997,0.0290596000000012,0.0532043999999999,0.0826134000000005,0.0760370000000007,0.0363269999999999,0,sub_16
-0.0001306000000002,0.0296220000000012,0.0540135999999999,0.0668010000000005,0.0651494000000007,0.0218411999999999,0,sub_16
-0.0024390000000002,0.0294432000000012,0.0551347999999999,0.0495008000000005,0.0557576000000007,0.0075569999999999,0,sub_16
-0.0048918000000002,0.0302342000000012,0.0557025999999999,0.0345468000000004,0.0472054000000007,-0.0056438,0,sub_16
-0.0072216000000002,0.0321906000000012,0.0567869999999999,0.0251444000000004,0.0418202000000007,-0.0164597999999999,0,sub_16
-0.0089386000000002,0.0321686000000012,0.0580565999999999,0.0200356000000004,0.0410698000000007,-0.0256619999999999,0,sub_16
-0.0095464000000002,0.0305416000000012,0.0588559999999999,0.0194068000000005,0.0432736000000007,-0.0316319999999999,0,sub_16
-0.0079616000000002,0.0291776000000012,0.0587303999999999,0.0211326000000004,0.0505688000000007,-0.0341739999999999,0,sub_16
-0.0044716000000002,0.0270170000000012,0.0576031999999999,0.0241328000000005,0.0599764000000007,-0.0332913999999999,0,sub_16
-0.0010558000000002,0.0244762000000012,0.0551959999999999,0.0279684000000005,0.0670306000000007,-0.0306907999999999,0,sub_16
0.0025613999999997,0.0224024000000012,0.0529019999999999,0.0328576000000005,0.0676338000000007,-0.0259573999999999,0,sub_16
0.0056087999999997,0.0201216000000012,0.0522299999999999,0.0372856000000005,0.0607808000000007,-0.0210039999999999,0,sub_16
0.0073495999999997,0.0182986000000012,0.0527371999999999,0.0395512000000005,0.0475436000000007,-0.0160573999999999,0,sub_16
0.0082837999999997,0.0166482000000012,0.0550101999999999,0.0392468000000005,0.0313362000000007,-0.0119795999999999,0,sub_16
0.0092607999999997,0.0166554000000012,0.0567417999999999,0.0348862000000005,0.0147168000000007,-0.0079295999999999,0,sub_16
0.0102259999999997,0.0174094000000012,0.0581239999999999,0.0269090000000005,0.0002414000000007,-0.0041211999999999,0,sub_16
0.0104591999999997,0.0189146000000012,0.0579177999999999,0.0163732000000005,-0.0125257999999992,0.0009492,0,sub_16
0.0109979999999997,0.0204954000000012,0.0573255999999999,0.0069082000000005,-0.0244443999999992,0.0060258,0,sub_16
0.0110695999999997,0.0225824000000012,0.0563545999999999,-0.0019215999999994,-0.0376427999999992,0.010895,0,sub_16
0.0107223999999997,0.0245390000000012,0.0561221999999999,-0.0092575999999994,-0.0521195999999992,0.0144944,0,sub_16
0.0101141999999997,0.0258866000000012,0.0561107999999999,-0.0157343999999994,-0.0665941999999992,0.0168178,0,sub_16
0.0102563999999997,0.0266128000000012,0.0569903999999999,-0.0217661999999994,-0.0791441999999992,0.0170054,0,sub_16
0.0097601999999997,0.0262588000000012,0.0572711999999999,-0.0282191999999994,-0.0910509999999992,0.0165484,0,sub_16
0.0079015999999997,0.0246438000000012,0.0558463999999999,-0.0335937999999994,-0.1010415999999992,0.0154554,0,sub_16
0.0057101999999997,0.0224596000000012,0.0538345999999999,-0.0387453999999994,-0.1082657999999992,0.0150013999999999,0,sub_16
0.0036871999999997,0.0209174000000012,0.0505207999999999,-0.0438855999999994,-0.1127211999999992,0.0147575999999999,0,sub_16
0.0019697999999997,0.0208294000000012,0.0486817999999999,-0.0488419999999994,-0.1153153999999992,0.0140623999999999,0,sub_16
0.0015437999999997,0.0217054000000012,0.0494973999999999,-0.0539971999999994,-0.1164105999999992,0.0116547999999999,0,sub_16
0.0023627999999997,0.0224674000000012,0.0531037999999999,-0.0600049999999994,-0.1181383999999992,0.0083875999999999,0,sub_16
0.0032523999999997,0.0226170000000012,0.0572197999999999,-0.0658109999999994,-0.1232723999999992,0.0042716,0,sub_16
0.0030267999999997,0.0220296000000012,0.0612969999999999,-0.0699281999999994,-0.1320359999999992,0.0005994,0,sub_16
0.0021565999999997,0.0224592000000012,0.0627643999999999,-0.0716697999999994,-0.1411851999999992,-0.0008963999999999,0,sub_16
4.279999999976004e-05,0.0234960000000012,0.0622341999999999,-0.0706451999999994,-0.1490777999999992,0.0006164,0,sub_16
-0.0020216000000002,0.0261216000000012,0.0603595999999999,-0.0670371999999994,-0.1533617999999992,0.0036492,0,sub_16
-0.0040930000000002,0.0286982000000012,0.0591393999999999,-0.0608389999999994,-0.1512623999999992,0.0064782,0,sub_16
-0.0048058000000002,0.0315560000000012,0.0589333999999999,-0.0535441999999994,-0.1425619999999992,0.0093064,0,sub_16
-0.0072248000000002,0.0324172000000012,0.0605761999999999,-0.0462319999999994,-0.1300265999999992,0.0121298,0,sub_16
-0.0096722000000002,0.0324360000000012,0.0624227999999999,-0.0386941999999994,-0.1145101999999992,0.0151646,0,sub_16
-0.0114362000000002,0.0317358000000012,0.0642401999999999,-0.0311637999999994,-0.0975047999999992,0.0184,0,sub_16
-0.0123254000000002,0.0312396000000012,0.0649591999999999,-0.0249155999999994,-0.0811331999999992,0.0214136,0,sub_16
-0.0132074000000002,0.0299784000000012,0.0645581999999999,-0.0201591999999994,-0.0666645999999992,0.0220692,0,sub_16
-0.0114148000000002,0.0287230000000012,0.0621447999999999,-0.0168933999999994,-0.0551589999999992,0.0190861999999999,0,sub_16
-0.0088310000000002,0.0277494000000012,0.0594181999999999,-0.0171747999999994,-0.0465891999999992,0.0132161999999999,0,sub_16
-0.0063008000000002,0.0274220000000012,0.0559611999999999,-0.0206615999999994,-0.0407711999999992,0.0056181999999999,0,sub_16
-0.0039650000000002,0.0267368000000012,0.0525793999999999,-0.0256555999999994,-0.0375061999999992,-0.0015598,0,sub_16
-0.0019078000000002,0.0266136000000012,0.0500969999999999,-0.0298093999999994,-0.0359537999999992,-0.0074478,0,sub_16
-0.0013564000000002,0.0260506000000012,0.0489083999999999,-0.0322707999999994,-0.0359055999999992,-0.0116127999999999,0,sub_16
-0.0013222000000002,0.0255996000000012,0.0493577999999999,-0.0326841999999994,-0.0363165999999992,-0.0150333999999999,0,sub_16
-0.0010496000000002,0.0248166000000012,0.0507351999999999,-0.0313895999999994,-0.0356717999999992,-0.0175887999999999,0,sub_16
0.0003049999999997,0.0249842000000012,0.0520069999999999,-0.0299429999999994,-0.0340287999999992,-0.0193409999999999,0,sub_16
0.0022725999999997,0.0262434000000012,0.0532083999999999,-0.0293507999999994,-0.0321711999999992,-0.0206721999999999,0,sub_16
0.0053987999999997,0.0280990000000012,0.0547167999999999,-0.0294045999999994,-0.0311653999999991,-0.0215797999999999,0,sub_16
0.0072849999999997,0.0262212000000012,0.0559003999999999,-0.0271275999999994,-0.0335773999999992,-0.0222527999999999,0,sub_16
0.0077023999999997,0.0226816000000012,0.0571445999999999,-0.0231647999999994,-0.0404703999999992,-0.0226947999999999,0,sub_16
0.0073079999999997,0.0187766000000012,0.0587899999999999,-0.0183033999999994,-0.0509261999999992,-0.0228611999999999,0,sub_16
0.0076079999999997,0.0157862000000012,0.0588493999999999,-0.0164473999999994,-0.0641465999999992,-0.0217631999999999,0,sub_16
0.0085157999999997,0.0154172000000012,0.0582485999999999,-0.0190739999999994,-0.0762919999999992,-0.0192021999999999,0,sub_16
0.0114693999999997,0.0195932000000012,0.0562829999999999,-0.0270117999999994,-0.0839419999999992,-0.0173251999999999,0,sub_16
0.0158117999999997,0.0245626000000012,0.0546157999999999,-0.0384419999999994,-0.0864411999999992,-0.0176781999999999,0,sub_16
0.0177193999999997,0.0266320000000012,0.0534125999999999,-0.0506909999999994,-0.0842383999999992,-0.0210337999999999,0,sub_16
0.0186731999999997,0.0267556000000012,0.0536307999999999,-0.0603509999999994,-0.0788357999999992,-0.0275799999999999,0,sub_16
0.0157647999999997,0.0231910000000012,0.0546923999999999,-0.0668025999999994,-0.0728009999999992,-0.0351729999999999,0,sub_16
0.0103979999999997,0.0187366000000012,0.0565757999999999,-0.0709301999999994,-0.0682803999999992,-0.0391157999999999,0,sub_16
0.0042729999999997,0.0153250000000012,0.0585781999999999,-0.0730647999999994,-0.0672127999999992,-0.0378501999999999,0,sub_16
-0.0012488000000002,0.0142768000000012,0.0593299999999999,-0.0739529999999994,-0.0687257999999992,-0.0316587999999999,0,sub_16
-0.0071486000000002,0.0141928000000012,0.0592555999999999,-0.0731511999999994,-0.0694113999999992,-0.0207566,0,sub_16
-0.0099400000000002,0.0162816000000012,0.0575275999999999,-0.0708521999999994,-0.0673401999999992,-0.0079244,0,sub_16
-0.0105564000000002,0.0190236000000012,0.0555955999999999,-0.0674669999999994,-0.0624969999999992,0.0034161999999999,0,sub_16
-0.0101328000000002,0.0224254000000012,0.0550519999999999,-0.0640453999999994,-0.0521041999999992,0.0121861999999999,0,sub_16
-0.0081044000000002,0.0261416000000012,0.0560189999999999,-0.0601681999999994,-0.0385043999999992,0.0177505999999999,0,sub_16
-0.0061892000000002,0.0295890000000012,0.0576523999999999,-0.0571291999999994,-0.0251001999999992,0.0196776,0,sub_16
-0.0047472000000002,0.0323776000000012,0.0591049999999999,-0.0557893999999994,-0.0138051999999992,0.0177496,0,sub_16
-0.0036666000000002,0.0336446000000012,0.0601303999999999,-0.0552927999999994,-0.0039833999999992,0.0119722,0,sub_16
-0.0024908000000002,0.0331454000000012,0.0581309999999999,-0.0539503999999994,0.0011602000000007,0.0032156,0,sub_16
-0.0012348000000002,0.0324694000000012,0.0557259999999999,-0.0511285999999994,0.0018296000000007,-0.0068067999999999,0,sub_16
0.0002793999999997,0.0307058000000012,0.0534003999999999,-0.0455531999999994,-0.0011359999999992,-0.0159507999999999,0,sub_16
0.0031177999999997,0.0303020000000012,0.0541331999999999,-0.0365857999999994,-0.0066793999999992,-0.0227175999999999,0,sub_16
0.0052349999999997,0.0299144000000012,0.0553955999999999,-0.0261487999999994,-0.0137345999999992,-0.0256267999999999,0,sub_16
0.0065413999999997,0.0293598000000012,0.0563153999999999,-0.0155117999999994,-0.0205903999999992,-0.0253299999999999,0,sub_16
0.0069239999999997,0.0276590000000012,0.0564833999999999,-0.0082993999999994,-0.0268069999999992,-0.0220669999999999,0,sub_16
0.0084727999999997,0.0267450000000012,0.0580271999999999,-0.0055859999999994,-0.0351461999999992,-0.0169099999999999,0,sub_16
0.0052187999999997,0.0245694000000012,0.0585399999999999,-0.0052427999999994,-0.0473173999999992,-0.0104827999999999,0,sub_16
0.0033445999999997,0.0203088000000012,0.0576449999999999,-0.0074531999999994,-0.0565027999999992,-0.0025815999999999,0,sub_16
0.0004689999999997,0.0158934000000012,0.0573727999999999,-0.0137061999999994,-0.0618441999999992,0.0065682,0,sub_16
-0.0019760000000002,0.0122944000000012,0.0572701999999999,-0.0191065999999994,-0.0671893999999992,0.0159378,0,sub_16
-0.0057712000000002,0.0101458000000012,0.0564427999999999,-0.0236467999999994,-0.0708339999999992,0.0255248,0,sub_16
-0.0041832000000002,0.0099768000000012,0.0548425999999999,-0.0296651999999994,-0.0702155999999992,0.0359506,0,sub_16
-0.0015948000000002,0.0153968000000012,0.0538205999999999,-0.0346235999999994,-0.0719411999999992,0.0455322,0,sub_16
0.0038589999999997,0.0235966000000012,0.0536223999999999,-0.0363803999999994,-0.0747379999999992,0.0538556,0,sub_16
0.0101883999999997,0.0312908000000012,0.0533195999999999,-0.0374797999999994,-0.0758241999999992,0.060045,0,sub_16
0.0152233999999997,0.0359602000000012,0.0532641999999999,-0.0381399999999994,-0.0783861999999992,0.0619663999999999,0,sub_16
0.0174955999999997,0.0378848000000012,0.0537669999999999,-0.0375209999999994,-0.0860463999999992,0.0589895999999999,0,sub_16
0.0162933999999997,0.0350312000000012,0.0556615999999999,-0.0360465999999994,-0.0966787999999992,0.0526041999999999,0,sub_16
0.0112609999999997,0.0289930000000012,0.0591463999999999,-0.0341405999999994,-0.1070961999999992,0.0453669999999999,0,sub_16
0.0027789999999997,0.0230594000000012,0.0638639999999999,-0.0313639999999994,-0.1128327999999992,0.0389843999999999,0,sub_16
-0.0085894000000002,0.0187820000000012,0.0673163999999999,-0.0285451999999994,-0.1057997999999991,0.0360042,0,sub_16
-0.0194970000000002,0.0146320000000012,0.0684335999999999,-0.0273593999999994,-0.0793849999999991,0.0359786,0,sub_16
-0.0301564000000002,0.0141668000000012,0.0666357999999999,-0.0278315999999994,-0.0406129999999992,0.0374212,0,sub_16
-0.0371388000000002,0.0202154000000012,0.0635941999999999,-0.0250985999999994,-0.0016357999999992,0.0380314,0,sub_16
-0.0398612000000002,0.0280858000000012,0.0596925999999999,-0.0170445999999994,0.0330668000000007,0.0374022,0,sub_16
-0.0318528000000002,0.0343688000000012,0.0570791999999999,-0.0057909999999994,0.0641500000000007,0.0333816,0,sub_16
-0.0229704000000002,0.0385780000000012,0.0559335999999999,0.0107786000000005,0.0873468000000007,0.0255628,0,sub_16
-0.0122818000000002,0.0394252000000012,0.0575987999999999,0.0311774000000005,0.1047906000000007,0.0145734,0,sub_16
-0.0028898000000002,0.0334204000000012,0.0575955999999999,0.0475108000000005,0.1190554000000007,0.0029186,0,sub_16
0.0063527999999997,0.0279038000000012,0.0567389999999999,0.0557196000000005,0.1303632000000007,-0.0081479999999999,0,sub_16
0.0097399999999997,0.0244258000000012,0.0555605999999999,0.0621774000000005,0.1346350000000007,-0.0164403999999999,0,sub_16
0.0127573999999997,0.0217906000000012,0.0542253999999999,0.0665696000000005,0.1327536000000007,-0.0221861999999999,0,sub_16
0.0161637999999997,0.0193824000000012,0.0502551999999999,0.0662360000000005,0.1251310000000007,-0.0266757999999999,0,sub_16
0.0192809999999997,0.0184500000000012,0.0469419999999999,0.0607680000000005,0.1151802000000007,-0.0305571999999999,0,sub_16
0.0201109999999997,0.0174964000000012,0.0438031999999999,0.0516786000000005,0.1069448000000007,-0.0340389999999999,0,sub_16
0.0184225999999997,0.0148970000000012,0.0405827999999999,0.0406822000000005,0.1025478000000007,-0.0366843999999999,0,sub_16
0.0159875999999997,0.0135948000000012,0.0389297999999999,0.0295878000000005,0.1025876000000007,-0.0369755999999999,0,sub_16
0.0127223999999997,0.0143772000000012,0.0412153999999999,0.0210424000000005,0.1045180000000007,-0.0327649999999999,0,sub_16
0.0100313999999997,0.0166236000000012,0.0457353999999999,0.0176092000000005,0.1074836000000007,-0.0255287999999999,0,sub_16
0.0083261999999997,0.0168268000000012,0.0506603999999999,0.0173756000000005,0.1100128000000007,-0.0184833999999999,0,sub_16
0.0096315999999997,0.0169106000000012,0.0549031999999999,0.0171382000000005,0.1093556000000007,-0.0137839999999999,0,sub_16
0.0124617999999997,0.0184754000000012,0.0574405999999999,0.0162512000000005,0.1048724000000007,-0.0107933999999999,0,sub_16
0.0151147999999997,0.0194478000000012,0.0578055999999999,0.0172894000000005,0.0997502000000007,-0.0094975999999999,0,sub_16
0.0171155999999997,0.0203162000000012,0.0557621999999999,0.0204728000000005,0.0967530000000007,-0.0086169999999999,0,sub_16
0.0178551999999997,0.0203488000000012,0.0532221999999999,0.0272740000000005,0.0935224000000007,-0.0057879999999999,0,sub_16
0.0165891999999997,0.0205834000000012,0.0509417999999999,0.0362002000000005,0.0902766000000007,-0.0010214,0,sub_16
0.0144307999999997,0.0197820000000012,0.0489557999999999,0.0449054000000005,0.0849028000000007,0.0033191999999999,0,sub_16
0.0124705999999997,0.0191100000000012,0.0479201999999999,0.0506328000000004,0.0793356000000007,0.0052891999999999,0,sub_16
0.0112217999999997,0.0174602000000012,0.0479769999999999,0.0527474000000004,0.0740060000000007,0.0042425999999999,0,sub_16
0.0119837999999997,0.0168990000000012,0.0490415999999999,0.0501878000000004,0.0706206000000007,0.0005971999999999,0,sub_16
0.0136189999999997,0.0154776000000012,0.0502037999999999,0.0438498000000004,0.0656230000000007,-0.0049984,0,sub_16
0.0147295999999997,0.0138018000000012,0.0514153999999999,0.0349446000000005,0.0589308000000007,-0.0108235999999999,0,sub_16
0.0163191999999997,0.0122272000000012,0.0524183999999999,0.0249430000000005,0.0471232000000007,-0.0151543999999999,0,sub_16
0.0166073999999997,0.0110288000000012,0.0537417999999999,0.0157602000000005,0.0295524000000007,-0.0175491999999999,0,sub_16
0.0129679999999997,0.0099654000000012,0.0543391999999999,0.0080654000000005,0.0132444000000007,-0.0173715999999999,0,sub_16
0.0108357999999997,0.0102858000000012,0.0530847999999999,0.0007668000000005,0.0062278000000007,-0.0146361999999999,0,sub_16
0.0099691999999997,0.0113332000000012,0.0497001999999999,-0.0075679999999994,0.0081546000000007,-0.0097829999999999,0,sub_16
0.0092103999999997,0.0124448000000012,0.0447367999999999,-0.0158771999999994,0.0168948000000007,-0.0038701999999999,0,sub_16
0.0098877999999997,0.0144810000000012,0.0386161999999999,-0.0237755999999994,0.0273928000000007,0.0023438,0,sub_16
0.0133271999999997,0.0173650000000012,0.0326145999999999,-0.0319229999999994,0.0302208000000007,0.0087795999999999,0,sub_16
0.0161431999999997,0.0216154000000012,0.0283455999999999,-0.0396867999999994,0.0228234000000007,0.0145901999999999,0,sub_16
0.0179543999999997,0.0271176000000012,0.0271623999999999,-0.0449197999999994,0.0073270000000007,0.0189333999999999,0,sub_16
0.0191849999999997,0.0324794000000012,0.0283601999999999,-0.0469701999999994,-0.0143505999999992,0.0211703999999999,0,sub_16
0.0188777999999997,0.0354322000000012,0.0320963999999999,-0.0455897999999994,-0.0394959999999992,0.0212124,0,sub_16
0.0179503999999997,0.0335228000000012,0.0377463999999999,-0.0369277999999994,-0.0627329999999992,0.0172436,0,sub_16
0.0158255999999997,0.0299098000000012,0.0446047999999999,-0.0231179999999994,-0.0827811999999992,0.0105292,0,sub_16
0.0134029999999997,0.0237842000000012,0.0512861999999999,-0.0069439999999994,-0.0998513999999992,0.0029728,0,sub_16
0.0101429999999997,0.0137848000000012,0.0578171999999999,0.0075680000000005,-0.1110225999999992,-0.0037891999999999,0,sub_16
0.0076017999999997,0.0042608000000012,0.0608203999999999,0.0163624000000005,-0.1106763999999992,-0.0086831999999999,0,sub_16
0.0063623999999997,-0.0002499999999987,0.0619397999999999,0.0174992000000005,-0.1009453999999991,-0.0095833999999999,0,sub_16
0.0059091999999997,0.0010706000000012,0.0622147999999999,0.0130892000000005,-0.0856767999999992,-0.0051883999999999,0,sub_16
0.0054221999999997,0.0039324000000012,0.0640169999999999,0.0069724000000005,-0.0667947999999992,0.0028222,0,sub_16
0.0056603999999997,0.0099278000000012,0.0649687999999999,-0.0002169999999994,-0.0435815999999992,0.0115016,0,sub_16
0.0055733999999997,0.0162580000000012,0.0676533999999999,-0.0058927999999994,-0.0171727999999992,0.0189055999999999,0,sub_16
0.0056213999999997,0.0218516000000012,0.0677085999999999,-0.0109453999999994,0.0098274000000007,0.0229037999999999,0,sub_16
0.0051823999999997,0.0221900000000012,0.0673707999999999,-0.0157731999999994,0.0345030000000007,0.0219928,0,sub_16
0.0081233999999997,0.0220118000000012,0.0617281999999999,-0.0201827999999994,0.0538642000000007,0.017673,0,sub_16
0.0123217999999997,0.0228834000000012,0.0547157999999999,-0.0214387999999994,0.0625626000000007,0.0131753999999999,0,sub_16
0.0170183999999997,0.0243550000000012,0.0469831999999999,-0.0197775999999994,0.0563342000000007,0.0093581999999999,0,sub_16
0.0221927999999997,0.0241702000000012,0.0428301999999999,-0.0147275999999994,0.0369430000000007,0.0057861999999999,0,sub_16
0.0270297999999997,0.0229874000000012,0.0395911999999999,-0.0075829999999994,0.0094458000000007,0.0028801999999999,0,sub_16
0.0275509999999997,0.0196620000000012,0.0393581999999999,-0.0034383999999994,-0.0205983999999992,0.0001704,0,sub_16
0.0257173999999997,0.0153046000000012,0.0406635999999999,-0.0058957999999994,-0.0470009999999992,-0.0017357999999999,0,sub_16
0.0227643999999997,0.0120620000000012,0.0431251999999999,-0.0137739999999994,-0.0660681999999992,-0.0015385999999999,0,sub_16
0.0179593999999997,0.0110280000000012,0.0442389999999999,-0.0260983999999994,-0.0753277999999992,0.0007514,0,sub_16
0.0128155999999997,0.0115590000000012,0.0452235999999999,-0.0396561999999994,-0.0735067999999992,0.0036596,0,sub_16
0.0062529999999997,0.0125416000000012,0.0484491999999999,-0.0489175999999994,-0.0640357999999992,0.0078695999999999,0,sub_16
0.0005191999999997,0.0142306000000012,0.0520611999999999,-0.0517635999999994,-0.0511793999999992,0.0123339999999999,0,sub_16
-0.0053886000000002,0.0141540000000012,0.0563029999999999,-0.0495895999999994,-0.0375701999999992,0.0170319999999999,0,sub_16
-0.0101100000000002,0.0137932000000012,0.0612815999999999,-0.0442245999999994,-0.0241929999999992,0.0236753999999999,0,sub_16
-0.0139140000000002,0.0131990000000012,0.0645271999999999,-0.0373889999999994,-0.0123267999999992,0.0339627999999999,0,sub_16
-0.0125426000000002,0.0153128000000012,0.0635549999999999,-0.0316961999999994,-0.0024467999999992,0.0453351999999999,0,sub_16
