userAcceleration.x,userAcceleration.y,userAcceleration.z,rotationRate.x,rotationRate.y,rotationRate.z,label,subject
-0.0117666000000003,0.0143294000000012,0.0445467999999999,-0.0185191999999994,-0.0185185999999991,0.0192453999999999,0,sub_16
-0.0120210000000003,0.0156250000000012,0.0453391999999999,-0.0178905999999994,-0.0195919999999991,0.0207467999999999,0,sub_16
-0.0120068000000003,0.0163738000000012,0.0451511999999999,-0.0161959999999994,-0.0208821999999991,0.0222557999999999,0,sub_16
-0.0122886000000003,0.0156566000000012,0.0459117999999999,-0.0151375999999994,-0.0217423999999991,0.0233325999999999,0,sub_16
-0.0127702000000003,0.0130182000000012,0.0452661999999999,-0.0142897999999994,-0.0221747999999991,0.0241935999999999,0,sub_16
-0.0130070000000003,0.0113432000000012,0.0450423999999999,-0.0145157999999994,-0.0234583999999991,0.0256889999999998,0,sub_16
-0.0129150000000003,0.0092238000000012,0.0450686,-0.0145263999999994,-0.0249531999999991,0.0265453999999999,0,sub_16
-0.0128480000000003,0.0082148000000012,0.0456026,-0.0156037999999994,-0.0270807999999991,0.0267541999999999,0,sub_16
-0.0126718000000003,0.0098536000000012,0.045991,-0.0171079999999993,-0.0294189999999991,0.0267465999999999,0,sub_16
-0.0133326000000003,0.0103852000000012,0.0472212,-0.0177393999999994,-0.0326085999999991,0.0265243999999999,0,sub_16
-0.0143460000000003,0.0096258000000012,0.0480624,-0.0172951999999994,-0.0351575999999991,0.0250269999999999,0,sub_16
-0.0155672000000003,0.0090614000000012,0.048807,-0.0170625999999994,-0.0372797999999991,0.0235273999999999,0,sub_16
-0.0159422000000003,0.0077978000000012,0.0493882,-0.0166135999999994,-0.0374903999999991,0.0233087999999999,0,sub_16
-0.0164420000000003,0.0047886000000012,0.0500323999999999,-0.0161609999999994,-0.0362121999999991,0.0237293999999999,0,sub_16
-0.0159276000000003,0.0028746000000012,0.0498459999999999,-0.0165829999999994,-0.0332357999999991,0.0256453999999999,0,sub_16
-0.0143346000000003,0.0041988000000012,0.0487647999999999,-0.0178621999999994,-0.0287741999999991,0.0299035999999999,0,sub_16
-0.0128870000000003,0.0053638000000012,0.0477875999999999,-0.0195691999999994,-0.0234631999999991,0.0352259999999999,0,sub_16
-0.0112194000000003,0.0079722000000012,0.0485221999999999,-0.0204255999999994,-0.0196431999999991,0.0397015999999999,0,sub_16
-0.0098860000000003,0.0100608000000012,0.0487143999999999,-0.0212847999999994,-0.0190087999999991,0.0416175999999999,0,sub_16
-0.0090184000000003,0.0117082000000012,0.0488609999999999,-0.0232069999999994,-0.0215501999999991,0.0394709999999999,0,sub_16
-0.0093142000000003,0.0104478000000012,0.0493865999999999,-0.0244911999999994,-0.0270663999999991,0.0347689999999999,0,sub_16
-0.0093724000000003,0.0085670000000012,0.0492879999999999,-0.0253503999999994,-0.0351321999999991,0.0279367999999999,0,sub_16
-0.0107250000000003,0.0055782000000012,0.0475843999999999,-0.0272745999999994,-0.0434047999999991,0.0204563999999999,0,sub_16
-0.0116578000000003,0.0042024000000012,0.0460781999999999,-0.0287729999999994,-0.0504063999999991,0.0144727999999999,0,sub_16
-0.0126500000000003,0.0033812000000012,0.0453355999999999,-0.0283509999999994,-0.0552925999999991,0.0106363999999999,0,sub_16
-0.0129568000000003,0.0038778000000012,0.0453111999999999,-0.0287737999999994,-0.0588951999999991,0.0061515999999999,0,sub_16
-0.0128186000000003,0.0070844000000012,0.0456918,-0.0304759999999994,-0.0618557999999991,0.0020841999999999,0,sub_16
-0.0124036000000003,0.0103742000000012,0.0466486,-0.0323867999999994,-0.0643869999999991,-0.002626,0,sub_16
-0.0115978000000003,0.0125900000000012,0.0475268,-0.0349375999999994,-0.0669159999999991,-0.0073408,0,sub_16
-0.0108474000000003,0.0146710000000012,0.0485018,-0.0377095999999994,-0.0700875999999991,-0.0109882,0,sub_16
-0.0100626000000003,0.0151416000000012,0.048492,-0.0392119999999994,-0.0732729999999991,-0.0122766,0,sub_16
-0.0097900000000003,0.0134810000000012,0.0490592,-0.0387957999999994,-0.0758301999999991,-0.012484,0,sub_16
-0.0091120000000003,0.0120738000000012,0.0488278,-0.0379527999999994,-0.0777523999999991,-0.0120484,0,sub_16
-0.0084894000000003,0.0113546000000012,0.0487882,-0.0366773999999994,-0.0783977999999991,-0.0116114,0,sub_16
-0.0073898000000003,0.0103836000000012,0.0487232,-0.0353943999999994,-0.0779753999999991,-0.0118166,0,sub_16
-0.0067138000000003,0.0100104000000012,0.0519478,-0.0345263999999994,-0.0756313999999991,-0.012668,0,sub_16
-0.0069194000000003,0.0097012000000012,0.0551516,-0.0368171999999994,-0.0696505999999991,-0.0146414,0,sub_16
-0.0071856000000003,0.0084684000000012,0.0581924,-0.0414397999999994,-0.0598281999999991,-0.0162086,0,sub_16
-0.0081756000000003,0.0083604000000012,0.0577006,-0.0477625999999994,-0.0485083999999991,-0.0177896,0,sub_16
-0.0087156000000003,0.0081240000000012,0.0554184,-0.0534385999999994,-0.0382459999999991,-0.0219284,0,sub_16
-0.0090512000000003,0.0084156000000012,0.0499632,-0.0574143999999994,-0.0322395999999991,-0.0288274,0,sub_16
-0.0076316000000003,0.0094454000000012,0.0445777999999999,-0.0569635999999994,-0.0362515999999991,-0.0382194,0,sub_16
-0.0061876000000003,0.0104990000000012,0.0412927999999999,-0.0544097999999994,-0.0515449999999991,-0.0520688,0,sub_16
-0.0037082000000003,0.0101582000000012,0.0410291999999999,-0.0525201999999994,-0.0766187999999991,-0.0703968,0,sub_16
-0.0025056000000003,0.0111052000000012,0.0434655999999999,-0.0544019999999994,-0.1071785999999991,-0.0910604,0,sub_16
-0.0024282000000003,0.0129190000000012,0.0474831999999999,-0.0603349999999994,-0.1398435999999991,-0.1145268,0,sub_16
-0.0024080000000003,0.0138998000000012,0.0508573999999999,-0.0705115999999994,-0.1675917999999991,-0.1384566,0,sub_16
-0.0058004000000003,0.0133338000000012,0.0529497999999999,-0.0812995999999994,-0.1855507999999991,-0.1589848,0,sub_16
-0.0101710000000003,0.0123718000000012,0.0531421999999999,-0.0912117999999994,-0.1916099999999991,-0.172472,0,sub_16
-0.0137034000000003,0.0116384000000012,0.0520503999999999,-0.0975687999999993,-0.1841213999999991,-0.174876,0,sub_16
-0.0153612000000003,0.0104758000000012,0.0492443999999999,-0.0986039999999993,-0.1656279999999991,-0.1633702,0,sub_16
-0.0165584000000003,0.0099854000000012,0.0470403999999999,-0.0935761999999993,-0.1385971999999991,-0.1404894,0,sub_16
-0.0148904000000003,0.0122888000000012,0.0435451999999999,-0.0849391999999993,-0.1079879999999991,-0.109897,0,sub_16
-0.0121136000000003,0.0159786000000012,0.0418757999999999,-0.0731083999999993,-0.0765469999999991,-0.076933,0,sub_16
-0.0085038000000003,0.0178110000000012,0.0400195999999999,-0.0597953999999994,-0.0497897999999991,-0.0460892,0,sub_16
-0.0058044000000003,0.0186996000000012,0.0389137999999999,-0.0475493999999994,-0.0281217999999991,-0.0203738,0,sub_16
-0.0042394000000003,0.0189282000000012,0.0375335999999999,-0.0377571999999994,-0.0131103999999991,-2.840000000007628e-05,0,sub_16
-0.0019752000000003,0.0169958000000012,0.0361473999999999,-0.0303303999999994,-0.0074435999999991,0.0149713999999999,0,sub_16
-0.0014186000000003,0.0135602000000012,0.0347803999999999,-0.0250613999999994,-0.0117641999999991,0.0252685999999999,0,sub_16
-0.0022320000000003,0.0096712000000012,0.0340901999999999,-0.0240649999999994,-0.0228665999999991,0.0302051999999999,0,sub_16
-0.0038896000000003,0.0061024000000012,0.0339203999999999,-0.0281845999999994,-0.0373421999999991,0.0306239999999999,0,sub_16
-0.0059368000000003,0.0031124000000012,0.0330669999999999,-0.0357067999999994,-0.0517953999999991,0.0284551999999999,0,sub_16
-0.0086306000000003,0.0026836000000012,0.033681,-0.0434153999999994,-0.0609191999999991,0.0256373999999999,0,sub_16
-0.0106612000000003,0.0037826000000012,0.0352726,-0.0504417999999994,-0.0606709999999991,0.0228123999999999,0,sub_16
-0.0120698000000003,0.0060258000000012,0.0373952,-0.0550841999999994,-0.0516961999999991,0.0202047999999999,0,sub_16
-0.0126710000000003,0.0075212000000012,0.0391629999999999,-0.0569259999999994,-0.0365531999999991,0.0178223999999999,0,sub_16
-0.0122848000000003,0.0079312000000012,0.0403297999999999,-0.0572625999999994,-0.0188589999999991,0.0154471999999999,0,sub_16
-0.0121704000000003,0.0073274000000012,0.0402547999999999,-0.0575905999999994,0.0001162000000008,0.0124293999999999,0,sub_16
-0.0106120000000003,0.0062742000000012,0.0392715999999999,-0.0579327999999994,0.0169566000000008,0.0104825999999999,0,sub_16
-0.0092882000000003,0.0060698000000012,0.0382123999999999,-0.0580857999999994,0.0303796000000008,0.0104643999999999,0,sub_16
-0.0084582000000003,0.0061566000000012,0.0369584,-0.0584807999999994,0.0382606000000008,0.0113059999999999,0,sub_16
-0.0076080000000003,0.0072168000000012,0.0370201999999999,-0.0597551999999994,0.0399678000000008,0.0117221999999999,0,sub_16
-0.0066360000000003,0.0088172000000012,0.0374401999999999,-0.0625539999999994,0.0344380000000008,0.0117097999999999,0,sub_16
-0.0062686000000003,0.0103642000000012,0.0379785999999999,-0.0662119999999994,0.0263598000000008,0.0104125999999999,0,sub_16
-0.0068746000000003,0.0083522000000012,0.0389383999999999,-0.0724217999999994,0.0180860000000008,0.0069613999999999,0,sub_16
-0.0064414000000003,0.0057750000000012,0.0388081999999999,-0.0794793999999994,0.0108812000000008,0.0032893999999999,0,sub_16
-0.0068466000000003,0.0036052000000012,0.0387625999999999,-0.0856845999999994,0.0057946000000008,0.0019707999999999,0,sub_16
-0.0076748000000003,0.0009984000000012,0.0389421999999999,-0.0906065999999994,0.0026160000000008,0.0019405999999999,0,sub_16
-0.0081940000000003,-0.0010873999999987,0.0391643999999999,-0.0947115999999994,-0.0065395999999991,0.0040601999999999,0,sub_16
-0.0073736000000003,0.0006892000000012,0.0387379999999999,-0.0956475999999994,-0.0204029999999991,0.0085579999999999,0,sub_16
-0.0080520000000003,0.0023614000000012,0.0430127999999999,-0.0933887999999994,-0.0349191999999991,0.0137197999999999,0,sub_16
-0.0084972000000003,0.0042800000000012,0.0469283999999999,-0.0896265999999994,-0.0475221999999991,0.0186759999999999,0,sub_16
-0.0088986000000003,0.0065920000000012,0.0508035999999999,-0.0841479999999994,-0.0560909999999991,0.0255617999999999,0,sub_16
-0.0100454000000003,0.0093900000000012,0.05659,-0.0773497999999994,-0.0580511999999991,0.0303119999999999,0,sub_16
-0.0127690000000003,0.0091252000000012,0.061908,-0.0724373999999994,-0.0548809999999991,0.0324785999999999,0,sub_16
-0.0135530000000003,0.0088830000000012,0.062167,-0.0707111999999994,-0.0508381999999991,0.0322719999999999,0,sub_16
-0.0136458000000003,0.0093786000000012,0.061628,-0.0700441999999994,-0.0482701999999991,0.0288549999999999,0,sub_16
-0.0135602000000003,0.0102654000000012,0.0617409999999999,-0.0702287999999994,-0.0510023999999991,0.0196703999999999,0,sub_16
-0.0134982000000003,0.0101226000000012,0.0594275999999999,-0.0708457999999994,-0.0564967999999991,0.0089907999999999,0,sub_16
-0.0122112000000003,0.0099644000000012,0.0588279999999999,-0.0684853999999994,-0.0641321999999991,-0.001665,0,sub_16
-0.0113624000000003,0.0111582000000012,0.0597109999999999,-0.0648379999999994,-0.0700685999999991,-0.0121006,0,sub_16
-0.0111460000000003,0.0107006000000012,0.0616497999999999,-0.0594729999999994,-0.0726063999999991,-0.0214602,0,sub_16
-0.0103812000000003,0.0102722000000012,0.0626095999999999,-0.0538867999999994,-0.0700453999999991,-0.0274064,0,sub_16
-0.0090488000000003,0.0086622000000012,0.0643639999999999,-0.0478645999999994,-0.0623843999999991,-0.0303652,0,sub_16
-0.0078224000000003,0.0096878000000012,0.0647608,-0.0424821999999994,-0.0513259999999991,-0.0299146,0,sub_16
-0.0058602000000003,0.0097066000000012,0.0657425999999999,-0.0360483999999993,-0.0411335999999991,-0.0268916,0,sub_16
-0.0034848000000003,0.0091064000000012,0.0658453999999999,-0.0317809999999993,-0.0358435999999991,-0.0215274,0,sub_16
-0.0010698000000003,0.0076962000000012,0.0661332,-0.0298807999999993,-0.0345949999999991,-0.0157474,0,sub_16
0.0004163999999996,0.0091316000000012,0.0653032,-0.0299085999999993,-0.0352563999999991,-0.0101918,0,sub_16
0.0005609999999996,0.0090312000000012,0.0651882,-0.0303661999999993,-0.0371919999999991,-0.0052786,0,sub_16
-0.0006678000000003,0.0090988000000012,0.0647326,-0.0299615999999993,-0.0382741999999991,-0.0014288,0,sub_16
-0.0015372000000003,0.0089690000000012,0.0642684,-0.0280459999999993,-0.0361629999999991,0.0017865999999999,0,sub_16
-0.0003216000000003,0.0072724000000012,0.0639532,-0.0248387999999994,-0.0310753999999991,0.0054345999999999,0,sub_16
0.0014563999999996,0.0028752000000012,0.0634932,-0.0218457999999994,-0.0266245999999991,0.0086543999999999,0,sub_16
0.0042663999999996,-0.0003853999999987,0.0613985999999999,-0.0207797999999994,-0.0247193999999991,0.0107957999999999,0,sub_16
0.0079685999999996,-0.0002641999999987,0.0596949999999999,-0.0218675999999994,-0.0260075999999991,0.0142081999999999,0,sub_16
0.0105845999999996,0.0005256000000012,0.0587485999999999,-0.0238205999999993,-0.0283641999999991,0.0191113999999999,0,sub_16
0.0079509999999996,0.0031374000000012,0.0587233999999999,-0.0257763999999993,-0.0328451999999991,0.0225215999999999,0,sub_16
0.0046853999999996,0.0051570000000012,0.0595055999999999,-0.0275215999999993,-0.0392391999999991,0.0246539999999999,0,sub_16
0.0017059999999996,0.0069318000000012,0.0606143999999999,-0.0284075999999994,-0.0466921999999991,0.0244437999999999,0,sub_16
-0.0025200000000003,0.0080836000000012,0.0608633999999999,-0.0277741999999994,-0.0530779999999991,0.0219041999999999,0,sub_16
-0.0076632000000003,0.0093800000000012,0.0605291999999999,-0.0232797999999994,-0.0586105999999991,0.0157585999999999,0,sub_16
-0.0099218000000003,0.0096548000000012,0.0599766,-0.0166431999999994,-0.0626575999999991,0.0091987999999999,0,sub_16
-0.0107484000000003,0.0082490000000012,0.0596918,-0.0095625999999994,-0.0620223999999991,0.0034905999999999,0,sub_16
-0.0105314000000003,0.0092404000000012,0.0596942,-0.0033267999999994,-0.0564959999999991,0.0007611999999999,0,sub_16
-0.0092618000000003,0.0084462000000012,0.059285,0.0018278000000005,-0.0488449999999991,0.0010009999999999,0,sub_16
-0.0073980000000003,0.0065392000000012,0.0593161999999999,0.0046312000000005,-0.0399157999999991,0.0033591999999999,0,sub_16
-0.0050604000000003,0.0049200000000012,0.0582343999999999,0.0067966000000005,-0.0299217999999991,0.0063525999999999,0,sub_16
-0.0025080000000003,0.0059234000000012,0.0571037999999999,0.0093830000000005,-0.0216319999999991,0.0089237999999999,0,sub_16
0.0007345999999996,0.0056704000000012,0.0552315999999999,0.0121740000000005,-0.0165333999999991,0.0102185999999999,0,sub_16
0.0035765999999996,0.0056930000000012,0.0537276,0.0153744000000005,-0.0156957999999991,0.0110945999999999,0,sub_16
0.0064527999999996,0.0062838000000012,0.0534364,0.0174928000000005,-0.0199609999999991,0.0102601999999999,0,sub_16
0.0082413999999996,0.0049216000000012,0.0527268,0.0181128000000005,-0.0265591999999991,0.0081365999999999,0,sub_16
0.0078185999999996,0.0043800000000012,0.0518318,0.0161578000000005,-0.0378297999999991,0.0045053999999999,0,sub_16
0.0058657999999996,0.0034510000000012,0.0516294,0.0150536000000005,-0.048469399999999,0.0021613999999999,0,sub_16
0.0049411999999996,0.0027818000000012,0.0517688,0.0137504000000005,-0.0557001999999991,2.4999999999941864e-05,0,sub_16
0.0048519999999996,0.0041098000000012,0.050722,0.0124482000000005,-0.0603835999999991,0.0002355999999999,0,sub_16
0.0047083999999996,0.0054682000000012,0.0506362,0.0113488000000005,-0.0650773999999991,0.0027975999999999,0,sub_16
0.0053705999999996,0.0059872000000012,0.051027,0.0117554000000005,-0.0650967999999991,0.0072869999999999,0,sub_16
0.0064371999999996,0.0058856000000012,0.0513694,0.0111018000000005,-0.0651065999999991,0.0102733999999999,0,sub_16
0.0065763999999996,0.0049660000000012,0.0517016,0.0089480000000005,-0.0678755999999991,0.0119709999999999,0,sub_16
0.0063523999999996,0.0032164000000012,0.0514026,0.0061560000000005,-0.0717017999999991,0.0121699999999999,0,sub_16
0.0063373999999996,0.0041370000000012,0.0507474,0.0037964000000005,-0.0748875999999991,0.0117303999999999,0,sub_16
0.0065423999999995,0.0053242000000012,0.049792,0.0027134000000005,-0.0793543999999991,0.0108739999999999,0,sub_16
0.0038709999999996,0.0057408000000012,0.0497268,0.0026990000000005,-0.0842477999999991,0.0091709999999999,0,sub_16
0.0010849999999996,0.0060306000000012,0.0495162,0.0029200000000005,-0.0855149999999991,0.0061831999999999,0,sub_16
-0.0017428000000003,0.0055556000000012,0.0501679999999999,0.0025172000000005,-0.0833701999999991,0.0029729999999999,0,sub_16
-0.0026312000000003,0.0046536000000012,0.0500219999999999,0.0014810000000005,-0.0788829999999991,0.0006097999999999,0,sub_16
-0.0029034000000003,0.0047688000000012,0.0503211999999999,0.0002246000000006,-0.0737643999999991,0.0003807999999999,0,sub_16
-0.0008864000000003,0.0056314000000012,0.0497791999999999,-0.0010345999999993,-0.0673749999999991,0.0020729999999999,0,sub_16
-0.0007406000000003,0.0058292000000012,0.0496559999999999,-0.0016603999999993,-0.0620547999999991,0.0041981999999999,0,sub_16
0.0002719999999996,0.0058654000000012,0.0491062,-0.0022909999999993,-0.0588609999999991,0.0052579999999999,0,sub_16
-0.0003318000000003,0.0058398000000012,0.0497052,-0.0035605999999993,-0.0573617999999991,0.0043925999999999,0,sub_16
-0.0027922000000003,0.0054570000000012,0.0498368,-0.0056751999999993,-0.0556397999999991,0.0018119999999999,0,sub_16
-0.0052528000000003,0.0052252000000012,0.0500822,-0.0077867999999993,-0.0528541999999991,-0.0003428,0,sub_16
-0.0058850000000003,0.0057928000000012,0.0501188,-0.0090399999999993,-0.0485819999999991,-0.002066,0,sub_16
-0.0071182000000003,0.0059568000000012,0.0503475999999999,-0.0092273999999993,-0.0432531999999991,-0.0025014,0,sub_16
-0.0083086000000003,0.0062032000000012,0.0506829999999999,-0.0085575999999994,-0.0370751999999991,-0.0029318,0,sub_16
-0.0081670000000003,0.0059100000000012,0.0510587999999999,-0.0070273999999994,-0.0300453999999991,-0.0039984,0,sub_16
-0.0083300000000003,0.0056726000000012,0.0509755999999999,-0.0057087999999994,-0.0238619999999991,-0.0063472,0,sub_16
-0.0092514000000003,0.0058530000000012,0.050749,-0.0050285999999994,-0.0174623999999991,-0.0089144,0,sub_16
-0.0101202000000003,0.0061330000000012,0.0508628,-0.0041319999999994,-0.0099999999999991,-0.0110542,0,sub_16
-0.0088386000000003,0.0071310000000012,0.050748,-0.0023857999999994,-0.0019073999999991,-0.0116934,0,sub_16
-0.0087198000000003,0.0073646000000012,0.0508812,-0.0008529999999994,0.0068226000000008,-0.0116938,0,sub_16
-0.0079556000000003,0.0074228000000012,0.0513584,-0.0001841999999994,0.0142730000000008,-0.0106304,0,sub_16
-0.0056920000000003,0.0057762000000012,0.051746,-0.0003821999999993,0.0195924000000008,-0.0087158,0,sub_16
-0.0035378000000003,0.0057624000000012,0.0518774,-0.0018575999999993,0.0247066000000008,-0.0076644,0,sub_16
-0.0036852000000003,0.0049166000000012,0.0520532,-0.0044073999999993,0.0272714000000008,-0.0074718,0,sub_16
-0.0031484000000003,0.0049528000000012,0.0514265999999999,-0.0069677999999993,0.0270680000000008,-0.0077032,0,sub_16
-0.0020900000000003,0.0052396000000012,0.0510813999999999,-0.0088871999999994,0.0264390000000008,-0.0085704,0,sub_16
-0.0023080000000003,0.0061260000000012,0.0514603999999999,-0.0095223999999994,0.0266578000000008,-0.0094298,0,sub_16
-0.0030812000000003,0.0054928000000012,0.0513445999999999,-0.0084461999999994,0.0262254000000008,-0.0096236,0,sub_16
-0.0030290000000003,0.0052508000000012,0.0512609999999999,-0.0075785999999994,0.0268590000000008,-0.0098202,0,sub_16
-0.0026620000000003,0.0046376000000012,0.0511652,-0.0069223999999994,0.0279196000000008,-0.0100188,0,sub_16
-0.0024574000000003,0.0047506000000012,0.0509896,-0.0066861999999994,0.0296242000000008,-0.0110758,0,sub_16
-0.0014554000000003,0.0052746000000012,0.0506686,-0.0068797999999994,0.0298424000000008,-0.0129884,0,sub_16
5.219999999963509e-05,0.0069384000000012,0.051006,-0.0079427999999994,0.0285764000000008,-0.0151308,0,sub_16
0.0020019999999996,0.0083928000000012,0.0516312,-0.0085819999999994,0.0262454000000008,-0.017696,0,sub_16
0.0032013999999996,0.0093970000000012,0.0523196,-0.0092037999999994,0.0248230000000008,-0.0209062,0,sub_16
0.0038553999999996,0.0099800000000012,0.0530753999999999,-0.0089987999999994,0.0208274000000008,-0.0206892,0,sub_16
0.0034337999999996,0.0091056000000012,0.0534917999999999,-0.0088023999999994,0.0170362000000008,-0.018336,0,sub_16
0.0026447999999996,0.0070368000000012,0.0535375999999999,-0.0086061999999993,0.0132450000000008,-0.0159828,0,sub_16
0.0016071999999996,0.0057810000000012,0.0532693999999999,-0.0090451999999993,0.0105214000000008,-0.0136354,0,sub_16
0.0015833999999996,0.0051364000000012,0.053781,-0.0090777999999993,0.0062484000000008,-0.0106392,0,sub_16
0.0016779999999996,0.0042326000000012,0.0535718,-0.0097361999999993,0.0034758000000008,-0.0093584,0,sub_16
0.0025495999999996,0.0047876000000012,0.0538524,-0.0101783999999993,0.0007050000000008,-0.0087169999999999,0,sub_16
0.0030173999999996,0.0054124000000012,0.0541486,-0.0104071999999994,-0.0016419999999991,-0.0076471999999999,0,sub_16
0.0030635999999996,0.0048912000000012,0.054297,-0.0099309999999994,-0.0042131999999991,-0.0061755999999999,0,sub_16
0.0031473999999996,0.0042276000000012,0.0537114,-0.0100957999999994,-0.0065705999999991,-0.0042814,0,sub_16
0.0020649999999996,0.0049900000000012,0.0548144,-0.0096127999999994,-0.0087113999999991,-0.0038783999999999,0,sub_16
0.0005361999999996,0.0053438000000012,0.0548915999999999,-0.0089067999999994,-0.0108443999999991,-0.0056104,0,sub_16
-0.0003244000000003,0.0055812000000012,0.0547001999999999,-0.0081891999999994,-0.0121183999999991,-0.0090526,0,sub_16
-0.0013746000000003,0.0061550000000012,0.0551253999999999,-0.0081823999999994,-0.0140221999999991,-0.0124684,0,sub_16
-0.0027724000000003,0.0068010000000012,0.0560475999999999,-0.0077479999999994,-0.0148657999999991,-0.015028,0,sub_16
-0.0030288000000003,0.0054016000000012,0.05561,-0.0077393999999994,-0.0142215999999991,-0.0163106,0,sub_16
-0.0027052000000003,0.0045056000000012,0.0555664,-0.0081047999999994,-0.0124107999999991,-0.015466,0,sub_16
-0.0028738000000003,0.0053162000000012,0.0559025999999999,-0.0084845999999994,-0.0112493999999991,-0.0120568,0,sub_16
-0.0030354000000003,0.0056844000000012,0.0559235999999999,-0.0073707999999994,-0.0090323999999991,-0.0075704,0,sub_16
-0.0021726000000003,0.0059978000000012,0.0549065999999999,-0.0056119999999994,-0.0059643999999991,-0.0032942,0,sub_16
-0.0020788000000003,0.0062232000000012,0.0544149999999999,-0.0038531999999994,-0.0033207999999991,0.0005551999999999,0,sub_16
-0.0024492000000003,0.0067298000000012,0.0536409999999999,-0.0017203999999994,-0.0005705999999991,0.0035575999999999,0,sub_16
-0.0025216000000003,0.0054972000000012,0.0536543999999999,0.0006276000000005,0.0013318000000008,0.0052805999999999,0,sub_16
-0.0024358000000003,0.0038638000000012,0.0536588,0.0019662000000005,0.0031966000000008,0.0053033999999999,0,sub_16
-0.0031882000000003,0.0026734000000012,0.0541136,0.0020218000000005,0.0033656000000008,0.0042511999999999,0,sub_16
-0.0034732000000003,0.0032922000000012,0.0544174,0.0014344000000005,0.0033220000000008,0.0036221999999999,0,sub_16
-0.0042076000000003,0.0042640000000012,0.055336,0.0006250000000005,0.0019984000000008,0.0036341999999999,0,sub_16
-0.0050326000000003,0.0055130000000012,0.056556,-0.0001785999999994,0.0019530000000008,0.0036445999999999,0,sub_16
-0.0058180000000003,0.0067518000000012,0.0569762,-0.0012443999999994,0.0025940000000008,0.0040635999999999,0,sub_16
-0.0061928000000003,0.0079876000000012,0.057184,-0.0010309999999994,0.0036542000000008,0.0051319999999999,0,sub_16
-0.0063726000000003,0.0079034000000012,0.0571888,0.0002520000000005,0.0049256000000008,0.0057801999999999,0,sub_16
