userAcceleration.x,userAcceleration.y,userAcceleration.z,rotationRate.x,rotationRate.y,rotationRate.z,label,subject
0.0392567999999996,-0.0039661999999987,-0.0078998,-0.0039373999999995,-0.012450399999999,-0.0277346,0,sub_3
0.0395565999999997,-0.0046805999999987,-0.0076196,-0.0092005999999995,-0.017551399999999,-0.0297088,0,sub_3
0.0396879999999997,-0.0058391999999987,-0.0081788,-0.0163859999999995,-0.022222799999999,-0.0308426,0,sub_3
0.0405945999999996,-0.0060139999999987,-0.0101394,-0.0229343999999995,-0.026474599999999,-0.0309042,0,sub_3
0.0419043999999996,-0.0058267999999987,-0.0122634,-0.0273471999999995,-0.029034599999999,-0.0296712,0,sub_3
0.0433491999999996,-0.0062425999999987,-0.0143008,-0.0301459999999995,-0.032654599999999,-0.0277634,0,sub_3
0.0436417999999996,-0.0069811999999987,-0.0160162,-0.0320903999999994,-0.035427799999999,-0.0252096,0,sub_3
0.0438647999999996,-0.0072229999999987,-0.0177872,-0.0331745999999994,-0.036500399999999,-0.0224384,0,sub_3
0.0433451999999997,-0.0070401999999987,-0.0182248,-0.0331945999999994,-0.037154999999999,-0.0185922,0,sub_3
0.0431981999999997,-0.0079559999999987,-0.0178656,-0.0327427999999994,-0.038541799999999,-0.0152118,0,sub_3
0.0433913999999997,-0.0077601999999987,-0.0176584,-0.0316479999999994,-0.039291399999999,-0.0118278,0,sub_3
0.0428137999999997,-0.0072627999999987,-0.0174184,-0.0294805999999994,-0.039190999999999,-0.0088648,0,sub_3
0.0430625999999996,-0.0069229999999987,-0.0161572,-0.0264607999999994,-0.038457799999999,-0.005042,0,sub_3
0.0430491999999996,-0.0068105999999987,-0.0157378,-0.0230113999999994,-0.037298999999999,-0.0014304,0,sub_3
0.0428029999999996,-0.0053317999999987,-0.015051,-0.0191745999999994,-0.034557199999999,0.0022247999999999,0,sub_3
0.0418627999999996,-0.0046269999999987,-0.014542,-0.0148743999999994,-0.030691999999999,0.0058693999999999,0,sub_3
0.0419251999999996,-0.0037565999999986,-0.0135524,-0.0107885999999994,-0.027463399999999,0.0090859999999999,0,sub_3
0.0409905999999997,-0.0031723999999987,-0.012392,-0.0066957999999994,-0.024016599999999,0.0110205999999999,0,sub_3
0.0399929999999997,-0.0028223999999987,-0.011603,-0.0034497999999995,-0.019712199999999,0.0123073999999999,0,sub_3
0.0390749999999997,-0.0027271999999987,-0.01053,-0.0001989999999995,-0.015403399999999,0.0125257999999999,0,sub_3
0.0387995999999997,-0.0029633999999986,-0.008791,0.0032428000000004,-0.010297799999999,0.0114751999999999,0,sub_3
0.0375845999999997,-0.0031437999999987,-0.0067816,0.0062646000000004,-0.004335799999999,0.0097795999999999,0,sub_3
0.0363001999999997,-0.0030149999999987,-0.0053506,0.0088644000000004,0.0018440000000009,0.0072261999999999,0,sub_3
0.0352691999999997,-0.0024053999999987,-0.0039536,0.0106134000000004,0.0080294000000009,0.0040257999999999,0,sub_3
0.0348873999999996,-0.0024359999999987,-0.0034742,0.0110816000000004,0.0154988000000009,0.0006241999999999,0,sub_3
0.0343609999999997,-0.0021349999999987,-0.0040462,0.0089894000000004,0.0231894000000009,-0.0025819999999999,0,sub_3
0.0352553999999996,-0.0014121999999987,-0.0057878,0.0056140000000005,0.0296086000000009,-0.0064363999999999,0,sub_3
0.0361207999999996,-0.0020109999999987,-0.008712,-0.0001151999999994,0.0349690000000009,-0.0098787999999999,0,sub_3
0.0382587999999996,-0.0025765999999987,-0.0123808,-0.0071253999999994,0.0399086000000009,-0.0135431999999999,0,sub_3
0.0409479999999996,-0.0013707999999987,-0.0158082,-0.0135025999999994,0.0416498000000009,-0.0172219999999999,0,sub_3
0.0438651999999996,-0.0001929999999987,-0.0194318,-0.0194665999999994,0.0401946000000009,-0.0211073999999999,0,sub_3
0.0453607999999997,-0.0002949999999987,-0.0237164,-0.0245979999999995,0.0359590000000009,-0.0230606,0,sub_3
0.0469785999999997,-6.939999999875319e-05,-0.0265978,-0.0248507999999995,0.0299890000000009,-0.0240638,0,sub_3
0.0476881999999996,-0.0004727999999987,-0.0279642,-0.0210629999999995,0.0229320000000009,-0.0231145999999999,0,sub_3
0.0475021999999996,-0.0032773999999987,-0.0285806,-0.0155853999999995,0.0143682000000009,-0.0198015999999999,0,sub_3
0.0466621999999996,-0.0060711999999987,-0.0274902,-0.0071319999999995,0.0055714000000009,-0.0141173999999999,0,sub_3
0.0458411999999996,-0.0078235999999987,-0.0251934,0.0034646000000004,0.0001710000000009,-0.0071407999999999,0,sub_3
0.0450561999999996,-0.0085991999999987,-0.0222192,0.0125860000000004,-0.003303999999999,0.0014731999999999,0,sub_3
0.0439963999999996,-0.0092515999999987,-0.0197252,0.0199994000000004,-0.005925199999999,0.0111423999999999,0,sub_3
0.0431305999999996,-0.0088273999999987,-0.0175246,0.0266182000000004,-0.005289199999999,0.0206817999999999,0,sub_3
0.0423645999999996,-0.0084463999999987,-0.015422,0.0319636000000004,-0.003369399999999,0.0299969999999999,0,sub_3
0.0422457999999997,-0.0081153999999987,-0.0128236,0.0353934000000005,-0.002287599999999,0.0373771999999999,0,sub_3
0.0418347999999997,-0.0071439999999987,-0.009895,0.0371228000000004,-0.001618199999999,0.0428231999999999,0,sub_3
0.0407019999999996,-0.0051543999999987,-0.0062402,0.0373702000000004,-0.000721199999999,0.0459083999999999,0,sub_3
0.0388275999999996,-0.0036595999999987,-0.0020308,0.0371588000000004,0.0007668000000009,0.0469733999999999,0,sub_3
0.0362965999999996,-0.0023083999999987,0.0024643999999999,0.0373904000000004,0.0043896000000009,0.0465429999999999,0,sub_3
0.0325989999999996,-0.0001897999999987,0.0063741999999999,0.0367792000000004,0.0101468000000009,0.0458903999999999,0,sub_3
0.0301965999999996,0.0012890000000012,0.0093015999999998,0.0359680000000004,0.0174020000000009,0.0437389999999999,0,sub_3
0.0293813999999997,0.0020190000000012,0.0106887999999998,0.0341794000000004,0.0262708000000009,0.0397215999999999,0,sub_3
0.0297705999999997,0.0036044000000012,0.0094319999999998,0.0281330000000004,0.0345262000000009,0.0328977999999999,0,sub_3
0.0311499999999997,0.0051918000000012,0.0056895999999998,0.0184658000000004,0.0406784000000009,0.0224195999999999,0,sub_3
0.0340523999999997,0.0047282000000012,0.0011411999999999,0.0090138000000004,0.0438608000000009,0.0085283999999999,0,sub_3
0.0364269999999996,0.0038272000000012,-0.003429,-1.519999999950554e-05,0.0451284000000009,-0.0064256,0,sub_3
0.0375531999999997,0.0026728000000012,-0.0075348,-0.0072083999999995,0.0443594000000009,-0.0210026,0,sub_3
0.0382891999999997,0.0001318000000012,-0.0108638,-0.0112145999999995,0.0437796000000009,-0.032353,0,sub_3
0.0394675999999997,-0.0025891999999987,-0.0123832,-0.0113463999999995,0.0449540000000008,-0.0400169999999999,0,sub_3
0.0406709999999997,-0.0040585999999987,-0.0146692,-0.0078557999999995,0.0501434000000008,-0.0425335999999999,0,sub_3
0.0420533999999997,-0.0062999999999987,-0.0177114,-0.0020237999999995,0.0582902000000008,-0.0407646,0,sub_3
0.0449323999999997,-0.0075967999999987,-0.0207726,0.0055036000000004,0.0670574000000008,-0.0357798,0,sub_3
0.0477749999999997,-0.0093213999999987,-0.022294,0.0145208000000004,0.0758160000000008,-0.02993,0,sub_3
0.0503501999999997,-0.0102707999999987,-0.0245414,0.0217802000000004,0.0842830000000008,-0.0224126,0,sub_3
0.0534367999999996,-0.0092955999999987,-0.0250156,0.0275366000000004,0.0910490000000008,-0.0144762,0,sub_3
0.0563491999999996,-0.0074793999999987,-0.025237,0.0334928000000004,0.0937706000000008,-0.0076016,0,sub_3
0.0577099999999996,-0.0068495999999987,-0.024881,0.0375672000000004,0.0939252000000008,-0.0004718,0,sub_3
0.0572555999999996,-0.0051119999999987,-0.0248072,0.0403490000000004,0.0915266000000008,0.0068659999999999,0,sub_3
0.0566257999999996,-0.0039319999999987,-0.0238778,0.0446224000000004,0.0880600000000008,0.0135745999999999,0,sub_3
0.0549305999999996,-0.0052143999999987,-0.021963,0.0480346000000004,0.0816188000000009,0.0189991999999999,0,sub_3
0.0513149999999996,-0.0063883999999987,-0.018367,0.0505828000000004,0.0732614000000008,0.0248475999999999,0,sub_3
0.0469697999999997,-0.0071581999999987,-0.013182,0.0550128000000004,0.0657734000000008,0.0287337999999999,0,sub_3
0.0438999999999997,-0.0080485999999987,-0.0074184,0.0594456000000005,0.0591370000000008,0.0328323999999999,0,sub_3
0.0409651999999997,-0.0087703999999987,-0.0008372,0.0623878000000004,0.0518718000000008,0.0356395999999999,0,sub_3
0.0381385999999997,-0.0084761999999987,0.0035973999999999,0.0627838000000004,0.0469624000000008,0.0375713999999999,0,sub_3
0.0376395999999997,-0.0069945999999987,0.0048789999999999,0.0589516000000004,0.0463196000000009,0.0371379999999999,0,sub_3
0.0392149999999997,-0.0054171999999987,0.0026573999999999,0.0500080000000004,0.0459154000000009,0.0347457999999999,0,sub_3
0.0416699999999997,-0.0038061999999987,-0.0015796,0.0382992000000004,0.0438308000000009,0.0287045999999999,0,sub_3
0.0438693999999997,-0.0020325999999987,-0.0076664,0.0253120000000004,0.0394182000000009,0.0198799999999999,0,sub_3
0.0467113999999996,-0.0021545999999987,-0.0134154,0.0129544000000004,0.0309622000000009,0.0093559999999999,0,sub_3
0.0478365999999996,-0.0032927999999987,-0.0169378,0.0022734000000005,0.0176198000000009,-0.0013836,0,sub_3
0.0480673999999997,-0.0046157999999987,-0.0191324,-0.0067189999999994,0.0010722000000009,-0.0112528,0,sub_3
0.0471533999999997,-0.0057743999999987,-0.019931,-0.0142253999999994,-0.014850799999999,-0.0187624,0,sub_3
0.0467381999999996,-0.0068893999999987,-0.0207804,-0.0224453999999994,-0.029118399999999,-0.023362,0,sub_3
0.0461313999999997,-0.0070917999999987,-0.021518,-0.0298097999999994,-0.039779799999999,-0.0247556,0,sub_3
0.0466155999999996,-0.0083935999999987,-0.0226034,-0.0358931999999994,-0.047474199999999,-0.0233668,0,sub_3
0.0476575999999996,-0.0105913999999987,-0.0234998,-0.0406981999999994,-0.052628199999999,-0.0189812,0,sub_3
0.0500739999999996,-0.0120289999999987,-0.0235436,-0.0452975999999995,-0.057577599999999,-0.0126716,0,sub_3
0.0527379999999996,-0.0125901999999987,-0.0220688,-0.0470725999999995,-0.064210399999999,-0.0041296,0,sub_3
0.0549237999999996,-0.0125537999999987,-0.0197872,-0.0475827999999995,-0.073407799999999,0.0052787999999999,0,sub_3
0.0566721999999997,-0.0116473999999987,-0.0173146,-0.0477247999999995,-0.0833741999999991,0.0153103999999999,0,sub_3
0.0575171999999997,-0.0098227999999987,-0.0149436,-0.0467939999999995,-0.092278399999999,0.0251343999999999,0,sub_3
0.0571827999999997,-0.0077295999999987,-0.013669,-0.0437237999999995,-0.100760399999999,0.0341181999999999,0,sub_3
0.0557591999999996,-0.0059951999999987,-0.0133576,-0.0391513999999995,-0.1081789999999991,0.0422563999999999,0,sub_3
0.0545555999999997,-0.0054039999999987,-0.0120236,-0.0335081999999995,-0.1162343999999991,0.0489075999999999,0,sub_3
0.0525343999999996,-0.0055599999999987,-0.0095078,-0.0278073999999995,-0.125432999999999,0.0532319999999999,0,sub_3
0.0495451999999996,-0.0061683999999987,-0.0062356,-0.0240231999999995,-0.1358945999999991,0.0554081999999999,0,sub_3
0.0466709999999997,-0.0065981999999987,-0.0027946,-0.0227869999999995,-0.146336199999999,0.0547893999999999,0,sub_3
0.0446379999999997,-0.0073529999999987,0.0011453999999999,-0.0238787999999994,-0.156327999999999,0.0503081999999999,0,sub_3
0.0425837999999997,-0.0064841999999987,0.0035485999999999,-0.0310079999999994,-0.163140199999999,0.0428021999999999,0,sub_3
0.0406149999999997,-0.0045397999999987,0.0021009999999999,-0.0423767999999994,-0.1654563999999991,0.0335515999999999,0,sub_3
0.0405117999999996,-0.0023635999999987,4.879999999992703e-05,-0.0532967999999994,-0.1645713999999991,0.0225909999999999,0,sub_3
0.0402299999999996,-0.0015895999999987,-0.0042072,-0.0639879999999994,-0.1607027999999991,0.0112005999999999,0,sub_3
0.0393995999999996,-0.0006817999999987,-0.0081398,-0.0753201999999994,-0.155771999999999,0.0010863999999999,0,sub_3
0.0386709999999996,-0.0008349999999987,-0.0125644,-0.0812303999999994,-0.149964599999999,-0.0075082,0,sub_3
0.0396423999999996,-0.0016369999999987,-0.0140158,-0.0811795999999994,-0.1444021999999991,-0.0132834,0,sub_3
0.0392751999999996,-0.0032443999999987,-0.015544,-0.0781559999999994,-0.138863199999999,-0.0158332,0,sub_3
0.0395011999999996,-0.0047455999999987,-0.0157418,-0.0714827999999995,-0.1325993999999991,-0.0139232,0,sub_3
0.0392327999999997,-0.0063105999999987,-0.0167752,-0.0609649999999995,-0.121677199999999,-0.0081468,0,sub_3
0.0386571999999997,-0.0065691999999987,-0.016719,-0.0481029999999995,-0.108855999999999,0.0002073999999999,0,sub_3
0.0373519999999997,-0.0056329999999987,-0.0163688,-0.0341693999999995,-0.0945487999999991,0.0089943999999999,0,sub_3
0.0357171999999997,-0.0035005999999987,-0.0146048,-0.0193735999999995,-0.0785391999999991,0.0175715999999999,0,sub_3
0.0331517999999997,-0.0018893999999987,-0.0119448,-0.0046019999999995,-0.0607223999999991,0.0247021999999999,0,sub_3
0.0316693999999996,-0.0006365999999987,-0.0089748,0.0074110000000004,-0.042245599999999,0.0290353999999999,0,sub_3
0.0314975999999997,0.0005544000000012,-0.007572,0.0152608000000004,-0.023537599999999,0.0296721999999999,0,sub_3
0.0324093999999997,0.0007288000000012,-0.0072232,0.0192844000000004,-0.0056521999999991,0.0262239999999999,0,sub_3
0.0348557999999997,0.0011128000000012,-0.009105,0.0203284000000004,0.0103406000000008,0.0191255999999999,0,sub_3
0.0381233999999997,0.0007312000000012,-0.0115162,0.0177392000000004,0.0216726000000008,0.0085893999999999,0,sub_3
0.0401627999999997,0.0005952000000012,-0.0143954,0.0138526000000004,0.0274766000000008,-0.003658,0,sub_3
0.0409553999999997,0.0001082000000012,-0.0156672,0.0107124000000004,0.0292390000000008,-0.0154326,0,sub_3
0.0405001999999996,-0.0008125999999987,-0.0168198,0.0099000000000004,0.0290664000000008,-0.0248384,0,sub_3
0.0393095999999997,-0.0023451999999987,-0.0168624,0.0109946000000004,0.0292996000000008,-0.0308132,0,sub_3
0.0379729999999997,-0.0020377999999987,-0.017369,0.0152966000000004,0.0346204000000008,-0.03314,0,sub_3
0.0368637999999997,-0.0021191999999987,-0.0175802,0.0234510000000004,0.0439668000000008,-0.0326962,0,sub_3
0.0361689999999996,-0.0027363999999987,-0.0173286,0.0339564000000004,0.0571282000000008,-0.0292498,0,sub_3
0.0353817999999997,-0.0022883999999987,-0.0170424,0.0438292000000005,0.0732692000000009,-0.0245296,0,sub_3
0.0351895999999997,-0.0029611999999987,-0.01642,0.0519950000000004,0.0887796000000009,-0.0204615999999999,0,sub_3
0.0357017999999996,-0.0037999999999987,-0.0146474,0.0584472000000004,0.1019558000000008,-0.0172572,0,sub_3
0.0364665999999996,-0.0046227999999987,-0.0129078,0.0614774000000004,0.1132302000000008,-0.0155412,0,sub_3
0.0374631999999997,-0.0047485999999987,-0.0129162,0.0617368000000004,0.1226070000000008,-0.016406,0,sub_3
0.0396219999999997,-0.0052095999999987,-0.012221,0.0609236000000004,0.1290118000000009,-0.0189836,0,sub_3
0.0417561999999997,-0.0040285999999987,-0.0128524,0.0586158000000004,0.1337234000000008,-0.023065,0,sub_3
0.0435507999999997,-0.0036245999999987,-0.014464,0.0536018000000004,0.1342796000000009,-0.0289826,0,sub_3
0.0460645999999996,-0.0031435999999987,-0.016071,0.0500738000000004,0.1333386000000008,-0.0346744,0,sub_3
0.0481117999999996,-0.0038387999999987,-0.016553,0.0465284000000004,0.1302602000000008,-0.0386542,0,sub_3
0.0489439999999996,-0.0051491999999987,-0.0172958,0.0438194000000004,0.1256780000000008,-0.0402762,0,sub_3
0.0493349999999996,-0.0066011999999987,-0.0172588,0.0440822000000004,0.1197984000000008,-0.0397394,0,sub_3
0.0492475999999996,-0.0074133999999987,-0.0166592,0.0472474000000004,0.1146630000000008,-0.0369332,0,sub_3
0.0491599999999996,-0.0082909999999987,-0.0160806,0.0489094000000005,0.1088874000000008,-0.0326412,0,sub_3
0.0505657999999996,-0.0088331999999987,-0.0168652,0.0499294000000005,0.1024758000000008,-0.0285666,0,sub_3
0.0527925999999996,-0.0095245999999987,-0.0177376,0.0483908000000005,0.0948018000000008,-0.0262176,0,sub_3
0.0557085999999996,-0.0095065999999987,-0.0183632,0.0432182000000005,0.0843758000000008,-0.025172,0,sub_3
0.0587605999999997,-0.0096547999999987,-0.0197802,0.0363298000000004,0.0699162000000008,-0.0262698,0,sub_3
0.0613175999999997,-0.0099741999999987,-0.0210434,0.0283612000000004,0.0505680000000009,-0.0292918,0,sub_3
0.0616333999999997,-0.0096787999999987,-0.0208984,0.0193142000000004,0.0286670000000008,-0.032318,0,sub_3
0.0593985999999997,-0.0097037999999987,-0.020837,0.0098896000000004,0.0060868000000008,-0.0341024,0,sub_3
0.0549589999999997,-0.0108379999999987,-0.020575,0.0004630000000004,-0.0145851999999991,-0.0335394,0,sub_3
0.0497313999999997,-0.0119509999999987,-0.0194566,-0.0068239999999995,-0.030378999999999,-0.0293358,0,sub_3
0.0456113999999997,-0.0124493999999987,-0.018052,-0.0128163999999995,-0.040434999999999,-0.0225666,0,sub_3
0.0424787999999996,-0.0128555999999987,-0.0171474,-0.0181505999999995,-0.047081999999999,-0.0164382,0,sub_3
0.0434921999999996,-0.0122947999999987,-0.016142,-0.0235233999999995,-0.051765999999999,-0.0126242,0,sub_3
0.0458051999999996,-0.0113357999999987,-0.0153594,-0.0286739999999995,-0.056655199999999,-0.0109448,0,sub_3
0.0482785999999996,-0.0097135999999987,-0.0144924,-0.0351087999999995,-0.064513999999999,-0.0114068,0,sub_3
0.0490815999999996,-0.0074155999999987,-0.0142404,-0.0405933999999995,-0.073740399999999,-0.0121234,0,sub_3
0.0489345999999996,-0.0059167999999987,-0.0134604,-0.0441583999999995,-0.081064399999999,-0.0106926,0,sub_3
0.0464845999999996,-0.0038027999999987,-0.0133342,-0.0447419999999995,-0.087130599999999,-0.0066788,0,sub_3
0.0448111999999997,-0.0020597999999987,-0.013215,-0.0429717999999995,-0.091925999999999,-0.0028638,0,sub_3
0.0438243999999997,-0.0012517999999987,-0.0131474,-0.0407643999999995,-0.095440399999999,-0.0001158,0,sub_3
0.0433071999999997,-0.0017273999999987,-0.0126584,-0.0390775999999995,-0.099071599999999,0.0007551999999999,0,sub_3
0.0428799999999997,-0.0016983999999987,-0.0124182,-0.0369601999999995,-0.103761999999999,-0.0002922,0,sub_3
0.0422717999999996,-0.0031697999999987,-0.0115528,-0.0350465999999995,-0.106745599999999,-0.0017706,0,sub_3
0.0403247999999996,-0.0044783999999987,-0.0114904,-0.0344365999999995,-0.106920599999999,-0.0019622,0,sub_3
0.0388549999999996,-0.0046187999999987,-0.0110054,-0.0338147999999995,-0.1036901999999991,-0.0013036,0,sub_3
0.0387195999999996,-0.0038979999999987,-0.0104176,-0.0312649999999995,-0.0989743999999991,-0.000847,0,sub_3
0.0386105999999996,-0.0041941999999987,-0.010261,-0.0308413999999995,-0.0931831999999991,-0.0010476,0,sub_3
0.0382437999999996,-0.0038113999999987,-0.0109844,-0.0321235999999995,-0.087597399999999,-0.001687,0,sub_3
0.0388889999999996,-0.0030043999999987,-0.010949,-0.0316593999999995,-0.080775199999999,-0.003188,0,sub_3
0.0387687999999997,-0.0027265999999987,-0.0112328,-0.0311961999999995,-0.073104999999999,-0.0036218,0,sub_3
0.0376237999999996,-0.0028523999999987,-0.0115688,-0.0307329999999995,-0.064373799999999,-0.0029888,0,sub_3
0.0368413999999997,-0.0020549999999987,-0.011558,-0.0269893999999995,-0.055689399999999,-0.001395,0,sub_3
0.0363873999999997,-0.0010415999999987,-0.0109288,-0.0208987999999995,-0.0472253999999991,1.7999999999667587e-06,0,sub_3
0.0358253999999997,-0.0004763999999987,-0.0104008,-0.0150251999999995,-0.0394007999999991,0.0016115999999999,0,sub_3
0.0357783999999997,-0.0007307999999987,-0.0109418,-0.0093583999999995,-0.0309327999999991,0.0023643999999999,0,sub_3
0.0352149999999997,-0.0015643999999987,-0.0117688,-0.0051765999999994,-0.0209663999999991,0.0026777999999999,0,sub_3
0.0352709999999997,-0.0011423999999987,-0.0121642,-0.0012811999999994,-0.0094723999999991,0.0020493999999999,0,sub_3
0.0355695999999997,-0.0009673999999987,-0.0124904,0.0030418000000005,0.0022332000000008,0.0014235999999999,0,sub_3
0.0358631999999996,-0.0017665999999987,-0.0127822,0.0067284000000005,0.0139444000000009,-6.120000000003344e-05,0,sub_3
0.0357873999999996,-0.0018843999999987,-0.0126356,0.0108988000000005,0.0238738000000009,-0.0022726,0,sub_3
0.0368255999999996,-0.0019313999999987,-0.012093,0.0161332000000004,0.0325238000000008,-0.005116,0,sub_3
0.0380099999999996,-0.0033705999999987,-0.0121656,0.0205104000000004,0.0413856000000009,-0.0068974,0,sub_3
0.0390307999999996,-0.0042729999999987,-0.0121506,0.0246752000000004,0.0515222000000008,-0.0076136,0,sub_3
0.0403631999999997,-0.0036645999999987,-0.0121724,0.0301184000000004,0.0618650000000009,-0.0076804,0,sub_3
0.0422107999999997,-0.0034255999999987,-0.0124704,0.0355016000000004,0.0737732000000009,-0.0065898,0,sub_3
0.0436123999999997,-0.0035303999999987,-0.0126134,0.0393884000000004,0.0852594000000009,-0.0052956,0,sub_3
0.0446677999999997,-0.0034217999999987,-0.0128938,0.0424178000000004,0.0948354000000009,-0.0050732,0,sub_3
0.0461133999999997,-0.0036219999999987,-0.0135698,0.0434666000000004,0.1019878000000008,-0.0058112,0,sub_3
0.0476839999999997,-0.0042739999999987,-0.0143042,0.0430132000000004,0.1070156000000008,-0.0067704,0,sub_3
0.0489523999999997,-0.0044229999999987,-0.0145358,0.0425446000000004,0.1084224000000008,-0.0079388,0,sub_3
0.0498199999999997,-0.0041933999999987,-0.0149522,0.0433474000000004,0.1085440000000008,-0.0084558,0,sub_3
0.0505231999999996,-0.0036783999999987,-0.014739,0.0443512000000004,0.1067440000000008,-0.0081142,0,sub_3
0.0522205999999996,-0.0033943999999987,-0.0154386,0.0456104000000004,0.1031134000000008,-0.0070326,0,sub_3
0.0534033999999996,-0.0024947999999987,-0.0157742,0.0468600000000004,0.0973524000000009,-0.0059484,0,sub_3
0.0537479999999996,-0.0035797999999987,-0.016324,0.0479440000000004,0.0919536000000009,-0.004568,0,sub_3
0.0537739999999996,-0.0051289999999987,-0.0173482,0.0466820000000004,0.0876248000000009,-0.0023506,0,sub_3
0.0547795999999996,-0.0062113999999987,-0.019028,0.0426536000000004,0.0835246000000008,-0.0016484,0,sub_3
0.0551747999999996,-0.0063167999999987,-0.0197524,0.0354392000000004,0.0785996000000009,-0.0050266,0,sub_3
0.0539107999999996,-0.0067853999999986,-0.0192102,0.0258766000000004,0.0711354000000008,-0.010768,0,sub_3
0.0530077999999996,-0.0055099999999986,-0.0172838,0.0190314000000004,0.0607460000000008,-0.0174254,0,sub_3
0.0509377999999996,-0.0053175999999987,-0.0128296,0.0179434000000004,0.0505454000000008,-0.0229746,0,sub_3
0.0463563999999997,-0.0045777999999987,-0.0066532,0.0206904000000004,0.0435092000000009,-0.0240146,0,sub_3
0.0413711999999997,-0.0050009999999987,0.0008835999999999,0.0291916000000004,0.0402666000000009,-0.019678,0,sub_3
0.0384949999999997,-0.0083699999999987,0.0051199999999999,0.0384586000000004,0.0458066000000009,-0.0127258,0,sub_3
0.0363415999999996,-0.0113773999999987,0.0047289999999999,0.0379498000000004,0.0586306000000009,-0.0073466,0,sub_3
