userAcceleration.x,userAcceleration.y,userAcceleration.z,rotationRate.x,rotationRate.y,rotationRate.z,label,subject
-0.0271028000000003,0.0020070000000012,0.0257565999999999,0.0288780000000005,0.0131042000000007,-0.0017942,0,sub_6
-0.0293074000000003,-0.0013451999999987,0.0273629999999999,0.0265118000000005,0.0077902000000007,-0.0028721999999999,0,sub_6
-0.0309276000000003,-0.0040965999999987,0.0279983999999999,0.0205000000000005,-0.0011345999999992,-0.0035436,0,sub_6
-0.0314624000000003,-0.0046571999999987,0.0272649999999999,0.0119066000000005,-0.0136763999999993,-0.0031601999999999,0,sub_6
-0.0332830000000003,-0.0017447999999987,0.0254457999999998,0.0034824000000005,-0.0343219999999993,-0.0010561999999999,0,sub_6
-0.0350874000000003,0.0003936000000012,0.0235589999999998,-0.0039121999999994,-0.0626437999999993,0.0017058,0,sub_6
-0.0356976000000003,0.0011800000000012,0.0229837999999998,-0.0102283999999994,-0.0871393999999993,0.0057524,0,sub_6
-0.0365082000000003,0.0009748000000012,0.0236633999999999,-0.0165061999999994,-0.1024763999999993,0.0104283999999999,0,sub_6
-0.0360114000000003,0.0013760000000012,0.0268863999999999,-0.0219037999999994,-0.1112143999999993,0.0157429999999999,0,sub_6
-0.0344778000000003,0.0007970000000012,0.0311465999999999,-0.0270659999999994,-0.1146283999999992,0.0214797999999999,0,sub_6
-0.0347834000000003,0.0011142000000012,0.0349123999999999,-0.0332633999999994,-0.1093103999999992,0.0289072,0,sub_6
-0.0376604000000003,0.0019280000000012,0.0381357999999999,-0.0432613999999994,-0.0948183999999992,0.03651,0,sub_6
-0.0418272000000003,0.0037220000000012,0.0419221999999998,-0.0540945999999994,-0.0760631999999992,0.0443149999999999,0,sub_6
-0.0465662000000003,0.0025370000000012,0.0436575999999998,-0.0636319999999994,-0.0553889999999992,0.0506311999999999,0,sub_6
-0.0493944000000003,-0.0019011999999987,0.0436877999999998,-0.0712413999999994,-0.0357757999999992,0.0541847999999999,0,sub_6
-0.0476282000000003,-0.0055425999999987,0.0414757999999999,-0.0775859999999994,-0.0214855999999992,0.0558313999999999,0,sub_6
-0.0423916000000003,-0.0049637999999987,0.0376423999999999,-0.0807423999999994,-0.0108251999999992,0.0566501999999999,0,sub_6
-0.0360184000000003,-0.0032197999999987,0.0335231999999999,-0.0819717999999994,0.0017442000000007,0.0579073999999999,0,sub_6
-0.0305426000000003,-0.0008141999999987,0.0297785999999999,-0.0821621999999994,0.0091924000000007,0.0602465999999999,0,sub_6
-0.0273570000000003,0.0001156000000012,0.0267171999999999,-0.0811231999999994,0.0057688000000007,0.0630356,0,sub_6
-0.0253168000000003,0.0014032000000012,0.0265119999999999,-0.0777513999999994,-0.0023441999999992,0.0643513999999999,0,sub_6
-0.0230038000000003,0.0023466000000012,0.0278763999999999,-0.0754645999999994,-0.0147135999999992,0.0654513999999999,0,sub_6
-0.0211130000000003,0.0026356000000012,0.0288573999999999,-0.0744599999999994,-0.0270803999999992,0.0669697999999999,0,sub_6
-0.0190260000000003,0.0022374000000012,0.0316619999999999,-0.0763965999999994,-0.0296345999999992,0.0680277999999999,0,sub_6
-0.0175714000000003,0.0027912000000012,0.0358451999999999,-0.0799873999999994,-0.0198283999999993,0.0696993999999999,0,sub_6
-0.0152788000000003,0.0015916000000012,0.0385427999999999,-0.0842083999999994,-0.0129767999999993,0.0713685999999999,0,sub_6
-0.0127878000000003,0.0001736000000012,0.0394463999999999,-0.0871905999999994,-0.0165639999999993,0.0717779999999999,0,sub_6
-0.0091158000000003,-0.0007549999999987,0.0401179999999999,-0.0900033999999994,-0.0310131999999993,0.0711342,0,sub_6
-0.0024658000000003,3.54000000012452e-05,0.0403699999999999,-0.0917895999999994,-0.0518679999999993,0.0730693999999999,0,sub_6
0.0031331999999996,0.0026100000000012,0.0394377999999999,-0.0914649999999994,-0.0757215999999992,0.0771596,0,sub_6
0.0016349999999996,0.0058252000000012,0.0397889999999999,-0.0888081999999994,-0.0979039999999992,0.0810521999999999,0,sub_6
-0.0035266000000003,0.0059216000000012,0.0416321999999999,-0.0846307999999994,-0.1156117999999992,0.0834541999999999,0,sub_6
-0.0094372000000003,0.0042844000000012,0.0430459999999999,-0.0795625999999994,-0.1275597999999992,0.0832913999999999,0,sub_6
-0.0169010000000003,0.0005660000000012,0.0434627999999999,-0.0763181999999994,-0.1336965999999993,0.0773058,0,sub_6
-0.0201078000000003,-0.0019975999999987,0.0446055999999999,-0.0747299999999994,-0.1334161999999993,0.0663863999999999,0,sub_6
-0.0170748000000003,-0.0016323999999987,0.0452789999999999,-0.0769583999999994,-0.1252497999999993,0.057994,0,sub_6
-0.0119072000000003,0.0035132000000012,0.0467293999999999,-0.0826035999999994,-0.1119809999999993,0.0553396,0,sub_6
-0.0072826000000003,0.0085092000000012,0.0505145999999998,-0.0899969999999994,-0.1036235999999992,0.056952,0,sub_6
-0.0037642000000003,0.0114592000000012,0.0549981999999999,-0.0961799999999994,-0.0978683999999992,0.0616016,0,sub_6
-0.0043122000000003,0.0106296000000012,0.0608105999999999,-0.1023917999999994,-0.0972315999999992,0.0675396,0,sub_6
-0.0073710000000003,0.0076868000000012,0.0653453999999999,-0.1094405999999994,-0.0948795999999992,0.0715465999999999,0,sub_6
-0.0081698000000003,0.0026728000000012,0.0673125999999999,-0.1173055999999994,-0.0897327999999992,0.0699895999999999,0,sub_6
-0.0068820000000003,-0.0011619999999987,0.0668501999999999,-0.1212751999999994,-0.0769115999999992,0.0639633999999999,0,sub_6
-0.0056764000000003,-0.0047491999999987,0.0633515999999999,-0.1252667999999994,-0.0723857999999993,0.0545291999999999,0,sub_6
-0.0052114000000003,-0.0077161999999987,0.0558879999999999,-0.1269735999999994,-0.0781091999999993,0.0487561999999999,0,sub_6
-0.0054032000000003,-0.0036605999999987,0.0511931999999999,-0.1233563999999994,-0.0927539999999993,0.0385395999999999,0,sub_6
-0.0135664000000003,-0.0028507999999987,0.0466767999999999,-0.1157473999999994,-0.1134099999999993,0.0362634,0,sub_6
-0.0285510000000003,-0.0137877999999987,0.0394933999999999,-0.1171567999999994,-0.1340849999999993,0.0465294,0,sub_6
-0.0394158000000003,-0.0127915999999987,0.0389755999999999,-0.1241511999999994,-0.1496809999999993,0.0702094,0,sub_6
-0.0421180000000003,-0.0001339999999987,0.0472253999999999,-0.1323385999999994,-0.1550091999999993,0.0846809999999999,0,sub_6
-0.0424272000000003,0.0052902000000012,0.0522765999999999,-0.1338773999999994,-0.1531341999999993,0.0966317999999999,0,sub_6
-0.0379958000000003,0.0041920000000012,0.0511739999999999,-0.1410823999999994,-0.1363005999999993,0.1023281999999999,0,sub_6
-0.0229956000000003,0.0126090000000012,0.0558825999999999,-0.1373235999999994,-0.1139153999999992,0.0954889999999999,0,sub_6
-0.0044526000000003,0.0147722000000012,0.0588945999999999,-0.1209711999999994,-0.1059995999999992,0.0731603999999999,0,sub_6
0.0139981999999996,0.0092962000000012,0.0559047999999999,-0.1015293999999994,-0.1168675999999993,0.0568595999999999,0,sub_6
0.0308523999999996,0.0023492000000012,0.0526973999999998,-0.0896589999999994,-0.1392601999999992,0.0520574,0,sub_6
0.0407643999999996,0.0045346000000012,0.0525117999999998,-0.0663365999999994,-0.1740631999999992,0.0505558,0,sub_6
0.0379811999999996,0.0070408000000012,0.0496395999999998,-0.0424229999999994,-0.2193095999999993,0.0494989999999999,0,sub_6
0.0249369999999996,0.0056132000000012,0.0469751999999999,-0.0205529999999994,-0.2449459999999993,0.0479756,0,sub_6
0.0052331999999996,0.0024686000000012,0.0423925999999998,-0.0006833999999994,-0.2460533999999992,0.0412792,0,sub_6
-0.0140544000000003,0.0030680000000012,0.0373385999999999,0.0173434000000005,-0.2385969999999992,0.0257996,0,sub_6
-0.0196374000000003,0.0024280000000012,0.0371507999999999,0.0277244000000005,-0.2236549999999993,0.0098295999999999,0,sub_6
-0.0173150000000003,0.0040876000000012,0.0398911999999999,0.0366346000000005,-0.1982895999999993,-0.0008228,0,sub_6
-0.0155598000000003,0.0050104000000013,0.0377875999999999,0.0420868000000005,-0.1767709999999993,-0.0055126,0,sub_6
-0.0135070000000003,0.0064202000000012,0.0346155999999999,0.0463916000000005,-0.1693255999999993,-0.0063466,0,sub_6
-0.0091516000000003,0.0044028000000012,0.0373471999999999,0.0496516000000005,-0.1527323999999993,-0.0029268,0,sub_6
-0.0129758000000003,0.0021648000000012,0.0397219999999999,0.0518812000000005,-0.1288881999999993,-0.000378,0,sub_6
-0.0193576000000003,0.0002384000000012,0.0380103999999999,0.0502288000000005,-0.1201335999999993,-0.0038192,0,sub_6
-0.0199898000000003,0.0025676000000012,0.0370999999999999,0.0494032000000005,-0.1207425999999993,-0.0106608,0,sub_6
-0.0149008000000003,0.0018004000000012,0.0405911999999999,0.0492810000000005,-0.1043213999999993,-0.0145284,0,sub_6
-0.0126608000000003,0.0023276000000012,0.0419197999999999,0.0430486000000005,-0.0627697999999993,-0.010566,0,sub_6
-0.0165180000000003,0.0005948000000012,0.0444281999999999,0.0516410000000005,-0.0519263999999993,-0.0124427999999999,0,sub_6
-0.0182176000000003,-0.0003375999999987,0.0449967999999999,0.0591360000000005,-0.0529895999999993,-0.0194391999999999,0,sub_6
-0.0157684000000003,0.0003390000000012,0.0478777999999999,0.0675390000000005,-0.0387287999999993,-0.0232443999999999,0,sub_6
-0.0171618000000003,0.0002216000000012,0.0485099999999999,0.0697732000000005,-0.0155169999999993,-0.0224039999999999,0,sub_6
-0.0224264000000003,-0.0023429999999987,0.0488985999999999,0.0761580000000005,-0.0231931999999993,-0.0264087999999999,0,sub_6
-0.0214620000000003,-0.0003569999999987,0.0464829999999999,0.0686966000000005,-0.0231609999999993,-0.0279563999999999,0,sub_6
-0.0167170000000003,0.0015128000000012,0.0464037999999999,0.0653354000000005,-0.0095213999999993,-0.0260745999999999,0,sub_6
-0.0156812000000003,-0.0014843999999987,0.0464743999999999,0.0577010000000005,0.0034914000000006,-0.0235807999999999,0,sub_6
-0.0167990000000003,-0.0033933999999987,0.0461387999999999,0.0491854000000005,0.0060848000000006,-0.0253525999999999,0,sub_6
-0.0138816000000003,-0.0033941999999987,0.0448931999999999,0.0402392000000005,0.0048566000000006,-0.0301135999999999,0,sub_6
-0.0067904000000003,-0.0027635999999987,0.0452001999999999,0.0285392000000005,0.0091732000000006,-0.0338328,0,sub_6
-0.0027600000000003,-0.0034013999999987,0.0454431999999999,0.0123430000000005,0.0147650000000006,-0.0328848,0,sub_6
-0.0028682000000003,-0.0027895999999987,0.0436023999999999,-0.0032207999999994,0.0194990000000006,-0.0310768,0,sub_6
-0.0034192000000003,-0.0004067999999987,0.0419651999999999,-0.0134329999999994,0.0286858000000006,-0.0285962,0,sub_6
-0.0060608000000003,0.0019200000000012,0.0381661999999999,-0.0198093999999994,0.0355208000000006,-0.0273676,0,sub_6
-0.0099566000000003,0.0037206000000012,0.0330753999999999,-0.0210589999999994,0.0412818000000006,-0.0284519999999999,0,sub_6
-0.0107818000000003,0.0065916000000012,0.0303525999999998,-0.0147667999999994,0.0634220000000006,-0.0295047999999999,0,sub_6
-0.0123578000000003,0.0066780000000012,0.0300339999999998,-0.0011909999999994,0.0929894000000007,-0.0294478,0,sub_6
-0.0144678000000003,0.0045144000000012,0.0295471999999999,0.0178826000000005,0.1080634000000007,-0.0327521999999999,0,sub_6
-0.0145322000000003,0.0018788000000012,0.0297807999999998,0.0395128000000005,0.1201542000000007,-0.0381714,0,sub_6
-0.0101676000000003,0.0004644000000012,0.0333295999999998,0.0594304000000005,0.1326704000000007,-0.0418938,0,sub_6
-0.0090688000000003,-0.0019379999999987,0.0372267999999999,0.0741646000000005,0.1330536000000007,-0.0439278,0,sub_6
-0.0065032000000003,-0.0023643999999987,0.0408433999999999,0.0839280000000005,0.1185436000000006,-0.046832,0,sub_6
-0.0044210000000003,0.0002108000000012,0.0418789999999999,0.0860080000000005,0.1038466000000006,-0.0495759999999999,0,sub_6
-0.0012544000000003,0.0032376000000012,0.0443925999999999,0.0829912000000005,0.0985256000000006,-0.0483083999999999,0,sub_6
-0.0032714000000003,0.0035598000000012,0.0448509999999999,0.0812736000000005,0.1000076000000006,-0.0444767999999999,0,sub_6
-0.0122550000000003,0.0034274000000012,0.0424057999999999,0.0819018000000005,0.0949160000000006,-0.0433889999999999,0,sub_6
-0.0213790000000003,0.0034218000000012,0.0393893999999999,0.0810526000000004,0.0913296000000006,-0.0444499999999999,0,sub_6
-0.0283850000000003,0.0020750000000012,0.0399727999999999,0.0823822000000004,0.0983858000000006,-0.0448685999999999,0,sub_6
-0.0308344000000003,0.0001882000000012,0.0405095999999999,0.0818018000000005,0.1060946000000006,-0.0470103999999999,0,sub_6
-0.0303630000000003,0.0006020000000012,0.0405249999999999,0.0795290000000005,0.1155198000000006,-0.0506615999999999,0,sub_6
-0.0240632000000003,0.0004132000000012,0.0398401999999999,0.0742800000000005,0.1345002000000006,-0.0507225999999999,0,sub_6
-0.0168708000000003,0.0005656000000012,0.0366173999999999,0.0687956000000005,0.1500664000000006,-0.0492854,0,sub_6
-0.0091630000000003,0.0004000000000012,0.0338761999999999,0.0626116000000005,0.1526378000000006,-0.0476226,0,sub_6
-0.0059726000000003,0.0009554000000012,0.0311291999999999,0.0572342000000005,0.1451912000000007,-0.0455141999999999,0,sub_6
-0.0048688000000003,0.0008928000000012,0.0272339999999999,0.0483766000000005,0.1222070000000006,-0.0442647999999999,0,sub_6
-0.0027236000000003,0.0013788000000012,0.0236849999999999,0.0375958000000005,0.0956194000000006,-0.0460151999999999,0,sub_6
-0.0005952000000003,0.0012136000000012,0.0230521999999999,0.0272906000000005,0.0830792000000006,-0.0445755999999999,0,sub_6
-0.0016894000000003,0.0019938000000012,0.0222891999999999,0.0184828000000005,0.0737200000000007,-0.0407795999999999,0,sub_6
-0.0049248000000003,0.0043682000000012,0.0201249999999999,0.0139388000000005,0.0626450000000007,-0.0378059999999999,0,sub_6
-0.0078726000000003,0.0062966000000012,0.0186451999999999,0.0143618000000005,0.0641254000000006,-0.0354547999999999,0,sub_6
-0.0099844000000003,0.0057820000000012,0.0206539999999999,0.0175844000000005,0.0732584000000007,-0.0311709999999999,0,sub_6
-0.0132258000000003,0.0032844000000012,0.0269383999999999,0.0192962000000005,0.0753786000000007,-0.0300935999999999,0,sub_6
-0.0157794000000003,0.0021078000000012,0.0325561999999998,0.0229370000000005,0.0751658000000007,-0.0332725999999999,0,sub_6
-0.0173680000000003,0.0007822000000012,0.0385951999999999,0.0274340000000005,0.0743158000000006,-0.0377267999999999,0,sub_6
-0.0178968000000003,-0.0008103999999987,0.0447905999999999,0.0319224000000005,0.0713362000000007,-0.0423917999999999,0,sub_6
-0.0185336000000003,-0.0011865999999987,0.0493129999999999,0.0327730000000005,0.0681478000000006,-0.0449455999999999,0,sub_6
-0.0210720000000003,-0.0003701999999987,0.0487623999999999,0.0317300000000005,0.0728412000000006,-0.0455997999999999,0,sub_6
-0.0252810000000003,-0.0007527999999987,0.0475141999999999,0.0228086000000005,0.0841548000000006,-0.0433263999999999,0,sub_6
-0.0302770000000003,-0.0021235999999987,0.0453233999999999,0.0077224000000005,0.1029376000000007,-0.0387556,0,sub_6
-0.0334714000000003,-0.0010489999999987,0.0400363999999999,-0.0073713999999994,0.1193794000000006,-0.0348228,0,sub_6
-0.0314688000000003,0.0026180000000012,0.0329575999999999,-0.0171721999999994,0.1192142000000006,-0.0383094,0,sub_6
-0.0199268000000003,0.0066530000000012,0.0253477999999999,-0.0167607999999994,0.1083768000000006,-0.0457702,0,sub_6
-0.0027776000000003,0.0075870000000012,0.0212339999999999,-0.0065207999999994,0.1002758000000006,-0.0533795999999999,0,sub_6
0.0147715999999996,0.0075112000000012,0.0203017999999999,0.0110016000000005,0.0996010000000006,-0.0596655999999999,0,sub_6
0.0262927999999996,0.0043210000000012,0.0233467999999999,0.0302138000000005,0.0974196000000006,-0.0635879999999999,0,sub_6
0.0241069999999996,0.0011576000000012,0.0281893999999999,0.0485610000000005,0.0916234000000006,-0.0685797999999999,0,sub_6
0.0170189999999996,-0.0020255999999987,0.0334911999999999,0.0662460000000005,0.0836880000000006,-0.0707961999999999,0,sub_6
0.0044143999999996,-0.0014657999999987,0.0343259999999999,0.0781182000000005,0.0655410000000007,-0.0717581999999999,0,sub_6
-0.0097422000000003,0.0016280000000012,0.0338113999999999,0.0861124000000005,0.0393106000000006,-0.0725233999999999,0,sub_6
-0.0220812000000003,0.0049520000000012,0.0310779999999999,0.0941150000000005,0.0137244000000006,-0.0745709999999999,0,sub_6
-0.0264080000000003,0.0065542000000012,0.0273183999999999,0.1030210000000005,0.0017606000000006,-0.0740662,0,sub_6
-0.0304444000000003,0.0049298000000012,0.0241331999999999,0.1096624000000005,0.0051566000000006,-0.0765878,0,sub_6
-0.0299704000000003,0.0012574000000012,0.0229617999999999,0.1257956000000005,0.0281342000000006,-0.0824866,0,sub_6
-0.0265696000000003,-0.0049119999999987,0.0222381999999999,0.1568516000000005,0.0417110000000006,-0.0946784,0,sub_6
-0.0287574000000003,-0.0138073999999987,0.0206915999999998,0.2093566000000005,0.0298702000000006,-0.1094654,0,sub_6
-0.0298396000000003,-0.0209961999999987,0.0200147999999998,0.2707398000000005,-0.0128451999999992,-0.136542,0,sub_6
-0.0430532000000003,-0.0186233999999987,0.0128321999999998,0.3352638000000005,-0.1167169999999992,-0.1639456,0,sub_6
-0.0530420000000003,-0.0106231999999987,0.0123689999999999,0.3815812000000005,-0.2437175999999992,-0.1991379999999999,0,sub_6
-0.0590192000000003,-0.0045639999999987,0.0156125999999999,0.3879320000000005,-0.3246113999999993,-0.2214225999999999,0,sub_6
-0.0533740000000003,0.0010494000000012,0.0240405999999999,0.3557232000000005,-0.3257625999999992,-0.2252779999999999,0,sub_6
-0.0378848000000003,0.0078944000000012,0.0414371999999999,0.3133556000000005,-0.2381263999999992,-0.2062445999999999,0,sub_6
-0.0123956000000003,0.0144866000000012,0.0647137999999999,0.2639824000000005,-0.0904025999999993,-0.1826369999999999,0,sub_6
0.0095665999999996,0.0200842000000012,0.0812709999999999,0.2131794000000005,0.0370338000000007,-0.1459809999999999,0,sub_6
0.0277405999999996,0.0239808000000012,0.0911403999999999,0.1706286000000005,0.1051970000000006,-0.1055595999999999,0,sub_6
0.0353601999999996,0.0284182000000012,0.0949643999999999,0.1239984000000005,0.1175648000000006,-0.0678723999999999,0,sub_6
0.0242175999999996,0.0275582000000012,0.0883499999999999,0.0713698000000005,0.0686424000000006,-0.0354819999999999,0,sub_6
0.0085881999999996,0.0206774000000012,0.0785997999999999,0.0174562000000005,0.0178104000000006,-0.0039525999999999,0,sub_6
-0.0094732000000003,0.0101096000000012,0.0662891999999999,-0.0249357999999994,0.0110536000000006,0.024396,0,sub_6
-0.0327650000000003,0.0035086000000012,0.0522077999999999,-0.0487573999999994,0.0402906000000006,0.039796,0,sub_6
-0.0522972000000003,-0.0014587999999987,0.0414983999999999,-0.0551931999999994,0.0784708000000006,0.0414189999999999,0,sub_6
-0.0626878000000003,-0.0034991999999987,0.0323949999999999,-0.0537201999999994,0.1147116000000006,0.0347597999999999,0,sub_6
-0.0643148000000003,-0.0029581999999987,0.0273829999999998,-0.0444071999999994,0.1317782000000006,0.0211295999999999,0,sub_6
-0.0592744000000003,-0.0020865999999987,0.0236723999999998,-0.0319653999999994,0.1303082000000006,0.0049815999999999,0,sub_6
-0.0463370000000003,-0.0001785999999987,0.0255915999999998,-0.0195819999999994,0.1169032000000006,-0.0100834,0,sub_6
-0.0293500000000003,0.0020220000000012,0.0274147999999999,-0.0042563999999994,0.0958084000000006,-0.022768,0,sub_6
-0.0136174000000003,0.0040050000000012,0.0293473999999999,0.0093264000000005,0.0734150000000006,-0.0288399999999999,0,sub_6
-0.0028900000000003,0.0034444000000012,0.0316525999999999,0.0163064000000005,0.0627258000000006,-0.0257864,0,sub_6
-0.0011892000000003,0.0040130000000012,0.0351647999999999,0.0173032000000005,0.0545964000000006,-0.0182915999999999,0,sub_6
-0.0025058000000003,0.0032222000000012,0.0361545999999999,0.0146602000000005,0.0460440000000006,-0.0084716,0,sub_6
-0.0076014000000003,0.0024140000000012,0.0374117999999999,0.0094750000000005,0.0421852000000006,0.0019655999999999,0,sub_6
-0.0154506000000003,0.0031418000000012,0.0375473999999999,0.0043186000000005,0.0421714000000006,0.0098343999999999,0,sub_6
-0.0213766000000003,0.0045436000000012,0.0367851999999999,0.0023618000000005,0.0347188000000006,0.0104712,0,sub_6
-0.0226756000000003,0.0045066000000012,0.0363005999999999,0.0044946000000005,0.0325884000000006,0.0085659999999999,0,sub_6
-0.0245370000000003,0.0044104000000012,0.0373507999999999,0.0094252000000005,0.0345014000000006,0.0053934,0,sub_6
-0.0249328000000003,0.0049308000000012,0.0383227999999999,0.0151928000000005,0.0313042000000006,0.0007377999999999,0,sub_6
-0.0233080000000003,0.0040392000000012,0.0398109999999999,0.0190268000000004,0.0255554000000006,-0.003501,0,sub_6
-0.0219978000000003,0.0039604000000012,0.0404425999999999,0.0192460000000005,0.0255598000000006,-0.0047814,0,sub_6
-0.0200908000000003,0.0038930000000012,0.0390153999999999,0.0166856000000005,0.0253566000000006,-0.0050126,0,sub_6
-0.0180536000000003,0.0047270000000012,0.0373949999999999,0.0130506000000005,0.0240894000000006,-0.004609,0,sub_6
-0.0178914000000003,0.0067454000000012,0.0355849999999999,0.0073040000000005,0.0277298000000006,-0.0042266,0,sub_6
-0.0175330000000003,0.0073278000000012,0.0349793999999999,0.0024004000000005,0.0285992000000006,-0.0042619999999999,0,sub_6
-0.0169000000000003,0.0057056000000012,0.0347083999999999,-0.0021015999999994,0.0239276000000006,-0.0042873999999999,0,sub_6
-0.0141018000000003,0.0049206000000012,0.0351669999999999,-0.0064063999999994,0.0156334000000006,-0.0043067999999999,0,sub_6
-0.0103160000000003,0.0053990000000012,0.0341039999999999,-0.0115493999999994,0.0118120000000006,-0.0032697999999999,0,sub_6
-0.0077042000000003,0.0044452000000012,0.0317429999999999,-0.0158235999999994,0.0139428000000006,0.0003296,0,sub_6
-0.0073258000000003,0.0046588000000012,0.0294663999999999,-0.0173115999999994,0.0186216000000006,0.0037315999999999,0,sub_6
-0.0077306000000003,0.0067146000000012,0.0270045999999999,-0.0158189999999994,0.0201010000000006,0.0054491999999999,0,sub_6
-0.0103246000000003,0.0072342000000012,0.0257123999999998,-0.0115563999999994,0.0194452000000007,0.0059069999999999,0,sub_6
-0.0140066000000003,0.0052664000000012,0.0282359999999999,-0.0070985999999994,0.0130430000000007,0.0046646,0,sub_6
-0.0162524000000003,0.0043818000000012,0.0322131999999999,-0.0024417999999994,0.0019590000000007,0.0019339999999999,0,sub_6
-0.0168386000000003,0.0041778000000012,0.0344443999999999,0.0003034000000005,-0.0059275999999992,0.0004677999999999,0,sub_6
-0.0173860000000003,0.0037706000000012,0.0370585999999999,0.0007302000000005,-0.0057169999999992,0.0006841999999999,0,sub_6
-0.0189568000000003,0.0035320000000012,0.0383623999999999,-0.0005423999999994,-0.0042201999999992,0.0004597999999999,0,sub_6
-0.0199810000000003,0.0039108000000012,0.0368181999999999,9.580000000054406e-05,-0.0059215999999992,-0.0008154,0,sub_6
-0.0194824000000003,0.0038352000000012,0.0349553999999999,0.0020124000000005,-0.0084781999999992,-0.002508,0,sub_6
-0.0192182000000003,0.0043838000000012,0.0341661999999999,0.0028678000000005,-0.0091161999999992,-0.0035693999999999,0,sub_6
-0.0193372000000003,0.0045468000000012,0.0340141999999999,0.0037088000000005,-0.0125253999999992,-0.0041999999999999,0,sub_6
-0.0189018000000003,0.0048818000000012,0.0345127999999999,0.0036858000000005,-0.0180631999999992,-0.0046203999999999,0,sub_6
-0.0180236000000003,0.0051618000000012,0.0358575999999999,0.0019722000000005,-0.0189119999999992,-0.0039904,0,sub_6
-0.0178700000000003,0.0060218000000012,0.0368739999999999,-0.0008025999999994,-0.0180541999999993,-0.0029426,0,sub_6
-0.0173484000000003,0.0064154000000012,0.0372473999999998,-0.0033601999999994,-0.0174059999999993,-0.0029613999999999,0,sub_6
-0.0166762000000003,0.0052074000000012,0.0373013999999999,-0.0054889999999994,-0.0165453999999993,-0.0031911999999999,0,sub_6
-0.0159428000000003,0.0046470000000012,0.0370499999999999,-0.0080541999999994,-0.0169649999999993,-0.0025675999999999,0,sub_6
-0.0156776000000003,0.0042144000000012,0.0362297999999999,-0.0112615999999994,-0.0171719999999993,-0.0013077999999999,0,sub_6
-0.0169044000000003,0.0041796000000012,0.0370519999999999,-0.0136067999999994,-0.0152523999999993,0.0001688,0,sub_6
-0.0180712000000003,0.0030534000000012,0.0369597999999999,-0.0142593999999994,-0.0180199999999992,0.0001677999999999,0,sub_6
-0.0178964000000003,0.0037642000000012,0.0358165999999999,-0.0163879999999994,-0.0205393999999993,-0.0004782,0,sub_6
-0.0174158000000003,0.0047408000000012,0.0354341999999999,-0.0193325999999994,-0.0145345999999992,-0.0009272,0,sub_6
