userAcceleration.x,userAcceleration.y,userAcceleration.z,rotationRate.x,rotationRate.y,rotationRate.z,label,subject
-0.0179346000000003,0.0166104000000012,0.0508249999999999,-0.0143629999999994,-0.0142153999999991,0.0019093999999999,0,sub_16
-0.0174002000000003,0.0208366000000012,0.0494381999999999,-0.0105155999999994,-0.0074323999999991,0.0072687999999999,0,sub_16
-0.0159546000000003,0.0228540000000012,0.0453554,-0.0082203999999994,0.0032684000000008,0.0103513999999999,0,sub_16
-0.0113412000000003,0.0249356000000012,0.0404727999999999,-0.0074043999999994,0.0146236000000008,0.0108589999999999,0,sub_16
-0.0057202000000003,0.0266804000000012,0.0372327999999999,-0.0065979999999994,0.0219384000000008,0.0094489999999999,0,sub_16
-0.0009480000000003,0.0252720000000012,0.0344963999999999,-0.0056041999999994,0.0226514000000008,0.0071941999999999,0,sub_16
0.0019795999999996,0.0224598000000012,0.0336983999999999,-0.0052773999999994,0.0165522000000008,0.0040887999999998,0,sub_16
0.0036929999999996,0.0210648000000012,0.0351062,-0.0053195999999994,0.0056924000000008,0.0026067999999998,0,sub_16
0.0018055999999996,0.0196072000000012,0.0385275999999999,-0.0062267999999994,-0.0066599999999991,0.0021889999999999,0,sub_16
-0.0025482000000003,0.0183714000000012,0.0407396,-0.0077701999999994,-0.0168845999999991,0.0030457999999998,0,sub_16
-0.0074784000000003,0.0178640000000012,0.0429386,-0.0099297999999994,-0.021144199999999,0.0045315999999999,0,sub_16
-0.0116120000000003,0.0179994000000012,0.0465333999999999,-0.0125567999999994,-0.019042799999999,0.0069799999999999,0,sub_16
-0.0148648000000003,0.0177174000000012,0.0495227999999999,-0.0143187999999994,-0.0143877999999991,0.0094311999999999,0,sub_16
-0.0172174000000003,0.0180390000000012,0.0502142,-0.0154397999999994,-0.0103707999999991,0.0110331999999999,0,sub_16
-0.0187620000000003,0.0193540000000012,0.0502265999999999,-0.0161195999999994,-0.0074033999999991,0.0083667999999999,0,sub_16
-0.0184754000000003,0.0205666000000012,0.0501217999999999,-0.0170031999999994,-0.0067609999999991,0.0012153999999999,0,sub_16
-0.0165556000000003,0.0213964000000012,0.0487408,-0.0203711999999994,-0.0071323999999991,-0.0094898,0,sub_16
-0.0139270000000003,0.0226878000000012,0.0477594,-0.0247915999999994,-0.0055775999999991,-0.0214866,0,sub_16
-0.0087454000000003,0.0240060000000012,0.0467518,-0.0284207999999994,-0.0003045999999991,-0.0322678,0,sub_16
-0.0034326000000003,0.0239790000000012,0.0471438,-0.0301335999999994,0.0077168000000008,-0.0394072,0,sub_16
4.639999999961975e-05,0.0234514000000012,0.0462924,-0.0293041999999994,0.0159254000000008,-0.0422562,0,sub_16
0.0007729999999996,0.0222312000000012,0.0459664,-0.0255065999999994,0.0238942000000008,-0.0410248,0,sub_16
-0.0002030000000003,0.0209414000000012,0.0462122,-0.0191677999999994,0.0297150000000008,-0.0376364,0,sub_16
-0.0039178000000003,0.0191896000000012,0.0482888,-0.0102167999999994,0.0313720000000008,-0.0335168,0,sub_16
-0.0075494000000003,0.0184248000000012,0.0511124,-0.0021335999999994,0.0311094000000008,-0.0281188,0,sub_16
-0.0098698000000003,0.0185420000000012,0.0543408,0.0042360000000005,0.0312712000000008,-0.0208106,0,sub_16
-0.0105642000000003,0.0204874000000012,0.0564736,0.0095300000000005,0.0303680000000008,-0.012654,0,sub_16
-0.0087860000000003,0.0219528000000012,0.056002,0.0128050000000005,0.0303876000000008,-0.0060904,0,sub_16
-0.0052766000000003,0.0232110000000012,0.0541938,0.0103382000000005,0.0332028000000008,-0.0010658,0,sub_16
-0.0016192000000003,0.0234956000000012,0.0518406,0.0046804000000005,0.0358254000000008,0.0015865999999999,0,sub_16
2.219999999959982e-05,0.0216420000000012,0.0487518,-0.0022557999999994,0.0356956000000008,0.0010289999999999,0,sub_16
0.0018347999999995,0.0191864000000012,0.0454892,-0.0079125999999994,0.0332264000000008,-0.0016532,0,sub_16
0.0010559999999996,0.0184832000000012,0.0442384,-0.0111313999999994,0.0270676000000008,-0.0038042,0,sub_16
-0.0008156000000003,0.0180462000000012,0.044832,-0.0105305999999994,0.0174814000000008,-0.0046422,0,sub_16
-0.0036328000000003,0.0176908000000012,0.0458955999999999,-0.0063177999999994,0.0065958000000008,-0.003317,0,sub_16
-0.0060986000000003,0.0179084000000012,0.0484343999999999,-2.8999999999425664e-05,-0.0019295999999991,0.0013801999999999,0,sub_16
-0.0089666000000003,0.0182508000000012,0.0505095999999999,0.0064768000000005,-0.0068449999999991,0.0088515999999999,0,sub_16
-0.0102446000000003,0.0183912000000012,0.0521621999999999,0.0121426000000005,-0.0068649999999991,0.0182335999999999,0,sub_16
-0.0112024000000003,0.0187902000000012,0.0512303999999999,0.0161206000000005,-0.0030421999999991,0.0271715999999999,0,sub_16
-0.0098742000000003,0.0187670000000012,0.0491142,0.0171372000000005,0.0039970000000008,0.0335211999999999,0,sub_16
-0.0069850000000003,0.0192236000000012,0.0459278,0.0139566000000005,0.0108164000000008,0.0358401999999999,0,sub_16
-0.0027222000000003,0.0198520000000012,0.04311,0.0075814000000005,0.0148936000000008,0.0340811999999999,0,sub_16
0.0011467999999996,0.0201676000000012,0.039954,-8.459999999942472e-05,0.0138732000000008,0.0295425999999999,0,sub_16
0.0038527999999996,0.0205968000000012,0.0390404,-0.0075725999999994,0.0073446000000008,0.0236795999999999,0,sub_16
0.0040083999999996,0.0206126000000012,0.0387746,-0.0133803999999994,-0.0045189999999991,0.0184759999999999,0,sub_16
0.0018591999999996,0.0200456000000012,0.040079,-0.0160019999999994,-0.0189527999999991,0.0139389999999999,0,sub_16
-0.0020794000000003,0.0194448000000012,0.0417627999999999,-0.0167041999999994,-0.0331821999999991,0.0098423999999999,0,sub_16
-0.0067914000000003,0.0192906000000012,0.0440689999999999,-0.0169633999999994,-0.0435789999999991,0.0059575999999999,0,sub_16
-0.0108606000000003,0.0193046000000012,0.0457857999999999,-0.0167605999999994,-0.0486819999999991,0.0031881999999999,0,sub_16
-0.0135670000000003,0.0197562000000012,0.0468237999999999,-0.0165347999999994,-0.0484593999999991,0.0006257999999999,0,sub_16
-0.0133544000000003,0.0203668000000012,0.0452657999999999,-0.0168945999999994,-0.0433153999999991,-0.000884,0,sub_16
-0.0116646000000003,0.0209296000000012,0.0429013999999999,-0.0157637999999994,-0.0371179999999991,-0.0006756,0,sub_16
-0.0082490000000003,0.0210544000000012,0.0402608,-0.0131527999999993,-0.0328475999999991,0.0006137999999999,0,sub_16
-0.0044746000000003,0.0208232000000012,0.0367735999999999,-0.0099147999999993,-0.0309255999999991,0.0025513999999999,0,sub_16
-0.0018480000000003,0.0210254000000012,0.0344424,-0.0064779999999993,-0.0307147999999991,0.0059881999999999,0,sub_16
-0.0022316000000003,0.0214456000000012,0.0345789999999999,-0.0028803999999993,-0.0335123999999991,0.0098625999999999,0,sub_16
-0.0046822000000003,0.0199312000000012,0.0363055999999999,0.0002982000000006,-0.0346041999999991,0.0137317999999999,0,sub_16
-0.0088888000000003,0.0186480000000012,0.0388064,0.0030606000000005,-0.0339873999999991,0.0169549999999999,0,sub_16
-0.0132522000000003,0.0175648000000012,0.0419158,0.0047704000000005,-0.0320809999999991,0.0182463999999999,0,sub_16
-0.0160796000000003,0.0163358000000012,0.0441102,0.0046130000000005,-0.0304137999999991,0.0165841999999999,0,sub_16
-0.0157140000000003,0.0155972000000012,0.0431096,0.0012772000000005,-0.0259571999999991,0.0127597999999999,0,sub_16
-0.0133590000000003,0.0168016000000012,0.0408527999999999,-0.0037561999999994,-0.0208493999999991,0.0074273999999999,0,sub_16
-0.0100818000000003,0.0178010000000012,0.0375272,-0.0096381999999994,-0.0144613999999991,0.0023007999999999,0,sub_16
-0.0070372000000003,0.0198288000000012,0.0346455999999999,-0.0140351999999994,-0.0078739999999991,-0.000679,0,sub_16
-0.0048122000000003,0.0216928000000012,0.0327921999999999,-0.0152817999999994,-0.0010491999999991,-0.0013372,0,sub_16
-0.0042040000000003,0.0231412000000012,0.0335481999999999,-0.0105723999999994,0.0034042000000008,-0.0002418,0,sub_16
-0.0047264000000003,0.0235878000000012,0.0351813999999999,-0.0026397999999994,0.0056424000000008,0.0007007999999999,0,sub_16
-0.0059448000000003,0.0233648000000012,0.0374413999999999,0.0061452000000005,0.0063916000000008,0.0003693999999999,0,sub_16
-0.0070972000000003,0.0217620000000012,0.0381765999999999,0.0132338000000005,0.0069438000000008,-0.0025374,0,sub_16
-0.0082444000000003,0.0193212000000012,0.0385832,0.0167000000000005,0.0070884000000008,-0.0069646,0,sub_16
-0.0090090000000003,0.0171888000000012,0.039314,0.0159036000000005,0.0078890000000008,-0.0118496,0,sub_16
-0.0089988000000003,0.0155258000000012,0.0390234,0.0123012000000005,0.0096214000000008,-0.0157226,0,sub_16
-0.0077018000000003,0.0151212000000012,0.0385544,0.0076282000000005,0.0122028000000008,-0.017895,0,sub_16
-0.0064976000000003,0.0142920000000012,0.0393754,0.0033760000000005,0.0154144000000008,-0.0181424,0,sub_16
-0.0061902000000003,0.0146826000000012,0.0390044,0.0001992000000005,0.0200498000000008,-0.0162752,0,sub_16
-0.0068794000000003,0.0157234000000012,0.0374416,-0.0023421999999994,0.0251028000000008,-0.0129086,0,sub_16
-0.0067856000000003,0.0179494000000012,0.0364332,-0.0042501999999994,0.0303600000000008,-0.0078288,0,sub_16
-0.0066140000000003,0.0201042000000012,0.0360502,-0.0042473999999994,0.0356020000000008,-0.0005992,0,sub_16
-0.0059156000000003,0.0211012000000012,0.0360128,-0.0027507999999994,0.0408386000000008,0.0066407999999999,0,sub_16
-0.0037288000000003,0.0218196000000012,0.0366534,0.0015158000000005,0.0454912000000008,0.0115783999999999,0,sub_16
-0.0008358000000003,0.0212556000000012,0.0373446,0.0085610000000005,0.0492896000000008,0.0146135999999999,0,sub_16
0.0002023999999996,0.0183026000000012,0.037186,0.0153918000000005,0.0507536000000008,0.0155139999999999,0,sub_16
0.0001779999999996,0.0146052000000012,0.0367078,0.0218392000000005,0.0497098000000008,0.0131763999999999,0,sub_16
-0.0012228000000003,0.0123388000000012,0.0357802,0.0267882000000005,0.0461206000000008,0.0093359999999999,0,sub_16
-0.0032856000000003,0.0105956000000012,0.0358392,0.0291680000000005,0.0410472000000008,0.0059067999999999,0,sub_16
-0.0053856000000003,0.0109210000000012,0.037067,0.0287702000000005,0.0359802000000008,0.0033129999999999,0,sub_16
-0.0057922000000003,0.0131102000000012,0.0389746,0.0262522000000005,0.0351764000000008,0.0019805999999999,0,sub_16
-0.0057772000000003,0.0159378000000012,0.0395242,0.0213620000000005,0.0394528000000008,0.0023681999999999,0,sub_16
-0.0047818000000003,0.0186600000000012,0.0395638,0.0162708000000005,0.0475606000000008,0.0038177999999999,0,sub_16
-0.0036266000000003,0.0196614000000012,0.0388282,0.0113978000000005,0.0563086000000008,0.0048407999999999,0,sub_16
-0.0031022000000003,0.0184174000000012,0.0382082,0.0078020000000005,0.0635642000000008,0.0050199999999999,0,sub_16
-0.0035652000000003,0.0165882000000012,0.0377302,0.0070030000000005,0.0668636000000008,0.0034693999999999,0,sub_16
-0.0034812000000003,0.0145196000000012,0.040036,0.0076764000000005,0.0646218000000008,0.0010817999999999,0,sub_16
-0.0030962000000003,0.0134198000000012,0.0418384,0.0087574000000005,0.0585418000000008,-0.000871,0,sub_16
-0.0031084000000003,0.0140556000000012,0.0433272,0.0087658000000005,0.0526726000000008,-0.0013358,0,sub_16
-0.0029186000000003,0.0152396000000012,0.0431024,0.0070768000000005,0.0493642000000008,-0.0013886,0,sub_16
-0.0026632000000003,0.0165420000000012,0.0426604,0.0036562000000005,0.0478848000000008,-0.0014106,0,sub_16
-0.0028938000000003,0.0169296000000012,0.039786,0.0004604000000005,0.0487490000000008,-0.0016478,0,sub_16
-0.0032482000000003,0.0174380000000012,0.0387315999999999,-0.0020623999999994,0.0505398000000008,-0.0017038,0,sub_16
-0.0038270000000003,0.0166516000000012,0.0384609999999999,-0.0028819999999994,0.0510480000000008,-0.0021738,0,sub_16
-0.0042576000000003,0.0157668000000012,0.0393133999999999,-0.0024307999999994,0.0500578000000008,-0.001992,0,sub_16
-0.0046452000000003,0.0148742000000012,0.0392863999999999,-0.0028399999999994,0.0488524000000008,-0.000534,0,sub_16
-0.0040630000000003,0.0159682000000012,0.0402661999999999,-0.0051761999999994,0.0472234000000008,0.0019793999999999,0,sub_16
-0.0037912000000003,0.0175418000000012,0.0401637999999999,-0.0066937999999994,0.0442366000000008,0.0043225999999999,0,sub_16
-0.0023062000000003,0.0197198000000012,0.0400063999999999,-0.0079959999999994,0.0410384000000008,0.0060267999999999,0,sub_16
-0.0003326000000003,0.0202268000000012,0.0403535999999999,-0.0088667999999994,0.0369942000000008,0.0058121999999999,0,sub_16
0.0013405999999996,0.0202686000000012,0.041109,-0.0075973999999994,0.0316894000000008,0.0043321999999999,0,sub_16
0.0013535999999996,0.0187324000000012,0.041632,-0.0054687999999994,0.0265988000000008,0.0017895999999999,0,sub_16
0.0007345999999996,0.0157106000000012,0.0412112,-0.0050373999999994,0.0230082000000008,-0.0014074,0,sub_16
-0.0008474000000003,0.0130444000000012,0.0410298,-0.0050299999999994,0.0204826000000008,-0.0041816,0,sub_16
-0.0028592000000003,0.0125990000000012,0.0402418,-0.0063075999999994,0.0183818000000008,-0.0054698,0,sub_16
-0.0044088000000003,0.0136326000000012,0.0415438,-0.0090871999999994,0.0162644000000008,-0.006341,0,sub_16
-0.0050430000000003,0.0148878000000012,0.0425778,-0.0131459999999994,0.0137280000000008,-0.0078616,0,sub_16
-0.0048930000000003,0.0164568000000012,0.0438772,-0.0197577999999994,0.0120560000000008,-0.0102558,0,sub_16
-0.0049218000000003,0.0187650000000012,0.0452055999999999,-0.0285149999999994,0.0109564000000008,-0.0137472,0,sub_16
-0.0045930000000003,0.0203638000000012,0.0458037999999999,-0.0368395999999994,0.0107090000000008,-0.017664,0,sub_16
-0.0044182000000003,0.0203936000000012,0.0450595999999999,-0.0440983999999994,0.0106692000000008,-0.0211464,0,sub_16
-0.0052204000000003,0.0200034000000012,0.0448573999999999,-0.0481575999999994,0.0108296000000008,-0.0241792,0,sub_16
-0.0059136000000003,0.0196350000000012,0.0451297999999999,-0.0475309999999994,0.0103294000000008,-0.0258968,0,sub_16
-0.0057048000000003,0.0190944000000012,0.0447666,-0.0432673999999993,0.0098866000000008,-0.0254392,0,sub_16
-0.0056224000000003,0.0195082000000012,0.0446258,-0.0364481999999993,0.0096428000000008,-0.023682,0,sub_16
-0.0057486000000003,0.0201754000000012,0.0434056,-0.0268521999999994,0.0113018000000008,-0.020626,0,sub_16
-0.0047156000000003,0.0210700000000012,0.0420514,-0.0161911999999994,0.0144406000000008,-0.0156418,0,sub_16
-0.0026738000000003,0.0213382000000012,0.0410862,-0.0060141999999994,0.0182602000000008,-0.0083276,0,sub_16
-0.0003358000000003,0.0203956000000012,0.0396894,0.0037334000000005,0.0227154000000008,0.0002645999999999,0,sub_16
0.0017673999999995,0.0187132000000012,0.0382846,0.0130522000000005,0.0273826000000008,0.0094943999999999,0,sub_16
0.0035431999999995,0.0175618000000012,0.0375894,0.0221520000000005,0.0294988000000008,0.0174441999999999,0,sub_16
0.0045253999999995,0.0162244000000012,0.0360192,0.0286856000000005,0.0282238000000008,0.0232439999999999,0,sub_16
0.0048553999999995,0.0164556000000012,0.0348808,0.0320756000000005,0.0245832000000008,0.0249815999999999,0,sub_16
0.0040141999999995,0.0173640000000012,0.0352398,0.0324822000000005,0.0186222000000008,0.0234965999999999,0,sub_16
0.0026353999999996,0.0180032000000012,0.035693,0.0299142000000005,0.0131070000000008,0.0196401999999999,0,sub_16
0.0012775999999996,0.0177162000000012,0.0360358,0.0241232000000005,0.0105768000000008,0.0148931999999999,0,sub_16
-5.360000000036048e-05,0.0177058000000012,0.0365658,0.0174862000000005,0.0110272000000008,0.0114181999999999,0,sub_16
-0.0017586000000003,0.0166388000000012,0.0361852,0.0134108000000005,0.0148646000000008,0.0111615999999999,0,sub_16
-0.0021484000000003,0.0159492000000012,0.0354106,0.0123226000000005,0.0203892000000008,0.0126327999999999,0,sub_16
-0.0017102000000003,0.0157684000000012,0.0353986,0.0135700000000005,0.0246222000000008,0.0154037999999999,0,sub_16
-0.0009772000000003,0.0165376000000012,0.036284,0.0159132000000005,0.0269448000000008,0.0186217999999999,0,sub_16
6.919999999963952e-05,0.0173258000000012,0.0363551999999999,0.0186880000000005,0.0284214000000008,0.0199211999999999,0,sub_16
0.0004753999999996,0.0180702000000012,0.0358705999999999,0.0197596000000005,0.0282096000000008,0.0186469999999999,0,sub_16
0.0014219999999996,0.0179756000000012,0.0350845999999999,0.0191160000000005,0.0264982000000008,0.0150019999999999,0,sub_16
0.0002445999999996,0.0180476000000012,0.0337853999999999,0.0171940000000005,0.0239444000000008,0.0100671999999999,0,sub_16
-0.0006294000000003,0.0178916000000012,0.0324996,0.0137784000000005,0.0203348000000008,0.0040549999999999,0,sub_16
-0.0013320000000003,0.0165826000000012,0.0327774,0.0097200000000005,0.0160882000000008,-0.0019608,0,sub_16
-0.0011362000000003,0.0156252000000012,0.0350696,0.0050204000000005,0.0124798000000008,-0.0071272,0,sub_16
-0.0022024000000003,0.0153042000000012,0.0369312,-0.0003071999999994,0.0101702000000008,-0.0110072,0,sub_16
-0.0026708000000003,0.0154276000000012,0.0402046,-0.0062749999999994,0.0082872000000008,-0.0144648,0,sub_16
-0.0026364000000003,0.0155948000000012,0.0423212,-0.0117821999999994,0.0076976000000008,-0.0166246,0,sub_16
-0.0027054000000003,0.0162658000000012,0.0436384,-0.0160093999999994,0.0077402000000008,-0.0181354,0,sub_16
-0.0038782000000003,0.0166064000000012,0.0432749999999999,-0.0174655999999994,0.0077704000000008,-0.018986,0,sub_16
-0.0045670000000003,0.0165442000000012,0.0431661999999999,-0.0150887999999994,0.0073562000000008,-0.0185272,0,sub_16
-0.0042966000000003,0.0164348000000012,0.0419407999999999,-0.0090921999999994,0.0075590000000008,-0.0156938,0,sub_16
-0.0032616000000003,0.0167746000000012,0.0414805999999999,-0.0001487999999994,0.0085724000000008,-0.0105052,0,sub_16
-0.0017218000000003,0.0178168000000012,0.0410277999999999,0.0096500000000005,0.0125554000000008,-0.0027506,0,sub_16
0.0005341999999996,0.0185610000000012,0.0395761999999999,0.0186012000000005,0.0188808000000008,0.0060631999999999,0,sub_16
0.0019439999999996,0.0199398000000012,0.0374121999999999,0.0265734000000005,0.0254858000000008,0.0140623999999999,0,sub_16
0.0038569999999996,0.0201446000000012,0.0350414,0.0322024000000005,0.0304050000000008,0.0194835999999999,0,sub_16
0.0041497999999996,0.0191418000000012,0.033292,0.0350622000000005,0.0325796000000008,0.0210435999999999,0,sub_16
0.0030185999999996,0.0172434000000012,0.0323596,0.0362084000000005,0.0302978000000008,0.0196061999999999,0,sub_16
0.0025149999999996,0.0159180000000012,0.0341162,0.0350018000000005,0.0248360000000008,0.0162335999999999,0,sub_16
0.0022897999999996,0.0146576000000012,0.0359508,0.0303086000000005,0.0210338000000008,0.0121463999999999,0,sub_16
0.0013669999999996,0.0142486000000012,0.037511,0.0237036000000005,0.0193678000000008,0.0082567999999999,0,sub_16
0.0004281999999996,0.0143738000000012,0.038684,0.0166748000000005,0.0189790000000008,0.0050033999999999,0,sub_16
-0.0003356000000003,0.0155368000000012,0.0395224,0.0098680000000005,0.0184444000000008,0.0023937999999999,0,sub_16
-0.0019368000000003,0.0164418000000012,0.0393156,0.0043452000000005,0.0191820000000008,0.0002189999999999,0,sub_16
-0.0033022000000003,0.0167890000000012,0.0393922,-0.0009689999999994,0.0197022000000008,-0.0010996,0,sub_16
-0.0031896000000003,0.0171408000000012,0.0391402,-0.0047933999999994,0.0200016000000008,-0.0017666,0,sub_16
-0.0024758000000003,0.0173772000000012,0.0388914,-0.0075585999999993,0.0192296000000008,-0.0017838,0,sub_16
-0.0014012000000003,0.0174826000000012,0.0391462,-0.0103371999999993,0.0177496000000008,-0.0022286,0,sub_16
0.0001473999999996,0.0174762000000012,0.0388298,-0.0114137999999993,0.0149862000000008,-0.0028736,0,sub_16
0.0016867999999996,0.0172392000000012,0.038448,-0.0107833999999993,0.0111558000000008,-0.0045734,0,sub_16
0.0018115999999996,0.0168852000000012,0.0381896,-0.0099423999999993,0.0066854000000008,-0.0062708,0,sub_16
0.0011835999999996,0.0171414000000012,0.037903,-0.0087031999999994,0.0022876000000008,-0.007997,0,sub_16
0.0003909999999996,0.0168298000000012,0.0371494,-0.0070381999999994,-0.0010515999999991,-0.0084398,0,sub_16
-0.0008796000000003,0.0171550000000012,0.0373394,-0.0055921999999994,-0.0041829999999991,-0.0073888,0,sub_16
-0.0038502000000003,0.0171108000000012,0.0392716,-0.0030917999999994,-0.0073289999999991,-0.003553,0,sub_16
-0.0070516000000003,0.0163858000000012,0.0422923999999999,0.0002600000000005,-0.0089941999999991,0.0022093999999999,0,sub_16
-0.0096636000000003,0.0154370000000012,0.0444339999999999,0.0047054000000005,-0.0092535999999991,0.0099319999999999,0,sub_16
-0.0111864000000003,0.0157024000000012,0.0464105999999999,0.0108636000000005,-0.0080283999999991,0.0178783999999999,0,sub_16
-0.0124696000000003,0.0167424000000012,0.0470171999999999,0.0161808000000005,-0.0050913999999991,0.0247483999999999,0,sub_16
-0.0097690000000003,0.0183334000000012,0.0445018,0.0191558000000005,-0.0003303999999991,0.0277491999999999,0,sub_16
-0.0058844000000003,0.0206194000000012,0.0404257999999999,0.0206488000000005,0.0029608000000008,0.0266823999999999,0,sub_16
-0.0016578000000003,0.0226310000000012,0.0368491999999999,0.0187440000000005,0.0056418000000008,0.0213195999999999,0,sub_16
0.0028837999999996,0.0222056000000012,0.0327257999999999,0.0134318000000005,0.0072798000000008,0.0133705999999999,0,sub_16
0.0077013999999996,0.0206764000000012,0.0289737999999999,0.0078958000000005,0.0057260000000008,0.0045695999999999,0,sub_16
0.0100091999999996,0.0194022000000012,0.0269065999999999,0.0032112000000005,0.0002338000000008,-0.0031474,0,sub_16
0.0108211999999995,0.0165734000000012,0.0266301999999999,-0.0010553999999994,-0.0065409999999991,-0.0102188,0,sub_16
0.0106777999999996,0.0131488000000012,0.0274122,-0.0049105999999994,-0.0143917999999991,-0.0149358,0,sub_16
0.0086117999999995,0.0121164000000012,0.029702,-0.0081695999999994,-0.0217259999999991,-0.0168738,0,sub_16
0.0055311999999995,0.0129954000000012,0.0331524,-0.0116431999999994,-0.0271503999999991,-0.0166792,0,sub_16
0.0022977999999995,0.0133408000000012,0.037004,-0.0151213999999994,-0.0304569999999991,-0.0132826,0,sub_16
5.279999999961912e-05,0.0150180000000012,0.0391912,-0.0173221999999994,-0.0316485999999991,-0.0071026,0,sub_16
-0.0019780000000003,0.0173096000000012,0.0408288,-0.0173795999999994,-0.0300805999999991,-0.0002702,0,sub_16
-0.0041988000000003,0.0179516000000012,0.0426868,-0.0150545999999994,-0.0281985999999991,0.0065803999999999,0,sub_16
-0.0059100000000003,0.0157550000000012,0.044833,-0.0103793999999994,-0.0265343999999991,0.0125929999999999,0,sub_16
-0.0076108000000003,0.0140704000000012,0.0467764,-0.0044871999999994,-0.0260527999999991,0.0168871999999999,0,sub_16
-0.0087290000000003,0.0135558000000012,0.0486612,-0.0007201999999994,-0.0253437999999991,0.0194571999999999,0,sub_16
-0.0086646000000003,0.0136108000000012,0.0498055999999999,7.300000000059516e-05,-0.0231271999999991,0.0205087999999999,0,sub_16
-0.0070700000000003,0.0154332000000012,0.0496969999999999,-0.0031667999999994,-0.0179067999999991,0.0198191999999999,0,sub_16
-0.0047532000000003,0.0178770000000012,0.0470469999999999,-0.0093745999999994,-0.0105369999999991,0.0169697999999999,0,sub_16
-0.0024964000000003,0.0198640000000012,0.0429811999999999,-0.0169937999999994,-0.0034521999999991,0.0100707999999999,0,sub_16
