userAcceleration.x,userAcceleration.y,userAcceleration.z,rotationRate.x,rotationRate.y,rotationRate.z,label,subject
-0.0163878000000002,0.0035368000000012,0.0106716,0.0009748000000004,0.0037982000000005,0.0015777999999999,0,sub_13
-0.0176256000000002,0.0037670000000012,0.0117628,0.0009652000000004,0.0037898000000005,0.0037141999999999,0,sub_13
-0.0195032000000001,0.0034106000000012,0.0124314,-0.0007437999999995,0.0044308000000005,0.0047697999999999,0,sub_13
-0.0212124000000001,0.0028374000000012,0.012309,-0.0028833999999995,0.0033722000000005,0.0049697999999999,0,sub_13
-0.0229198000000001,0.0012186000000012,0.0111313999999999,-0.0041569999999995,0.0031704000000005,0.0032521999999999,0,sub_13
-0.0242970000000001,0.0005042000000012,0.0096713999999999,-0.0022039999999995,0.0038008000000005,-0.0001282,0,sub_13
-0.0249660000000001,0.0008276000000012,0.0106785999999999,0.0001776000000004,0.0050680000000005,-0.0032928,0,sub_13
-0.0253360000000001,0.0020652000000012,0.0113341999999999,0.0008322000000004,0.0039890000000005,-0.00433,0,sub_13
-0.0249124000000002,0.0031600000000012,0.0117853999999999,-7.799999999562324e-06,0.0039754000000005,-0.0040972000000001,0,sub_13
-0.0242694000000002,0.0040118000000012,0.0120916,-0.0002173999999995,0.0033146000000005,-0.0023638000000001,0,sub_13
-0.0234204000000002,0.0047206000000012,0.0132662,-0.0023723999999995,0.0016056000000005,0.0006143999999998,0,sub_13
-0.0238058000000001,0.0045054000000012,0.0120506,-0.0034555999999995,0.0005338000000005,0.0031717999999998,0,sub_13
-0.0232940000000001,0.0034046000000012,0.0116539999999999,-0.0032183999999995,0.0030514000000005,0.0042631999999998,0,sub_13
-0.0229200000000001,0.0023848000000012,0.0119203999999999,-0.0025457999999995,0.0059996000000005,0.0038615999999998,0,sub_13
-0.0230426000000001,0.0026166000000012,0.0125423999999999,-0.0022987999999995,0.0089500000000005,0.0032433999999998,0,sub_13
-0.0235872000000001,0.0027502000000012,0.0122415999999999,-0.0026937999999995,0.0110522000000005,0.0021943999999998,0,sub_13
-0.0228196000000002,0.0027302000000012,0.0120273999999999,-0.0033195999999995,0.0105934000000005,0.0024291999999999,0,sub_13
-0.0224292000000002,0.0029466000000012,0.0108997999999999,-0.0014067999999995,0.0093066000000005,0.0028713999999998,0,sub_13
-0.0226762000000002,0.0030410000000012,0.0103777999999999,0.0005040000000004,0.0080180000000005,0.0037409999999998,0,sub_13
-0.0226956000000002,0.0037644000000012,0.0107259999999999,0.0009210000000004,0.0063104000000005,0.0041733999999998,0,sub_13
-0.0229428000000002,0.0035262000000012,0.0104352,0.0011276000000004,0.0052426000000005,0.0046035999999998,0,sub_13
-0.0222964000000002,0.0019892000000012,0.0108939999999999,0.0011364000000004,0.0047538000000005,0.0050579999999998,0,sub_13
-0.0221442000000002,0.0015156000000012,0.0119385999999999,0.0009318000000004,0.0042658000000005,0.0055109999999998,0,sub_13
-0.0222344000000001,0.0018998000000012,0.0130347999999999,0.0015866000000004,0.0046288000000005,0.0055415999999998,0,sub_13
-0.0225392000000001,0.0023588000000012,0.0136193999999999,0.0013918000000004,0.0056348000000005,0.0053517999999998,0,sub_13
-0.0223018000000001,0.0022206000000012,0.0137515999999999,-0.0007235999999995,0.0064354000000005,0.0049351999999998,0,sub_13
-0.0223728000000001,0.0021266000000012,0.0123465999999999,-0.0015645999999995,0.0077228000000005,0.0034321999999998,0,sub_13
-0.0225594000000001,0.0020310000000012,0.0114403999999999,-0.0007043999999995,0.0073014000000005,0.0015159999999998,0,sub_13
-0.0227250000000002,0.0019474000000012,0.0110893999999999,-6.919999999956266e-05,0.0058096000000005,0.0010949999999998,0,sub_13
-0.0227258000000002,0.0021644000000012,0.0116532,0.0009960000000004,0.0034040000000005,0.0017641999999999,0,sub_13
-0.0229770000000002,0.0028906000000012,0.0127429999999999,0.0024852000000004,0.0012066000000005,0.0032905999999999,0,sub_13
-0.0232144000000002,0.0034716000000012,0.0136857999999999,0.0029084000000004,-0.0007739999999994,0.0048093999999999,0,sub_13
-0.0226014000000002,0.0032438000000012,0.0135121999999999,0.0012092000000004,-0.0006147999999994,0.0058833999999999,0,sub_13
-0.0229336000000002,0.0032026000000012,0.0126687999999999,0.0012200000000004,-0.0010957999999994,0.0056881999999999,0,sub_13
-0.0227964000000001,0.0022586000000012,0.0120513999999999,0.0007894000000004,-0.0017341999999994,0.0058997999999999,0,sub_13
-0.0228186000000001,0.0015278000000012,0.0117004,0.0010008000000004,-0.0019487999999994,0.0061151999999999,0,sub_13
-0.0230880000000001,0.0019424000000012,0.0121042,0.0012104000000004,-0.0017407999999994,0.0071845999999999,0,sub_13
-0.0243682000000001,0.0029140000000012,0.0134551999999999,0.0020636000000004,-0.0024343999999994,0.0089095999999998,0,sub_13
-0.0248790000000001,0.0032470000000012,0.0149853999999999,0.0005782000000004,-0.0009899999999994,0.0108293999999998,0,sub_13
-0.0251346000000001,0.0038380000000012,0.0137287999999999,0.0008064000000004,0.0002420000000005,0.0110521999999998,0,sub_13
-0.0250782000000002,0.0041476000000011,0.0129921999999999,0.0014490000000004,-0.0021457999999994,0.0104279999999998,0,sub_13
-0.0259730000000002,0.0040662000000011,0.0124745999999999,0.0012418000000004,-0.0043149999999994,0.0091565999999998,0,sub_13
-0.0254080000000002,0.0037208000000012,0.0122312,0.0003844000000004,-0.0062251999999994,0.0080849999999998,0,sub_13
-0.0236112000000002,0.0043408000000012,0.0111146,0.0003682000000004,-0.0102715999999994,0.0076627999999998,0,sub_13
-0.0224120000000002,0.0037424000000012,0.0113499999999999,-0.0004927999999995,-0.0130805999999994,0.0089469999999999,0,sub_13
-0.0216222000000002,0.0043852000000012,0.0122313999999999,-0.0013413999999995,-0.0126957999999994,0.0106543999999998,0,sub_13
-0.0206562000000001,0.0043952000000012,0.0121519999999999,-0.0013267999999995,-0.0108199999999994,0.0117249999999998,0,sub_13
-0.0204732000000001,0.0037258000000012,0.0107837999999999,-0.0008825999999995,-0.0089429999999994,0.0121575999999998,0,sub_13
-0.0212024000000001,0.0014026000000012,0.0104287999999999,-0.0004375999999995,-0.0079137999999994,0.0115231999999998,0,sub_13
-0.0220736000000001,0.0018892000000012,0.011357,0.0001978000000004,-0.0091935999999994,0.0113155999999998,0,sub_13
-0.0229836000000001,0.0014756000000012,0.0117034,0.0006312000000004,-0.0087645999999994,0.0102499999999999,0,sub_13
-0.0227436000000001,0.0014426000000012,0.0126326,0.0008522000000004,-0.0085461999999994,0.0087557999999999,0,sub_13
-0.0231140000000001,0.0022172000000012,0.0130364,0.0004532000000004,-0.0064447999999994,0.0066089999999999,0,sub_13
-0.0232336000000001,0.0034934000000012,0.0126438,6.180000000043742e-05,-0.0024265999999994,0.0046733999999999,0,sub_13
-0.0225056000000001,0.0029178000000012,0.011163,0.0011630000000004,0.0011612000000005,0.0025349999999999,0,sub_13
-0.0213204000000002,0.0033926000000012,0.0108485999999999,0.0024528000000004,0.0009064000000005,0.0021119999999999,0,sub_13
-0.0211738000000002,0.0043546000000012,0.0109679999999999,0.0037262000000004,-0.0012727999999994,0.0034005999999999,0,sub_13
-0.0203348000000002,0.0047540000000012,0.0126749999999999,0.0032696000000004,-0.0049049999999994,0.0063929999999999,0,sub_13
-0.0202154000000002,0.0045432000000012,0.0131205999999999,0.0015416000000004,-0.0066153999999994,0.0093741999999998,0,sub_13
-0.0206858000000002,0.0035934000000012,0.0136941999999999,4.700000000041749e-05,-0.0051255999999994,0.0110711999999998,0,sub_13
-0.0217166000000002,0.0027934000000012,0.0130792,-0.0007799999999995,-4.739999999940486e-05,0.0112611999999998,0,sub_13
-0.0228826000000002,0.0015658000000012,0.0123476,-0.0005401999999995,0.0039662000000005,0.0103917999999998,0,sub_13
-0.0245074000000002,0.0008064000000012,0.0109618,0.0009742000000004,0.0062724000000005,0.0091061999999998,0,sub_13
-0.0262080000000002,0.0007958000000012,0.0114814,0.0026922000000004,0.0064474000000005,0.0078245999999998,0,sub_13
-0.0280408000000002,0.0017898000000012,0.0122702,0.0029100000000004,0.0053484000000005,0.0067477999999998,0,sub_13
-0.0297336000000002,0.0017116000000012,0.0129606,0.0031176000000004,0.0027960000000005,0.0054707999999998,0,sub_13
-0.0304822000000002,0.0021724000000012,0.013337,0.0029062000000004,0.0019496000000005,0.0041885999999998,0,sub_13
-0.0303574000000001,0.0031068000000012,0.013814,0.0029062000000004,0.0004642000000005,0.0026949999999998,0,sub_13
-0.0295388000000001,0.0044424000000012,0.0145492,0.0022594000000004,-0.0020859999999994,0.0016255999999998,0,sub_13
-0.0277490000000001,0.0033618000000012,0.013644,0.0007616000000004,-0.0042309999999994,0.0005287999999999,0,sub_13
-0.0252804000000001,0.0029250000000012,0.0133268,-9.519999999956244e-05,-0.0055285999999994,7.619999999991596e-05,0,sub_13
-0.0226542000000001,0.0027948000000012,0.0134574,-0.0003099999999995,-0.0061901999999994,-0.000159,0,sub_13
-0.0213596000000002,0.0030402000000012,0.0137766,0.0001192000000004,-0.0049407999999994,0.0006761999999999,0,sub_13
-0.0209510000000002,0.0022710000000012,0.0133217999999999,0.0003332000000004,-0.0026313999999994,0.0030039999999999,0,sub_13
-0.0213878000000002,0.0029516000000012,0.0133995999999999,0.0013962000000004,-0.0005165999999994,0.0059997999999999,0,sub_13
-0.0230984000000002,0.0032614000000012,0.0125945999999999,0.0013914000000004,0.0003280000000005,0.0079215999999999,0,sub_13
-0.0258324000000002,0.0032310000000012,0.0119769999999999,0.0009490000000004,-0.0018073999999994,0.0089561999999999,0,sub_13
-0.0275526000000002,0.0030690000000012,0.0124665999999999,-0.0007707999999995,-0.0047845999999994,0.0084873999999999,0,sub_13
-0.0259550000000001,0.0023738000000012,0.0126902,-0.0003587999999995,-0.0092563999999994,0.0069671999999999,0,sub_13
-0.0246078000000001,0.0022566000000012,0.0139364,-0.0005811999999995,-0.0120231999999994,0.0058675999999999,0,sub_13
-0.0232190000000001,0.0021210000000012,0.0162276,6.720000000043762e-05,-0.0103213999999994,0.0054093999999999,0,sub_13
-0.0220498000000001,0.0015950000000012,0.0157744,-0.0003413999999995,-0.0064841999999994,0.0051879999999999,0,sub_13
-0.0207188000000001,0.0004818000000012,0.013733,0.0011638000000004,-0.0041449999999994,0.0049817999999998,0,sub_13
-0.0214418000000002,0.0006148000000012,0.0133044,0.0011734000000004,-0.0022265999999994,0.0047657999999998,0,sub_13
-0.0228780000000002,0.0016274000000012,0.0129168,0.0016006000000004,-0.0022113999999994,0.0045127999999998,0,sub_13
-0.0230720000000002,0.0024614000000012,0.0116806,0.0009436000000004,-0.0049663999999994,0.0053237999999998,0,sub_13
-0.0230154000000001,0.0033666000000012,0.013215,0.0007144000000004,-0.0072975999999994,0.0063509999999998,0,sub_13
-0.0235364000000001,0.0036846000000012,0.0141084,0.0002880000000004,-0.0066427999999994,0.0067321999999998,0,sub_13
-0.0234922000000001,0.0035016000000012,0.0140504,0.0013580000000004,-0.0059905999999994,0.0064825999999998,0,sub_13
-0.0230528000000001,0.0029284000000011,0.0130856,0.0015780000000004,-0.0053487999999994,0.0056287999999998,0,sub_13
-0.0237758000000001,0.0023624000000011,0.0120358,0.0020028000000004,-0.0064129999999994,0.0049921999999998,0,sub_13
-0.0239556000000001,0.0027210000000012,0.0119894,0.0024248000000004,-0.0068429999999994,0.0056365999999999,0,sub_13
-0.0237744000000001,0.0033494000000012,0.013179,0.0022030000000004,-0.0068295999999994,0.0066593999999999,0,sub_13
-0.0247136000000001,0.0043952000000012,0.013376,0.0022014000000004,-0.0063867999999994,0.0066151999999999,0,sub_13
-0.0246328000000001,0.0039380000000012,0.013952,0.0015560000000004,-0.0063693999999994,0.0069939999999999,0,sub_13
-0.0237080000000001,0.0040758000000012,0.0142154,0.0011220000000004,-0.0076277999999994,0.0065215999999999,0,sub_13
-0.0232076000000001,0.0031272000000012,0.0130626,0.0004678000000004,-0.0103767999999994,0.0060493999999999,0,sub_13
-0.0229068000000001,0.0021056000000012,0.0124838,-0.0006075999999995,-0.0125027999999994,0.0058309999999999,0,sub_13
-0.0221490000000001,0.0016092000000012,0.012991,-0.0023143999999995,-0.0122845999999994,0.0060323999999998,0,sub_13
-0.0222858000000001,0.0024768000000012,0.012334,-0.0010149999999995,-0.0097255999999994,0.0043291999999998,0,sub_13
-0.0227918000000001,0.0013402000000012,0.0119912,0.0002812000000004,-0.0060929999999994,0.0030115999999998,0,sub_13
-0.0229382000000001,0.0013272000000012,0.0124548,0.0015648000000004,-0.0048057999999993,0.0021243999999998,0,sub_13
-0.0242978000000002,0.0016862000000012,0.0116102,0.0032628000000004,-0.0058653999999993,0.0016703999999998,0,sub_13
-0.0263106000000002,0.0023154000000012,0.0117342,0.0043178000000004,-0.0079861999999994,0.0007859999999998,0,sub_13
-0.0273536000000002,0.0027792000000012,0.0128416,0.0043010000000004,-0.0113807999999994,-0.0003180000000001,0,sub_13
-0.0271044000000001,0.0033798000000012,0.01382,0.0023806000000004,-0.0128595999999994,-0.0018250000000001,0,sub_13
-0.0265804000000001,0.0026114000000012,0.0136722,0.0004738000000004,-0.0124165999999994,-0.0044026000000001,0,sub_13
-0.0241956000000001,0.0019114000000012,0.013857,-0.0016339999999995,-0.0104761999999994,-0.0082656,0,sub_13
-0.0212574000000001,0.0019534000000012,0.0115614,-0.0022573999999995,-0.0085287999999994,-0.0112984,0,sub_13
-0.0178742000000001,0.0012482000000012,0.010332,-0.0035321999999995,-0.0063771999999994,-0.0115586,0,sub_13
-0.0156560000000002,0.0020756000000012,0.0092128,-0.0022551999999995,-0.0055153999999994,-0.0111584,0,sub_13
-0.0138676000000002,0.0032426000000012,0.0087128,-0.0003333999999995,-0.0029539999999994,-0.010115,0,sub_13
-0.0141142000000002,0.0047592000000012,0.0095212,0.0017884000000004,-0.0008297999999994,-0.0065058,0,sub_13
-0.0154740000000002,0.0044998000000012,0.0114328,0.0024114000000004,0.0002136000000005,-0.001589,0,sub_13
-0.0181114000000002,0.0042802000000012,0.0123364,0.0034544000000004,-0.0008723999999994,0.0026925999999999,0,sub_13
-0.0214128000000002,0.0039754000000012,0.0136375999999999,0.0034418000000004,-0.0004589999999994,0.0058967999999999,0,sub_13
-0.0243448000000002,0.0035082000000012,0.0151013999999999,0.0036462000000004,-0.0004397999999994,0.0069315999999999,0,sub_13
-0.0264774000000001,0.0024808000000012,0.0145305999999999,0.0032296000000004,0.0006596000000005,0.0047559999999999,0,sub_13
-0.0271412000000001,0.0011500000000012,0.0143953999999999,0.0030436000000004,0.0034712000000005,0.0004433999999999,0,sub_13
-0.0280010000000001,0.0007746000000012,0.0147051999999999,0.0018052000000004,0.0084212000000005,-0.0049476,0,sub_13
-0.0286110000000001,0.0006344000000012,0.0138108,0.0007764000000004,0.0129428000000005,-0.0099094,0,sub_13
-0.0290400000000001,0.0007916000000012,0.0124342,-0.0006903999999995,0.0155182000000005,-0.0133412,0,sub_13
-0.0281564000000001,0.0005364000000012,0.0115392,-0.0006825999999995,0.0155250000000005,-0.0150502,0,sub_13
-0.0278422000000002,0.0022260000000012,0.0107804,0.0003882000000004,0.0155246000000005,-0.0158974,0,sub_13
-0.0262122000000001,0.0036002000000012,0.0105766,0.0023044000000004,0.0161836000000005,-0.0157064,0,sub_13
-0.0249398000000001,0.0045348000000012,0.0113282,0.0037902000000004,0.0170528000000005,-0.0144504,0,sub_13
-0.0238346000000001,0.0056838000000012,0.0115576,0.0054846000000004,0.0174926000000005,-0.0125516,0,sub_13
-0.0221140000000001,0.0067924000000012,0.0120098,0.0058976000000003,0.0179362000000005,-0.0104482,0,sub_13
-0.0202748000000001,0.0058834000000012,0.012408,0.0045826000000004,0.0158206000000005,-0.006217,0,sub_13
-0.0214354000000001,0.0050240000000012,0.0126374,0.0041166000000004,0.0121798000000005,-0.0010882,0,sub_13
-0.0229222000000001,0.0043614000000012,0.0132931999999999,0.0043040000000004,0.0102462000000005,0.0027611999999999,0,sub_13
-0.0245160000000001,0.0040706000000012,0.0138479999999999,0.0038686000000004,0.0102400000000005,0.0046809999999999,0,sub_13
-0.0269122000000001,0.0036774000000012,0.0128551999999999,0.0025766000000004,0.0092136000000005,0.0052809999999999,0,sub_13
-0.0293832000000001,0.0025126000000012,0.0125485999999999,0.0019322000000004,0.0073430000000005,0.0033227999999999,0,sub_13
-0.0298122000000001,0.0015728000000012,0.0122943999999999,0.0012850000000004,0.0037722000000005,0.0002985999999999,0,sub_13
-0.0289902000000001,0.0011562000000012,0.0126655999999999,0.0008436000000004,-0.0012913999999994,-0.0025086,0,sub_13
-0.0282076000000001,0.0012532000000012,0.0132833999999999,0.0006174000000004,-0.0057173999999994,-0.0051014,0,sub_13
-0.0273106000000001,0.0019696000000012,0.0149449999999999,0.0006106000000004,-0.0091185999999994,-0.0070198,0,sub_13
-0.0256256000000002,0.0027078000000012,0.0144101999999999,-0.0004561999999995,-0.0106003999999994,-0.0085208,0,sub_13
-0.0235848000000002,0.0032892000000012,0.0131156,-0.0006617999999995,-0.0101683999999994,-0.0098046,0,sub_13
-0.0210744000000002,0.0035500000000012,0.0122175999999999,0.0008140000000004,-0.0133253999999994,-0.0098032,0,sub_13
-0.0198464000000002,0.0040664000000012,0.0126539999999999,0.0005676000000004,-0.0181875999999994,-0.0081026,0,sub_13
-0.0189106000000002,0.0039472000000012,0.0127283999999999,0.0001144000000004,-0.0209209999999994,-0.0057652,0,sub_13
-0.0180490000000001,0.0043620000000012,0.0142533999999999,-0.0001195999999995,-0.0219523999999994,-0.003001,0,sub_13
-0.0181338000000001,0.0043600000000012,0.0159737999999999,-0.0018319999999995,-0.0204185999999994,-0.0011052,0,sub_13
-0.0195428000000001,0.0040544000000012,0.0149359999999999,-0.0030921999999995,-0.0155155999999994,-0.000693,0,sub_13
-0.0201442000000001,0.0027298000000012,0.0134902,-0.0024301999999995,-0.0108297999999994,-0.000908,0,sub_13
-0.0210152000000001,0.0022078000000012,0.0128675999999999,-0.0002887999999995,-0.0093449999999994,-0.0011086,0,sub_13
-0.0227764000000002,0.0032422000000012,0.0133221999999999,0.0007800000000004,-0.0080371999999994,-0.0013208,0,sub_13
-0.0239624000000002,0.0044882000000011,0.0136033999999999,0.0018410000000004,-0.0082217999999994,-0.0013174,0,sub_13
-0.0237182000000002,0.0048438000000011,0.0142395999999999,0.0005590000000004,-0.0077579999999994,-0.001545,0,sub_13
-0.0221908000000002,0.0051490000000011,0.0133909999999999,0.0003486000000004,-0.0062327999999994,-0.0017664,0,sub_13
-0.0213356000000002,0.0053538000000011,0.012959,-6.759999999956228e-05,-0.0025779999999994,-0.0015646,0,sub_13
-0.0211562000000002,0.0041696000000011,0.0129116,0.0001696000000004,0.0027476000000005,-0.0015698,0,sub_13
-0.0214948000000002,0.0022958000000011,0.0116086,0.0008260000000004,0.0067918000000005,-0.0011432,0,sub_13
-0.0230390000000002,0.0019202000000012,0.011318,0.0021128000000004,0.0084908000000005,-0.0009228,0,sub_13
-0.0243618000000002,0.0018878000000012,0.0119574,0.0027654000000004,0.0116814000000005,-0.0017586,0,sub_13
-0.0246228000000001,0.0017062000000012,0.0121003999999999,0.0023474000000004,0.0138114000000005,-0.0028142,0,sub_13
-0.0258282000000001,0.0020846000000012,0.0101647999999999,0.0042688000000003,0.0144408000000005,-0.0036378,0,sub_13
-0.0266000000000001,0.0030552000000012,0.0103677999999999,0.0057568000000003,0.0144292000000005,-0.003609,0,sub_13
-0.0265588000000001,0.0037658000000012,0.0110301999999999,0.0059626000000003,0.0148450000000005,-0.0027350000000001,0,sub_13
-0.0276456000000001,0.0041478000000012,0.0113977999999999,0.0053102000000004,0.0127142000000005,-0.0020958000000001,0,sub_13
-0.0291726000000002,0.0039678000000012,0.0116811999999999,0.0061532000000004,0.0103676000000005,-0.0020868000000001,0,sub_13
-0.0298188000000002,0.0042854000000012,0.0123943999999999,0.0052882000000004,0.0076018000000005,-0.0023030000000001,0,sub_13
-0.0299034000000002,0.0044296000000012,0.0127237999999999,0.0040016000000004,0.0073670000000005,-0.0033608000000001,0,sub_13
-0.0290288000000002,0.0053500000000012,0.0126357999999999,0.0029168000000004,0.0047868000000005,-0.0042006,0,sub_13
-0.0281554000000002,0.0051864000000012,0.0126243999999999,0.0011822000000004,0.0015638000000005,-0.0035486,0,sub_13
-0.0271280000000002,0.0045358000000012,0.0123738,0.0002974000000004,-0.0018777999999994,-0.0022494000000001,0,sub_13
-0.0256796000000001,0.0039320000000012,0.0122494,-0.0003777999999995,-0.0055355999999994,-0.0003076000000001,0,sub_13
-0.0244562000000001,0.0031254000000011,0.0118208,-0.0010409999999995,-0.0091613999999994,0.0011879999999998,0,sub_13
-0.0242624000000001,0.0012188000000011,0.0118109999999999,-0.0010495999999995,-0.0100177999999994,0.0022571999999998,0,sub_13
-0.0245926000000001,0.0014528000000011,0.0118517999999999,1.240000000043784e-05,-0.0112989999999994,0.0020525999999998,0,sub_13
-0.0240236000000001,0.0019306000000011,0.0118099999999999,1.4000000004578492e-06,-0.0127905999999994,0.0010093999999998,0,sub_13
-0.0224358000000001,0.0015248000000011,0.0115681999999999,-0.0004429999999995,-0.0153477999999994,0.0003919999999998,0,sub_13
-0.0209470000000001,0.0019216000000012,0.0120567999999999,-0.0004661999999995,-0.0187601999999994,0.0002057999999998,0,sub_13
-0.0201206000000001,0.0025056000000012,0.0123314,-0.0002607999999995,-0.0189767999999994,-0.0001964,0,sub_13
-0.0201044000000001,0.0018520000000012,0.0133614,0.0001686000000004,-0.0164259999999994,-0.0001734,0,sub_13
-0.0206178000000002,0.0025936000000012,0.0139422,-0.0002465999999995,-0.0132311999999994,0.0004605999999999,0,sub_13
-0.0212054000000002,0.0037646000000012,0.0138888,-0.0004465999999995,-0.0104597999999994,0.0002419999999999,0,sub_13
-0.0215136000000002,0.0039580000000012,0.0133028,0.0006298000000004,-0.0089695999999994,-0.0003932,0,sub_13
-0.0214828000000002,0.0036884000000012,0.013274,0.0008396000000004,-0.0093679999999994,-0.000798,0,sub_13
-0.0209834000000002,0.0040866000000012,0.0131594,0.0008312000000004,-0.0099821999999993,-0.0003494,0,sub_13
-0.0213440000000002,0.0026540000000012,0.0135316,0.0008344000000004,-0.0084641999999993,-0.0003308,0,sub_13
-0.0214086000000002,0.0017454000000012,0.0140194,0.0012682000000004,-0.0056709999999993,0.0001165999999999,0,sub_13
-0.0214262000000001,0.0021664000000012,0.013735,7.400000000437872e-06,-0.0009509999999994,-0.000305,0,sub_13
-0.0220274000000001,0.0022752000000012,0.0118957999999999,-0.0001867999999995,0.0024620000000005,-0.0011654000000001,0,sub_13
-0.0218220000000001,0.0012854000000012,0.0104269999999999,0.0004648000000004,0.0043798000000005,-0.0018042000000001,0,sub_13
-0.0221208000000001,0.0021976000000012,0.0108735999999999,0.0019574000000004,0.0047982000000005,-0.0011534000000001,0,sub_13
-0.0244654000000001,0.0032594000000012,0.0112327999999999,0.0032348000000004,0.0054440000000005,-0.0011278000000001,0,sub_13
-0.0268528000000002,0.0035728000000012,0.0118435999999999,0.0036482000000004,0.0039616000000005,-0.0008918000000001,0,sub_13
-0.0273522000000002,0.0038680000000012,0.0129495999999999,0.0034216000000004,0.0024812000000005,-0.0006602000000001,0,sub_13
-0.0274664000000002,0.0037388000000012,0.0136097999999999,0.0023520000000004,0.0027108000000005,-0.0010776,0,sub_13
-0.0282218000000001,0.0033628000000012,0.0131565999999999,0.0010786000000004,0.0037986000000005,-0.0027794,0,sub_13
-0.0271136000000001,0.0022670000000012,0.0132627999999999,0.0008758000000004,0.0046576000000005,-0.0042774,0,sub_13
-0.0255716000000001,0.0016068000000012,0.0135047999999999,0.0021656000000004,0.0063592000000005,-0.0046978,0,sub_13
-0.0249528000000001,0.0013878000000012,0.0134993999999999,0.0021684000000004,0.0067862000000005,-0.004912,0,sub_13
-0.0246462000000001,0.0023822000000012,0.0135953999999999,0.0015162000000004,0.0076246000000005,-0.004259,0,sub_13
-0.0228452000000002,0.0026762000000012,0.0122901999999999,0.0014888000000004,0.0056884000000005,-0.002957,0,sub_13
-0.0219824000000002,0.0023482000000012,0.010826,0.0014556000000004,0.0028984000000005,-0.0012266000000001,0,sub_13
-0.0222008000000002,0.0030024000000012,0.0107277999999999,0.0014310000000004,0.0009648000000005,-0.0005656000000001,0,sub_13
