userAcceleration.x,userAcceleration.y,userAcceleration.z,rotationRate.x,rotationRate.y,rotationRate.z,label,subject
0.0081661999999995,0.0008076000000012,0.0304209999999999,-0.0063797999999994,-0.1813289999999993,-0.0233862,0,sub_9
0.0127927999999995,0.0008732000000012,0.0270989999999999,-0.0017507999999994,-0.2015623999999993,-0.0290964,0,sub_9
0.0162247999999995,0.0013590000000012,0.0276049999999999,0.0030638000000005,-0.2256407999999993,-0.0324502,0,sub_9
0.0178783999999995,0.0016940000000012,0.0299329999999999,0.0053142000000005,-0.2490771999999993,-0.0343274,0,sub_9
0.0168805999999995,0.0017012000000012,0.0319635999999999,0.0062784000000005,-0.2718775999999994,-0.0342914,0,sub_9
0.0125141999999995,0.0004352000000012,0.0329623999999999,0.0055240000000005,-0.2924245999999993,-0.0334728,0,sub_9
0.0057535999999995,-0.0003281999999987,0.0338711999999999,0.0060450000000005,-0.3110705999999993,-0.0296564,0,sub_9
0.0010725999999995,-0.0010961999999987,0.0355525999999999,0.0053538000000005,-0.3198905999999993,-0.0312024,0,sub_9
-0.0039252000000004,-0.0020841999999987,0.0364689999999999,0.0051114000000005,-0.3227505999999994,-0.0316846,0,sub_9
-0.0078864000000004,-0.0033805999999987,0.0378567999999999,0.0044470000000005,-0.3260291999999993,-0.0336648,0,sub_9
-0.0085804000000004,-0.0041051999999987,0.0416773999999999,0.0027428000000005,-0.3268695999999993,-0.035171,0,sub_9
-0.0102894000000004,-0.0059123999999987,0.0463847999999999,-0.0025483999999994,-0.3215075999999993,-0.0394878,0,sub_9
-0.0111122000000004,-0.0048363999999987,0.0479001999999999,-0.0075067999999994,-0.3317211999999993,-0.0384412,0,sub_9
-0.0102302000000004,-0.0046505999999987,0.0488013999999999,-0.0130429999999994,-0.3295695999999993,-0.0389098,0,sub_9
-0.0093620000000004,-0.0043113999999986,0.0506581999999999,-0.0164453999999994,-0.3259401999999993,-0.03787,0,sub_9
-0.0095616000000003,-0.0032719999999986,0.0519191999999999,-0.0181445999999994,-0.3240175999999993,-0.0376708,0,sub_9
-0.0068138000000003,-0.0014001999999986,0.0525823999999999,-0.0181425999999994,-0.3240157999999994,-0.038098,0,sub_9
-0.0061630000000003,-0.0022931999999986,0.0530513999999999,-0.0167941999999994,-0.3099545999999994,-0.0391748,0,sub_9
-0.0104704000000003,-0.0038973999999986,0.0537453999999999,-0.0125287999999994,-0.3101833999999993,-0.0389312,0,sub_9
-0.0086634000000003,-0.0053697999999987,0.0574373999999999,-0.0074633999999995,-0.3240435999999994,-0.0403736,0,sub_9
-0.0084082000000003,-0.0060175999999987,0.0579849999999999,-0.0048731999999995,-0.3163867999999993,-0.039297,0,sub_9
-0.0090484000000003,-0.0059775999999987,0.0576249999999999,-0.0037679999999994,-0.3051097999999993,-0.0365264,0,sub_9
-0.0104804000000003,-0.0059421999999987,0.0578541999999999,-0.0018149999999994,-0.2953261999999994,-0.0339616,0,sub_9
-0.0084112000000003,-0.0046279999999987,0.0576845999999999,0.0014154000000005,-0.2870351999999993,-0.0322404,0,sub_9
-0.0114290000000003,-0.0037951999999987,0.0535619999999999,0.0051404000000005,-0.2631945999999993,-0.0301084,0,sub_9
-0.0131996000000003,-0.0031125999999987,0.0523257999999999,0.0109350000000005,-0.2546969999999993,-0.0290106,0,sub_9
-0.0127096000000003,-0.0032545999999987,0.0521553999999999,0.0165288000000005,-0.2440655999999993,-0.028558,0,sub_9
-0.0109606000000003,-0.0031471999999987,0.0519547999999999,0.0197898000000005,-0.2291689999999993,-0.0270588,0,sub_9
-0.0078954000000004,-0.0026447999999987,0.0526565999999999,0.0200760000000005,-0.2114923999999993,-0.025584,0,sub_9
-0.0066952000000004,-0.0003099999999987,0.0536171999999999,0.0198262000000005,-0.2127971999999993,-0.0187476,0,sub_9
-0.0033788000000004,-0.0011535999999986,0.0544451999999999,0.0196502000000005,-0.2027897999999993,-0.0170526,0,sub_9
-0.0023832000000004,-0.0019437999999986,0.0534449999999999,0.0192578000000004,-0.1921475999999993,-0.0140778,0,sub_9
-0.0032980000000004,-0.0023603999999986,0.0520723999999999,0.0177776000000004,-0.1876741999999993,-0.0125982,0,sub_9
-0.0053208000000004,-0.0036093999999986,0.0505589999999999,0.0160898000000005,-0.1829827999999994,-0.0121886,0,sub_9
-0.0046730000000004,-0.0064735999999986,0.0483609999999999,0.0113214000000005,-0.1582267999999994,-0.0184492,0,sub_9
-0.0037064000000004,-0.0053369999999987,0.0404463999999999,0.0042016000000005,-0.1671883999999993,-0.0146934,0,sub_9
0.0053799999999995,-0.0037799999999987,0.0383567999999999,-0.0018647999999994,-0.1893221999999993,-0.0211684,0,sub_9
0.0143179999999995,-0.0022477999999987,0.0361507999999999,-0.0068193999999994,-0.2005975999999993,-0.026795,0,sub_9
0.0225215999999995,0.0004338000000012,0.0331975999999999,-0.0118285999999994,-0.2216825999999994,-0.0300594,0,sub_9
0.0257405999999995,0.0012232000000012,0.0313303999999999,-0.0149595999999994,-0.2502389999999994,-0.0313782,0,sub_9
0.0263709999999995,0.0010198000000012,0.0343261999999999,-0.0164771999999994,-0.2625627999999994,-0.0384232,0,sub_9
0.0198889999999995,0.0004018000000012,0.0329491999999999,-0.0184271999999994,-0.2674631999999993,-0.0367214,0,sub_9
0.0116819999999995,0.0004580000000012,0.0313357999999999,-0.0193429999999994,-0.2798231999999994,-0.0352164,0,sub_9
0.0041093999999995,-0.0003895999999987,0.0308933999999999,-0.0172321999999994,-0.2851561999999993,-0.0354084,0,sub_9
9.059999999959812e-05,0.0001382000000012,0.0313375999999999,-0.0140239999999994,-0.2857971999999993,-0.0377352,0,sub_9
-0.0041680000000004,0.0001160000000012,0.0325807999999999,-0.0118729999999994,-0.2845161999999993,-0.0402856,0,sub_9
-0.0075024000000004,-0.0009993999999987,0.0350113999999999,-0.0099189999999994,-0.2794001999999994,-0.0426286,0,sub_9
-0.0080280000000003,-0.0028591999999987,0.0386579999999999,-0.0109425999999994,-0.2712945999999993,-0.0441416,0,sub_9
-0.0075652000000003,-0.0039843999999987,0.0411397999999999,-0.0153677999999994,-0.2599827999999994,-0.0452552,0,sub_9
-0.0062962000000003,-0.0040833999999987,0.0422097999999999,-0.0217037999999994,-0.2448361999999993,-0.044678,0,sub_9
-0.0058498000000003,-0.0035751999999987,0.0413235999999999,-0.0268401999999994,-0.2422853999999993,-0.038735,0,sub_9
-0.0022878000000003,-0.0019915999999987,0.0417701999999999,-0.0304099999999994,-0.2269431999999993,-0.0362158,0,sub_9
-0.0004356000000004,-3.1199999998716975e-05,0.0408679999999999,-0.0303543999999994,-0.2105541999999993,-0.0321772,0,sub_9
0.0006559999999995,0.0010096000000012,0.0406395999999999,-0.0268829999999994,-0.1933267999999993,-0.0276884,0,sub_9
0.0018017999999995,0.0016108000000012,0.0405367999999999,-0.0208625999999994,-0.1788769999999993,-0.023392,0,sub_9
0.0060243999999995,0.0014520000000012,0.0417109999999999,-0.0145491999999994,-0.1520497999999993,-0.0244506,0,sub_9
0.0053823999999995,0.0014104000000012,0.0413673999999999,-0.0078895999999994,-0.1395129999999993,-0.0218564,0,sub_9
0.0058665999999995,-0.0004147999999987,0.0426763999999999,-0.0012405999999994,-0.1308051999999993,-0.020753,0,sub_9
0.0050981999999995,-0.0018907999999987,0.0441695999999999,0.0032700000000005,-0.1227307999999993,-0.0192364,0,sub_9
0.0027835999999995,-0.0038169999999987,0.0464651999999999,0.0037284000000005,-0.1129429999999993,-0.0164682,0,sub_9
-0.0009888000000004,-0.0052343999999987,0.0486255999999999,0.0018552000000005,-0.0991013999999993,-0.0130808,0,sub_9
-0.0017088000000004,-0.0059201999999986,0.0479089999999999,-0.0023527999999994,-0.0829063999999993,-0.01014,0,sub_9
-0.0003964000000004,-0.0060489999999986,0.0472321999999999,-0.0076247999999994,-0.0664929999999993,-0.007634,0,sub_9
0.0018199999999995,-0.0065811999999986,0.0467509999999999,-0.0126901999999994,-0.0524203999999993,-0.0059782,0,sub_9
0.0042241999999995,-0.0070669999999986,0.0455553999999999,-0.0184079999999994,-0.0419639999999993,-0.005177,0,sub_9
0.0058187999999995,-0.0069355999999986,0.0437843999999999,-0.0256397999999994,-0.0376741999999993,-0.0060874,0,sub_9
0.0041001999999995,-0.0066661999999987,0.0421867999999999,-0.0348061999999994,-0.0374221999999993,-0.0078608,0,sub_9
0.0006639999999995,-0.0056071999999987,0.0395551999999999,-0.0458899999999994,-0.0380097999999993,-0.0111422,0,sub_9
-0.0023264000000004,-0.0029459999999987,0.0362885999999999,-0.0569641999999994,-0.0366789999999993,-0.0146396,0,sub_9
-0.0066078000000004,0.0016688000000012,0.0335625999999999,-0.0618363999999994,-0.0304765999999993,-0.0163908,0,sub_9
-0.0118570000000004,0.0056086000000012,0.0327375999999999,-0.0590097999999994,-0.0166463999999993,-0.0142524,0,sub_9
-0.0178332000000004,0.0075920000000012,0.0343671999999999,-0.0482607999999994,0.0058812000000006,-0.0095062,0,sub_9
-0.0243020000000004,0.0078564000000012,0.0375599999999999,-0.0327857999999994,0.0373330000000006,-0.0028154,0,sub_9
-0.0289016000000004,0.0065070000000012,0.0416755999999999,-0.0179211999999994,0.0749672000000006,0.0034357999999999,0,sub_9
-0.0283568000000004,0.0048824000000012,0.0462015999999999,-0.0056073999999994,0.1141042000000006,0.0090263999999999,0,sub_9
-0.0222658000000004,0.0044086000000012,0.0525575999999999,0.0025938000000005,0.1385616000000006,0.0128979999999999,0,sub_9
-0.0124270000000004,0.0026732000000012,0.0557339999999999,0.0095398000000005,0.1666530000000006,0.0148333999999999,0,sub_9
-0.0024374000000004,0.0005408000000013,0.0577587999999999,0.0136686000000005,0.1841058000000006,0.0156943999999999,0,sub_9
0.0073845999999995,-0.0008633999999986,0.0584333999999998,0.0177572000000005,0.1921858000000006,0.0161399999999999,0,sub_9
0.0129105999999995,-0.0030737999999986,0.0567251999999999,0.0192344000000005,0.1887710000000006,0.0163683999999999,0,sub_9
0.0172171999999995,-0.0041887999999986,0.0562929999999999,0.0188776000000005,0.1983838000000006,0.0103713999999999,0,sub_9
0.0187725999999995,-0.0043323999999987,0.0575619999999999,0.0131442000000005,0.1973676000000006,0.0030687999999999,0,sub_9
0.0192609999999995,-0.0023133999999987,0.0620209999999999,0.0095974000000005,0.2048788000000006,-0.0074342,0,sub_9
0.0145565999999995,-0.0075881999999987,0.0671217999999999,0.0073576000000005,0.2115608000000006,-0.0247636,0,sub_9
0.0199209999999995,-0.0183367999999987,0.0727713999999999,-0.0040349999999994,0.2161724000000006,-0.0492046,0,sub_9
0.0284331999999995,-0.0307537999999987,0.0734249999999999,-0.0347029999999995,0.2118746000000006,-0.0667184,0,sub_9
0.0514419999999995,-0.0328299999999987,0.0711297999999999,-0.0833693999999995,0.1869986000000006,-0.0776966,0,sub_9
0.0748083999999995,-0.0286717999999987,0.0559239999999999,-0.1379551999999995,0.1350526000000005,-0.080563,0,sub_9
0.0939787999999995,-0.0140243999999987,0.0307371999999999,-0.1818169999999994,0.0559784000000006,-0.0752014,0,sub_9
0.0994553999999995,0.0077194000000012,0.0034221999999999,-0.2016359999999994,-0.0308797999999993,-0.0621842,0,sub_9
0.0956001999999995,0.0277916000000012,-0.021673,-0.1894337999999994,-0.1116821999999993,-0.0461738,0,sub_9
0.0757017999999995,0.0371150000000012,-0.0410552,-0.1466479999999994,-0.1653755999999993,-0.029142,0,sub_9
0.0503073999999995,0.0387290000000012,-0.0466754,-0.0890147999999994,-0.1907869999999993,-0.0114016,0,sub_9
0.0245799999999995,0.0327850000000012,-0.0407972,-0.0369951999999994,-0.1844291999999993,0.0051905999999999,0,sub_9
0.0018759999999995,0.0213790000000012,-0.0273,0.0055216000000005,-0.1620349999999993,0.0157137999999999,0,sub_9
-0.0110602000000004,0.0088334000000012,-0.0075852,0.0344092000000005,-0.1389325999999993,0.0207997999999999,0,sub_9
-0.0208374000000004,-0.0022161999999987,0.0148047999999999,0.0474220000000005,-0.1343121999999993,0.0262259999999999,0,sub_9
-0.0194822000000004,-0.0134119999999987,0.0384491999999999,0.0378644000000005,-0.1263879999999993,0.0242261999999999,0,sub_9
-0.0173832000000004,-0.0169065999999987,0.0578317999999999,0.0152872000000005,-0.1173605999999993,0.0240569999999999,0,sub_9
-0.0160816000000004,-0.0173925999999987,0.0719495999999999,-0.0124119999999994,-0.1064063999999993,0.0259859999999999,0,sub_9
-0.0231716000000004,-0.0170433999999987,0.0791275999999999,-0.0362203999999994,-0.0850235999999993,0.0272877999999999,0,sub_9
-0.0306508000000004,-0.0174145999999987,0.0791651999999999,-0.0577609999999994,-0.0408233999999993,0.0215257999999999,0,sub_9
-0.0406302000000004,-0.0159575999999987,0.0730091999999999,-0.0727215999999994,0.0005644000000006,0.0207273999999999,0,sub_9
-0.0382874000000004,-0.0073521999999987,0.0648559999999999,-0.0794315999999994,0.0367672000000006,0.0306753999999999,0,sub_9
-0.0255214000000004,0.0026678000000012,0.0601153999999999,-0.0727315999999994,0.0669524000000006,0.0420065999999999,0,sub_9
-0.0085034000000004,0.0090026000000012,0.0553845999999999,-0.0543451999999994,0.0959922000000006,0.0632485999999999,0,sub_9
0.0041065999999995,0.0145930000000012,0.0551739999999999,-0.0225535999999994,0.1204954000000006,0.0884357999999999,0,sub_9
0.0080963999999995,0.0157300000000012,0.0564725999999999,0.0228650000000005,0.1360130000000006,0.1111657999999999,0,sub_9
0.0064459999999995,0.0068230000000012,0.0646361999999999,0.0704644000000005,0.1437134000000006,0.1155475999999999,0,sub_9
-0.0029450000000004,-0.0028199999999987,0.0726473999999999,0.1044500000000005,0.1538334000000006,0.1127809999999999,0,sub_9
-0.0105128000000004,-0.0105781999999987,0.0820605999999999,0.1170984000000005,0.1487494000000006,0.0945025999999999,0,sub_9
-0.0125548000000004,-0.0187829999999987,0.0860037999999999,0.1098974000000005,0.1337564000000005,0.0673385999999999,0,sub_9
-0.0063480000000004,-0.0241771999999987,0.0898333999999999,0.0894922000000005,0.1222268000000005,0.0379415999999999,0,sub_9
0.0008441999999995,-0.0290237999999987,0.0899533999999999,0.0581954000000005,0.1145464000000005,0.0144455999999999,0,sub_9
0.0106593999999995,-0.0324809999999987,0.0847753999999999,0.0244836000000005,0.0993866000000005,-0.0013664,0,sub_9
0.0174585999999995,-0.0289351999999987,0.0756959999999999,-0.0004923999999994,0.0897024000000006,-0.0087924,0,sub_9
0.0211915999999995,-0.0197821999999987,0.0663201999999999,-0.0176091999999994,0.0782614000000006,-0.0099656,0,sub_9
0.0218715999999995,-0.0076799999999987,0.0555515999999999,-0.0264351999999994,0.0627322000000006,-0.0082982,0,sub_9
0.0192655999999995,0.0031418000000012,0.0472663999999999,-0.0205201999999994,0.0550192000000006,-0.0026922,0,sub_9
0.0094061999999995,0.0135954000000012,0.0420077999999999,-0.0015559999999994,0.0595982000000006,0.0079029999999999,0,sub_9
-0.0076052000000004,0.0233774000000012,0.0392485999999999,0.0261882000000005,0.0732994000000005,0.0206841999999999,0,sub_9
-0.0275778000000004,0.0326042000000012,0.0439797999999999,0.0702550000000005,0.1120782000000005,0.0350429999999999,0,sub_9
-0.0478348000000004,0.0369520000000012,0.0554587999999999,0.1313098000000005,0.1782888000000005,0.0477759999999999,0,sub_9
-0.0702034000000004,0.0392688000000012,0.0680427999999999,0.1895250000000004,0.2732882000000006,0.0563929999999999,0,sub_9
-0.0913840000000004,0.0410696000000012,0.0846123999999999,0.2329344000000004,0.3881902000000005,0.0556943999999999,0,sub_9
-0.1037000000000003,0.0378634000000012,0.1014855999999999,0.2601820000000004,0.5076538000000006,0.0471857999999999,0,sub_9
-0.1104540000000003,0.0267398000000012,0.1142855999999999,0.2590244000000005,0.6227364000000006,0.0399799999999999,0,sub_9
-0.1139988000000003,0.0103438000000013,0.1150103999999999,0.2248702000000005,0.7049210000000007,0.0300219999999999,0,sub_9
-0.1003946000000004,-0.0085491999999986,0.1051437999999999,0.1869752000000005,0.7359032000000006,0.0083757999999999,0,sub_9
-0.0666122000000004,-0.0269109999999986,0.0956485999999999,0.1777120000000005,0.7239782000000007,-0.0172884,0,sub_9
-0.0254606000000004,-0.0436087999999986,0.0970703999999999,0.1821646000000005,0.6897994000000006,-0.030864,0,sub_9
0.0167863999999995,-0.0625979999999986,0.1008345999999999,0.1821896000000005,0.6313024000000006,-0.0331164,0,sub_9
0.0528077999999995,-0.0775851999999987,0.1042001999999999,0.1761510000000005,0.5699884000000006,-0.0183158,0,sub_9
0.0705717999999995,-0.0863789999999986,0.1080281999999999,0.1636368000000005,0.5274902000000006,0.0175435999999999,0,sub_9
0.0665263999999995,-0.0882427999999986,0.1046727999999999,0.1251152000000005,0.5031414000000006,0.0660165999999999,0,sub_9
0.0490403999999995,-0.0861361999999986,0.0861265999999999,0.0717142000000005,0.4769854000000005,0.0998601999999999,0,sub_9
0.0268913999999995,-0.0793997999999986,0.0591547999999999,0.0320208000000005,0.4372468000000006,0.1086069999999999,0,sub_9
0.0049053999999995,-0.0547037999999986,0.0323397999999999,0.0111470000000005,0.3735410000000006,0.0978825999999999,0,sub_9
-0.0105972000000004,-0.0104153999999986,0.0180621999999999,0.0020940000000005,0.3132652000000006,0.0716403999999999,0,sub_9
-0.0171932000000003,0.0233524000000012,0.0082629999999999,-0.0119601999999994,0.2698778000000006,0.0355139999999999,0,sub_9
-0.0128040000000003,0.0472560000000012,0.0037989999999999,-0.0268169999999994,0.2458486000000005,0.0074755999999999,0,sub_9
0.0066147999999996,0.0596948000000012,0.0083225999999999,-0.0407953999999994,0.2487882000000006,0.0009867999999999,0,sub_9
0.0226847999999996,0.0639666000000012,0.0163191999999999,-0.0513421999999994,0.2845834000000006,0.0096267999999999,0,sub_9
0.0195087999999995,0.0459506000000012,0.0064045999999999,-0.0530553999999994,0.3410074000000006,0.0200109999999999,0,sub_9
0.0025623999999995,0.0273440000000012,-0.008927,-0.0328231999999994,0.3464196000000006,0.0342459999999999,0,sub_9
-0.0179730000000004,0.0087078000000012,-0.0208204,0.0070818000000005,0.3068366000000006,0.0416257999999999,0,sub_9
-0.0437142000000004,0.0028678000000012,-0.0291186,0.0449624000000005,0.2739362000000006,0.0312503999999999,0,sub_9
-0.0560472000000003,-0.0065943999999986,-0.0319142,0.0677808000000005,0.2526254000000006,0.0128499999999999,0,sub_9
-0.0469146000000004,-0.0109119999999986,-0.0195406,0.0714450000000005,0.2017392000000006,0.0011903999999999,0,sub_9
-0.0255370000000004,-0.0105169999999987,-0.0009578,0.0577210000000005,0.1794454000000006,-0.0061408,0,sub_9
-0.0092954000000004,-0.0015919999999986,0.0133073999999999,0.0279092000000005,0.1957306000000006,-0.0035926,0,sub_9
-0.0013796000000004,0.0080064000000013,0.0197431999999998,-0.0005027999999994,0.2008928000000006,0.0088073999999999,0,sub_9
0.0006355999999995,0.0111936000000013,0.0243391999999999,-0.0192469999999994,0.2162658000000006,0.0167751999999999,0,sub_9
-0.0011160000000004,0.0136742000000012,0.0292673999999999,-0.0333553999999994,0.2326316000000006,0.0388747999999999,0,sub_9
-0.0016166000000004,0.0142870000000012,0.0323933999999999,-0.0384925999999994,0.2462158000000006,0.0561265999999999,0,sub_9
0.0022707999999995,0.0066312000000012,0.0324625999999999,-0.0274277999999994,0.2461498000000005,0.0630405999999999,0,sub_9
0.0080833999999995,-0.0040395999999987,0.0359541999999999,-0.0044065999999994,0.2360754000000006,0.0583003999999999,0,sub_9
0.0161941999999995,-0.0059439999999987,0.0409413999999999,0.0123262000000005,0.2021666000000005,0.0520513999999999,0,sub_9
0.0268143999999995,-0.0095335999999987,0.0370467999999999,0.0142840000000005,0.1786388000000006,0.0200483999999999,0,sub_9
0.0372831999999995,-0.0090405999999987,0.0276931999999999,0.0035012000000005,0.1310418000000006,-0.0023986,0,sub_9
0.0460131999999995,-0.0002411999999987,0.0195809999999999,-0.0135633999999994,0.0683166000000006,-0.0191016,0,sub_9
0.0510343999999995,0.0121552000000012,0.0120983999999999,-0.0304949999999994,-0.0053031999999993,-0.0287396,0,sub_9
0.0522403999999995,0.0184512000000012,0.0037065999999999,-0.0359437999999994,-0.0843031999999993,-0.034872,0,sub_9
0.0457559999999995,0.0202182000000012,0.0047501999999999,-0.0307623999999994,-0.1625257999999993,-0.0315308,0,sub_9
0.0318639999999995,0.0175068000000012,0.0102947999999999,-0.0251401999999994,-0.1955605999999993,-0.0335856,0,sub_9
0.0142651999999995,0.0091698000000012,0.0144367999999999,-0.0304043999999994,-0.1780791999999993,-0.031722,0,sub_9
-0.0020334000000004,0.0013722000000012,0.0177207999999999,-0.0469535999999994,-0.1441975999999993,-0.0188486,0,sub_9
-0.0180732000000004,-0.0026661999999987,0.0229717999999999,-0.0704357999999994,-0.0834577999999993,-0.0032808,0,sub_9
-0.0274788000000004,-0.0009847999999987,0.0287021999999999,-0.0907191999999994,-0.0240041999999993,0.0114563999999999,0,sub_9
-0.0360794000000004,0.0010718000000012,0.0337365999999999,-0.1033317999999994,0.0360498000000006,0.0292375999999999,0,sub_9
-0.0433320000000004,0.0056638000000012,0.0379067999999999,-0.1085097999999994,0.0871354000000006,0.0455865999999999,0,sub_9
-0.0546126000000004,0.0071242000000012,0.0405283999999999,-0.1043823999999994,0.1614348000000006,0.0562023999999999,0,sub_9
-0.0632966000000003,0.0050738000000012,0.0426155999999999,-0.0932701999999994,0.2212296000000006,0.0649627999999999,0,sub_9
-0.0642730000000003,0.0005040000000013,0.0459871999999999,-0.0825589999999994,0.2799880000000006,0.0668851999999999,0,sub_9
-0.0559702000000003,-0.0047183999999986,0.0524269999999999,-0.0748253999999994,0.3338848000000006,0.0617425999999999,0,sub_9
-0.0431804000000003,-0.0109947999999986,0.0617013999999999,-0.0784207999999994,0.3824982000000006,0.0556731999999999,0,sub_9
-0.0182338000000003,-0.0123437999999986,0.0672313999999999,-0.0974449999999994,0.4181622000000006,0.0512217999999999,0,sub_9
0.0075425999999995,-0.0084347999999987,0.0677311999999999,-0.1233987999999994,0.4369960000000006,0.0525117999999999,0,sub_9
0.0291413999999995,-0.0040789999999987,0.0618751999999999,-0.1433027999999994,0.4351020000000006,0.0639119999999999,0,sub_9
0.0443027999999995,0.0014150000000012,0.0544749999999999,-0.1536855999999994,0.4159144000000007,0.0760417999999999,0,sub_9
0.0536107999999995,0.0076670000000012,0.0450011999999999,-0.1498433999999994,0.3775158000000006,0.0848771999999999,0,sub_9
0.0570003999999995,0.0102448000000012,0.0371791999999999,-0.1334199999999994,0.3290930000000006,0.0854811999999999,0,sub_9
0.0568423999999995,0.0124238000000012,0.0326917999999999,-0.1098679999999994,0.2902720000000006,0.0762951999999999,0,sub_9
0.0478611999999995,0.0163034000000012,0.0319237999999999,-0.0820091999999994,0.2569882000000006,0.0639273999999999,0,sub_9
0.0341295999999995,0.0178980000000012,0.0325593999999999,-0.0528327999999994,0.2317970000000006,0.0513447999999999,0,sub_9
0.0153831999999995,0.0189130000000012,0.0367587999999999,-0.0244291999999994,0.2266272000000006,0.0408675999999999,0,sub_9
-0.0099408000000004,0.0159398000000012,0.0427677999999999,0.0018982000000005,0.2387042000000006,0.0348403999999999,0,sub_9
-0.0283456000000004,0.0029978000000012,0.0461111999999999,0.0167648000000005,0.2667910000000006,0.0310625999999999,0,sub_9
-0.0212286000000004,-0.0063075999999987,0.0498733999999999,0.0157324000000005,0.3094616000000006,0.0271643999999999,0,sub_9
-0.0027330000000004,-0.0117751999999987,0.0524053999999999,0.0031242000000005,0.3421512000000006,0.0251207999999999,0,sub_9
0.0290543999999995,-0.0144575999999987,0.0530199999999999,-0.0124055999999994,0.3422526000000006,0.0233121999999999,0,sub_9
0.0625781999999995,-0.0113147999999987,0.0489229999999999,-0.0272611999999994,0.3008124000000006,0.0198523999999999,0,sub_9
0.0847021999999995,-0.0026685999999987,0.0446717999999999,-0.0331075999999994,0.2203602000000006,0.0143691999999999,0,sub_9
0.0858201999999995,-0.0006537999999987,0.0385859999999999,-0.0337407999999994,0.1147362000000006,0.0021085999999999,0,sub_9
0.0809433999999995,-0.0003833999999987,0.0312473999999999,-0.0330823999999994,0.0048738000000006,-0.016974,0,sub_9
0.0705673999999995,-0.0014899999999986,0.0236629999999999,-0.0325853999999994,-0.0981513999999993,-0.0407666,0,sub_9
0.0620549999999995,0.0005866000000013,0.0224621999999999,-0.0348057999999994,-0.1913551999999993,-0.0673682,0,sub_9
0.0546679999999995,0.0077914000000012,0.0251579999999999,-0.0386975999999994,-0.2724261999999993,-0.0897242,0,sub_9
0.0403293999999995,0.0114040000000012,0.0263907999999999,-0.0382933999999994,-0.3348129999999993,-0.0996826,0,sub_9
0.0144269999999995,0.0119082000000012,0.0294261999999999,-0.0316207999999994,-0.3665927999999993,-0.0968178,0,sub_9
