userAcceleration.x,userAcceleration.y,userAcceleration.z,rotationRate.x,rotationRate.y,rotationRate.z,label,subject
0.0074263999999997,0.0147960000000012,0.0896533999999999,-0.0128813999999994,-0.0190063999999992,-0.000836,0,sub_16
0.0087483999999997,0.0141202000000012,0.0893603999999999,-0.0116105999999994,-0.0241207999999992,0.0004637999999999,0,sub_16
0.0100393999999997,0.0127534000000012,0.0901017999999999,-0.0105645999999994,-0.0322153999999992,0.0013385999999999,0,sub_16
0.0107155999999997,0.0108416000000012,0.0907413999999999,-0.0099695999999994,-0.0420189999999992,0.0015689999999999,0,sub_16
0.0109059999999997,0.0105624000000012,0.0909167999999999,-0.0106537999999994,-0.0524537999999992,0.0009365999999999,0,sub_16
0.0112421999999997,0.0114042000000012,0.0911643999999999,-0.0132641999999994,-0.0641601999999992,0.0002923999999999,0,sub_16
0.0114361999999997,0.0127586000000012,0.0917565999999999,-0.0177871999999994,-0.0757275999999992,-0.0016526,0,sub_16
0.0112559999999997,0.0148146000000012,0.0916969999999999,-0.0212307999999994,-0.0847411999999992,-0.0038072,0,sub_16
0.0104631999999997,0.0167708000000012,0.0910309999999999,-0.0233807999999994,-0.0901397999999992,-0.0053164,0,sub_16
0.0100067999999997,0.0178664000000012,0.0906521999999999,-0.0227521999999994,-0.0932097999999992,-0.0055272,0,sub_16
0.0090883999999997,0.0177718000000012,0.0906147999999999,-0.0189113999999994,-0.0933099999999992,-0.0052922,0,sub_16
0.0072651999999997,0.0165250000000012,0.0918569999999999,-0.0127167999999995,-0.0912035999999992,-0.0046108,0,sub_16
0.0057677999999997,0.0148216000000012,0.0929539999999999,-0.0082235999999995,-0.0886617999999992,-0.0047962,0,sub_16
0.0049243999999997,0.0138526000000012,0.0947171999999999,-0.0050077999999995,-0.0863251999999992,-0.0058448,0,sub_16
0.0038991999999997,0.0135512000000012,0.0955349999999999,-0.0039861999999995,-0.0846415999999992,-0.0071352,0,sub_16
0.0039737999999997,0.0130842000000012,0.0955733999999999,-0.0046761999999994,-0.0835927999999992,-0.0080094,0,sub_16
0.0041385999999997,0.0138030000000012,0.0939601999999999,-0.0064379999999994,-0.0823323999999992,-0.0076094,0,sub_16
0.0047803999999997,0.0144722000000012,0.0930145999999999,-0.0071423999999994,-0.0817207999999992,-0.0057058,0,sub_16
0.0053049999999997,0.0145142000000012,0.0921795999999999,-0.0076477999999994,-0.0836691999999992,-0.0031566,0,sub_16
0.0062585999999997,0.0140688000000012,0.0918781999999999,-0.0074543999999994,-0.0866585999999992,-0.0016558,0,sub_16
0.0065071999999997,0.0137984000000012,0.0923593999999999,-0.0072545999999994,-0.0887933999999992,-0.000797,0,sub_16
0.0070667999999997,0.0131136000000012,0.0937281999999999,-0.0070507999999994,-0.0907125999999992,-0.0005793999999999,0,sub_16
0.0073587999999997,0.0137708000000012,0.0945497999999999,-0.0069215999999994,-0.0920301999999992,-0.0014493999999999,0,sub_16
0.0070127999999997,0.0149134000000012,0.0953489999999999,-0.0069979999999994,-0.0918547999999992,-0.0025363999999999,0,sub_16
0.0062573999999997,0.0168324000000012,0.0956399999999999,-0.0070715999999994,-0.0904035999999992,-0.0029839999999999,0,sub_16
0.0055399999999997,0.0182214000000012,0.0958003999999999,-0.0060791999999994,-0.0891691999999992,-0.0034237999999999,0,sub_16
0.0047291999999997,0.0186800000000012,0.0960767999999999,-0.0042351999999994,-0.0877271999999992,-0.0032172,0,sub_16
0.0036389999999997,0.0175480000000012,0.0961483999999999,-0.0021023999999994,-0.0868867999999992,-0.002135,0,sub_16
0.0039445999999996,0.0161624000000012,0.0965039999999999,3.1400000000485205e-05,-0.0858331999999992,-0.0010532,0,sub_16
0.0039125999999997,0.0140938000000012,0.0974425999999999,0.0015278000000004,-0.0847749999999992,-0.000617,0,sub_16
0.0044073999999996,0.0128738000000012,0.0983655999999999,0.0021164000000004,-0.0838753999999992,-0.0008358,0,sub_16
0.0056235999999996,0.0128060000000012,0.0984597999999999,0.0022802000000004,-0.0838213999999992,-0.0023382,0,sub_16
0.0075627999999997,0.0123176000000012,0.0988307999999999,0.0020306000000004,-0.0824805999999992,-0.0055544,0,sub_16
0.0090587999999997,0.0116172000000012,0.0983301999999999,0.0007170000000005,-0.0811335999999992,-0.0094188,0,sub_16
0.0111097999999997,0.0125882000000012,0.0970165999999999,-0.0010279999999994,-0.0806381999999992,-0.0130714,0,sub_16
0.0126191999999997,0.0132044000000012,0.0952877999999999,-0.0031559999999994,-0.0814743999999992,-0.0152216,0,sub_16
0.0133931999999997,0.0137726000000012,0.0934855999999999,-0.0042209999999994,-0.0825299999999992,-0.0167231999999999,0,sub_16
0.0143847999999997,0.0153468000000012,0.0915681999999999,-0.0038065999999994,-0.0846645999999992,-0.0160765999999999,0,sub_16
0.0144053999999997,0.0163910000000012,0.0901413999999999,-0.0006337999999994,-0.0863843999999992,-0.0130639999999999,0,sub_16
0.0141243999999997,0.0163226000000012,0.0893685999999999,0.0042430000000005,-0.0872637999999992,-0.0085449999999999,0,sub_16
0.0134955999999997,0.0164768000000012,0.0885103999999999,0.0095524000000005,-0.0868663999999992,-0.0040245999999999,0,sub_16
0.0116107999999997,0.0164288000000012,0.0878817999999999,0.0142304000000005,-0.0845493999999991,0.000489,0,sub_16
0.0092567999999997,0.0160878000000012,0.0872283999999999,0.0189102000000005,-0.0820185999999992,0.0047886,0,sub_16
0.0075249999999997,0.0159564000000012,0.0865569999999999,0.0238150000000005,-0.0799163999999992,0.0075975999999999,0,sub_16
0.0065067999999997,0.0168388000000012,0.0865241999999999,0.0293686000000005,-0.0754745999999992,0.0108353999999999,0,sub_16
0.0049927999999997,0.0175220000000012,0.0867363999999999,0.0349306000000005,-0.0697517999999992,0.0134305999999999,0,sub_16
0.0046169999999997,0.0177942000000012,0.0868377999999999,0.0383532000000005,-0.0659363999999992,0.0153723999999999,0,sub_16
0.0027425999999997,0.0182998000000012,0.0864567999999999,0.0396660000000005,-0.0627595999999992,0.0160277999999999,0,sub_16
0.0011541999999997,0.0190664000000012,0.0860313999999999,0.0405548000000005,-0.0589421999999992,0.0166793999999999,0,sub_16
-0.0022414000000002,0.0177610000000012,0.0858973999999999,0.0408084000000005,-0.0551183999999992,0.0162583999999999,0,sub_16
-0.0039458000000002,0.0174210000000012,0.0854587999999999,0.0419184000000005,-0.0504461999999992,0.0160559999999999,0,sub_16
-0.0058136000000002,0.0169464000000012,0.0851537999999999,0.0443162000000005,-0.0434373999999992,0.0165003999999999,0,sub_16
-0.0059374000000002,0.0166282000000012,0.0860825999999999,0.0460606000000005,-0.0349221999999992,0.0167153999999999,0,sub_16
-0.0065450000000002,0.0159022000000012,0.0863521999999999,0.0435442000000005,-0.0272347999999992,0.0145515999999999,0,sub_16
-0.0062676000000002,0.0160726000000012,0.0854165999999999,0.0386854000000005,-0.0203835999999992,0.0104495999999999,0,sub_16
-0.0051282000000002,0.0153418000000012,0.0849675999999999,0.0331886000000005,-0.0150139999999992,0.0044221999999999,0,sub_16
-0.0035524000000002,0.0148830000000012,0.0838853999999999,0.0279090000000005,-0.0098539999999992,-0.0026714,0,sub_16
-0.0013800000000002,0.0158574000000012,0.0816103999999999,0.0239018000000005,-0.0049173999999992,-0.0082606,0,sub_16
0.0009343999999997,0.0161714000000012,0.0803637999999999,0.0222314000000005,0.0006380000000007,-0.0108432,0,sub_16
0.0032427999999997,0.0160496000000012,0.0803485999999999,0.0209694000000005,0.0036294000000007,-0.0119242,0,sub_16
0.0035277999999997,0.0157000000000012,0.0807723999999999,0.0175554000000005,0.0036412000000007,-0.011948,0,sub_16
0.0042693999999997,0.0159884000000012,0.0810487999999999,0.0134964000000005,0.0030144000000007,-0.0115484,0,sub_16
0.0044475999999997,0.0162458000000012,0.0810327999999999,0.0107198000000005,0.0034460000000007,-0.0105,0,sub_16
0.0044553999999997,0.0178894000000012,0.0806259999999999,0.0102882000000005,0.0051410000000007,-0.0077278,0,sub_16
0.0050351999999997,0.0198346000000012,0.0794119999999999,0.0124162000000005,0.0080992000000007,-0.0034438,0,sub_16
0.0054729999999997,0.0210454000000012,0.0781157999999999,0.0171134000000005,0.0131782000000007,0.0010689999999999,0,sub_16
0.0051105999999997,0.0213470000000012,0.0779793999999999,0.0213800000000005,0.0165578000000007,0.0047265999999999,0,sub_16
0.0039437999999997,0.0200280000000012,0.0786071999999999,0.0239386000000005,0.0169714000000007,0.0055983999999999,0,sub_16
0.0030655999999997,0.0182632000000012,0.0794011999999999,0.0245816000000004,0.0159106000000007,0.0038951999999999,0,sub_16
0.0018361999999997,0.0166468000000012,0.0795557999999999,0.0233148000000004,0.0155026000000007,0.0004685999999999,0,sub_16
0.0018949999999997,0.0162160000000012,0.0791833999999999,0.0218346000000004,0.0161564000000007,-0.0018926,0,sub_16
0.0022461999999997,0.0170308000000012,0.0791603999999999,0.0209906000000004,0.0185020000000007,-0.001688,0,sub_16
0.0022577999999997,0.0183696000000012,0.0787901999999999,0.0199314000000004,0.0212712000000007,-0.0006306,0,sub_16
0.0019035999999997,0.0189920000000012,0.0784821999999999,0.0175920000000004,0.0225594000000007,-0.0010759999999999,0,sub_16
0.0012737999999997,0.0190744000000012,0.0789525999999999,0.0150372000000004,0.0225734000000007,-0.0023757999999999,0,sub_16
0.0002863999999997,0.0188122000000012,0.0796441999999999,0.0120594000000004,0.0223802000000007,-0.0047463999999999,0,sub_16
-0.0003672000000002,0.0178992000000012,0.0785939999999999,0.0093048000000004,0.0232558000000007,-0.0081849999999999,0,sub_16
-0.0008132000000002,0.0171200000000012,0.0777481999999999,0.0074026000000004,0.0251886000000007,-0.0103371999999999,0,sub_16
0.0005667999999997,0.0168424000000012,0.0770235999999999,0.0074160000000005,0.0277470000000007,-0.0107676,0,sub_16
0.0012351999999997,0.0169576000000012,0.0767509999999999,0.0076448000000005,0.0315796000000007,-0.0103436,0,sub_16
0.0019845999999997,0.0173784000000012,0.0756649999999999,0.0070182000000005,0.0349890000000007,-0.0099252,0,sub_16
0.0025439999999997,0.0183214000000012,0.0756279999999999,0.0055178000000005,0.0345638000000007,-0.008867,0,sub_16
0.0034687999999997,0.0190748000000012,0.0761471999999999,0.0042232000000004,0.0322212000000007,-0.0080186,0,sub_16
0.0022653999999997,0.0191566000000012,0.0759893999999999,0.0025038000000004,0.0305184000000007,-0.0069602,0,sub_16
0.0020287999999997,0.0193208000000012,0.0754897999999999,0.0016360000000004,0.0288110000000007,-0.0054685999999999,0,sub_16
0.0016703999999997,0.0197374000000012,0.0759089999999999,0.0014506000000004,0.0271898000000007,-0.0035345999999999,0,sub_16
0.0011007999999997,0.0185978000000012,0.0761025999999999,0.0023446000000004,0.0270614000000007,-0.0028767999999999,0,sub_16
0.0004621999999997,0.0172560000000012,0.0759025999999999,0.0023956000000004,0.0290674000000007,-0.0024411999999999,0,sub_16
0.0005489999999997,0.0168898000000012,0.0756385999999999,0.0018074000000004,0.0308644000000007,-0.0024371999999999,0,sub_16
0.0007133999999997,0.0170240000000012,0.0760235999999999,0.0003570000000004,0.0307468000000007,-0.0024367999999999,0,sub_16
0.0005503999999997,0.0164206000000012,0.0760951999999998,-0.0015689999999995,0.0292630000000007,-0.0026619999999999,0,sub_16
0.0006799999999997,0.0165724000000012,0.0769361999999999,-0.0041399999999995,0.0269284000000007,-0.0026769999999999,0,sub_16
0.0006853999999997,0.0168266000000012,0.0773931999999999,-0.0071367999999994,0.0241718000000007,-0.0033353999999999,0,sub_16
0.0007701999999997,0.0169226000000012,0.0784745999999999,-0.0094953999999994,0.0218356000000007,-0.0031351999999999,0,sub_16
0.0012987999999997,0.0167784000000012,0.0783299999999999,-0.0114233999999994,0.0205622000000007,-0.0027195999999999,0,sub_16
0.0019371999999997,0.0173774000000012,0.0783537999999999,-0.0127065999999994,0.0205642000000007,-0.0020875999999999,0,sub_16
0.0018209999999997,0.0175202000000012,0.0781585999999999,-0.0139859999999994,0.0218428000000007,-0.0010299999999999,0,sub_16
0.0023373999999997,0.0170834000000012,0.0780205999999999,-0.0144165999999994,0.0224774000000007,0.0004617999999999,0,sub_16
0.0030297999999997,0.0173890000000012,0.0773245999999999,-0.0146347999999994,0.0228982000000007,0.0019551999999999,0,sub_16
0.0035023999999997,0.0183104000000012,0.0776963999999999,-0.0144281999999994,0.0228916000000007,0.0034521999999999,0,sub_16
0.0032755999999997,0.0183000000000012,0.0783399999999999,-0.0148625999999994,0.0222496000000007,0.0045181999999999,0,sub_16
0.0028959999999997,0.0188910000000012,0.0784375999999999,-0.0155141999999994,0.0207562000000007,0.0055837999999999,0,sub_16
0.0028525999999997,0.0193156000000012,0.0791129999999999,-0.0157399999999994,0.0192604000000007,0.0068659999999999,0,sub_16
0.0019563999999997,0.0186680000000012,0.0806465999999999,-0.0157427999999994,0.0194700000000007,0.0077201999999999,0,sub_16
0.0009957999999997,0.0169662000000012,0.0809201999999999,-0.0159511999999994,0.0209604000000007,0.0081439999999999,0,sub_16
0.0006845999999997,0.0163242000000012,0.0805317999999999,-0.0161587999999994,0.0230882000000007,0.0089943999999999,0,sub_16
0.0012645999999997,0.0158680000000012,0.0806717999999999,-0.0167891999999994,0.0262820000000007,0.0100541999999999,0,sub_16
0.0007987999999997,0.0158928000000012,0.0809317999999999,-0.0178349999999994,0.0316096000000007,0.0106809999999999,0,sub_16
0.0007143999999997,0.0161828000000012,0.0803149999999999,-0.0184539999999994,0.0367234000000007,0.0110973999999999,0,sub_16
0.0007131999999997,0.0168292000000012,0.0806961999999999,-0.0188607999999994,0.0416234000000007,0.0115155999999999,0,sub_16
0.0012161999999997,0.0172310000000012,0.0816605999999999,-0.0188325999999994,0.0465392000000007,0.0121579999999999,0,sub_16
0.0013651999999997,0.0173876000000012,0.0827977999999999,-0.0183785999999994,0.0503916000000007,0.0119501999999999,0,sub_16
0.0019809999999997,0.0173414000000012,0.0833149999999999,-0.0187819999999994,0.0527582000000007,0.0110971999999999,0,sub_16
0.0023819999999996,0.0168878000000012,0.0843029999999999,-0.0198273999999994,0.0538522000000007,0.0093869999999999,0,sub_16
0.0026775999999996,0.0161762000000012,0.0853491999999999,-0.0215107999999994,0.0553744000000007,0.0076717999999999,0,sub_16
0.0023959999999997,0.0154136000000012,0.0856405999999999,-0.0231975999999994,0.0581570000000007,0.0059473999999999,0,sub_16
0.0018889999999997,0.0149934000000012,0.0849813999999999,-0.0240271999999994,0.0626374000000007,0.0050811999999999,0,sub_16
0.0015355999999997,0.0149666000000012,0.0841899999999999,-0.0233601999999994,0.0681762000000007,0.0046515999999999,0,sub_16
0.0019273999999997,0.0157338000000012,0.0836259999999999,-0.0234381999999994,0.0737182000000007,0.0053077999999999,0,sub_16
0.0023079999999997,0.0170306000000012,0.0828977999999999,-0.0233113999999994,0.0773420000000007,0.0059677999999999,0,sub_16
0.0030767999999997,0.0180374000000012,0.0826691999999999,-0.0225559999999994,0.0784068000000007,0.0066355999999999,0,sub_16
0.0043355999999997,0.0183704000000012,0.0825679999999999,-0.0215909999999994,0.0781944000000007,0.0068791999999999,0,sub_16
0.0052777999999997,0.0177340000000012,0.0838129999999999,-0.0210641999999994,0.0764878000000007,0.0081897999999999,0,sub_16
0.0053603999999997,0.0169210000000012,0.0844825999999999,-0.0200115999999994,0.0745614000000007,0.0094815999999999,0,sub_16
0.0047711999999997,0.0165896000000012,0.0843011999999999,-0.0193809999999994,0.0734896000000007,0.0105555999999999,0,sub_16
0.0042791999999997,0.0152202000000012,0.0845467999999999,-0.0194401999999994,0.0732248000000007,0.0105757999999999,0,sub_16
0.0036037999999997,0.0142760000000012,0.0851309999999999,-0.0194955999999994,0.0738122000000007,0.0105951999999999,0,sub_16
0.0036815999999997,0.0144518000000012,0.0850841999999999,-0.0191175999999994,0.0756772000000007,0.0104021999999999,0,sub_16
0.0045855999999997,0.0157772000000012,0.0846245999999999,-0.0193805999999994,0.0769070000000007,0.0097781999999999,0,sub_16
0.0061373999999997,0.0158702000000012,0.0847031999999999,-0.0200771999999994,0.0770714000000007,0.0095799999999999,0,sub_16
0.0073609999999997,0.0168420000000012,0.0844393999999999,-0.0205135999999994,0.0751544000000007,0.0097931999999999,0,sub_16
0.0079043999999997,0.0155906000000012,0.0851185999999999,-0.0218071999999994,0.0719638000000007,0.0095745999999999,0,sub_16
0.0077429999999997,0.0143966000000012,0.0855555999999999,-0.0233199999999994,0.0674958000000007,0.0093561999999999,0,sub_16
0.0077135999999997,0.0120750000000012,0.0863109999999999,-0.0239803999999994,0.0636606000000007,0.0099973999999999,0,sub_16
0.0085471999999997,0.0110756000000012,0.0877155999999999,-0.0227115999999994,0.0619482000000007,0.0108629999999999,0,sub_16
0.0089479999999997,0.0102664000000012,0.0886871999999999,-0.0214303999999994,0.0636422000000006,0.0123651999999999,0,sub_16
0.0100755999999997,0.0116304000000012,0.0882835999999999,-0.0203625999999994,0.0655492000000007,0.0140791999999999,0,sub_16
0.0113023999999997,0.0128884000000012,0.0872549999999999,-0.0205793999999994,0.0665754000000006,0.0153653999999999,0,sub_16
0.0122919999999997,0.0137420000000012,0.0863135999999999,-0.0212295999999994,0.0663240000000006,0.0168637999999999,0,sub_16
0.0116629999999997,0.0135632000000012,0.0844191999999999,-0.0221037999999994,0.0639420000000006,0.0185769999999999,0,sub_16
0.0116211999999997,0.0134228000000012,0.0834235999999999,-0.0221283999999994,0.0607048000000007,0.0202973999999999,0,sub_16
0.0121695999999997,0.0136194000000012,0.0829509999999999,-0.0212993999999994,0.0581012000000007,0.0226637999999999,0,sub_16
0.0123099999999997,0.0134218000000012,0.0831885999999999,-0.0193971999999994,0.0561686000000007,0.0248159999999999,0,sub_16
0.0114715999999997,0.0124824000000012,0.0839219999999999,-0.0185513999999994,0.0544612000000007,0.0248241999999999,0,sub_16
0.0113123999999997,0.0117534000000012,0.0846703999999999,-0.0194029999999994,0.0527682000000007,0.0226839999999999,0,sub_16
0.0103333999999997,0.0114164000000012,0.0847025999999999,-0.0217509999999994,0.0493804000000007,0.0194671999999999,0,sub_16
0.0092337999999997,0.0113962000000012,0.0843251999999999,-0.0238895999999994,0.0447152000000007,0.0158263999999999,0,sub_16
0.0091793999999997,0.0127996000000012,0.0843779999999999,-0.0256013999999994,0.0404728000000007,0.0126151999999999,0,sub_16
0.0102565999999997,0.0139340000000012,0.0831661999999999,-0.0260337999999994,0.0364374000000007,0.0098399999999999,0,sub_16
0.0110115999999997,0.0147572000000012,0.0828453999999999,-0.0254079999999994,0.0323906000000007,0.0089949999999999,0,sub_16
0.0122339999999997,0.0147046000000012,0.0818567999999999,-0.0237181999999994,0.0283374000000007,0.0087983999999999,0,sub_16
0.0126111999999997,0.0139978000000012,0.0815163999999999,-0.0218073999999994,0.0257758000000007,0.0083875999999999,0,sub_16
0.0126153999999997,0.0127852000000012,0.0805739999999999,-0.0192603999999994,0.0229964000000007,0.0086225999999999,0,sub_16
0.0119075999999997,0.0130352000000012,0.0814853999999999,-0.0160781999999994,0.0202104000000007,0.0099301999999999,0,sub_16
0.0117863999999997,0.0128970000000012,0.0815879999999999,-0.0135301999999994,0.0184928000000007,0.0110183999999999,0,sub_16
0.0117363999999997,0.0134236000000012,0.0830423999999999,-0.0124709999999994,0.0180578000000007,0.0123081999999999,0,sub_16
0.0122951999999997,0.0142270000000012,0.0844041999999999,-0.0124825999999994,0.0165620000000007,0.0133783999999999,0,sub_16
0.0121573999999997,0.0138022000000012,0.0854245999999999,-0.0137723999999994,0.0142236000000007,0.0131587999999999,0,sub_16
0.0125711999999997,0.0135298000000012,0.0855673999999999,-0.0163385999999994,0.0114688000000007,0.0116489999999999,0,sub_16
0.0130355999999997,0.0131470000000012,0.0860155999999999,-0.0176237999999994,0.0084982000000007,0.0097209999999999,0,sub_16
0.0133843999999997,0.0121304000000012,0.0861589999999999,-0.0167693999999994,0.0065864000000007,0.0075929999999999,0,sub_16
0.0134353999999997,0.0113944000000012,0.0858659999999999,-0.0150585999999994,0.0061596000000007,0.0063235999999999,0,sub_16
0.0135041999999997,0.0113430000000012,0.0859351999999999,-0.0137735999999994,0.0055228000000007,0.0046241999999999,0,sub_16
0.0132345999999997,0.0106564000000012,0.0868481999999999,-0.0133409999999994,0.0044654000000007,0.0022783999999999,0,sub_16
0.0123329999999997,0.0107852000000012,0.0874919999999999,-0.0152497999999994,0.0032092000000007,-0.0015787999999999,0,sub_16
0.0120467999999997,0.0114644000000012,0.0880057999999999,-0.0184407999999994,0.0015312000000007,-0.0054445999999999,0,sub_16
0.0122327999999997,0.0121920000000012,0.0883539999999999,-0.0205715999999994,-0.0005807999999992,-0.0082341999999999,0,sub_16
0.0123989999999997,0.0129156000000012,0.0890959999999999,-0.0207819999999994,-0.0005773999999992,-0.0088765999999999,0,sub_16
0.0125443999999997,0.0135234000000012,0.0892107999999999,-0.0194999999999994,0.0006930000000007,-0.0080145999999999,0,sub_16
0.0128807999999997,0.0137912000000012,0.0895029999999999,-0.0169433999999994,0.0015294000000007,-0.0062888,0,sub_16
0.0131663999999997,0.0134844000000012,0.0894191999999999,-0.0145991999999994,0.0013064000000007,-0.0058448,0,sub_16
0.0125585999999997,0.0121334000000012,0.0901133999999999,-0.0141665999999994,3.680000000073486e-05,-0.0084038,0,sub_16
0.0128497999999997,0.0108944000000012,0.0901413999999999,-0.0154401999999994,-0.0022869999999992,-0.0122554,0,sub_16
0.0135939999999997,0.0100102000000012,0.0894609999999999,-0.0162859999999994,-0.0039747999999992,-0.0156776,0,sub_16
0.0146625999999997,0.0094462000000012,0.0887303999999999,-0.0160695999999994,-0.0048217999999992,-0.0171704,0,sub_16
0.0149165999999997,0.0104008000000012,0.0888187999999999,-0.0147951999999994,-0.0056799999999992,-0.0167332,0,sub_16
0.0151995999999997,0.0115742000000012,0.0888143999999999,-0.0126701999999994,-0.0059073999999992,-0.015009,0,sub_16
0.0145735999999997,0.0121088000000012,0.0889257999999999,-0.0096895999999994,-0.0061359999999992,-0.0137059999999999,0,sub_16
0.0132187999999997,0.0121618000000012,0.0897023999999999,-0.0067061999999994,-0.0065741999999992,-0.0132571999999999,0,sub_16
0.0124863999999997,0.0133252000000012,0.0897527999999999,-0.0047801999999994,-0.0059391999999992,-0.0138855999999999,0,sub_16
0.0123201999999997,0.0136288000000012,0.0886215999999999,-0.0043437999999994,-0.0052955999999992,-0.0153787999999999,0,sub_16
0.0121955999999997,0.0140666000000012,0.0876999999999999,-0.0045541999999994,-0.0061409999999992,-0.0168745999999999,0,sub_16
0.0119957999999997,0.0145458000000012,0.0879391999999999,-0.0047743999999994,-0.0086925999999992,-0.0179409999999999,0,sub_16
0.0122211999999997,0.0155294000000012,0.0880159999999999,-0.0047857999999994,-0.0120979999999992,-0.0187913999999999,0,sub_16
0.0104471999999997,0.0141712000000012,0.0884985999999999,-0.0039437999999994,-0.0157185999999992,-0.0198489999999999,0,sub_16
0.0090837999999997,0.0127806000000012,0.0892193999999999,-0.0013889999999995,-0.0167937999999992,-0.0196161999999999,0,sub_16
0.0085367999999997,0.0121580000000012,0.0893691999999999,0.0026698000000004,-0.0148939999999992,-0.0187358,0,sub_16
0.0082025999999997,0.0121542000000012,0.0882281999999999,0.0060992000000004,-0.0110727999999992,-0.0182896,0,sub_16
0.0076185999999997,0.0114026000000012,0.0875751999999999,0.0091556000000004,-0.0084977999999992,-0.0182646,0,sub_16
0.0085309999999997,0.0115474000000012,0.0878191999999999,0.0111414000000004,-0.0076199999999992,-0.0190996,0,sub_16
0.0089377999999997,0.0116282000000012,0.0879007999999999,0.0118460000000005,-0.0080117999999992,-0.0210102,0,sub_16
0.0095619999999997,0.0117794000000012,0.0878733999999999,0.0112666000000005,-0.0094635999999992,-0.023142,0,sub_16
0.0104103999999997,0.0122462000000012,0.0877343999999999,0.0106814000000005,-0.0113447999999992,-0.0244186,0,sub_16
0.0107541999999997,0.0129668000000012,0.0871439999999999,0.0102518000000005,-0.0126191999999992,-0.0250609999999999,0,sub_16
0.0110535999999997,0.0137354000000012,0.0861067999999999,0.0096012000000005,-0.0145361999999992,-0.0246357999999999,0,sub_16
0.0113515999999997,0.0139946000000012,0.0860767999999999,0.0085198000000005,-0.0179403999999992,-0.0248525999999999,0,sub_16
0.0106979999999997,0.0131994000000012,0.0861627999999999,0.0074366000000005,-0.0226195999999992,-0.0259223999999999,0,sub_16
0.0101543999999997,0.0120148000000012,0.0866315999999999,0.0067820000000004,-0.0272985999999992,-0.0274165999999999,0,sub_16
0.0105197999999997,0.0115844000000012,0.0864683999999999,0.0067724000000004,-0.0298533999999992,-0.0278405999999999,0,sub_16
0.0101505999999997,0.0116168000000012,0.0858063999999999,0.0091146000000004,-0.0298659999999992,-0.0267559999999999,0,sub_16
