userAcceleration.x,userAcceleration.y,userAcceleration.z,rotationRate.x,rotationRate.y,rotationRate.z,label,subject
0.0150797999999997,0.0109754000000012,-0.0015162,0.0195908000000005,-0.0295419999999992,-0.0047517999999999,0,sub_21
0.0129125999999997,0.0110220000000012,-0.0001398,0.0182876000000006,-0.0352201999999992,-0.0045531999999999,0,sub_21
0.0130047999999997,0.0105848000000012,0.0002971999999999,0.0180464000000006,-0.0426039999999992,-0.0049859999999999,0,sub_21
0.0126669999999997,0.0108366000000012,0.0011839999999999,0.0197332000000006,-0.0470167999999991,-0.0041273999999999,0,sub_21
0.0111375999999997,0.0112946000000012,0.0021415999999999,0.0210154000000006,-0.0465279999999991,-0.0032777999999999,0,sub_21
0.0097969999999997,0.0110816000000012,0.0033925999999999,0.0216652000000005,-0.0446119999999991,-0.0034893999999999,0,sub_21
0.0105415999999997,0.0105700000000012,0.0044493999999999,0.0214548000000005,-0.0435477999999991,-0.0030649999999999,0,sub_21
0.0103175999999997,0.0100200000000012,0.0073035999999999,0.0169778000000006,-0.0416189999999991,-0.0020305999999999,0,sub_21
0.0084521999999997,0.0096334000000012,0.0096267999999999,0.0099530000000006,-0.0373359999999992,-0.0014441999999999,0,sub_21
0.0063133999999997,0.0102256000000012,0.0115069999999999,0.0038030000000006,-0.0321875999999992,-0.0021575999999999,0,sub_21
0.0056875999999997,0.0106206000000012,0.0100081999999999,0.0008650000000006,-0.0242815999999992,-0.0026383999999999,0,sub_21
0.0050933999999997,0.0115192000000012,0.0085317999999999,-0.0005649999999993,-0.0138215999999992,-0.0037527999999999,0,sub_21
0.0054793999999997,0.0119326000000012,0.0078611999999999,0.0007838000000005,-0.0025181999999992,-0.0050625999999999,0,sub_21
0.0051889999999997,0.0118628000000012,0.0075019999999999,0.0040480000000006,0.0083498000000007,-0.0057175999999999,0,sub_21
0.0053007999999997,0.0115700000000012,0.0069737999999999,0.0075098000000006,0.0187782000000007,-0.0059203999999999,0,sub_21
0.0051069999999997,0.0118516000000012,0.0088107999999998,0.0088226000000006,0.0253810000000007,-0.0065605999999999,0,sub_21
0.0068755999999997,0.0117014000000012,0.0098823999999998,0.0080194000000006,0.0292328000000007,-0.0078821999999999,0,sub_21
0.0077317999999997,0.0131710000000012,0.0088505999999998,0.0093576000000006,0.0352058000000007,-0.0087641999999999,0,sub_21
0.0092871999999997,0.0138960000000012,0.0076381999999999,0.0126114000000005,0.0403192000000007,-0.0094179999999999,0,sub_21
0.0112155999999997,0.0129988000000012,0.0047975999999999,0.0164968000000005,0.0437250000000007,-0.0098515999999999,0,sub_21
0.0123515999999997,0.0119062000000012,0.0045947999999999,0.0152430000000005,0.0445860000000007,-0.0088223999999999,0,sub_21
0.0122521999999997,0.0115796000000012,0.0031707999999999,0.0137350000000005,0.0426686000000007,-0.0075485999999999,0,sub_21
0.0116659999999997,0.0107100000000012,0.0017153999999999,0.0126480000000005,0.0390470000000007,-0.0066969999999999,0,sub_21
0.0130521999999997,0.0101610000000012,-0.0002938,0.0115466000000005,0.0322296000000007,-0.0058413999999999,0,sub_21
0.0139017999999997,0.0098884000000012,0.0002647999999999,0.0078636000000005,0.0215828000000007,-0.0041441999999999,0,sub_21
0.0150811999999997,0.0104946000000012,-0.0012416,0.0060852000000005,0.0093990000000007,-0.0032971999999999,0,sub_21
0.0153247999999997,0.0109208000000012,-0.0006444,0.0060264000000005,0.0008276000000007,-0.0015883999999999,0,sub_21
0.0140943999999997,0.0106212000000012,0.0009765999999999,0.0031802000000006,-0.0105045999999992,0.0003182,0,sub_21
0.0144833999999997,0.0111668000000012,0.0012565999999999,-0.0060633999999993,-0.0211745999999992,0.0019656,0,sub_21
0.0161601999999997,0.0120706000000012,0.0009331999999999,-0.0159393999999993,-0.0295011999999992,0.0042464,0,sub_21
0.0152197999999997,0.0127238000000012,0.0018899999999999,-0.0223789999999993,-0.0352423999999992,0.0069859999999999,0,sub_21
0.0125909999999997,0.0116428000000012,0.0025577999999999,-0.0275421999999993,-0.0429013999999992,0.0086689999999999,0,sub_21
0.0120923999999997,0.0111934000000012,0.0029553999999999,-0.0325217999999993,-0.0467211999999992,0.0090709999999999,0,sub_21
0.0098305999999997,0.0115814000000012,0.0054477999999999,-0.0293673999999993,-0.0456655999999992,0.0086689999999999,0,sub_21
0.0063125999999997,0.0124382000000012,0.0074217999999999,-0.0214591999999993,-0.0337513999999992,0.005936,0,sub_21
0.0048893999999997,0.0119804000000012,0.0086765999999999,-0.0126745999999993,-0.0173633999999992,0.0025626,0,sub_21
0.0073433999999997,0.0129032000000012,0.0083811999999999,-0.0064591999999993,-0.0022473999999992,-0.0001861999999999,0,sub_21
0.0097881999999997,0.0137292000000012,0.0092667999999999,0.0021544000000006,0.0132834000000007,-0.0020687999999999,0,sub_21
0.0111347999999997,0.0131138000000012,0.0099723999999999,0.0103422000000005,0.0290286000000007,-0.0039545999999999,0,sub_21
0.0105931999999997,0.0118202000000012,0.0110313999999999,0.0146498000000005,0.0358400000000007,-0.0060695999999999,0,sub_21
0.0130593999999997,0.0118866000000012,0.0098181999999999,0.0148066000000005,0.0363536000000007,-0.0081949999999999,0,sub_21
0.0142699999999997,0.0125082000000012,0.0101959999999999,0.0168962000000005,0.0406914000000007,-0.0092437999999999,0,sub_21
0.0133427999999997,0.0121874000000012,0.0074891999999999,0.0174680000000005,0.0409812000000007,-0.0090159999999999,0,sub_21
0.0131613999999997,0.0118606000000012,0.0046221999999999,0.0150210000000005,0.0346752000000007,-0.0083735999999999,0,sub_21
0.0149545999999997,0.0117922000000012,0.0029901999999999,0.0131998000000006,0.0264442000000007,-0.0064423999999999,0,sub_21
0.0141947999999997,0.0114040000000012,0.0036615999999999,0.0142244000000006,0.0194004000000007,-0.0040761999999999,0,sub_21
0.0121379999999997,0.0103310000000012,0.0034943999999999,0.0139612000000006,0.0089590000000007,-0.0034237999999999,0,sub_21
0.0123173999999997,0.0104452000000012,0.0043645999999999,0.0141372000000006,-0.0001995999999992,-0.0042653999999999,0,sub_21
0.0119335999999997,0.0106044000000012,0.0053911999999999,0.0125502000000006,-0.0078363999999992,-0.0046731999999999,0,sub_21
0.0113479999999997,0.0107260000000012,0.0066959999999999,0.0088294000000006,-0.0150411999999992,-0.0046691999999999,0,sub_21
0.0105401999999997,0.0110894000000012,0.0076713999999999,0.0023500000000006,-0.0194641999999992,-0.0053287999999999,0,sub_21
0.0121281999999997,0.0124540000000012,0.0062443999999999,-0.0051905999999993,-0.0213317999999992,-0.0047171999999999,0,sub_21
0.0144581999999997,0.0145484000000012,0.0048925999999999,-0.0131587999999993,-0.0210767999999992,-0.0017613999999999,0,sub_21
0.0160537999999997,0.0137022000000012,0.0070801999999999,-0.0208507999999993,-0.0174517999999992,0.0041624,0,sub_21
0.0149249999999997,0.0126738000000012,0.0085393999999999,-0.0266175999999993,-0.0146781999999992,0.0081778,0,sub_21
0.0127937999999997,0.0112910000000012,0.0073741999999999,-0.0296037999999993,-0.0112715999999992,0.0113572,0,sub_21
0.0123299999999997,0.0118660000000012,0.0071665999999999,-0.0291759999999993,-0.0104235999999992,0.0120002,0,sub_21
0.0123217999999997,0.0112846000000012,0.0050159999999999,-0.0230853999999993,-0.0179461999999992,0.0120802,0,sub_21
0.0100241999999997,0.0113880000000012,0.0018667999999999,-0.0121227999999993,-0.0344299999999992,0.0111372,0,sub_21
0.0063893999999997,0.0072120000000012,0.0010121999999999,0.0007804000000005,-0.0441119999999992,0.0125494,0,sub_21
0.0036421999999997,0.0060170000000012,0.0038523999999999,0.0086114000000005,-0.0456689999999992,0.0111384,0,sub_21
-0.0023594000000002,0.0042724000000012,0.0071607999999999,0.0098614000000005,-0.0393215999999992,0.0100984,0,sub_21
-0.0069228000000002,0.0046294000000012,0.0110793999999999,0.0067490000000005,-0.0211949999999992,0.0085578,0,sub_21
-0.0027500000000002,0.0077430000000012,0.0137447999999999,0.0007040000000005,0.0097228000000007,0.0076214,0,sub_21
0.0053103999999997,0.0124906000000012,0.0102535999999999,-0.0105007999999993,0.0342896000000007,0.007094,0,sub_21
0.0139719999999997,0.0142268000000012,0.0060477999999999,-0.0187699999999993,0.0500996000000007,0.0093756,0,sub_21
0.0229213999999997,0.0159014000000012,0.0032825999999999,-0.0200121999999993,0.0626894000000007,0.0117106,0,sub_21
0.0280905999999997,0.0155166000000012,-0.0004362,-0.0202211999999993,0.0665454000000007,0.0127822,0,sub_21
0.0293481999999997,0.0132686000000012,-0.0050792,-0.0213325999999993,0.0563556000000007,0.0106608,0,sub_21
0.0313987999999997,0.0145802000000012,-0.0022564,-0.0185969999999993,0.0448530000000007,0.0077036,0,sub_21
0.0300021999999997,0.0157008000000012,0.0012231999999999,-0.0133201999999993,0.0314146000000007,0.0071168,0,sub_21
0.0234707999999997,0.0149752000000012,0.0047913999999999,-0.0074003999999993,0.0186130000000007,0.0065336,0,sub_21
0.0177341999999997,0.0138702000000012,0.0110431999999999,0.0004698000000006,0.0149492000000007,0.0061788,0,sub_21
0.0131895999999997,0.0120598000000012,0.0180303999999999,0.0066686000000006,0.0191744000000007,0.0058022,0,sub_21
0.0100755999999997,0.0100400000000012,0.0212009999999999,0.0066680000000006,0.0193792000000007,0.003892,0,sub_21
0.0104787999999997,0.0103302000000012,0.0219793999999999,0.0049528000000006,0.0159758000000007,5.160000000002073e-05,0,sub_21
0.0112229999999997,0.0096632000000012,0.0184941999999999,0.0047042000000006,0.0087236000000007,-0.0016371999999999,0,sub_21
0.0122075999999997,0.0094404000000012,0.0147877999999999,0.0025302000000006,-0.0019145999999992,-0.0033479999999999,0,sub_21
0.0114259999999997,0.0098966000000012,0.0100451999999999,0.0014298000000006,-0.0110651999999992,-0.0050529999999999,0,sub_21
0.0094203999999997,0.0111896000000012,0.0075847999999999,0.0042102000000006,-0.0100079999999992,-0.0054621999999999,0,sub_21
0.0075629999999997,0.0121450000000012,0.0066131999999999,0.0091408000000005,-0.0046997999999992,-0.0052209999999999,0,sub_21
0.0100367999999997,0.0134160000000012,0.0082601999999999,0.0127650000000005,0.0014352000000007,-0.0049701999999999,0,sub_21
0.0124989999999997,0.0124704000000012,0.0095397999999999,0.0150944000000005,0.0056520000000007,-0.0034439999999999,0,sub_21
0.0140353999999997,0.0122896000000012,0.0114331999999999,0.0150594000000005,0.0064664000000007,-0.0015027999999999,0,sub_21
0.0140161999999997,0.0128044000000012,0.0118913999999999,0.0130908000000005,0.0023950000000007,-0.0014915999999999,0,sub_21
0.0129637999999997,0.0127916000000012,0.0112473999999999,0.0132578000000006,-0.0012575999999992,-0.0014659999999999,0,sub_21
0.0107229999999997,0.0136478000000012,0.0103263999999999,0.0143198000000006,-0.0019021999999992,-0.0010304,0,sub_21
0.0128627999999997,0.0139796000000012,0.0121445999999999,0.0119652000000006,-0.0033861999999992,-0.0008311999999999,0,sub_21
0.0151751999999997,0.0146554000000012,0.0137105999999999,0.0092008000000006,-0.0035717999999992,4.399999999980808e-06,0,sub_21
0.0162723999999997,0.0134990000000012,0.0142679999999999,0.0085692000000006,-0.0020679999999992,0.0027755999999999,0,sub_21
0.0186625999999997,0.0124230000000012,0.0134705999999999,0.0053780000000006,-0.0026765999999992,0.0031815999999999,0,sub_21
0.0218357999999997,0.0103282000000012,0.0148733999999999,0.0002654000000005,-0.0049767999999992,0.0020806,0,sub_21
0.0202005999999997,0.0094314000000012,0.0133767999999999,-0.0042147999999994,-0.0085593999999992,0.001413,0,sub_21
0.0163129999999997,0.0101642000000012,0.0098687999999999,-0.0063657999999994,-0.0128113999999992,0.0009762,0,sub_21
0.0156035999999997,0.0111864000000012,0.0073631999999999,-0.0074297999999994,-0.0151393999999992,-0.0020193999999999,0,sub_21
0.0166267999999997,0.0114010000000012,0.0087299999999998,-0.0076269999999994,-0.0127899999999992,-0.0033055999999999,0,sub_21
0.0139809999999997,0.0111256000000012,0.0094039999999998,-0.0082433999999993,-0.0117093999999992,-0.0026935999999999,0,sub_21
0.0127473999999997,0.0122390000000012,0.0089999999999998,-0.0092943999999993,-0.0133925999999992,-0.0031493999999999,0,sub_21
0.0154369999999997,0.0121854000000012,0.0104421999999998,-0.0099003999999993,-0.0120901999999992,-0.0046741999999999,0,sub_21
0.0143447999999997,0.0115652000000012,0.0093887999999998,-0.0100825999999993,-0.0082455999999992,-0.0029945999999999,0,sub_21
0.0127911999999997,0.0115926000000012,0.0074643999999998,-0.0126317999999993,-0.0092911999999992,-0.0017525999999999,0,sub_21
0.0161517999999997,0.0131156000000012,0.0060977999999999,-0.0143233999999993,-0.0060885999999992,-0.0019821999999999,0,sub_21
0.0174653999999997,0.0133662000000012,0.0050661999999999,-0.0142963999999993,0.0009378000000007,-0.0009227999999999,0,sub_21
0.0170741999999997,0.0139242000000012,0.0031109999999999,-0.0119261999999993,0.0075282000000007,0.0005808,0,sub_21
0.0180337999999997,0.0138682000000012,0.0042677999999999,-0.0084477999999993,0.0138402000000007,0.0007788,0,sub_21
0.0176229999999997,0.0127556000000012,0.0059441999999999,-0.0036959999999993,0.0192928000000007,0.0016276,0,sub_21
0.0165111999999997,0.0115280000000012,0.0069965999999999,-0.0023907999999993,0.0166648000000007,0.0016082,0,sub_21
0.0164989999999997,0.0120436000000012,0.0077713999999999,-0.0002157999999993,0.0159580000000007,-0.0001167999999999,0,sub_21
0.0154327999999997,0.0121116000000012,0.0090615999999999,0.0026090000000006,0.0178040000000007,-0.0014133999999999,0,sub_21
0.0164151999999997,0.0126874000000012,0.0092981999999999,0.0036692000000006,0.0156722000000007,-0.0020441999999999,0,sub_21
0.0178847999999997,0.0130232000000012,0.0094151999999999,0.0008886000000006,0.0150394000000007,-0.0012081999999999,0,sub_21
0.0173533999999997,0.0137368000000012,0.0090063999999999,0.0002476000000006,0.0167384000000007,0.0007078,0,sub_21
0.0164791999999997,0.0135118000000012,0.0091933999999999,0.0028170000000006,0.0177376000000007,0.0022025999999999,0,sub_21
0.0162179999999997,0.0122578000000012,0.0095085999999999,0.0055862000000005,0.0140556000000007,0.0019957999999999,0,sub_21
0.0161255999999997,0.0108998000000012,0.0094483999999999,0.0077144000000005,0.0099506000000007,0.0015711999999999,0,sub_21
0.0143531999999997,0.0109524000000012,0.0097641999999999,0.0081376000000005,0.0058532000000007,0.0007073999999999,0,sub_21
0.0139107999999997,0.0103688000000012,0.0106891999999999,0.0062290000000005,0.0045362000000007,-0.0008169999999999,0,sub_21
0.0127925999999997,0.0118736000000012,0.0089869999999999,0.0053746000000005,0.0034772000000007,-0.0016761999999999,0,sub_21
0.0129273999999997,0.0126272000000012,0.0085657999999999,0.0049478000000005,0.0041152000000007,-0.0010389999999999,0,sub_21
0.0116645999999997,0.0127062000000012,0.0087727999999999,0.0023796000000005,0.0028442000000007,-0.0006279999999999,0,sub_21
0.0138507999999997,0.0123668000000012,0.0098341999999999,8.400000000609656e-06,0.0009032000000007,-0.0008655999999999,0,sub_21
0.0127967999999997,0.0124804000000012,0.0104327999999999,-1.2799999999390385e-05,0.0002300000000007,-0.0004475999999999,0,sub_21
0.0125759999999997,0.0120684000000012,0.0117959999999999,0.0012442000000006,-0.0019347999999992,-0.0010867999999999,0,sub_21
0.0125935999999997,0.0122612000000012,0.0117429999999999,0.0007992000000006,-0.0034527999999992,-0.0021661999999999,0,sub_21
0.0152699999999997,0.0131436000000012,0.0114361999999999,0.0029166000000006,-0.0037049999999992,-0.0023745999999999,0,sub_21
0.0149943999999997,0.0130250000000012,0.0101429999999999,0.0063354000000006,-0.0011661999999992,-0.0008583999999999,0,sub_21
0.0162481999999997,0.0133186000000012,0.0105595999999999,0.0088862000000006,-0.0022447999999992,0.0002292,0,sub_21
0.0164705999999997,0.0125620000000012,0.0125455999999999,0.0071630000000006,-0.0043753999999992,0.0017154,0,sub_21
0.0175421999999997,0.0128056000000012,0.0149059999999998,0.0056522000000006,-0.0077807999999992,0.0021366,0,sub_21
0.0165413999999997,0.0121714000000012,0.0164685999999998,0.0033028000000006,-0.0079843999999992,0.0019022,0,sub_21
0.0155021999999997,0.0129064000000012,0.0167579999999999,0.0037224000000006,-0.0101117999999992,0.0008348,0,sub_21
0.0156443999999997,0.0130298000000012,0.0164329999999999,0.0030830000000006,-0.0105309999999992,-0.0002421999999999,0,sub_21
0.0173853999999997,0.0139020000000012,0.0172259999999999,0.0041600000000005,-0.0081889999999992,-0.0006697999999999,0,sub_21
0.0155011999999997,0.0130052000000012,0.0166479999999999,0.0046008000000005,-0.0037193999999992,0.0001774,0,sub_21
0.0135905999999997,0.0125914000000012,0.0157175999999999,0.0043836000000005,-0.0030853999999992,0.0016706,0,sub_21
0.0135317999999997,0.0116692000000012,0.0160187999999999,0.0007668000000005,-0.0011533999999992,0.0012156,0,sub_21
0.0146445999999997,0.0118058000000012,0.0148025999999999,-7.239999999941044e-05,0.0016210000000007,0.000779,0,sub_21
0.0136985999999997,0.0112628000000012,0.0129617999999999,-2.619999999941055e-05,0.0080054000000007,0.0011982,0,sub_21
0.0141217999999997,0.0108944000000012,0.0132053999999998,0.0006458000000005,0.0107674000000007,0.001199,0,sub_21
0.0164977999999996,0.0120652000000012,0.0125821999999998,0.0002490000000005,0.0116216000000007,-0.0003007999999999,0,sub_21
0.0168391999999997,0.0135402000000012,0.0104867999999998,0.0030510000000005,0.0130996000000007,-0.0007107999999999,0,sub_21
0.0166251999999997,0.0133910000000012,0.0099533999999998,0.0052090000000005,0.0145764000000007,-0.0002707999999999,0,sub_21
0.0178803999999997,0.0120622000000012,0.0091565999999998,0.0049784000000006,0.0103178000000007,-0.0006943999999999,0,sub_21
0.0202145999999997,0.0124532000000012,0.0079539999999999,0.0017452000000006,0.0032974000000007,-0.0004943999999999,0,sub_21
0.0204139999999997,0.0128706000000012,0.0087073999999999,0.0008676000000006,-0.0009649999999992,0.0005732,0,sub_21
0.0189225999999997,0.0122786000000012,0.0085387999999999,-0.0002085999999993,-0.0044095999999992,0.0012114,0,sub_21
0.0189367999999997,0.0123566000000012,0.0077433999999999,0.0004174000000006,-0.0104105999999992,0.0003692,0,sub_21
0.0198127999999997,0.0130468000000012,0.0085297999999998,0.0001938000000006,-0.0144953999999992,0.0005868,0,sub_21
0.0196023999999997,0.0132342000000012,0.0099825999999998,-0.0025835999999993,-0.0166555999999992,0.0012114,0,sub_21
0.0165343999999997,0.0125968000000012,0.0102249999999998,-0.0072677999999993,-0.0158261999999992,0.0018188,0,sub_21
0.0165793999999997,0.0128268000000012,0.0106943999999999,-0.0117581999999993,-0.0168799999999992,0.0028569999999999,0,sub_21
0.0157709999999997,0.0128168000000012,0.0110585999999999,-0.0166629999999993,-0.0151627999999992,0.0038887999999999,0,sub_21
0.0138815999999997,0.0116778000000012,0.0099845999999999,-0.0228391999999993,-0.0130411999999992,0.0032036,0,sub_21
0.0137309999999997,0.0118448000000012,0.0110931999999999,-0.0249411999999993,-0.0068839999999992,0.0021144,0,sub_21
0.0156269999999997,0.0141886000000012,0.0118583999999999,-0.0214887999999993,0.0009572000000007,0.0012754,0,sub_21
0.0171513999999997,0.0154928000000012,0.0122401999999999,-0.0131269999999993,0.0092074000000007,0.0004702,0,sub_21
0.0200475999999997,0.0148946000000012,0.0137295999999999,-0.0099089999999993,0.0138478000000007,0.0011292,0,sub_21
0.0219331999999997,0.0154708000000012,0.0155219999999999,-0.0064959999999993,0.0153204000000007,0.0028603999999999,0,sub_21
0.0210003999999997,0.0151202000000012,0.0143471999999999,-0.0035203999999993,0.0144510000000007,0.0045913999999999,0,sub_21
0.0205911999999997,0.0132542000000012,0.0121089999999999,-0.0024803999999993,0.0093306000000007,0.0054598,0,sub_21
0.0210147999999996,0.0118650000000012,0.0108903999999999,-0.0048497999999993,0.0067696000000007,0.0054472,0,sub_21
0.0198331999999997,0.0129382000000012,0.0083019999999999,-0.0025107999999994,0.0069634000000007,0.0050368,0,sub_21
0.0185091999999997,0.0116176000000012,0.0092381999999999,-0.0005753999999994,0.0126964000000007,0.0050436,0,sub_21
0.0181891999999997,0.0121994000000012,0.0092345999999999,-0.0005477999999994,0.0201448000000007,0.0039668,0,sub_21
0.0188671999999997,0.0127730000000012,0.0106137999999999,-0.0007403999999994,0.0267392000000007,0.0035304,0,sub_21
0.0175079999999997,0.0133878000000012,0.0104239999999999,-0.0011451999999994,0.0322774000000007,0.0041614,0,sub_21
0.0155815999999997,0.0117780000000012,0.0104343999999999,-0.0024003999999994,0.0382458000000007,0.0045722,0,sub_21
0.0166491999999997,0.0127250000000012,0.0078115999999999,-0.0070811999999994,0.0414572000000007,0.004749,0,sub_21
0.0207129999999997,0.0125086000000012,0.0082705999999999,-0.0096483999999994,0.0438018000000007,0.0053668,0,sub_21
0.0222573999999997,0.0118322000000012,0.0069643999999999,-0.0109495999999994,0.0429462000000007,0.0059976,0,sub_21
0.0237143999999997,0.0115990000000012,0.0064775999999999,-0.0094951999999993,0.0367596000000007,0.0053726,0,sub_21
0.0263785999999997,0.0116448000000012,0.0089229999999999,-0.0084867999999993,0.0256768000000007,0.0041098,0,sub_21
0.0275879999999997,0.0128252000000012,0.0119141999999999,-0.0047149999999993,0.0116042000000007,0.0022292,0,sub_21
0.0245437999999997,0.0134728000000012,0.0126639999999999,-0.0005059999999993,-0.0022557999999992,0.0014218,0,sub_21
0.0235765999999997,0.0135074000000012,0.0148167999999999,0.0024370000000006,-0.0131275999999992,0.000388,0,sub_21
0.0232283999999997,0.0130910000000012,0.0158265999999999,0.0019710000000006,-0.0222855999999991,-3.079999999997889e-05,0,sub_21
0.0236683999999997,0.0145678000000012,0.0142315999999998,0.0015232000000006,-0.0269713999999992,-2.799999999997891e-05,0,sub_21
0.0228425999999997,0.0140698000000012,0.0134343999999998,0.0019240000000006,-0.0284783999999992,0.00083,0,sub_21
0.0212771999999997,0.0130766000000012,0.0127853999999998,0.0031860000000006,-0.0295571999999992,0.0004114,0,sub_21
0.0200585999999997,0.0131322000000012,0.0122415999999998,0.0042396000000006,-0.0299943999999991,-0.0004365999999999,0,sub_21
0.0191371999999997,0.0143070000000012,0.0131467999999999,0.0050884000000006,-0.0276645999999992,-0.0004349999999999,0,sub_21
0.0170289999999997,0.0135204000000012,0.0134979999999999,0.0042224000000005,-0.0266087999999992,-1.6399999999978803e-05,0,sub_21
0.0157197999999997,0.0135770000000012,0.0142123999999999,0.0027412000000006,-0.0244705999999991,-0.0006703999999999,0,sub_21
0.0161665999999997,0.0138710000000012,0.0157449999999999,0.0010592000000006,-0.0189251999999991,-0.0006891999999999,0,sub_21
0.0153055999999997,0.0132006000000012,0.0161077999999999,0.0010986000000006,-0.0125197999999992,-6.139999999995883e-05,0,sub_21
0.0145265999999997,0.0112822000000012,0.0169499999999999,0.0002816000000006,-0.0082357999999992,-0.0009323999999999,0,sub_21
0.0152537999999997,0.0110286000000012,0.0180183999999999,-0.0013839999999993,-0.0030957999999991,-0.0020241999999999,0,sub_21
0.0164301999999997,0.0114750000000012,0.0185241999999999,-0.0026227999999993,0.0039524000000007,-0.0011925999999999,0,sub_21
0.0171923999999997,0.0118508000000012,0.0180881999999999,-0.0032387999999993,0.0065268000000007,-0.0009917999999999,0,sub_21
0.0190849999999997,0.0125692000000012,0.0181745999999999,-0.0017393999999993,0.0075876000000007,-0.0011963999999999,0,sub_21
0.0216897999999997,0.0126514000000012,0.0179239999999999,-0.0006763999999993,0.0077926000000007,-0.0001209999999999,0,sub_21
0.0223399999999997,0.0129872000000012,0.0177617999999999,0.0001790000000006,0.0088522000000007,0.0005246,0,sub_21
0.0215463999999997,0.0131538000000012,0.0185597999999999,0.0012694000000006,0.0082006000000007,9.46000000000211e-05,0,sub_21
0.0224797999999997,0.0138072000000012,0.0170149999999999,0.0017160000000006,0.0071234000000007,8.800000000002109e-05,0,sub_21
0.0243105999999997,0.0136552000000012,0.0165231999999999,0.0004584000000006,0.0056304000000007,-0.0009981999999999,0,sub_21
0.0248201999999997,0.0141084000000012,0.0157245999999999,-0.0012267999999993,0.0037134000000007,-0.0023005999999999,0,sub_21
0.0249653999999997,0.0142088000000012,0.0156981999999999,-0.0010079999999994,-0.0007709999999992,-0.0025181999999999,0,sub_21
0.0244179999999997,0.0140810000000012,0.0146821999999999,0.0013306000000005,-0.0037577999999992,-0.0035661999999999,0,sub_21
0.0233251999999997,0.0129954000000012,0.0156681999999999,0.0038920000000005,-0.0052513999999992,-0.0052555999999999,0,sub_21
0.0220279999999997,0.0126278000000012,0.0163245999999998,0.0023878000000005,-0.0080141999999992,-0.0056899999999999,0,sub_21
