userAcceleration.x,userAcceleration.y,userAcceleration.z,rotationRate.x,rotationRate.y,rotationRate.z,label,subject
0.0527987999999996,-0.0094441999999987,-0.0684698,-0.0317121999999995,-0.045614199999999,0.0200807999999999,0,sub_3
0.0531007999999996,-0.0095781999999987,-0.067439,-0.0258687999999995,-0.034950999999999,0.0124167999999999,0,sub_3
0.0518399999999996,-0.0129387999999987,-0.0618158,-0.0125859999999995,-0.027946799999999,0.0075867999999999,0,sub_3
0.0486807999999996,-0.0161135999999987,-0.053822,0.0019406000000004,-0.026708999999999,0.0051229999999999,0,sub_3
0.0459575999999996,-0.0164597999999987,-0.048882,0.0134484000000004,-0.028459599999999,0.0067009999999999,0,sub_3
0.0433813999999996,-0.0149831999999987,-0.0462382,0.0172698000000004,-0.026155799999999,0.0133477999999999,0,sub_3
0.0425097999999996,-0.0118701999999987,-0.0474538,0.0121384000000004,-0.021691199999999,0.0201427999999999,0,sub_3
0.0462871999999996,-0.0092595999999987,-0.0561634,-0.0023593999999995,-0.015264399999999,0.0238789999999999,0,sub_3
0.0526045999999997,-0.0088525999999987,-0.067817,-0.0213323999999995,-0.011150999999999,0.0239547999999999,0,sub_3
0.0590925999999997,-0.0097391999999987,-0.0771978,-0.0420159999999995,-0.013188799999999,0.0186855999999999,0,sub_3
0.0649025999999997,-0.0128387999999987,-0.084154,-0.0597383999999995,-0.026294399999999,0.0081099999999999,0,sub_3
0.0684581999999996,-0.0154797999999987,-0.087721,-0.0725789999999995,-0.048140399999999,-0.0054114,0,sub_3
0.0677633999999996,-0.0158731999999987,-0.0854942,-0.0800959999999995,-0.072560799999999,-0.0191058,0,sub_3
0.0654499999999996,-0.0130253999999987,-0.080999,-0.0835549999999995,-0.093384599999999,-0.0299992,0,sub_3
0.0611411999999996,-0.0099081999999987,-0.07701,-0.0831665999999995,-0.106788799999999,-0.0348932,0,sub_3
0.0543677999999996,-0.0050939999999987,-0.0747304,-0.0787115999999995,-0.108100599999999,-0.0303738,0,sub_3
0.0466123999999996,-0.0026521999999987,-0.074474,-0.0693309999999995,-0.099227799999999,-0.0196374,0,sub_3
0.0426993999999996,-0.0044545999999987,-0.0740652,-0.0573897999999994,-0.088878399999999,-0.0073896,0,sub_3
0.0405247999999996,-0.0063683999999987,-0.0733894,-0.0493093999999994,-0.086809399999999,0.0009963999999999,0,sub_3
0.0407157999999996,-0.0075989999999987,-0.0729642,-0.0446415999999994,-0.087760399999999,0.0059449999999999,0,sub_3
0.0432421999999996,-0.0095213999999987,-0.0739578,-0.0422957999999994,-0.089529799999999,0.0044689999999999,0,sub_3
0.0484837999999996,-0.0103217999999987,-0.0748066,-0.0420607999999994,-0.090634599999999,-0.001509,0,sub_3
0.0510769999999997,-0.0091261999999987,-0.0761334,-0.0415835999999994,-0.086409799999999,-0.0085604,0,sub_3
0.0520031999999996,-0.0112053999999987,-0.0784096,-0.0357413999999994,-0.071778399999999,-0.0119558,0,sub_3
0.0519087999999996,-0.0125513999999987,-0.0791506,-0.0258361999999995,-0.054331999999999,-0.0144728,0,sub_3
0.0524779999999996,-0.0124719999999987,-0.0777842,-0.0159425999999995,-0.038169199999999,-0.0157064,0,sub_3
0.0509085999999996,-0.0110519999999987,-0.0770606,-0.0096495999999995,-0.025074999999999,-0.0129656,0,sub_3
0.0490183999999996,-0.0091535999999987,-0.076876,-0.0042349999999995,-0.014121999999999,-0.00681,0,sub_3
0.0476821999999997,-0.0066153999999987,-0.0759124,-0.0003179999999995,-0.004228199999999,-0.000877,0,sub_3
0.0462963999999997,-0.0058967999999987,-0.0760178,0.0035944000000004,0.0052368000000009,0.0056973999999999,0,sub_3
0.0459613999999997,-0.0064653999999987,-0.0772572,0.0094254000000004,0.0129958000000009,0.0110055999999999,0,sub_3
0.0475547999999997,-0.0072575999999987,-0.077759,0.0177662000000004,0.0197742000000009,0.0136187999999999,0,sub_3
0.0480787999999997,-0.0091737999999987,-0.0776744,0.0237578000000004,0.0242250000000009,0.0142957999999999,0,sub_3
0.0478247999999997,-0.0101723999999987,-0.0780722,0.0278274000000004,0.0274076000000009,0.0141063999999999,0,sub_3
0.0473767999999996,-0.0095415999999987,-0.0779372,0.0293402000000004,0.0299658000000009,0.0124045999999999,0,sub_3
0.0455419999999996,-0.0080143999999987,-0.0768354,0.0286432000000004,0.0328640000000009,0.0099589999999999,0,sub_3
0.0437603999999996,-0.0072675999999987,-0.0758856,0.0266726000000004,0.0366212000000009,0.0068623999999999,0,sub_3
0.0430681999999996,-0.0061003999999987,-0.0745238,0.0262006000000004,0.0416508000000009,0.0039883999999999,0,sub_3
0.0432555999999996,-0.0049831999999987,-0.0737476,0.0276440000000004,0.0462450000000009,0.0017691999999999,0,sub_3
0.0437893999999996,-0.0047669999999987,-0.0732684,0.0297218000000004,0.0495588000000009,-0.000444,0,sub_3
0.0445925999999997,-0.0059041999999987,-0.0725578,0.0320880000000004,0.0523262000000009,-0.0019266,0,sub_3
0.0448945999999997,-0.0066073999999987,-0.072495,0.0342372000000004,0.0553032000000009,-0.0023426,0,sub_3
0.0450899999999997,-0.0063031999999987,-0.0731362,0.0359652000000004,0.0593478000000009,-0.0029766,0,sub_3
0.0449379999999997,-0.0064145999999987,-0.07359,0.0372790000000004,0.0644632000000009,-0.0028368,0,sub_3
0.0444971999999997,-0.0070337999999987,-0.0739304,0.0388062000000004,0.0702144000000009,-0.0020556,0,sub_3
0.0439565999999997,-0.0075045999999987,-0.0745388,0.0396914000000004,0.0755420000000009,-0.0012782,0,sub_3
0.0453699999999997,-0.0081903999999987,-0.0742894,0.0395010000000004,0.0787436000000009,-0.0007192,0,sub_3
0.0474321999999997,-0.0090979999999987,-0.074337,0.0386562000000004,0.0785392000000009,-0.0003742,0,sub_3
0.0491839999999996,-0.0095877999999987,-0.0737048,0.0362908000000004,0.0742872000000009,-0.000599,0,sub_3
0.0505653999999996,-0.0095483999999987,-0.0739988,0.0326356000000004,0.0679092000000009,-0.00083,0,sub_3
0.0522785999999996,-0.0099409999999987,-0.0751098,0.0265686000000004,0.0621696000000009,-0.0008886,0,sub_3
0.0527923999999996,-0.0092877999999987,-0.0760052,0.0215638000000004,0.0549366000000009,-0.0013652,0,sub_3
0.0520653999999996,-0.0108167999999987,-0.075425,0.0171904000000004,0.0466328000000009,-0.0009814,0,sub_3
0.0513457999999996,-0.0122597999999987,-0.074764,0.0134562000000004,0.0387502000000009,4.719999999990149e-05,0,sub_3
0.0515811999999996,-0.0126737999999987,-0.0728556,0.0107870000000004,0.0295890000000009,0.0002303999999999,0,sub_3
0.0531885999999996,-0.0120541999999987,-0.0699096,0.0083900000000004,0.0180940000000009,-0.000199,0,sub_3
0.0554903999999997,-0.0132445999999987,-0.0682436,0.0036458000000004,0.0068194000000009,-0.0004314,0,sub_3
0.0594659999999997,-0.0128603999999987,-0.0677326,-0.0017383999999995,-0.004452999999999,-0.0006682,0,sub_3
0.0633083999999997,-0.0128337999999987,-0.068236,-0.0082593999999995,-0.018450999999999,-0.001977,0,sub_3
0.0663491999999997,-0.0141693999999987,-0.0693638,-0.0160767999999995,-0.036066399999999,-0.0032902,0,sub_3
0.0673179999999997,-0.0153335999999987,-0.0703192,-0.0204937999999995,-0.056464399999999,-0.0043624,0,sub_3
0.0662575999999997,-0.0156781999999987,-0.0681204,-0.0240447999999995,-0.073246799999999,-0.0045788,0,sub_3
0.0636173999999996,-0.0158233999999987,-0.066576,-0.0292729999999995,-0.084267399999999,-0.0056688,0,sub_3
0.0609121999999996,-0.0147531999999987,-0.0653406,-0.0329165999999995,-0.088937599999999,-0.0067566,0,sub_3
0.0583885999999996,-0.0135553999999987,-0.0639678,-0.0326879999999995,-0.085529599999999,-0.0067594,0,sub_3
0.0559523999999996,-0.0134083999999987,-0.0616684,-0.0305187999999995,-0.075956399999999,-0.0050474,0,sub_3
0.0546021999999996,-0.0135403999999987,-0.0617222,-0.0255727999999995,-0.064480599999999,-0.0020364,0,sub_3
0.0524811999999996,-0.0133593999999987,-0.0614402,-0.0182257999999995,-0.052684799999999,0.0031107999999999,0,sub_3
0.0504399999999996,-0.0127823999999987,-0.0614252,-0.0108845999999995,-0.040469799999999,0.0099665999999999,0,sub_3
0.0486231999999996,-0.0121085999999987,-0.0611748,-0.0052455999999995,-0.028244599999999,0.0157421999999999,0,sub_3
0.0487341999999996,-0.0101193999999987,-0.063329,-0.0010913999999995,-0.016006599999999,0.0195845999999999,0,sub_3
0.0491045999999997,-0.0093867999999987,-0.0654046,0.0028512000000004,-0.005675799999999,0.0210777999999999,0,sub_3
0.0507931999999996,-0.0086301999999987,-0.0674336,0.0045792000000004,-0.001843399999999,0.0202301999999999,0,sub_3
0.0403217999999997,-0.0035429999999987,-0.0715554,0.0052146000000004,0.0023940000000009,0.0255701999999998,0,sub_3
0.0375117999999997,-0.0027161999999987,-0.0738502,0.0081568000000004,0.0112472000000009,0.0377467999999999,0,sub_3
0.0329547999999996,-0.0049509999999987,-0.072917,0.0098274000000004,0.0063194000000009,0.0341223999999999,0,sub_3
0.0336655999999997,-0.0047241999999987,-0.0714894,0.0014590000000004,-0.010041599999999,0.0212559999999999,0,sub_3
0.0307023999999997,-0.0031579999999987,-0.0722728,-0.0105041999999995,-0.017236399999999,0.0102755999999999,0,sub_3
0.0394529999999997,-0.0101613999999987,-0.070541,-0.0211199999999995,-0.017160999999999,-0.008396,0,sub_3
0.0407981999999997,-0.0128121999999987,-0.0705214,-0.0340233999999995,-0.018713599999999,-0.0351898,0,sub_3
0.0489419999999996,-0.0117175999999987,-0.0700516,-0.0471575999999995,-0.007336399999999,-0.0451238,0,sub_3
0.0509735999999996,-0.0110651999999987,-0.0693426,-0.0487879999999995,0.0133212000000009,-0.0415298,0,sub_3
0.0551147999999996,-0.0122967999999987,-0.0680836,-0.0403015999999994,0.0286494000000009,-0.0355124,0,sub_3
0.0596117999999996,-0.0112007999999987,-0.0648348,-0.0295351999999994,0.0303288000000009,-0.0281796,0,sub_3
0.0641795999999996,-0.0093429999999987,-0.0621936,-0.0239463999999994,0.0237000000000009,-0.0165994,0,sub_3
0.0597835999999996,-0.0086049999999987,-0.0642712,-0.0224287999999994,0.0151602000000009,-0.0031224,0,sub_3
0.0552475999999996,-0.0099969999999987,-0.0679354,-0.0208775999999994,0.0083478000000009,0.0045841999999999,0,sub_3
0.0528883999999997,-0.0114139999999987,-0.0701508,-0.0206995999999995,0.0019494000000009,0.0060891999999999,0,sub_3
0.0519997999999996,-0.0113089999999987,-0.0739954,-0.0234869999999995,-0.002084599999999,0.0050067999999999,0,sub_3
0.0519531999999997,-0.0105939999999987,-0.0761802,-0.0217741999999995,-0.005480599999999,0.0003229999999999,0,sub_3
0.0546565999999997,-0.0101605999999987,-0.07616,-0.0162045999999995,-0.007177999999999,-0.0062588,0,sub_3
0.0563621999999997,-0.0081747999999987,-0.0755544,-0.0121989999999995,-0.006446599999999,-0.0090086,0,sub_3
0.0573247999999997,-0.0055325999999987,-0.075379,-0.0105577999999995,-0.005297799999999,-0.0075026,0,sub_3
0.0570023999999996,-0.0039807999999987,-0.0747298,-0.0076533999999995,-0.005866599999999,-0.0038492,0,sub_3
0.0548677999999997,-0.0040473999999987,-0.0748234,-0.0034785999999995,-0.008357999999999,2.9199999999961723e-05,0,sub_3
0.0522649999999996,-0.0049803999999987,-0.0743224,-0.0005933999999995,-0.014036599999999,0.0028345999999999,0,sub_3
0.0519789999999996,-0.0061723999999987,-0.0737652,-0.0010681999999995,-0.024050999999999,0.0034849999999999,0,sub_3
0.0529225999999996,-0.0075147999999987,-0.0736132,-0.0045299999999995,-0.036601599999999,0.0015541999999999,0,sub_3
0.0536543999999996,-0.0085771999999987,-0.0745014,-0.0086053999999995,-0.046314199999999,-0.0018768,0,sub_3
0.0552457999999996,-0.0097577999999987,-0.075823,-0.0141541999999994,-0.051547599999999,-0.0053238,0,sub_3
0.0565773999999996,-0.0099729999999987,-0.077857,-0.0181959999999994,-0.053803399999999,-0.0087642,0,sub_3
0.0579589999999997,-0.0096619999999987,-0.0791918,-0.0200971999999994,-0.054363199999999,-0.011978,0,sub_3
0.0588717999999997,-0.0091895999999987,-0.079391,-0.0198725999999994,-0.054937199999999,-0.0134678,0,sub_3
0.0611727999999997,-0.0089777999999987,-0.078811,-0.0207413999999994,-0.057918599999999,-0.0130428,0,sub_3
0.0634359999999996,-0.0089019999999987,-0.078308,-0.0207825999999994,-0.064957799999999,-0.0108976,0,sub_3
0.0649953999999996,-0.0090943999999987,-0.0772132,-0.0197809999999995,-0.075841599999999,-0.0072448,0,sub_3
0.0632493999999997,-0.0099573999999987,-0.0757098,-0.0179353999999995,-0.088796999999999,-0.0021288,0,sub_3
0.0601941999999997,-0.0103869999999987,-0.0732448,-0.0143969999999994,-0.103468799999999,0.0044967999999999,0,sub_3
0.0557357999999996,-0.0106409999999987,-0.0705036,-0.0070237999999994,-0.118371399999999,0.0122177999999999,0,sub_3
0.0503571999999997,-0.0119421999999987,-0.0649804,0.0014394000000005,-0.128376599999999,0.0197263999999999,0,sub_3
0.0450951999999997,-0.0123097999999987,-0.0613014,0.0082358000000005,-0.130700799999999,0.0259317999999999,0,sub_3
0.0424039999999997,-0.0124323999999987,-0.0584698,0.0125062000000004,-0.125832599999999,0.0302283999999999,0,sub_3
0.0424867999999997,-0.0096389999999987,-0.0586598,0.0123360000000004,-0.116668799999999,0.0297881999999999,0,sub_3
0.0421789999999997,-0.0088833999999987,-0.060646,0.0060202000000004,-0.102565399999999,0.0248121999999999,0,sub_3
0.0427101999999997,-0.0066949999999987,-0.0653836,-0.0045439999999994,-0.086095799999999,0.0178807999999999,0,sub_3
0.0450625999999996,-0.0068431999999987,-0.0701612,-0.0143975999999994,-0.070859399999999,0.0090447999999999,0,sub_3
0.0471353999999996,-0.0075723999999987,-0.0738288,-0.0208545999999994,-0.061167399999999,-0.0014696,0,sub_3
0.0472887999999997,-0.0117877999999987,-0.075592,-0.0232833999999994,-0.055756599999999,-0.0104548,0,sub_3
0.0472413999999997,-0.0123735999999987,-0.0734024,-0.0216791999999994,-0.0516517999999989,-0.0159918,0,sub_3
0.0449797999999996,-0.0113169999999987,-0.0694822,-0.0160371999999995,-0.0473635999999989,-0.0176554,0,sub_3
0.0418439999999997,-0.0086375999999987,-0.0642522,-0.0074897999999995,-0.041864999999999,-0.0148254,0,sub_3
0.0366783999999997,-0.0056247999999987,-0.059955,0.0021350000000004,-0.031267999999999,-0.009217,0,sub_3
0.0318189999999997,-0.0026165999999987,-0.055821,0.0128592000000004,-0.012794399999999,-0.0029702,0,sub_3
0.0275465999999996,-0.0012203999999987,-0.0533958,0.0236980000000004,0.0099682000000009,0.0017917999999999,0,sub_3
0.0258923999999996,-0.0013519999999987,-0.0537406,0.0324242000000004,0.0346668000000009,0.0037593999999999,0,sub_3
0.0254147999999996,-0.0027795999999987,-0.0562294,0.0377536000000004,0.0604536000000009,0.0029243999999999,0,sub_3
0.0278383999999996,-0.0031833999999987,-0.0600792,0.0396720000000004,0.0843452000000009,-0.0004958,0,sub_3
0.0301481999999996,-0.0037811999999987,-0.0641718,0.0390174000000004,0.1035662000000009,-0.0058506,0,sub_3
0.0336711999999997,-0.0039567999999987,-0.0695092,0.0376244000000004,0.1187270000000009,-0.0131436,0,sub_3
0.0370979999999997,-0.0042663999999987,-0.0741198,0.0368590000000004,0.1311160000000009,-0.0204288,0,sub_3
0.0388569999999997,-0.0037395999999987,-0.075739,0.0365118000000004,0.1422226000000009,-0.0270684,0,sub_3
0.0399023999999997,-0.0038545999999987,-0.0754558,0.0368702000000004,0.1531804000000009,-0.0313364,0,sub_3
0.0400485999999996,-0.0036093999999987,-0.0745272,0.0376516000000004,0.1658310000000009,-0.03304,0,sub_3
0.0390627999999996,-0.0040957999999987,-0.0718276,0.0399170000000004,0.1791046000000009,-0.0319566,0,sub_3
0.0375179999999996,-0.0054681999999987,-0.0677766,0.0432464000000004,0.1923718000000009,-0.0302248,0,sub_3
0.0365601999999996,-0.0061919999999987,-0.0638304,0.0467806000000004,0.2041452000000009,-0.0280624,0,sub_3
0.0364825999999996,-0.0073925999999987,-0.060487,0.0504472000000004,0.2149898000000009,-0.0259142,0,sub_3
0.0373987999999996,-0.0078971999999987,-0.057861,0.0534698000000004,0.2256210000000009,-0.0231294,0,sub_3
0.0392277999999996,-0.0093211999999987,-0.057598,0.0541540000000004,0.2386022000000009,-0.0199366,0,sub_3
0.0424259999999996,-0.0087949999999987,-0.0603594,0.0519386000000004,0.2518120000000009,-0.017172,0,sub_3
0.0469895999999996,-0.0083305999999987,-0.0636402,0.0488638000000004,0.2622612000000009,-0.0159054,0,sub_3
0.0520281999999996,-0.0088107999999987,-0.0682326,0.0445022000000004,0.2701624000000009,-0.0157128,0,sub_3
0.0571811999999996,-0.0100443999999987,-0.0723006,0.0382012000000004,0.2731726000000009,-0.0161684,0,sub_3
0.0618101999999996,-0.0109349999999987,-0.0750744,0.0329402000000004,0.2691526000000009,-0.017676,0,sub_3
0.0652935999999996,-0.0135059999999987,-0.0755898,0.0290564000000004,0.2587300000000009,-0.0185444,0,sub_3
0.0665285999999996,-0.0154667999999987,-0.075295,0.0266422000000004,0.2448854000000009,-0.0174754,0,sub_3
0.0666097999999996,-0.0158521999999987,-0.073274,0.0263426000000004,0.2286822000000009,-0.0144656,0,sub_3
0.0656571999999996,-0.0158557999999987,-0.0707928,0.0284578000000004,0.2147514000000009,-0.0112506,0,sub_3
0.0642509999999996,-0.0145069999999987,-0.068255,0.0290842000000004,0.2023154000000009,-0.0076206,0,sub_3
0.0632413999999996,-0.0128307999999987,-0.0661702,0.0277980000000004,0.1907416000000009,-0.0048598,0,sub_3
0.0646649999999996,-0.0112949999999987,-0.065531,0.0233180000000004,0.1796096000000009,-0.00319,0,sub_3
0.0678283999999997,-0.0107419999999987,-0.066719,0.0158496000000004,0.1665772000000009,-0.003248,0,sub_3
0.0716745999999997,-0.0110347999999987,-0.070084,0.0057358000000004,0.1474384000000009,-0.0035078,0,sub_3
0.0755723999999996,-0.0118561999999987,-0.0747438,-0.0050393999999995,0.1231902000000009,-0.004193,0,sub_3
0.0797863999999996,-0.0123803999999987,-0.0786596,-0.0149897999999995,0.0931842000000009,-0.004224,0,sub_3
0.0818795999999996,-0.0149071999999987,-0.0812692,-0.0242907999999995,0.0572960000000009,-0.0042448,0,sub_3
0.0822937999999996,-0.0169769999999987,-0.0821568,-0.0336107999999995,0.0175712000000009,-0.0038336,0,sub_3
0.0816883999999996,-0.0179845999999987,-0.081093,-0.0418707999999995,-0.024073199999999,-0.0038398,0,sub_3
0.0797565999999997,-0.0179711999999987,-0.078251,-0.0497095999999995,-0.066572799999999,-0.0034146,0,sub_3
0.0771785999999997,-0.0179589999999987,-0.0760482,-0.0560395999999995,-0.105032399999999,-0.0023432,0,sub_3
0.0744193999999996,-0.0152773999999987,-0.0742734,-0.0600355999999995,-0.136774799999999,0.0004467999999999,0,sub_3
0.0708257999999996,-0.0116819999999987,-0.072308,-0.0608059999999995,-0.161503599999999,0.0047459999999999,0,sub_3
0.0680635999999997,-0.0087645999999987,-0.0706566,-0.0598453999999995,-0.180487799999999,0.0094771999999999,0,sub_3
0.0661469999999997,-0.0078985999999987,-0.0701856,-0.0569453999999995,-0.195429799999999,0.0140029999999999,0,sub_3
0.0643395999999996,-0.0066521999999987,-0.0693266,-0.0533869999999995,-0.207386999999999,0.0174613999999999,0,sub_3
0.0628399999999997,-0.0067307999999987,-0.0688748,-0.0500343999999995,-0.218487999999999,0.0200627999999999,0,sub_3
0.0612003999999997,-0.0066923999999987,-0.0693882,-0.0468893999999995,-0.229370799999999,0.0215941999999999,0,sub_3
0.0595647999999996,-0.0056405999999987,-0.069512,-0.0420269999999995,-0.238976999999999,0.0220677999999999,0,sub_3
0.0576771999999996,-0.0032969999999987,-0.069633,-0.0360823999999995,-0.245390399999999,0.0223311999999999,0,sub_3
0.0548251999999997,-0.0008227999999987,-0.0688692,-0.0286401999999995,-0.249895799999999,0.0236709999999999,0,sub_3
0.0511297999999997,0.0015952000000012,-0.0676044,-0.0160597999999995,-0.250583999999999,0.0250415999999999,0,sub_3
0.0482473999999997,0.0025340000000012,-0.065503,-5.219999999951236e-05,-0.246816199999999,0.0279259999999999,0,sub_3
0.0456673999999997,0.0002790000000012,-0.0644904,0.0153250000000004,-0.238581199999999,0.0331503999999999,0,sub_3
0.0433361999999997,-0.0021097999999987,-0.06334,0.0309146000000004,-0.228862399999999,0.0400835999999999,0,sub_3
0.0421915999999997,-0.0052731999999987,-0.064732,0.0463052000000004,-0.215946999999999,0.0470109999999999,0,sub_3
0.0439285999999997,-0.0106165999999987,-0.06863,0.0550928000000004,-0.200027599999999,0.0543159999999999,0,sub_3
0.0469571999999997,-0.0151289999999987,-0.074355,0.0581242000000004,-0.184508199999999,0.0600857999999999,0,sub_3
0.0499625999999996,-0.0173029999999987,-0.0793082,0.0598714000000004,-0.172382999999999,0.0632869999999999,0,sub_3
0.0543193999999996,-0.0200833999999987,-0.0830482,0.0577688000000004,-0.163419399999999,0.0643391999999999,0,sub_3
0.0585535999999996,-0.0234655999999987,-0.0854224,0.0488218000000004,-0.159539399999999,0.0638547999999999,0,sub_3
0.0612901999999996,-0.0244797999999987,-0.085303,0.0375114000000004,-0.159909599999999,0.0627183999999999,0,sub_3
0.0623179999999996,-0.0248629999999987,-0.083732,0.0264030000000004,-0.163897999999999,0.0605197999999999,0,sub_3
0.0624589999999996,-0.0252485999999987,-0.0821788,0.0133656000000004,-0.169584999999999,0.0585235999999999,0,sub_3
0.0611995999999997,-0.0244425999999987,-0.0806224,-0.0013647999999995,-0.173784399999999,0.0558623999999999,0,sub_3
0.0589237999999997,-0.0215051999999987,-0.078592,-0.0156425999999995,-0.174354799999999,0.0510631999999999,0,sub_3
0.0558267999999997,-0.0196469999999987,-0.0769868,-0.0303287999999995,-0.172997799999999,0.0441221999999999,0,sub_3
0.0537407999999997,-0.0182667999999987,-0.075452,-0.0437069999999995,-0.168225399999999,0.0344085999999999,0,sub_3
0.0502765999999997,-0.0122235999999987,-0.0719206,-0.0515049999999995,-0.159199399999999,0.0217375999999999,0,sub_3
0.0449803999999997,-0.0056453999999987,-0.068851,-0.0609763999999995,-0.144408199999999,0.0073383999999999,0,sub_3
0.0396825999999996,-0.0015193999999987,-0.066721,-0.0682783999999995,-0.124075599999999,-0.0094028,0,sub_3
0.0340567999999996,0.0027164000000012,-0.0649788,-0.0699975999999995,-0.096373799999999,-0.0254646,0,sub_3
0.0264791999999996,0.0072600000000012,-0.0627006,-0.0689257999999995,-0.062936999999999,-0.0395914,0,sub_3
0.0206681999999996,0.0050746000000012,-0.0621206,-0.0731803999999995,-0.025867199999999,-0.0518374,0,sub_3
0.0169675999999996,0.0017766000000012,-0.0618782,-0.0731761999999995,0.0103312000000009,-0.0629842,0,sub_3
0.0157207999999996,0.0005840000000012,-0.0608222,-0.0663633999999995,0.0469130000000009,-0.0693838,0,sub_3
0.0151773999999996,0.0006948000000012,-0.0597296,-0.0570051999999995,0.0839666000000009,-0.0729977999999999,0,sub_3
0.0161127999999996,0.0012664000000012,-0.0587076,-0.0470165999999995,0.1207974000000009,-0.0746844,0,sub_3
0.0166493999999996,0.0037128000000012,-0.0572258,-0.0306153999999995,0.1610110000000008,-0.0754758,0,sub_3
0.0171235999999996,0.0064724000000012,-0.054814,-0.0086597999999995,0.2039700000000008,-0.0749502,0,sub_3
0.0167661999999996,0.0083994000000012,-0.0520836,0.0134996000000004,0.2467076000000009,-0.0725,0,sub_3
