userAcceleration.x,userAcceleration.y,userAcceleration.z,rotationRate.x,rotationRate.y,rotationRate.z,label,subject
-0.0038768000000002,0.0039208000000012,0.0028537999999999,0.0010762000000006,-0.034055999999999,-0.0011528,0,sub_23
-0.0047024000000002,0.0042286000000012,0.0032287999999999,0.0006674000000006,-0.031067199999999,-0.0022282,0,sub_23
-0.0053540000000002,0.0041506000000012,0.0031805999999999,0.0015418000000006,-0.026807199999999,-0.0026554,0,sub_23
-0.0057962000000002,0.0039550000000012,0.0033399999999999,0.0032658000000006,-0.022553599999999,-0.0022222,0,sub_23
-0.0056418000000002,0.0040974000000012,0.0036675999999999,0.0043614000000006,-0.018542999999999,-0.0007156,0,sub_23
-0.0049386000000002,0.0039392000000012,0.0035897999999999,0.0056694000000006,-0.014746199999999,0.0007927999999999,0,sub_23
-0.0040678000000002,0.0034382000000012,0.0035349999999999,0.0063382000000006,-0.011582999999999,0.0014429999999999,0,sub_23
-0.0034542000000002,0.0030506000000012,0.0035321999999999,0.0061524000000006,-0.009478599999999,0.0012339999999999,0,sub_23
-0.0029720000000002,0.0029718000000012,0.0028377999999999,0.0051180000000006,-0.006942399999999,0.0003777999999999,0,sub_23
-0.0023124000000002,0.0029512000000012,0.0019013999999999,0.0036452000000006,-0.004159599999999,-0.0015594,0,sub_23
-0.0021318000000002,0.0032200000000012,0.0011029999999999,0.0017468000000006,-0.001162399999999,-0.0034997999999999,0,sub_23
-0.0020572000000002,0.0036352000000012,0.0008383999999999,-0.0007963999999993,0.0014086000000009,-0.0048029999999999,0,sub_23
-0.0022966000000002,0.0040760000000012,0.0011959999999999,-0.0031041999999993,0.0047990000000009,-0.0060973999999999,0,sub_23
-0.0025538000000002,0.0044910000000012,0.0017101999999998,-0.0049863999999993,0.0083992000000009,-0.0069619999999999,0,sub_23
-0.0030316000000002,0.0043544000000012,0.0015037999999999,-0.0058015999999993,0.0122078000000009,-0.0076055999999999,0,sub_23
-0.0025722000000002,0.0039150000000012,0.0017501999999999,-0.0059777999999993,0.0160134000000009,-0.0080309999999999,0,sub_23
-0.0023916000000002,0.0037072000000012,0.0011577999999999,-0.0050899999999993,0.0191760000000009,-0.0084483999999999,0,sub_23
-0.0019772000000002,0.0036284000000012,0.0008663999999999,-0.0038011999999993,0.0210892000000009,-0.0084421999999999,0,sub_23
-0.0012680000000002,0.0037376000000012,0.0006113999999999,-0.0025171999999993,0.0223614000000009,-0.0080077999999999,0,sub_23
3.879999999973063e-05,0.0037112000000012,0.0010891999999999,-0.0012333999999994,0.0236338000000009,-0.0075731999999999,0,sub_23
8.619999999973064e-05,0.0035978000000012,0.0006411999999999,0.0004942000000005,0.0251088000000009,-0.0069155999999999,0,sub_23
0.0007597999999997,0.0034120000000012,0.0001569999999999,0.0022200000000005,0.0265822000000009,-0.0058305999999999,0,sub_23
0.0012661999999996,0.0031966000000012,-0.000576,0.0026684000000005,0.0280626000000009,-0.0053953999999999,0,sub_23
0.0014751999999996,0.0029146000000012,-0.0009988,0.0028998000000005,0.0284794000000009,-0.0051738,0,sub_23
0.0018155999999996,0.0027246000000012,-0.0016646,0.0026958000000005,0.0269800000000009,-0.004953,0,sub_23
0.0020901999999996,0.0029434000000012,-0.002024,0.0016186000000005,0.0246404000000009,-0.0049574,0,sub_23
0.0021935999999996,0.0026448000000012,-0.001988,0.0005432000000006,0.0223024000000009,-0.0053887999999999,0,sub_23
0.0027125999999996,0.0025458000000012,-0.00219,0.0005290000000006,0.0195310000000009,-0.0049575999999999,0,sub_23
0.0032655999999996,0.0024010000000012,-0.002377,0.0007490000000006,0.0167372000000009,-0.0051597999999999,0,sub_23
0.0030639999999997,0.0026444000000012,-0.0026494,0.0013978000000006,0.0143682000000009,-0.0053591999999999,0,sub_23
0.0031193999999997,0.0023628000000012,-0.0027284,0.0020408000000006,0.0111452000000009,-0.0051303999999999,0,sub_23
0.0035967999999997,0.0027516000000012,-0.0035072,0.0022590000000006,0.0077132000000009,-0.0055453999999999,0,sub_23
0.0032223999999997,0.0027974000000012,-0.003876,0.0024802000000006,0.0042838000000009,-0.0066011999999999,0,sub_23
0.0028387999999997,0.0031290000000012,-0.0042054,0.0026816000000006,0.0010892000000009,-0.0070226,0,sub_23
0.0026741999999997,0.0031454000000012,-0.0045458,0.0028820000000006,-0.001681999999999,-0.0068038,0,sub_23
0.0025545999999997,0.0036012000000012,-0.0043206,0.0035120000000006,-0.004027599999999,-0.006796,0,sub_23
0.0018621999999997,0.0034804000000012,-0.0037438,0.0045798000000006,-0.006394799999999,-0.005712,0,sub_23
0.0019407999999997,0.0039242000000012,-0.0038528,0.0054380000000006,-0.008333399999999,-0.0050574,0,sub_23
0.0016645999999997,0.0039048000000012,-0.0041992,0.0060830000000006,-0.010271399999999,-0.0044042,0,sub_23
0.0013813999999997,0.0036588000000012,-0.0035438,0.0060916000000006,-0.012203599999999,-0.0046102,0,sub_23
0.0012725999999997,0.0032298000000012,-0.0038172,0.0054650000000006,-0.013280599999999,-0.0050354,0,sub_23
0.0008111999999997,0.0035324000000012,-0.0039792,0.0043950000000006,-0.014341199999999,-0.005255,0,sub_23
8.359999999971064e-05,0.0032458000000012,-0.0031494,0.0033220000000006,-0.015192199999999,-0.0046204,0,sub_23
-0.0002878000000002,0.0030114000000012,-0.002263,0.0024678000000006,-0.014977599999999,-0.0041994,0,sub_23
-0.0006976000000002,0.0027188000000012,-0.0021402,0.0018440000000006,-0.014136399999999,-0.0035592,0,sub_23
-0.0015200000000002,0.0024162000000012,-0.0016524,0.0016468000000005,-0.013508999999999,-0.0031296,0,sub_23
-0.0020118000000002,0.0020520000000012,-1.7200000000067944e-05,0.0014532000000005,-0.012665799999999,-0.0033412,0,sub_23
-0.0024932000000002,0.0014612000000012,0.0007309999999999,0.0006204000000005,-0.011819599999999,-0.003771,0,sub_23
-0.0027748000000002,0.0011412000000012,0.0010327999999999,-0.0012801999999994,-0.011607199999999,-0.0046348,0,sub_23
-0.0031582000000002,0.0015858000000012,0.0016545999999999,-0.0031939999999994,-0.011382199999999,-0.0059307999999999,0,sub_23
-0.0028066000000002,0.0021188000000012,0.0019691999999999,-0.0046801999999993,-0.010733399999999,-0.0070103999999999,0,sub_23
-0.0025822000000002,0.0023848000000012,0.0010335999999999,-0.0061661999999993,-0.010084599999999,-0.0080901999999999,0,sub_23
-0.0023846000000002,0.0031512000000012,0.0001139999999999,-0.0076385999999993,-0.009439799999999,-0.0089511999999999,0,sub_23
-0.0022524000000002,0.0031758000000012,0.0001599999999999,-0.0084737999999993,-0.008799799999999,-0.0091667999999999,0,sub_23
-0.0022208000000002,0.0029902000000012,-0.000155,-0.0091003999999993,-0.008376999999999,-0.008526,0,sub_23
-0.0028740000000002,0.0031344000000012,-0.0004524,-0.0099411999999993,-0.008166399999999,-0.0078866,0,sub_23
-0.0030632000000002,0.0032196000000012,7.319999999995195e-05,-0.0109915999999993,-0.007102999999999,-0.0072496,0,sub_23
-0.0031894000000002,0.0030144000000012,0.0008247999999999,-0.0112021999999993,-0.006038399999999,-0.0068256,0,sub_23
-0.0035618000000002,0.0032584000000012,0.0010167999999999,-0.0107745999999993,-0.004765599999999,-0.0057563999999999,0,sub_23
-0.0038072000000002,0.0035564000000012,0.0011581999999999,-0.0097067999999993,-0.002858599999999,-0.0040425999999999,0,sub_23
-0.0034796000000002,0.0033672000000012,0.0012663999999999,-0.0082017999999993,-0.000962799999999,-0.0016793999999999,0,sub_23
-0.0037494000000002,0.0034636000000012,0.0006725999999999,-0.0062739999999993,7.920000000095476e-05,0.0006878,0,sub_23
-0.0038634000000002,0.0033556000000012,8.2999999999932e-05,-0.0045593999999993,0.0013342000000009,0.003267,0,sub_23
-0.0034566000000002,0.0039476000000012,0.0003729999999999,-0.0034809999999993,0.0021704000000009,0.0045603999999999,0,sub_23
-0.0025336000000002,0.0040340000000012,0.0004437999999999,-0.0032541999999993,0.0019504000000009,0.0043537999999999,0,sub_23
-0.0027296000000002,0.0038954000000012,0.0009109999999999,-0.0032523999999993,0.0015278000000009,0.0034993999999999,0,sub_23
-0.0017340000000002,0.0039490000000012,0.0011413999999999,-0.0034619999999993,0.0015322000000009,0.0026431999999999,0,sub_23
-0.0011642000000002,0.0048812000000012,0.0008563999999999,-0.0036715999999993,0.0019610000000009,0.0022137999999999,0,sub_23
-0.0008184000000002,0.0044042000000012,0.0003611999999999,-0.0034443999999993,0.0025910000000009,0.0022199999999999,0,sub_23
-0.0008208000000002,0.0042914000000012,0.0007447999999999,-0.0023665999999993,0.0036400000000009,0.0032997999999999,0,sub_23
-0.0003048000000002,0.0046674000000012,0.0003763999999999,-0.0023535999999993,0.0051188000000009,0.0043717999999999,0,sub_23
-0.0001566000000002,0.0045996000000012,0.0010181999999999,-0.0014891999999993,0.0061686000000009,0.0054501999999999,0,sub_23
0.0006499999999997,0.0042748000000012,0.0018559999999998,-0.0002029999999993,0.0057270000000009,0.0061061999999999,0,sub_23
0.0012387999999997,0.0044454000000012,0.0021329999999998,0.0012836000000005,0.0046550000000009,0.0065453999999999,0,sub_23
0.0019503999999996,0.0042144000000012,0.0014135999999999,0.0021292000000005,0.0033722000000009,0.0069805999999999,0,sub_23
0.0025097999999996,0.0038874000000012,0.0011765999999999,0.0031842000000005,0.0010242000000009,0.0072049999999999,0,sub_23
0.0022225999999996,0.0036146000000012,0.0007237999999998,0.0038234000000005,-0.001330399999999,0.0074331999999999,0,sub_23
0.0018045999999996,0.0031122000000012,0.0009169999999999,0.0042512000000005,-0.003470199999999,0.0074459999999999,0,sub_23
0.0012623999999996,0.0026796000000012,0.0013397999999999,0.0042530000000005,-0.005183199999999,0.0076687999999999,0,sub_23
0.0008649999999996,0.0028502000000012,0.0020645999999999,0.0046844000000005,-0.006895199999999,0.0072533999999999,0,sub_23
0.0006051999999996,0.0031410000000012,0.0026729999999999,0.0053330000000005,-0.008180199999999,0.0064117999999999,0,sub_23
0.0001195999999996,0.0030100000000012,0.0032993999999999,0.0057574000000005,-0.009456399999999,0.0055617999999999,0,sub_23
-3.100000000028938e-05,0.0029756000000012,0.0031509999999999,0.0059702000000005,-0.009669199999999,0.0053499999999999,0,sub_23
-0.0002618000000002,0.0029436000000012,0.0027301999999999,0.0059708000000005,-0.009455999999999,0.0053497999999999,0,sub_23
-0.0012788000000002,0.0028730000000012,0.0024105999999999,0.0049164000000005,-0.009029999999999,0.0049215999999999,0,sub_23
-0.0020066000000002,0.0024498000000012,0.0023599999999999,0.0036526000000006,-0.007962999999999,0.0042771999999999,0,sub_23
-0.0021620000000002,0.0025706000000012,0.0012617999999999,0.0017554000000006,-0.006463399999999,0.0025595999999999,0,sub_23
-0.0021540000000002,0.0028020000000012,0.0012225999999999,-0.0005625999999993,-0.004957199999999,-0.000443,0,sub_23
-0.0019172000000002,0.0031896000000012,0.0008387999999999,-0.0039463999999993,-0.003446399999999,-0.0036666,0,sub_23
-0.0012896000000002,0.0028864000000012,-0.000119,-0.0071287999999993,-0.002145599999999,-0.0064682,0,sub_23
-0.0010562000000002,0.0030954000000012,-0.001291,-0.0105301999999993,-0.001273599999999,-0.008416,0,sub_23
-0.0008676000000002,0.0030206000000012,-0.0015574,-0.0128693999999993,-0.000409799999999,-0.0092882,0,sub_23
-0.0005650000000002,0.0028212000000012,-0.002386,-0.0141449999999993,-0.000195999999999,-0.0092894,0,sub_23
-0.0003690000000002,0.0028302000000012,-0.0027046,-0.0137155999999993,-0.000414399999999,-0.0092779999999999,0,sub_23
1.2399999999710648e-05,0.0034106000000012,-0.0026796,-0.0117973999999993,-0.000429999999999,-0.0079745999999999,0,sub_23
0.0010885999999997,0.0037452000000012,-0.0026412,-0.0075369999999993,-3.3799999999045185e-05,-0.0051599999999999,0,sub_23
0.0020503999999996,0.0038300000000012,-0.0032764,-0.0017865999999993,0.0007784000000009,-0.0010533999999999,0,sub_23
0.0030609999999996,0.0037536000000012,-0.004061,0.0033174000000006,0.0013818000000009,0.0034682,0,sub_23
0.0036725999999996,0.0037998000000012,-0.0039632,0.0075660000000005,0.0009256000000009,0.0073441999999999,0,sub_23
0.0039861999999996,0.0035836000000012,-0.00397,0.0103212000000005,-0.001222999999999,0.0095029999999999,0,sub_23
0.0040123999999996,0.0031608000000012,-0.0035246,0.0109494000000005,-0.004418999999999,0.0090847999999999,0,sub_23
0.0043471999999996,0.0030826000000012,-0.0016998,0.0090306000000005,-0.008243199999999,0.0073767999999999,0,sub_23
0.0030359999999996,0.0033316000000012,-0.0007368,0.0066878000000005,-0.012275599999999,0.0048113999999999,0,sub_23
0.0023217999999996,0.0029524000000012,-0.0005864,0.0045642000000005,-0.014605999999999,0.0026725999999999,0,sub_23
0.0019491999999996,0.0028762000000012,-0.0001752,0.0032998000000005,-0.015024399999999,0.0011781999999999,0,sub_23
0.0013637999999997,0.0032096000000012,0.0004175999999999,0.0020342000000005,-0.014382799999999,0.0009641999999999,0,sub_23
0.0009461999999997,0.0033772000000012,-0.0001996,0.0011816000000005,-0.014166599999999,0.0009579999999999,0,sub_23
0.0014045999999997,0.0031888000000012,0.0002057999999999,0.0007540000000005,-0.014377999999999,0.0009555999999999,0,sub_23
0.0012267999999997,0.0030096000000012,0.0003795999999999,0.0011856000000006,-0.015233399999999,0.0009641999999999,0,sub_23
0.0006465999999997,0.0028966000000012,0.0002449999999999,0.0009750000000006,-0.016724999999999,0.0007554,0,sub_23
0.0002687999999997,0.0028544000000012,0.0001181999999999,0.0014048000000006,-0.018430999999999,0.0003374,0,sub_23
-0.0005840000000002,0.0027434000000012,0.0002977999999999,0.0018384000000006,-0.019496999999999,-0.0002949999999999,0,sub_23
-0.0011682000000002,0.0026738000000012,0.0002489999999999,0.0020594000000006,-0.019712399999999,-0.0002891999999999,0,sub_23
-0.0017148000000002,0.0032918000000012,0.0004171999999999,0.0014192000000006,-0.019497799999999,-8.059999999998281e-05,0,sub_23
-0.0018978000000002,0.0036164000000012,0.0008741999999999,0.0009954000000006,-0.018644799999999,0.0001285999999999,0,sub_23
-0.0023548000000002,0.0034286000000012,0.0011295999999999,0.0005714000000006,-0.017791799999999,0.0003377999999999,0,sub_23
-0.0027126000000002,0.0034754000000012,0.0014797999999999,0.0005830000000006,-0.017153399999999,0.0003435999999999,0,sub_23
-0.0034424000000002,0.0031400000000012,0.0017055999999999,0.0008100000000006,-0.016089799999999,0.0003501999999999,0,sub_23
-0.0037984000000002,0.0031010000000012,0.0016087999999999,0.0012494000000006,-0.014815399999999,0.0007851999999999,0,sub_23
-0.0039372000000002,0.0030166000000012,0.0014463999999999,0.0014762000000006,-0.013114999999999,0.0014317999999999,0,sub_23
-0.0044352000000002,0.0032546000000012,0.0011777999999999,0.0017032000000006,-0.011414599999999,0.0020785999999999,0,sub_23
-0.0044606000000002,0.0032674000000012,0.0007565999999999,0.0014984000000006,-0.008859599999999,0.0027141999999999,0,sub_23
-0.0040950000000002,0.0036556000000012,0.0005617999999999,0.0008678000000006,-0.006514399999999,0.0029199999999999,0,sub_23
-0.0033954000000002,0.0034282000000012,0.0002739999999999,0.0004514000000006,-0.004805799999999,0.0022735999999999,0,sub_23
-0.0027602000000002,0.0035582000000012,2.559999999995218e-05,0.0002488000000006,-0.003950799999999,0.0018485999999999,0,sub_23
-0.0020424000000002,0.0031648000000012,-0.0005804,4.600000000061547e-05,-0.002883599999999,0.0016367999999999,0,sub_23
-0.0016490000000002,0.0032666000000012,-0.0008432,5.280000000059547e-05,-0.001608399999999,0.0024945999999999,0,sub_23
-0.0011592000000002,0.0033120000000012,-0.0006888,0.0006988000000005,-0.000548599999999,0.0033571999999999,0,sub_23
-0.0005380000000002,0.0031576000000012,-0.0006376,0.0013460000000005,0.0011486000000009,0.0046461999999999,0,sub_23
-0.0001508000000002,0.0024982000000012,-0.0007652,0.0022014000000005,0.0024206000000009,0.0055049999999999,0,sub_23
0.0002733999999997,0.0024440000000012,-0.0007138,0.0026284000000005,0.0030558000000009,0.0061481999999999,0,sub_23
0.0005869999999997,0.0022990000000012,-0.0008442,0.0028420000000005,0.0028430000000009,0.0059363999999999,0,sub_23
0.0013083999999996,0.0022312000000012,-0.0009858,0.0030624000000005,0.0026320000000009,0.0055167999999999,0,sub_23
0.0016829999999996,0.0024052000000012,-0.001028,0.0034940000000005,0.0022064000000009,0.0053127999999999,0,sub_23
0.0018955999999996,0.0031938000000012,-0.000594,0.0037114000000005,0.0019930000000009,0.0055341999999999,0,sub_23
0.0028607999999996,0.0034098000000012,0.0001997999999999,0.0039258000000005,0.0011402000000009,0.0057563999999999,0,sub_23
0.0036317999999997,0.0033856000000012,0.0006437999999999,0.0037116000000006,-0.000349399999999,0.0057627999999999,0,sub_23
0.0035167999999997,0.0031084000000012,-0.0001488,0.0030658000000006,-0.002049599999999,0.0053333999999999,0,sub_23
0.0036701999999997,0.0028498000000012,9.53999999999122e-05,0.0017810000000006,-0.003958999999999,0.0044725999999999,0,sub_23
0.0035199999999997,0.0025784000000012,0.0004163999999999,0.0002826000000006,-0.005655599999999,0.0038237999999999,0,sub_23
0.0027035999999997,0.0029076000000012,0.0003697999999999,-0.0009949999999993,-0.006925199999999,0.0031805999999999,0,sub_23
0.0022807999999996,0.0028068000000012,0.0006415999999999,-0.0014211999999993,-0.007987199999999,0.0031839999999999,0,sub_23
0.0021787999999996,0.0030960000000012,0.0019775999999999,-0.0007833999999994,-0.009055599999999,0.0038357999999999,0,sub_23
0.0015543999999996,0.0036894000000012,0.0017919999999999,-0.0001427999999994,-0.009484799999999,0.0044865999999999,0,sub_23
0.0012141999999996,0.0034062000000012,0.0017155999999999,0.0009266000000005,-0.010125999999999,0.0044995999999999,0,sub_23
0.0010573999999996,0.0029300000000012,0.0014701999999999,0.0017772000000005,-0.010767799999999,0.0045063999999999,0,sub_23
0.0002989999999997,0.0029580000000012,0.0011433999999999,0.0022030000000005,-0.011406599999999,0.0040829999999999,0,sub_23
-0.0002700000000002,0.0024938000000012,0.0008613999999999,0.0013504000000005,-0.011402599999999,0.0038631999999999,0,sub_23
-0.0008688000000002,0.0018490000000012,0.0008409999999999,0.0004970000000005,-0.011823799999999,0.0034303999999999,0,sub_23
-0.0013396000000002,0.0019810000000012,0.0005617999999999,-0.0005583999999993,-0.011810599999999,0.0025731999999999,0,sub_23
-0.0017658000000002,0.0018274000000012,0.0002781999999999,-0.0016127999999993,-0.011372199999999,0.0019289999999999,0,sub_23
-0.0020454000000002,0.0018570000000012,0.0002861999999999,-0.0026661999999993,-0.010720799999999,0.0012845999999999,0,sub_23
-0.0023986000000002,0.0025468000000012,-3.600000000006784e-05,-0.0030803999999993,-0.010284599999999,0.0006447999999999,0,sub_23
-0.0024178000000002,0.0029708000000012,-0.0003032,-0.0030727999999993,-0.010066399999999,0.0008627999999999,0,sub_23
-0.0023984000000002,0.0032088000000012,-0.0004942,-0.0028611999999993,-0.009431999999999,0.0019313999999999,0,sub_23
-0.0021992000000002,0.0035710000000012,-0.0002072,-0.0020095999999993,-0.008375599999999,0.0034311999999999,0,sub_23
-0.0017568000000002,0.0035772000000012,-0.000443,-0.0002979999999993,-0.006889799999999,0.0051533999999999,0,sub_23
-0.0012154000000002,0.0034548000000012,-0.0004392,0.0009870000000006,-0.005826999999999,0.0064461999999999,0,sub_23
-0.0005238000000002,0.0032752000000012,-0.000188,0.0020606000000006,-0.005186199999999,0.0068833999999999,0,sub_23
-0.0004080000000002,0.0029556000000012,4.4399999999932165e-05,0.0029198000000006,-0.004969999999999,0.0071059999999999,0,sub_23
-0.0007084000000002,0.0028614000000012,0.0001261999999999,0.0033532000000006,-0.005387999999999,0.0064719999999999,0,sub_23
-0.0006248000000002,0.0031272000000012,0.0004403999999999,0.0027170000000006,-0.005382199999999,0.0056129999999999,0,sub_23
-0.0005760000000002,0.0032826000000012,0.0002395999999999,0.0025054000000006,-0.005803999999999,0.0047573999999999,0,sub_23
-0.0007094000000002,0.0033248000000012,0.0003737999999999,0.0025072000000006,-0.005802199999999,0.0043299999999999,0,sub_23
-0.0002380000000002,0.0030752000000012,-5.580000000006786e-05,0.0025098000000006,-0.006224399999999,0.0045471999999999,0,sub_23
0.0006943999999997,0.0032356000000012,-0.0001756,0.0025132000000006,-0.006221399999999,0.0049773999999999,0,sub_23
0.0010731999999997,0.0031896000000012,-0.000371,0.0035770000000006,-0.007501199999999,0.0056303999999999,0,sub_23
0.0014541999999997,0.0038502000000012,-0.0002458,0.0052800000000006,-0.008784199999999,0.0065015999999999,0,sub_23
0.0017791999999997,0.0041954000000012,-0.0001364,0.0074030000000005,-0.010923399999999,0.0080179999999999,0,sub_23
0.0021553999999997,0.0043994000000012,0.0001773999999999,0.0088802000000005,-0.013277199999999,0.0093133999999999,0,sub_23
0.0025365999999996,0.0041266000000012,-0.000426,0.0097184000000005,-0.015627799999999,0.0103909999999999,0,sub_23
0.0026307999999996,0.0033542000000012,-8.700000000006784e-05,0.0090696000000005,-0.017542999999999,0.0103891999999999,0,sub_23
0.0026021999999996,0.0020016000000012,0.0004983999999999,0.0071448000000005,-0.019868399999999,0.0099535999999999,0,sub_23
0.0023997999999996,0.0011936000000012,0.0009137999999999,0.0035206000000006,-0.021756599999999,0.0082233999999999,0,sub_23
0.0018963999999996,0.0011794000000012,0.0013971999999999,-0.0001005999999993,-0.023642399999999,0.0058523999999999,0,sub_23
0.0009075999999997,0.0010824000000012,0.0024447999999999,-0.0032951999999993,-0.025529599999999,0.0034841999999999,0,sub_23
0.0001975999999997,0.0020780000000012,0.0028729999999998,-0.0054219999999993,-0.026782999999999,0.0015499999999999,0,sub_23
-0.0008252000000002,0.0025454000000012,0.0027457999999998,-0.0064795999999993,-0.025921799999999,0.0002593999999999,0,sub_23
-0.0013746000000002,0.0026880000000012,0.0024249999999998,-0.0066825999999993,-0.0240017999999989,-0.0001718,0,sub_23
-0.0016582000000002,0.0024142000000012,0.0017015999999998,-0.0058149999999993,-0.0210209999999989,-0.0003834,0,sub_23
-0.0014716000000002,0.0024266000000012,0.0013107999999999,-0.0047319999999993,-0.018031599999999,-0.0001656,0,sub_23
-0.0010810000000002,0.0020580000000012,0.0002179999999999,-0.0040795999999993,-0.015468599999999,0.0004769999999999,0,sub_23
-0.0008288000000002,0.0019414000000012,-0.0005606,-0.0045005999999993,-0.014605399999999,0.0009007999999999,0,sub_23
-0.0006352000000002,0.0018860000000012,-0.000808,-0.0051349999999993,-0.014590199999999,0.0004695999999999,0,sub_23
-0.0006060000000002,0.0023982000000012,-0.000947,-0.0066247999999993,-0.015210199999999,-0.0001804,0,sub_23
-0.0011114000000002,0.0024184000000012,-0.001358,-0.0076943999999993,-0.016269999999999,-0.000614,0,sub_23
-0.0015604000000002,0.0030790000000012,-0.0015066,-0.0079151999999993,-0.017549199999999,-0.0001868,0,sub_23
-0.0016346000000002,0.0035606000000012,-0.0013438,-0.0066395999999993,-0.017345599999999,0.0011035999999999,0,sub_23
-0.0021722000000002,0.0038476000000012,-0.0013928,-0.0047245999999993,-0.016923799999999,0.0034659999999999,0,sub_23
-0.0025700000000002,0.0039164000000012,-0.0007712,-0.0023847999999993,-0.016080999999999,0.0066853999999999,0,sub_23
-0.0028078000000002,0.0037590000000012,-0.0005346,-0.0006785999999993,-0.014593199999999,0.0090451999999999,0,sub_23
-0.0028768000000002,0.0028916000000012,5.699999999991212e-05,0.0003950000000006,-0.012884199999999,0.0099045999999999,0,sub_23
-0.0028336000000002,0.0023532000000012,0.0005589999999999,-0.0002335999999993,-0.011164999999999,0.0096837999999999,0,sub_23
-0.0018280000000002,0.0022952000000012,0.0007947999999999,-0.0015015999999993,-0.009239599999999,0.0088177999999999,0,sub_23
-0.0018122000000002,0.0018892000000012,0.0011273999999999,-0.0025513999999993,-0.006886199999999,0.0073117999999999,0,sub_23
-0.0010148000000002,0.0016046000000012,0.0008019999999999,-0.0038163999999993,-0.004745799999999,0.0060181999999999,0,sub_23
-0.0002658000000002,0.0015248000000012,0.0003783999999999,-0.0055041999999993,-0.002377199999999,0.0047201999999999,0,sub_23
0.0004295999999996,0.0017416000000012,-4.680000000006786e-05,-0.0059163999999993,-0.000865999999999,0.0036459999999999,0,sub_23
0.0005453999999996,0.0018326000000012,-0.0002268,-0.0059027999999993,0.0004306000000009,0.0025749999999999,0,sub_23
0.0015775999999996,0.0022990000000012,-0.0009834,-0.0056815999999993,0.0010848000000009,0.0021471999999999,0,sub_23
