userAcceleration.x,userAcceleration.y,userAcceleration.z,rotationRate.x,rotationRate.y,rotationRate.z,label,subject
-0.0388910000000002,0.0135814000000012,0.0243993999999999,-0.0354123999999994,-0.4122539999999992,-0.0277247999999999,0,sub_2
-0.0332888000000002,0.0100948000000012,0.0227103999999999,-0.0036445999999994,-0.2636997999999992,-0.0157291999999999,0,sub_2
-0.0395492000000002,0.0095172000000012,0.0221461999999999,0.0022472000000005,-0.1766231999999992,-0.0051173999999999,0,sub_2
-0.0425192000000002,0.0083766000000012,0.0255463999999999,0.0146174000000005,-0.1319185999999992,-0.0065837999999999,0,sub_2
-0.0373040000000002,0.0090572000000012,0.0290671999999999,0.0253458000000005,-0.0737813999999991,-0.0091471999999999,0,sub_2
-0.0410176000000002,0.0129570000000012,0.0305947999999999,0.0257656000000005,0.0191114000000008,-0.0096903999999999,0,sub_2
-0.0465264000000002,0.0174616000000012,0.0310715999999999,0.0389974000000005,0.1123924000000008,-0.0118537999999999,0,sub_2
-0.0494134000000002,0.0218072000000012,0.0300795999999999,0.0609546000000005,0.2003172000000008,-0.0141631999999999,0,sub_2
-0.0568554000000002,0.0253124000000012,0.0272807999999999,0.0719934000000005,0.2837916000000008,-0.0129111999999999,0,sub_2
-0.0618394000000002,0.0273496000000012,0.0257835999999999,0.1021732000000005,0.3520788000000008,-0.0127989999999999,0,sub_2
-0.0577620000000002,0.0253084000000012,0.0254203999999999,0.1419664000000005,0.4216158000000008,-0.0139031999999999,0,sub_2
-0.0537738000000002,0.0215594000000012,0.0292057999999999,0.1711628000000005,0.5092910000000008,-0.0129681999999999,0,sub_2
-0.0531060000000002,0.0198552000000012,0.0330645999999999,0.1982388000000005,0.6010176000000007,-0.0109849999999999,0,sub_2
-0.0528272000000002,0.0199830000000012,0.0323439999999999,0.2158756000000005,0.6799996000000008,-0.0105467999999999,0,sub_2
-0.0535850000000002,0.0196030000000012,0.0321597999999999,0.2260196000000006,0.7536790000000008,-0.0099293999999999,0,sub_2
-0.0527768000000002,0.0215942000000012,0.0316379999999999,0.2558302000000005,0.8330516000000007,-0.0115319999999999,0,sub_2
-0.0498418000000002,0.0232504000000012,0.0291877999999999,0.2962932000000005,0.9087652000000008,-0.0130555999999999,0,sub_2
-0.0430436000000002,0.0219276000000012,0.0344807999999999,0.3441374000000006,1.0108786000000007,-0.0162705999999999,0,sub_2
-0.0188422000000002,0.0108992000000012,0.0358327999999999,0.3803482000000006,1.0989284000000008,-0.0088665999999999,0,sub_2
0.0005217999999997,-0.0015161999999987,0.0275711999999999,0.4029690000000006,1.1501830000000006,-0.0055695999999999,0,sub_2
0.0202165999999997,-0.0148733999999987,0.0212365999999999,0.3917432000000005,1.1303712000000008,0.003564,0,sub_2
0.0378625999999997,-0.0257635999999987,0.0160545999999999,0.3660366000000005,1.0733098000000008,0.0164898,0,sub_2
0.0514671999999997,-0.0340281999999987,0.0016131999999999,0.3193940000000005,0.9651804000000008,0.0312578,0,sub_2
0.0490801999999997,-0.0317387999999987,-0.0025504,0.2730148000000005,0.8611262000000007,0.038972,0,sub_2
0.0463949999999997,-0.0203437999999987,0.0027741999999999,0.2256596000000005,0.7819844000000007,0.0513476,0,sub_2
0.0390981999999997,-0.0084375999999987,-0.0002964,0.1882500000000005,0.7288126000000007,0.0607684,0,sub_2
0.0322547999999997,0.0007980000000012,-0.0041542,0.1531796000000005,0.6669254000000008,0.0631666,0,sub_2
0.0286837999999997,0.0051586000000012,-0.0012874,0.1341420000000005,0.6073430000000009,0.0614007999999999,0,sub_2
0.0266913999999997,0.0107446000000012,-0.0047642,0.1254114000000005,0.5571196000000007,0.0545675999999999,0,sub_2
0.0268987999999997,0.0100056000000012,-0.0089216,0.1183986000000005,0.5075362000000008,0.0460363999999999,0,sub_2
0.0276139999999997,0.0112198000000012,-0.0030936,0.1133692000000005,0.4690368000000008,0.0345137999999999,0,sub_2
0.0290751999999997,0.0132028000000012,-0.0012246,0.1139816000000005,0.4526704000000007,0.0242839999999999,0,sub_2
0.0279097999999997,0.0169616000000012,-0.00174,0.1109714000000005,0.4445968000000008,0.0212821999999999,0,sub_2
0.0228277999999997,0.0138674000000012,0.0074929999999999,0.1137030000000005,0.4316054000000008,0.017686,0,sub_2
0.0185495999999997,0.0120562000000012,0.0036859999999999,0.1185740000000005,0.4181872000000008,0.012396,0,sub_2
0.0170881999999997,0.0087442000000012,-0.0042344,0.1184734000000005,0.3943312000000008,0.0109304,0,sub_2
0.0168177999999997,0.0042186000000012,-0.0014514,0.1181382000000005,0.3683352000000008,0.0120296,0,sub_2
0.0173875999999997,-0.0010617999999987,-0.0004978,0.1135682000000005,0.3453538000000008,0.0088226,0,sub_2
0.0192717999999997,-0.0002253999999987,-0.004168,0.0950706000000005,0.3119712000000008,0.0080952,0,sub_2
0.0214273999999997,-9.999999987325704e-07,-0.001315,0.0731044000000005,0.2677296000000008,0.0086394,0,sub_2
0.0232277999999997,0.0001210000000012,0.0001281999999999,0.0462516000000005,0.2273436000000008,0.00829,0,sub_2
0.0217877999999997,0.0003374000000012,-0.0025616,0.0198620000000005,0.1929302000000007,0.0057998,0,sub_2
0.0211641999999997,0.0027094000000012,-0.009337,0.0009070000000005,0.1510338000000008,0.003371,0,sub_2
0.0230987999999997,0.0037254000000012,-0.0187896,-0.0084375999999994,0.1116580000000007,0.001647,0,sub_2
0.0237233999999997,0.0031498000000013,-0.021556,-0.0139387999999994,0.0748178000000007,0.0018696,0,sub_2
0.0226785999999997,0.0021240000000013,-0.0244428,-0.0132607999999994,0.0375238000000007,0.0036312,0,sub_2
0.0218019999999997,0.0039930000000012,-0.0266296,-0.0179361999999994,-0.0021027999999992,0.0072812,0,sub_2
0.0190079999999997,0.0048484000000012,-0.0230868,-0.0240765999999994,-0.0349081999999992,0.0113394,0,sub_2
0.0128035999999997,0.0049426000000012,-0.0200594,-0.0347121999999994,-0.0725913999999992,0.0136636,0,sub_2
0.0067421999999997,0.0040728000000012,-0.0168522,-0.0419141999999994,-0.1060219999999992,0.015781,0,sub_2
0.0011947999999997,0.0041810000000012,-0.0128716,-0.0514305999999994,-0.1345345999999992,0.015526,0,sub_2
-0.0027554000000002,0.0025024000000012,-0.0054922,-0.0530377999999994,-0.1605157999999992,0.014682,0,sub_2
-0.0099622000000002,0.0037792000000012,0.0138343999999999,-0.0526585999999994,-0.1705297999999992,0.0151134,0,sub_2
-0.0185900000000002,0.0048750000000012,0.0315969999999999,-0.0485983999999994,-0.1677765999999992,0.0164085999999999,0,sub_2
-0.0270934000000002,0.0080792000000012,0.0459169999999999,-0.0472585999999994,-0.1581791999999992,0.0127737999999999,0,sub_2
-0.0345422000000002,0.0093054000000012,0.0608771999999999,-0.0458171999999994,-0.1293933999999991,0.0056968,0,sub_2
-0.0390560000000002,0.0099914000000012,0.0586851999999999,-0.0645887999999994,-0.0909365999999991,-0.0047383999999999,0,sub_2
-0.0339028000000002,0.0076188000000012,0.0419215999999999,-0.0895739999999994,-0.0605447999999991,-0.0175567999999999,0,sub_2
-0.0229642000000002,0.0057670000000012,0.0233435999999999,-0.1230499999999994,-0.0177763999999991,-0.0278867999999999,0,sub_2
-0.0113986000000002,0.0070654000000012,0.0056461999999999,-0.1523267999999994,0.0189750000000008,-0.0289929999999999,0,sub_2
-0.0023628000000002,0.0114168000000012,-0.0119614,-0.1776461999999994,0.0407720000000007,-0.0234293999999999,0,sub_2
-0.0013820000000002,0.0143376000000012,-0.017778,-0.1759851999999994,0.0430594000000007,-0.0108157999999999,0,sub_2
-0.0054280000000002,0.0169052000000012,-0.0154306,-0.1494267999999994,0.0299214000000007,0.0015642,0,sub_2
-0.0104906000000002,0.0202564000000012,-0.0018528,-0.0940773999999994,0.0100916000000007,0.0107356,0,sub_2
-0.0160388000000002,0.0193088000000012,0.0083845999999999,-0.0397659999999994,-0.0099209999999992,0.013277,0,sub_2
-0.0182486000000002,0.0151910000000012,0.0218499999999999,0.0139174000000005,-0.0331031999999992,0.009836,0,sub_2
-0.0148758000000002,0.0109392000000012,0.0339443999999999,0.0491334000000005,-0.0404325999999992,0.000691,0,sub_2
-0.0070490000000002,0.0078656000000012,0.0345381999999999,0.0453522000000005,-0.0367587999999991,-0.0089541999999999,0,sub_2
0.0009611999999997,0.0023354000000012,0.0300553999999999,0.0112518000000005,-0.0353311999999992,-0.0166715999999999,0,sub_2
0.0080013999999997,-0.0032157999999987,0.0256353999999999,-0.0382171999999994,-0.0332183999999992,-0.0225745999999999,0,sub_2
0.0138155999999997,-0.0038163999999987,0.0163101999999999,-0.0922395999999994,-0.0430381999999991,-0.0242211999999999,0,sub_2
0.0152773999999997,0.0010582000000012,0.0080317999999999,-0.1390831999999994,-0.0667435999999991,-0.0228087999999999,0,sub_2
0.0109669999999997,0.0056418000000012,0.0035131999999999,-0.1631179999999994,-0.0935193999999991,-0.0193103999999999,0,sub_2
0.0052459999999997,0.0122426000000012,-0.004414,-0.1677205999999994,-0.1182273999999991,-0.0169607999999999,0,sub_2
0.0030757999999997,0.0177460000000012,-0.002972,-0.1497055999999994,-0.1447119999999992,-0.0161599999999999,0,sub_2
0.0002237999999997,0.0190652000000012,6.059999999994195e-05,-0.1207531999999994,-0.1593017999999992,-0.0157253999999999,0,sub_2
0.0012411999999997,0.0180280000000012,-0.000329,-0.0883407999999994,-0.1643135999999992,-0.0159197999999999,0,sub_2
-0.0018858000000002,0.0140748000000012,0.0091631999999999,-0.0528969999999994,-0.1595353999999992,-0.0161055999999999,0,sub_2
-0.0060154000000002,0.0084012000000013,0.0231787999999999,-0.0274883999999994,-0.1576989999999992,-0.0178533999999999,0,sub_2
-0.0131190000000002,0.0051990000000013,0.0299235999999999,-0.0199953999999994,-0.1532467999999991,-0.0188749999999999,0,sub_2
-0.0179730000000002,0.0043234000000013,0.0354583999999999,-0.0199559999999994,-0.1442993999999992,-0.0186725999999999,0,sub_2
-0.0225848000000002,0.0041642000000013,0.0453683999999999,-0.0252451999999994,-0.1323573999999992,-0.0168021999999999,0,sub_2
-0.0200324000000002,0.0058122000000013,0.0446421999999999,-0.0446161999999994,-0.1199409999999992,-0.0148169999999999,0,sub_2
-0.0199302000000002,0.0060280000000013,0.0452999999999999,-0.0581991999999994,-0.0992449999999992,-0.0104517999999999,0,sub_2
-0.0202396000000002,0.0063318000000012,0.0448153999999999,-0.0672447999999994,-0.0647211999999992,-0.0047907999999999,0,sub_2
-0.0236734000000002,0.0077814000000012,0.0428281999999999,-0.0735357999999994,-0.0363781999999992,-0.0010253999999999,0,sub_2
-0.0268644000000002,0.0082464000000012,0.0404023999999999,-0.0763849999999994,-0.0050515999999992,-0.0004443999999999,0,sub_2
-0.0350160000000002,0.0107548000000012,0.0385977999999999,-0.0659521999999994,0.0368858000000007,-0.0008523999999999,0,sub_2
-0.0397172000000002,0.0169660000000012,0.0328437999999999,-0.0542199999999994,0.0809578000000007,-0.0033905999999999,0,sub_2
-0.0423268000000002,0.0217708000000012,0.0287763999999999,-0.0331005999999994,0.1207520000000007,-0.0099171999999999,0,sub_2
-0.0400488000000002,0.0195902000000012,0.0241585999999999,-0.0089535999999994,0.1675742000000007,-0.0183543999999999,0,sub_2
-0.0329620000000002,0.0171254000000012,0.0162117999999999,0.0162018000000005,0.2003354000000007,-0.0278347999999999,0,sub_2
-0.0191484000000002,0.0133928000000012,0.0078189999999999,0.0335588000000005,0.2062822000000008,-0.0381897999999999,0,sub_2
0.0003935999999997,0.0081422000000012,0.0011303999999999,0.0425214000000005,0.1981880000000007,-0.0464489999999999,0,sub_2
0.0166225999999997,0.0036122000000012,-0.0036118,0.0401082000000005,0.1805246000000008,-0.0494341999999999,0,sub_2
0.0287265999999997,0.0033190000000012,-0.0075108,0.0292700000000005,0.1449736000000007,-0.0473277999999999,0,sub_2
0.0347887999999997,0.0031472000000012,-0.0091644,0.0126658000000005,0.1132580000000007,-0.0403527999999999,0,sub_2
0.0326423999999997,0.0073346000000012,-0.0070276,-6.999999999943405e-05,0.0938614000000008,-0.0271709999999999,0,sub_2
0.0216971999999997,0.0111060000000012,-0.0027742,-0.0046763999999994,0.0801846000000008,-0.0128715999999999,0,sub_2
0.0112003999999997,0.0143242000000012,0.0005533999999999,0.0024652000000005,0.0660536000000008,-0.0016939999999999,0,sub_2
-0.0011368000000002,0.0158186000000012,0.0047605999999999,0.0239984000000005,0.0674532000000008,0.0035702,0,sub_2
-0.0100692000000002,0.0154046000000012,0.0072215999999999,0.0519568000000005,0.0703372000000008,0.0050318,0,sub_2
-0.0133054000000002,0.0099004000000012,0.0070999999999999,0.0750250000000005,0.0736780000000008,0.0030404,0,sub_2
-0.0130068000000002,0.0064686000000012,0.0074755999999999,0.0837780000000005,0.0706858000000008,-0.0011791999999999,0,sub_2
-0.0095056000000002,0.0025506000000013,0.0100891999999999,0.0752018000000005,0.0598614000000008,-0.0031599999999999,0,sub_2
-0.0028066000000002,3.680000000130783e-05,0.0145337999999999,0.0544318000000005,0.0462880000000008,-0.0007239999999999,0,sub_2
0.0022597999999997,0.0009938000000012,0.0171091999999999,0.0302720000000005,0.0389018000000007,0.002535,0,sub_2
0.0046961999999997,0.0047248000000012,0.0177247999999999,0.0120644000000005,0.0259578000000007,0.0052018,0,sub_2
0.0057741999999997,0.0071782000000012,0.0152041999999999,0.0066418000000005,0.0099828000000007,0.0088163999999999,0,sub_2
0.0036885999999997,0.0097672000000012,0.0115093999999999,0.0130104000000005,0.0042020000000007,0.0103637999999999,0,sub_2
0.0004005999999997,0.0134512000000012,0.0069863999999999,0.0155556000000005,-0.0011255999999992,0.0084655999999999,0,sub_2
-0.0016288000000002,0.0129346000000012,0.0070789999999999,0.0203950000000005,-0.0181793999999991,0.0065986,0,sub_2
1.6599999999715455e-05,0.0099728000000012,0.0090267999999999,0.0220464000000005,-0.0318155999999991,0.0053458,0,sub_2
0.0007431999999997,0.0086212000000012,0.0091373999999999,0.0275490000000005,-0.0426971999999991,0.0045436,0,sub_2
0.0031691999999997,0.0078380000000012,0.0085495999999999,0.0353650000000005,-0.0608315999999991,0.0039806,0,sub_2
0.0048055999999997,0.0058336000000012,0.0112175999999999,0.0476696000000005,-0.0747307999999992,0.0060072,0,sub_2
0.0034209999999997,0.0067872000000012,0.0148353999999999,0.0517266000000005,-0.0743179999999991,0.0058214,0,sub_2
-0.0004366000000002,0.0087632000000012,0.0192121999999999,0.0446938000000005,-0.0751345999999991,0.0029958,0,sub_2
-0.0030636000000002,0.0084576000000012,0.0251055999999999,0.0291348000000005,-0.0742159999999991,-0.0001051999999999,0,sub_2
-0.0057298000000002,0.0087512000000012,0.0284303999999999,0.0155548000000005,-0.0579737999999991,-0.0008617999999999,0,sub_2
-0.0086438000000002,0.0089350000000012,0.0269169999999999,0.0152470000000005,-0.0341001999999991,-0.0034581999999999,0,sub_2
-0.0110500000000002,0.0081296000000012,0.0239445999999999,0.0257856000000005,-0.0192085999999991,-0.0070357999999999,0,sub_2
-0.0122390000000002,0.0066494000000012,0.0201031999999999,0.0418654000000005,-0.0060397999999991,-0.0107857999999999,0,sub_2
-0.0116846000000002,0.0066868000000012,0.0165697999999999,0.0500340000000005,0.0035346000000008,-0.0145865999999999,0,sub_2
-0.0102574000000002,0.0065508000000012,0.0158677999999999,0.0453464000000005,0.0007984000000008,-0.0188887999999999,0,sub_2
-0.0059304000000002,0.0078626000000012,0.0168413999999999,0.0275760000000005,-0.0134109999999991,-0.0198493999999999,0,sub_2
-0.0016874000000002,0.0091636000000012,0.0165677999999999,0.0083102000000005,-0.0235847999999991,-0.0163389999999999,0,sub_2
0.0007601999999997,0.0099916000000012,0.0160513999999999,-0.0013299999999994,-0.0248585999999991,-0.0091407999999999,0,sub_2
-0.0002930000000002,0.0089774000000012,0.0143381999999999,0.0031346000000005,-0.0208569999999991,-0.0014235999999999,0,sub_2
-0.0021942000000002,0.0080412000000012,0.0119451999999999,0.0152922000000005,-0.0149621999999991,0.005704,0,sub_2
-0.0052632000000002,0.0064668000000012,0.0099457999999999,0.0276620000000005,-0.0109785999999991,0.0111264,0,sub_2
-0.0079088000000002,0.0056814000000012,0.0090937999999999,0.0353252000000005,-0.0118705999999991,0.0143858,0,sub_2
-0.0101294000000002,0.0056938000000012,0.0076139999999999,0.0365432000000005,-0.0240259999999991,0.016119,0,sub_2
-0.0083206000000002,0.0067738000000012,0.0074849999999999,0.0326258000000005,-0.0393591999999991,0.0178206,0,sub_2
-0.0062184000000002,0.0073814000000012,0.0070527999999999,0.0259316000000005,-0.0551095999999991,0.019717,0,sub_2
-0.0028876000000002,0.0074710000000012,0.0066331999999999,0.0183726000000005,-0.0717161999999991,0.0233174,0,sub_2
0.0004595999999997,0.0081730000000012,0.0072191999999999,0.0106106000000005,-0.0836987999999991,0.0290482,0,sub_2
0.0043181999999997,0.0091194000000012,0.0076455999999999,0.0058338000000005,-0.0954811999999991,0.0354404,0,sub_2
0.0042907999999997,0.0113260000000012,0.0092113999999999,0.0072382000000005,-0.1096255999999991,0.0410242,0,sub_2
0.0029281999999997,0.0126506000000012,0.0116093999999999,0.0135846000000005,-0.1171781999999991,0.045566,0,sub_2
-0.0010996000000002,0.0137072000000012,0.0143887999999999,0.0244588000000005,-0.1172775999999991,0.047139,0,sub_2
-0.0049342000000002,0.0137280000000012,0.0165213999999999,0.0396322000000005,-0.1139139999999992,0.045318,0,sub_2
-0.0091920000000002,0.0129124000000012,0.0203901999999999,0.0516732000000005,-0.0985955999999992,0.040255,0,sub_2
-0.0098724000000002,0.0108620000000012,0.0226041999999999,0.0545650000000005,-0.0791901999999991,0.0334138,0,sub_2
-0.0097292000000002,0.0096408000000012,0.0242233999999999,0.0522652000000005,-0.0664863999999991,0.0263768,0,sub_2
-0.0101172000000002,0.0081534000000012,0.0259899999999999,0.0452672000000005,-0.0548307999999991,0.0190946,0,sub_2
-0.0103582000000002,0.0065184000000012,0.0275107999999999,0.0350514000000005,-0.0465743999999991,0.0122216,0,sub_2
-0.0087924000000002,0.0067818000000012,0.0268299999999999,0.0262888000000005,-0.0466347999999991,0.0060106,0,sub_2
-0.0077336000000002,0.0070234000000012,0.0235163999999999,0.0211354000000005,-0.0501193999999991,0.00047,0,sub_2
-0.0056104000000002,0.0070846000000012,0.0208665999999999,0.0181568000000005,-0.0530721999999991,-0.0044609999999999,0,sub_2
-0.0028888000000002,0.0072774000000012,0.0173819999999999,0.0174918000000005,-0.0617923999999991,-0.0076591999999999,0,sub_2
-0.0025998000000002,0.0080158000000012,0.0143005999999999,0.0163684000000005,-0.0762685999999991,-0.0095713999999999,0,sub_2
-0.0045806000000002,0.0085476000000012,0.0158233999999999,0.0114044000000005,-0.0900947999999991,-0.0108703999999999,0,sub_2
-0.0063390000000002,0.0094764000000012,0.0181731999999999,0.0024810000000005,-0.1070093999999992,-0.0119449999999999,0,sub_2
-0.0070408000000002,0.0107664000000012,0.0156281999999999,-0.0088853999999994,-0.1439479999999991,-0.0117289999999999,0,sub_2
-0.0031750000000002,0.0108056000000012,0.0150987999999999,-0.0145337999999994,-0.1907061999999992,-0.0116739999999999,0,sub_2
0.0010211999999997,0.0105078000000012,0.0133781999999999,-0.0143597999999994,-0.2227883999999991,-0.0105289999999999,0,sub_2
0.0032551999999997,0.0085542000000012,0.0059407999999999,-0.0115189999999994,-0.2301695999999991,-0.0083287999999999,0,sub_2
0.0011961999999997,0.0078170000000012,0.0005619999999999,-0.0059117999999994,-0.2114625999999992,-0.0027587999999999,0,sub_2
-0.0024988000000002,0.0079468000000012,0.0022637999999999,-0.0034553999999994,-0.1795435999999992,0.0049086,0,sub_2
-0.0074926000000002,0.0074504000000012,0.0026007999999999,-0.0108303999999994,-0.1514243999999991,0.0122986,0,sub_2
-0.0105136000000002,0.0063688000000012,0.0023451999999999,-0.0167569999999994,-0.1377799999999991,0.0152308,0,sub_2
-0.0113498000000002,0.0079168000000012,0.0020663999999999,-0.0146029999999994,-0.1350109999999991,0.0135332,0,sub_2
-0.0065944000000002,0.0100296000000012,0.0044931999999999,-0.0114551999999994,-0.1501351999999991,0.0101562,0,sub_2
-0.0035576000000002,0.0087482000000012,0.0068045999999999,-0.0069943999999994,-0.1588689999999991,0.0059258,0,sub_2
-0.0035496000000002,0.0092598000000012,0.0092153999999999,0.0020516000000005,-0.1433347999999991,0.0027644,0,sub_2
-0.0038612000000002,0.0105364000000012,0.0155743999999999,0.0059978000000005,-0.1201245999999992,0.0025486,0,sub_2
-0.0030328000000002,0.0093836000000012,0.0267637999999999,0.0013418000000005,-0.1081907999999991,0.005919,0,sub_2
-0.0057304000000002,0.0059248000000012,0.0330435999999999,-0.0052449999999994,-0.1002915999999991,0.007572,0,sub_2
-0.0070922000000002,0.0061482000000012,0.0323831999999999,-0.0075709999999994,-0.0968693999999991,0.0062694,0,sub_2
-0.0071166000000002,0.0072548000000012,0.0287231999999999,-0.0088473999999994,-0.0983467999999991,0.0039122,0,sub_2
-0.0075392000000002,0.0085122000000012,0.0234979999999999,-0.0107629999999994,-0.0983357999999991,0.0028306,0,sub_2
-0.0069898000000002,0.0106086000000012,0.0170657999999999,-0.0139673999999994,-0.0987523999999991,0.003236,0,sub_2
-0.0037620000000002,0.0130054000000012,0.0134765999999999,-0.0175945999999993,-0.0966177999999991,0.0053444,0,sub_2
-0.0015830000000002,0.0139220000000012,0.0130097999999999,-0.0226589999999993,-0.0799979999999991,0.009347,0,sub_2
-0.0020648000000002,0.0153214000000012,0.0132781999999999,-0.0253609999999993,-0.0599775999999991,0.0133618,0,sub_2
-0.0030294000000002,0.0139646000000012,0.0124035999999999,-0.0220969999999993,-0.0446541999999991,0.0146468,0,sub_2
-0.0059668000000002,0.0097096000000012,0.0127051999999999,-0.0139255999999993,-0.0308333999999991,0.0144726,0,sub_2
-0.0095566000000002,0.0077882000000012,0.0149895999999999,-0.0021143999999993,-0.0168017999999991,0.0117598,0,sub_2
-0.0112160000000002,0.0076452000000012,0.0168381999999999,0.0120122000000005,-0.0121433999999991,0.006725,0,sub_2
-0.0116196000000002,0.0076558000000012,0.0185379999999999,0.0226896000000005,-0.0157803999999991,0.0012494,0,sub_2
-0.0094576000000002,0.0078036000000012,0.0198923999999999,0.0258882000000005,-0.0189761999999991,-0.0015015999999999,0,sub_2
-0.0064744000000002,0.0093206000000012,0.0190525999999999,0.0229136000000005,-0.0176813999999991,-0.0030195999999999,0,sub_2
-0.0037130000000002,0.0081784000000012,0.0167521999999999,0.0165392000000005,-0.0112691999999991,-0.0026449999999999,0,sub_2
-0.0038798000000002,0.0069526000000012,0.0140245999999999,0.0093278000000005,-0.0008075999999991,-0.0018541999999999,0,sub_2
-0.0045360000000002,0.0051742000000012,0.0117825999999999,0.0034252000000005,0.0158288000000008,-0.0012757999999999,0,sub_2
-0.0060906000000002,0.0063298000000012,0.0094535999999999,0.0002696000000005,0.0254290000000008,-0.0017373999999999,0,sub_2
-0.0080866000000002,0.0070562000000012,0.0074727999999999,0.0005040000000005,0.0292666000000008,-0.0025951999999999,0,sub_2
-0.0103290000000002,0.0086812000000012,0.0058595999999999,0.0020130000000005,0.0307604000000008,-0.0045093999999999,0,sub_2
-0.0097350000000002,0.0096986000000012,0.0071755999999999,0.0048040000000005,0.0322514000000008,-0.0068417999999999,0,sub_2
-0.0086588000000002,0.0095980000000012,0.0089837999999999,0.0075778000000005,0.0311808000000008,-0.0078891999999999,0,sub_2
-0.0078604000000002,0.0094750000000012,0.0109949999999999,0.0099490000000005,0.0358624000000007,-0.0085195999999999,0,sub_2
-0.0056096000000002,0.0105910000000012,0.0122147999999999,0.0135936000000005,0.0390480000000007,-0.0091391999999999,0,sub_2
-0.0037678000000002,0.0095378000000012,0.0121097999999999,0.0165788000000005,0.0379750000000007,-0.0097579999999999,0,sub_2
-0.0031990000000002,0.0084222000000012,0.0113263999999999,0.0161472000000005,0.0375478000000007,-0.0091195999999999,0,sub_2
-0.0018140000000002,0.0078654000000012,0.0109237999999999,0.0114540000000005,0.0394748000000007,-0.0074457999999999,0,sub_2
-0.0002016000000002,0.0064450000000012,0.0095505999999999,0.0056930000000005,0.0418290000000007,-0.0051389999999999,0,sub_2
-0.0003070000000002,0.0054960000000012,0.0078205999999999,-6.239999999941934e-05,0.0460984000000007,-0.0021935999999999,0,sub_2
-0.0009308000000002,0.0074804000000012,0.0053053999999999,-0.0034579999999994,0.0541900000000008,0.0018315999999999,0,sub_2
-0.0022256000000002,0.0091760000000012,0.0036053999999999,-0.0036521999999994,0.0618470000000008,0.0052387999999999,0,sub_2
