userAcceleration.x,userAcceleration.y,userAcceleration.z,rotationRate.x,rotationRate.y,rotationRate.z,label,subject
0.0110603999999996,-0.0051235999999986,-0.0055595999999999,-0.0912553999999993,-0.0302045999999992,0.0350517999999999,0,sub_6
0.0070729999999996,-0.0003837999999987,-0.0073207999999999,-0.1066229999999993,-0.0278209999999992,0.0383595999999999,0,sub_6
0.0010463999999996,0.0035068000000012,-0.0089309999999999,-0.1138843999999994,-0.0294991999999992,0.0380973999999999,0,sub_6
-0.0039952000000003,0.0076490000000012,-0.0100243999999999,-0.1115603999999993,-0.0382281999999992,0.0344927999999999,0,sub_6
-0.0074760000000003,0.0091742000000012,-0.0100237999999999,-0.1041123999999994,-0.0467601999999992,0.0304965999999999,0,sub_6
-0.0092884000000003,0.0094586000000012,-0.0074691999999999,-0.0936493999999994,-0.0478509999999992,0.0277937999999999,0,sub_6
-0.0106672000000003,0.0081304000000013,-0.0044909999999999,-0.0799647999999994,-0.0440535999999992,0.0253207999999998,0,sub_6
-0.0075280000000003,0.0089288000000013,-0.0017365999999999,-0.0662867999999994,-0.0402619999999991,0.0243431999999998,0,sub_6
-0.0052852000000003,0.0069188000000013,0.0021448,-0.0579383999999994,-0.0336889999999991,0.0250339999999998,0,sub_6
-0.0036606000000003,0.0047342000000013,0.0040296,-0.0551483999999994,-0.0298645999999991,0.0252621999999998,0,sub_6
-0.0001084000000003,0.0046756000000013,0.005574,-0.0568219999999994,-0.0276111999999991,0.0260399999999998,0,sub_6
0.0023651999999996,0.0057258000000013,0.007636,-0.0616951999999994,-0.0249211999999991,0.0270085999999998,0,sub_6
0.0016193999999996,0.0042668000000013,0.0090958,-0.0691145999999994,-0.0192387999999992,0.0277417999999998,0,sub_6
0.0015999999999996,0.0039330000000013,0.0084008,-0.0775987999999994,-0.0135507999999991,0.0280403999999998,0,sub_6
0.0013795999999996,0.0042078000000013,0.0091896,-0.0860935999999994,-0.0097821999999991,0.0287685999999998,0,sub_6
-0.0007026000000003,0.0040720000000013,0.008295,-0.0954945999999994,-0.0135799999999991,0.0276395999999998,0,sub_6
-0.0008150000000003,0.0028188000000013,0.0056302,-0.1072463999999993,-0.0186463999999992,0.0260683999999998,0,sub_6
0.0016773999999996,0.0029952000000013,0.0068058,-0.1187655999999993,-0.0179669999999992,0.0259871999999998,0,sub_6
0.0024845999999996,0.0052596000000013,0.0069772,-0.1257925999999994,-0.0141099999999992,0.0265741999999998,0,sub_6
0.0031937999999996,0.0066752000000013,0.0032164,-0.1293833999999993,-0.0057889999999992,0.0267521999999998,0,sub_6
0.0056467999999995,0.0056064000000013,-0.0003417999999999,-0.1276283999999994,0.0044332000000007,0.0263239999999998,0,sub_6
0.0070039999999996,0.0061996000000013,-0.0019251999999999,-0.1207793999999994,0.0080356000000007,0.0252989999999998,0,sub_6
0.0067667999999996,0.0060988000000013,-0.0058329999999999,-0.1135381999999994,0.0026932000000007,0.0230063999999999,0,sub_6
0.0074743999999996,0.0032856000000013,-0.0081419999999999,-0.1043965999999994,-0.0079787999999992,0.0198791999999999,0,sub_6
0.0079203999999996,0.0011330000000013,-0.0071951999999999,-0.0931319999999994,-0.0210017999999992,0.0167697999999998,0,sub_6
0.0078857999999996,0.0013914000000013,-0.0074749999999999,-0.0820969999999993,-0.0367969999999992,0.0145169999999998,0,sub_6
0.0084261999999996,0.0012414000000013,-0.0056221999999999,-0.0718933999999994,-0.0457793999999992,0.0141725999999998,0,sub_6
0.0071081999999996,0.0024106000000013,-0.0036827999999999,-0.0599569999999994,-0.0481663999999992,0.0146861999999998,0,sub_6
0.0048675999999996,0.0036746000000013,-0.0028509999999999,-0.0490893999999994,-0.0518245999999992,0.0143395999999998,0,sub_6
0.0040963999999996,0.0038128000000013,0.00031,-0.0399239999999994,-0.0563213999999992,0.0120593999999998,0,sub_6
0.0042577999999996,0.0034060000000013,0.0041598,-0.0343543999999993,-0.0537747999999992,0.0097449999999998,0,sub_6
0.0045319999999996,0.0040636000000013,0.0052452,-0.0304973999999993,-0.0529247999999992,0.0069933999999998,0,sub_6
0.0045357999999996,0.0035196000000013,0.0066676,-0.0309115999999993,-0.0526999999999992,0.0044265999999999,0,sub_6
0.0039849999999996,0.0038618000000013,0.008232,-0.0355953999999993,-0.0514009999999992,0.0033239999999999,0,sub_6
0.0027507999999996,0.0044718000000013,0.0069646,-0.0415591999999993,-0.0490365999999992,0.0032791999999999,0,sub_6
0.0030193999999996,0.0050394000000013,0.0061434,-0.0439033999999994,-0.0483891999999992,0.0032619999999999,0,sub_6
0.0012651999999996,0.0051532000000013,0.0056918,-0.0447425999999994,-0.0449781999999992,0.0034653999999999,0,sub_6
0.0004633999999996,0.0061456000000012,0.0043068,-0.0408951999999994,-0.0443489999999992,0.0026367999999999,0,sub_6
0.0003765999999996,0.0074634000000012,0.0033666,-0.0321161999999994,-0.0401083999999992,0.0001289999999999,0,sub_6
0.0019993999999996,0.0068860000000012,0.0041058,-0.0201327999999994,-0.0343899999999991,-0.0017174,0,sub_6
0.0006657999999996,0.0053588000000012,0.0055712,-0.0085857999999994,-0.0299519999999991,-0.0027106,0,sub_6
0.0010027999999996,0.0041768000000012,0.0059484,-0.0002507999999994,-0.0282715999999992,-0.0039364,0,sub_6
0.0026975999999996,0.0041702000000013,0.0075088,0.0052996000000005,-0.0282883999999992,-0.0045386,0,sub_6
0.0046459999999996,0.0017930000000013,0.0100594,0.0074296000000005,-0.0280869999999992,-0.0034558,0,sub_6
0.0045595999999996,0.0011444000000013,0.0104071999999999,0.0055120000000005,-0.0253191999999992,-0.0013362,0,sub_6
0.0035737999999996,0.0025004000000012,0.0093743999999999,0.0031592000000005,-0.0255281999999992,-0.0002842,0,sub_6
0.0021873999999996,0.0039782000000012,0.0087087999999999,0.0003854000000005,-0.0257307999999992,-0.0005168,0,sub_6
0.0005723999999996,0.0041426000000012,0.0084631999999999,-0.0021653999999994,-0.0246523999999992,-0.0016042,0,sub_6
0.0004213999999996,0.0046650000000012,0.0081047999999999,-0.0047085999999994,-0.0210205999999992,-0.0018402,0,sub_6
0.0002795999999996,0.0049536000000012,0.0083477999999999,-0.0072575999999994,-0.0186671999999992,-0.0020748,0,sub_6
0.0002941999999996,0.0054700000000012,0.0089251999999999,-0.0117249999999994,-0.0163053999999992,-0.00275,0,sub_6
0.0005111999999996,0.0046900000000012,0.0086678,-0.0145045999999994,-0.0182105999999992,-0.003408,0,sub_6
0.0006499999999996,0.0038174000000012,0.0075096,-0.0172813999999994,-0.0192643999999992,-0.0038532,0,sub_6
-0.0004580000000003,0.0054596000000013,0.0060144,-0.0196409999999994,-0.0228747999999992,-0.0047198,0,sub_6
-0.0013768000000003,0.0080914000000013,0.0050684,-0.0194399999999993,-0.0267061999999992,-0.0057816,0,sub_6
-0.0009446000000003,0.0086344000000013,0.0049148,-0.0160201999999993,-0.0256519999999991,-0.0059726,0,sub_6
-0.0010414000000003,0.0090234000000013,0.0053942,-0.0117393999999993,-0.0216231999999991,-0.0048796,0,sub_6
-0.0007616000000003,0.0092622000000012,0.0064116,-0.0066153999999993,-0.0203653999999991,-0.0042046,0,sub_6
-0.0007516000000003,0.0083270000000012,0.0068112,4.800000000609178e-06,-0.0191101999999992,-0.0041598,0,sub_6
-0.0001808000000003,0.0076790000000012,0.006376,0.0044894000000005,-0.0182735999999992,-0.0041296,0,sub_6
-0.0008978000000003,0.0071160000000012,0.0056954,0.0058142000000005,-0.0201651999999992,-0.004324,0,sub_6
-0.0001538000000003,0.0079546000000012,0.005358,0.0045892000000005,-0.0207649999999992,-0.005606,0,sub_6
-3.400000000379705e-06,0.0085510000000012,0.0043284,0.0023126000000005,-0.0173157999999992,-0.0062596,0,sub_6
6.559999999962027e-05,0.0081710000000012,0.0041948,-0.0008135999999994,-0.0123747999999992,-0.0062802,0,sub_6
-0.0008192000000003,0.0074564000000012,0.0040641999999999,-0.0024385999999994,-0.0065833999999992,-0.0071458,0,sub_6
0.0003041999999996,0.0067830000000013,0.0016239999999999,-0.0038929999999994,0.0002472000000007,-0.0090874,0,sub_6
0.0024471999999996,0.0047734000000013,-0.0028396,-0.0053491999999994,0.0070760000000007,-0.0106018,0,sub_6
0.0053303999999996,0.0018704000000013,-0.0039933999999999,-0.0074695999999994,0.0096418000000007,-0.011047,0,sub_6
0.0082839999999996,0.0008334000000013,-0.0051399999999999,-0.0136601999999994,0.0102976000000007,-0.0098092,0,sub_6
0.0112157999999996,0.0013876000000013,-0.0064243999999999,-0.0226331999999994,0.0098942000000007,-0.0077350000000001,0,sub_6
0.0110781999999996,0.0021682000000013,-0.0050475999999999,-0.0271483999999993,0.0064840000000007,-0.0034892000000001,0,sub_6
0.0070051999999996,0.0036644000000013,-2.1999999999610874e-06,-0.0252769999999993,0.0007044000000007,0.0016587999999998,0,sub_6
0.0003239999999996,0.0075042000000013,0.0037282,-0.0163469999999993,-0.0038111999999992,0.0042905999999998,0,sub_6
-0.0058410000000003,0.0090694000000013,0.0070954,0.0022116000000006,-0.0081243999999992,0.0012211999999998,0,sub_6
-0.0095190000000003,0.0057608000000013,0.0100804,0.0242032000000006,-0.0126445999999992,-0.0063106,0,sub_6
-0.0080840000000003,0.0038084000000013,0.01178,0.0374572000000005,-0.0160639999999992,-0.0151868,0,sub_6
-0.0040240000000003,0.0034698000000013,0.0113236,0.0387642000000005,-0.0164689999999992,-0.0215866,0,sub_6
0.0019749999999996,0.0009924000000013,0.0090614,0.0268498000000005,-0.0102427999999992,-0.0231734,0,sub_6
0.0057283999999996,0.0005740000000013,0.0042798,0.0053048000000005,-0.0040085999999992,-0.0184182,0,sub_6
0.0071619999999996,0.0037674000000012,-0.0010671999999999,-0.0181823999999994,0.0013640000000007,-0.009616,0,sub_6
0.0039661999999996,0.0060006000000012,-0.0068629999999999,-0.0322687999999994,0.0079882000000007,-0.0022454,0,sub_6
0.0002113999999996,0.0066732000000012,-0.0111833999999999,-0.0333125999999994,0.0150150000000007,-0.0003388,0,sub_6
-0.0021046000000003,0.0070778000000012,-0.0144853999999999,-0.0217807999999994,0.0137100000000007,-0.0036748,0,sub_6
-0.0018598000000003,0.0068060000000012,-0.0135027999999999,-0.0032135999999994,0.0087680000000007,-0.009307,0,sub_6
-0.0015726000000003,0.0060928000000012,-0.0090499999999999,0.0164224000000005,0.0055216000000007,-0.0136522,0,sub_6
0.0005113999999996,0.0055450000000012,-0.0031465999999999,0.0307212000000005,0.0048376000000007,-0.0148332,0,sub_6
0.0015419999999996,0.0054008000000012,0.0016732,0.0388746000000005,0.0031394000000007,-0.0137076,0,sub_6
0.0019691999999996,0.0042740000000012,0.0040706,0.0391466000000005,0.0055126000000007,-0.011574,0,sub_6
0.0022137999999996,0.0027934000000013,0.004814,0.0347256000000005,0.0076906000000007,-0.0099002,0,sub_6
0.0036431999999996,0.0018624000000013,0.0038948,0.0247606000000005,0.0098914000000007,-0.0091196,0,sub_6
0.0043233999999996,0.0018122000000013,0.0025214,0.0130694000000005,0.0080494000000007,-0.0081324,0,sub_6
0.0039857999999996,0.0012146000000013,0.0001088,-0.0006007999999994,0.0065988000000007,-0.0065168,0,sub_6
0.0022735999999996,0.0026238000000013,-0.0015723999999999,-0.0121545999999994,0.0017302000000007,-0.0044548,0,sub_6
0.0008119999999996,0.0049144000000013,-0.0044041999999999,-0.0209191999999994,-0.0010121999999992,-0.003658,0,sub_6
-0.0012338000000003,0.0060248000000013,-0.0060437999999999,-0.0219889999999994,-0.0018597999999992,-0.0038782,0,sub_6
-0.0024030000000003,0.0065930000000013,-0.0070947999999999,-0.0181407999999994,0.0004416000000007,-0.0049508,0,sub_6
-0.0018636000000003,0.0074082000000013,-0.0063443999999999,-0.0111045999999994,-0.0004621999999992,-0.0064244,0,sub_6
-0.0008212000000003,0.0063028000000013,-0.0040551999999999,-0.0055561999999994,0.0003420000000007,-0.0074832,0,sub_6
-0.0003726000000003,0.0048612000000013,-0.0012639999999999,-0.0012919999999994,0.0022082000000007,-0.0066296,0,sub_6
0.0012269999999996,0.0036476000000013,-0.0002909999999999,-0.0006741999999994,3.820000000079316e-05,-0.0055826,0,sub_6
0.0018915999999996,0.0032980000000013,0.0007522,-0.0034633999999994,-0.0018755999999992,-0.0041042,0,sub_6
0.0011431999999996,0.0033882000000013,0.0004896,-0.0075173999999993,0.0002606000000007,-0.0019988,0,sub_6
0.0006929999999996,0.0045934000000012,-0.0003367999999999,-0.0084283999999993,-0.0006887999999992,-0.0009426,0,sub_6
0.0011777999999996,0.0045596000000012,0.000479,-0.0099805999999993,-0.0031221999999992,-0.0011708,0,sub_6
-0.0003734000000003,0.0054038000000012,0.0018244,-0.0106791999999993,-0.0044975999999992,-0.0003262,0,sub_6
-0.0013168000000003,0.0055416000000012,0.0020878,-0.0109587999999993,-0.0080031999999992,9.67999999999141e-05,0,sub_6
-0.0012774000000003,0.0049102000000012,0.0033346,-0.0095323999999994,-0.0130011999999992,-0.0007482,0,sub_6
-0.0012566000000003,0.0047318000000012,0.004681,-0.0076119999999994,-0.0121591999999992,0.0001185999999999,0,sub_6
-0.0029062000000003,0.0061178000000012,0.0050132,-0.0041901999999994,-0.0085569999999992,0.0020605999999998,0,sub_6
-0.0037098000000003,0.0073604000000012,0.0047776,-0.0007713999999994,-0.0072913999999992,0.0022965999999998,0,sub_6
-0.0029698000000003,0.0071048000000012,0.0044908,0.0018888000000005,-0.0080523999999992,0.0008389999999999,0,sub_6
-0.0010056000000003,0.0058982000000013,0.005342,0.0024220000000005,-0.0066777999999992,4.599999999914048e-06,0,sub_6
-0.0001222000000003,0.0051902000000013,0.0057636,-3.879999999940875e-05,-0.0065719999999992,-0.0006352,0,sub_6
0.0011341999999996,0.0054684000000013,0.0043494,-0.0046371999999994,-0.0073109999999992,-0.0012888,0,sub_6
0.0026665999999996,0.0050560000000013,0.001938,-0.0092355999999994,-0.0076255999999992,-0.001516,0,sub_6
0.0030695999999996,0.0048678000000013,0.0014742,-0.0107273999999994,-0.0063455999999992,-0.0006734,0,sub_6
0.0026343999999996,0.0052432000000012,-0.0002543999999999,-0.0122287999999993,-0.0071959999999992,0.0001717999999999,0,sub_6
0.0032465999999996,0.0062148000000012,-0.0018265999999999,-0.0111695999999993,-0.0091163999999992,-3.2000000000085976e-05,0,sub_6
0.0038899999999996,0.0061860000000012,-0.0019391999999999,-0.0068545999999993,-0.0084431999999992,-0.000396,0,sub_6
0.0033863999999996,0.0060082000000012,-0.0004769999999999,-0.0021137999999993,-0.0075601999999992,-0.0003298,0,sub_6
0.0024781999999996,0.0053848000000012,0.0001386,-0.0003639999999993,-0.0077309999999992,-0.000497,0,sub_6
0.0023693999999996,0.0042662000000013,0.002401,0.0011714000000005,-0.0083263999999992,-0.0008786,0,sub_6
0.0014381999999995,0.0041368000000013,0.0035918,0.0007998000000005,-0.0048711999999992,-0.0002106,0,sub_6
-0.0003086000000004,0.0054724000000013,0.0039564,-0.0006919999999993,-0.0042275999999992,-8.200000000086004e-06,0,sub_6
-0.0005356000000004,0.0056596000000013,0.0046178,-0.0019655999999993,-0.0033683999999992,-0.0006592,0,sub_6
-0.0012994000000004,0.0044302000000013,0.006268,-0.0008757999999993,0.0015290000000007,-0.0008716,0,sub_6
-0.0019532000000003,0.0057230000000013,0.0044796,0.0015384000000006,0.0109142000000007,-0.000615,0,sub_6
-0.0015614000000003,0.0037902000000013,0.0017864,0.0032932000000006,0.0158284000000007,-0.0005708,0,sub_6
0.0039167999999996,-0.0004799999999986,-0.0019927999999999,0.0022474000000005,0.0149990000000007,-0.0003252,0,sub_6
0.0122453999999996,-0.0033137999999986,-0.0058471999999999,-0.0037213999999994,0.0118390000000007,0.0009573999999999,0,sub_6
0.0201137999999996,-0.0039851999999986,-0.0113269999999999,-0.0144207999999994,0.0005994000000007,0.0022171999999998,0,sub_6
0.0239209999999996,-0.0054717999999986,-0.0139185999999999,-0.0275401999999994,-0.0221525999999992,0.0023683999999998,0,sub_6
0.0216597999999996,-0.0029691999999986,-0.0119979999999999,-0.0398213999999993,-0.0485285999999992,0.0023163999999998,0,sub_6
0.0108123999999996,0.0018106000000013,-0.0070179999999999,-0.0486587999999993,-0.0670385999999992,0.0035603999999998,0,sub_6
-0.0056348000000003,0.0078954000000013,-0.0019287999999999,-0.0493195999999993,-0.0768287999999992,0.0050983999999998,0,sub_6
-0.0188740000000003,0.0143682000000013,0.0043736,-0.0433045999999993,-0.0742799999999992,0.0053855999999998,0,sub_6
-0.0255694000000003,0.0185092000000013,0.009358,-0.0314631999999993,-0.0581123999999992,0.0048413999999998,0,sub_6
-0.0242630000000003,0.0176458000000013,0.012212,-0.0150997999999993,-0.0342845999999992,0.0028233999999998,0,sub_6
-0.0169586000000003,0.0140804000000013,0.014189,0.0034002000000005,-0.0115227999999992,-0.0008876000000001,0,sub_6
-0.0060010000000003,0.0087124000000013,0.0150524,0.0167222000000005,0.0044288000000007,-0.0055150000000001,0,sub_6
0.0038563999999996,0.0029750000000013,0.0137064,0.0219046000000005,0.0150756000000007,-0.0084834,0,sub_6
0.0111539999999996,-0.0016013999999986,0.0101152,0.0189366000000005,0.0191348000000007,-0.008723,0,sub_6
0.0166303999999996,-0.0040975999999986,0.0050148,0.0088986000000005,0.0197978000000007,-0.0060166000000001,0,sub_6
0.0192879999999996,-0.0042303999999986,-0.0003125999999999,-0.0053957999999993,0.0185754000000007,-0.0011778000000001,0,sub_6
0.0175359999999996,-0.0015053999999986,-0.0053509999999999,-0.0169209999999993,0.0169146000000007,0.0043217999999998,0,sub_6
0.0121675999999996,0.0011120000000013,-0.0098489999999999,-0.0201401999999993,0.0103306000000007,0.0083901999999998,0,sub_6
0.0058209999999996,0.0027450000000013,-0.0103301999999999,-0.0152425999999993,0.0020284000000007,0.0088855999999998,0,sub_6
-0.0008852000000003,0.0056048000000013,-0.0077039999999999,-0.0041447999999994,-0.0058599999999992,0.0070737999999998,0,sub_6
-0.0069266000000003,0.0075986000000013,-0.0041035999999999,0.0086526000000005,-0.0093041999999992,0.0048175999999998,0,sub_6
-0.0115776000000003,0.0088002000000013,0.0002416,0.0195488000000005,-0.0080561999999992,0.0029691999999998,0,sub_6
-0.0123112000000003,0.0089196000000013,0.0049666,0.0266450000000005,-0.0037833999999992,0.0021745999999999,0,sub_6
-0.0112684000000003,0.0104416000000013,0.008518,0.0281984000000005,0.0030596000000007,0.0028333999999999,0,sub_6
-0.0094400000000003,0.0095702000000013,0.0093876,0.0239984000000005,0.0116272000000007,0.0034497999999999,0,sub_6
-0.0059770000000003,0.0070764000000013,0.0085934,0.0176542000000005,0.0167976000000007,0.0029873999999999,0,sub_6
0.0009989999999996,0.0035000000000013,0.00612,0.0106478000000005,0.0174944000000007,0.0029533999999999,0,sub_6
0.0057997999999996,0.0020958000000013,0.0038424,0.0025292000000005,0.0160280000000007,0.0037529999999999,0,sub_6
0.0086023999999996,0.0012832000000013,0.0006164,-0.0045399999999994,0.0115716000000007,0.0054185999999999,0,sub_6
0.0080157999999996,0.0023488000000012,-0.0020081999999999,-0.0082151999999994,0.0024170000000007,0.0069001999999999,0,sub_6
0.0069607999999996,0.0029894000000012,-0.0032705999999999,-0.0097323999999993,-0.0071485999999992,0.0075537999999999,0,sub_6
0.0044723999999996,0.0038288000000012,-0.0024599999999999,-0.0078143999999993,-0.0133121999999992,0.0069451999999999,0,sub_6
0.0010699999999996,0.0056238000000012,-0.0007461999999999,-0.0037455999999993,-0.0160727999999992,0.0059199999999998,0,sub_6
-0.0028478000000003,0.0066734000000012,0.0034646,0.0007654000000006,-0.0154259999999992,0.0048933999999998,0,sub_6
-0.0036782000000003,0.0061654000000013,0.0065702,0.0035742000000006,-0.0130713999999992,0.0044935999999998,0,sub_6
-0.0029968000000003,0.0066686000000012,0.0081452,0.0055156000000005,-0.0083909999999992,0.0045011999999998,0,sub_6
-0.0028038000000003,0.0064464000000012,0.0082712,0.0063824000000005,-0.0047745999999992,0.0051435999999998,0,sub_6
-0.0010052000000004,0.0047970000000012,0.0079712,0.0057548000000005,-0.0015781999999992,0.0055623999999998,0,sub_6
0.0005539999999995,0.0033728000000012,0.0049032,0.0051976000000005,0.0012752000000007,0.0061971999999998,0,sub_6
0.0022769999999995,0.0025530000000012,0.0030334,0.0059194000000005,0.0028500000000007,0.0057743999999999,0,sub_6
0.0034419999999995,0.0029838000000012,0.0017106,0.0068432000000005,0.0022918000000007,0.0057829999999999,0,sub_6
0.0041277999999996,0.0035294000000012,0.000979,0.0075490000000005,0.0004570000000007,0.0055779999999999,0,sub_6
0.0044487999999996,0.0038096000000012,-0.0002685999999999,0.0110342000000005,-0.0001091999999992,0.0053907999999999,0,sub_6
0.0056357999999996,0.0040264000000012,0.000343,0.0174344000000005,-0.0005567999999992,0.0052223999999999,0,sub_6
0.0056337999999996,0.0047842000000012,0.0001116,0.0227746000000005,0.0011274000000007,0.0056847999999999,0,sub_6
0.0036017999999996,0.0049056000000012,0.0007948,0.0259792000000005,0.0009074000000007,0.0046391999999999,0,sub_6
0.0028433999999996,0.0051184000000012,0.0037456,0.0266752000000005,0.0003354000000007,0.0031531999999999,0,sub_6
0.0025197999999996,0.0046874000000012,0.0069246,0.0248080000000005,-0.0002301999999992,0.0022903999999999,0,sub_6
0.0026241999999996,0.0039136000000013,0.0079308,0.0188962000000005,0.0024100000000007,0.0024633999999999,0,sub_6
0.0029427999999996,0.0040168000000013,0.0088586,0.0136130000000005,0.0031278000000007,0.0032841999999999,0,sub_6
0.0030419999999996,0.0044170000000013,0.0093522,0.0096186000000005,0.0057588000000007,0.0041113999999999,0,sub_6
0.0022971999999996,0.0046464000000013,0.0079136,0.0074964000000005,0.0091718000000007,0.0049467999999999,0,sub_6
0.0030339999999996,0.0044988000000013,0.004661,0.0070850000000005,0.0125822000000007,0.0049393999999999,0,sub_6
0.0036277999999996,0.0053900000000013,0.0019404,0.0087890000000005,0.0108760000000007,0.0038851999999999,0,sub_6
0.0042243999999996,0.0049656000000013,0.0004804,0.0105186000000005,0.0092110000000007,0.0017571999999999,0,sub_6
0.0059009999999996,0.0035934000000013,0.0002118,0.0120272000000005,0.0069032000000007,0.0006967999999999,0,sub_6
0.0066827999999996,0.0026582000000013,0.0009306,0.0131110000000005,0.0054474000000007,5.9599999999913886e-05,0,sub_6
0.0044917999999996,0.0034788000000013,0.0023232,0.0135508000000005,0.0037782000000007,5.919999999991392e-05,0,sub_6
0.0022643999999996,0.0038898000000013,0.0037774,0.0129258000000005,0.0019024000000007,-0.0005894,0,sub_6
0.0014893999999996,0.0042292000000013,0.0052856,0.0124982000000005,0.0014786000000007,-0.0008054,0,sub_6
0.0002611999999996,0.0042786000000013,0.006007,0.0135690000000005,0.0025394000000007,-0.0005856,0,sub_6
-9.64000000003588e-05,0.0047780000000013,0.005588,0.0135776000000005,0.0044568000000007,-0.000588,0,sub_6
0.0008943999999996,0.0045216000000013,0.005152,0.0118728000000005,0.0032018000000007,-0.0010398,0,sub_6
0.0019753999999996,0.0032060000000013,0.0049704,0.0112388000000005,0.0027952000000007,-0.001485,0,sub_6
0.0017705999999996,0.0033532000000013,0.0044884,0.0103972000000005,0.0040922000000007,-0.0015068,0,sub_6
0.0015161999999996,0.0048048000000013,0.003674,0.0091240000000005,0.0039008000000007,-0.0019568,0,sub_6
0.0011283999999996,0.0053198000000013,0.0025088,0.0082786000000005,0.0032846000000007,-0.0030442,0,sub_6
0.0007379999999996,0.0040866000000013,0.0038918,0.0085074000000005,0.0056316000000007,-0.0041138,0,sub_6
0.0009281999999996,0.0033516000000013,0.004705,0.0093694000000005,0.0075460000000007,-0.0041102,0,sub_6
0.0017585999999996,0.0025216000000013,0.0045236,0.0102180000000005,0.0062654000000007,-0.0043162,0,sub_6
0.0031923999999996,0.0016998000000013,0.0041486,0.0102078000000005,0.0045832000000007,-0.0045496,0,sub_6
0.0040667999999996,0.0010714000000013,0.0043384,0.0112548000000005,0.0011910000000007,-0.0043462,0,sub_6
