userAcceleration.x,userAcceleration.y,userAcceleration.z,rotationRate.x,rotationRate.y,rotationRate.z,label,subject
-0.0025338000000001,0.0145482000000011,0.007881,-0.0548309999999994,-0.1208061999999991,0.028098,0,sub_1
-0.0070026000000001,0.0142352000000011,0.0075452,-0.0578791999999994,-0.1261605999999991,0.0325742,0,sub_1
-0.0116754000000001,0.0132334000000011,0.0049178,-0.0596297999999994,-0.1291699999999991,0.0355608,0,sub_1
-0.0170752000000001,0.0128298000000012,0.002209,-0.0577411999999994,-0.1289987999999991,0.039209,0,sub_1
-0.0179358000000001,0.0128938000000012,0.0034036,-0.0515555999999994,-0.1258451999999991,0.0392508,0,sub_1
-0.0187280000000002,0.0135352000000012,0.005633,-0.0421349999999994,-0.1184215999999991,0.0395184,0,sub_1
-0.0198596000000001,0.0158082000000012,0.0087364,-0.0293199999999994,-0.1101779999999991,0.0449362,0,sub_1
-0.0205912000000001,0.0185416000000012,0.0152048,-0.0154005999999995,-0.0963865999999991,0.0473628,0,sub_1
-0.0203546000000001,0.0188896000000012,0.0216906,-0.0029503999999995,-0.0776873999999991,0.0491324,0,sub_1
-0.0246156000000002,0.0168090000000012,0.0243794,0.0058382000000004,-0.0604993999999991,0.0528078,0,sub_1
-0.0281532000000001,0.0136972000000012,0.0233892,0.0092996000000004,-0.0475293999999991,0.0504682,0,sub_1
-0.0298652000000001,0.0101010000000012,0.0222256,0.0074778000000004,-0.0327981999999991,0.0384756,0,sub_1
-0.0313238000000001,0.0075798000000012,0.020098,0.0011558000000004,-0.0233743999999991,0.0256042,0,sub_1
-0.0320486000000001,0.0076264000000012,0.0191132,-0.0096585999999995,-0.0215841999999991,0.0075832000000001,0,sub_1
-0.0290618000000001,0.0086354000000012,0.0178432,-0.0223803999999995,-0.0218897999999991,-0.0113093999999998,0,sub_1
-0.0238994000000001,0.0103664000000012,0.0177756,-0.0342527999999995,-0.0190199999999991,-0.0259259999999998,0,sub_1
-0.0185544000000001,0.0114952000000012,0.0166222,-0.0455133999999995,-0.0164015999999991,-0.0368981999999998,0,sub_1
-0.0121010000000001,0.0101756000000012,0.0127196,-0.0538105999999994,-0.0155125999999991,-0.0442149999999998,0,sub_1
-0.0034074000000002,0.0084422000000011,0.0066836,-0.0578599999999994,-0.0157175999999991,-0.0480813999999998,0,sub_1
0.0040235999999997,0.0108854000000011,0.001144,-0.0582927999999994,-0.0159455999999991,-0.0493577999999998,0,sub_1
0.0092445999999997,0.0130214000000011,-0.0019431999999999,-0.0551277999999994,-0.0196079999999991,-0.0473995999999998,0,sub_1
0.0127955999999997,0.0142782000000011,-0.0045417999999999,-0.0483433999999994,-0.0237029999999991,-0.0415771999999999,0,sub_1
0.0136347999999998,0.0168718000000011,-0.0075761999999998,-0.0411373999999994,-0.0278045999999991,-0.0344697999999999,0,sub_1
0.0125453999999998,0.0186266000000011,-0.0098235999999998,-0.0332717999999994,-0.0276473999999991,-0.0273633999999999,0,sub_1
0.0103121999999998,0.0154578000000011,-0.0090601999999998,-0.0262367999999995,-0.0209069999999991,-0.0204733999999999,0,sub_1
0.0091301999999998,0.0119048000000011,-0.0078593999999998,-0.0196037999999995,-0.0122331999999991,-0.0172207999999998,0,sub_1
0.0098207999999998,0.0099052000000011,-0.0055587999999998,-0.0129765999999995,-0.0069595999999991,-0.0161003999999998,0,sub_1
0.0124441999999998,0.0095240000000011,-0.0025671999999999,-0.0063623999999995,-0.0031825999999991,-0.0136961999999998,0,sub_1
0.0143213999999997,0.0090736000000011,0.0004190000000001,-0.0004115999999995,-0.0021823999999991,-0.0089427999999998,0,sub_1
0.0158475999999997,0.0094014000000011,-9.419999999988414e-05,0.0063532000000004,-0.0101139999999991,-0.0026885999999999,0,sub_1
0.0118473999999997,0.0115826000000011,-0.0028867999999998,0.0120420000000004,-0.0182623999999991,0.005481,0,sub_1
0.0065615999999997,0.0137624000000012,-0.0057885999999998,0.0152002000000004,-0.0223437999999991,0.0110636,0,sub_1
-4.560000000021665e-05,0.0143806000000012,-0.0079545999999998,0.0152036000000004,-0.0206621999999991,0.0121424,0,sub_1
-0.0035642000000001,0.0137910000000012,-0.0106119999999999,0.0118300000000004,-0.0153289999999991,0.0087062,0,sub_1
-0.0061018000000001,0.0137042000000012,-0.0109491999999999,0.0046666000000004,-0.0018733999999991,0.0020282000000001,0,sub_1
-0.0028988000000001,0.0120974000000012,-0.0086951999999998,-0.0059139999999995,0.0088328000000008,-0.0068065999999998,0,sub_1
0.0029751999999998,0.0113060000000012,-0.0063637999999998,-0.0169521999999995,0.0144206000000007,-0.0139283999999998,0,sub_1
0.0093007999999998,0.0108524000000012,-0.0050283999999998,-0.0244135999999995,0.0129664000000007,-0.0167553999999998,0,sub_1
0.0118303999999998,0.0115970000000012,-0.0046961999999998,-0.0274261999999995,0.0091344000000008,-0.0148479999999998,0,sub_1
0.0119139999999998,0.0111524000000012,-0.0040637999999998,-0.0242759999999995,0.0029242000000008,-0.0096895999999999,0,sub_1
0.0098199999999998,0.0121044000000011,-0.0039423999999999,-0.0164229999999995,-0.0005359999999991,-0.0036473999999999,0,sub_1
0.0040103999999998,0.0133310000000011,-0.0052649999999999,-0.0068319999999995,0.0013300000000008,0.000904,0,sub_1
0.0008655999999998,0.0127720000000011,-0.0052047999999998,0.0002302000000004,0.0076894000000008,0.002868,0,sub_1
0.0009605999999998,0.0107668000000011,-0.0033507999999998,0.0058092000000004,0.0138512000000008,0.0022582,0,sub_1
0.0035275999999998,0.0099098000000011,-0.0036785999999998,0.0069008000000004,0.0179006000000008,0.0009788,0,sub_1
0.0069375999999998,0.0082900000000012,-0.0052805999999998,0.0035052000000004,0.0198376000000007,-0.0009693999999999,0,sub_1
0.0113323999999998,0.0054200000000012,-0.0056265999999998,-0.0024731999999995,0.0181566000000007,-0.0016483999999999,0,sub_1
0.0113233999999998,0.0042930000000012,-0.0074345999999998,-0.0082503999999995,0.0130684000000007,-0.0029625999999999,0,sub_1
0.0091421999999997,0.0049426000000011,-0.0106099999999998,-0.0144501999999995,0.0069240000000007,-0.0062013999999998,0,sub_1
0.0074891999999997,0.0063022000000011,-0.0128903999999998,-0.0193571999999995,0.0012108000000008,-0.0117819999999998,0,sub_1
0.0079237999999997,0.0075392000000011,-0.0122955999999998,-0.0221175999999995,-0.0021875999999991,-0.0164787999999998,0,sub_1
0.0083563999999997,0.0097766000000011,-0.0095823999999998,-0.0244521999999995,-0.0036785999999991,-0.0190385999999998,0,sub_1
0.0101543999999997,0.0122146000000011,-0.0062113999999999,-0.0278693999999995,-0.0058159999999991,-0.0188277999999998,0,sub_1
0.0123131999999998,0.0147136000000012,-0.0024283999999999,-0.0313205999999995,-0.0111661999999991,-0.0143399999999998,0,sub_1
0.0132393999999998,0.0171846000000012,0.0006164,-0.0322393999999995,-0.0184597999999991,-0.0055589999999998,0,sub_1
0.0116765999999998,0.0174560000000012,0.0019534,-0.0291229999999995,-0.0257607999999991,0.00601,0,sub_1
0.0102807999999998,0.0158662000000012,0.0014096,-0.0208847999999995,-0.0324421999999991,0.018041,0,sub_1
0.0066605999999998,0.0159956000000012,0.0034514,-0.0087887999999995,-0.0353019999999991,0.030094,0,sub_1
-0.0008334000000001,0.0198070000000012,0.00976,0.0031480000000004,-0.0281529999999991,0.0410748,0,sub_1
-0.0089856000000001,0.0209702000000012,0.0163438,0.0097750000000004,-0.0205387999999991,0.04689,0,sub_1
-0.0109994000000001,0.0222424000000011,0.0202512,0.0136082000000004,-0.0209953999999991,0.0488498,0,sub_1
-0.0121674000000001,0.0243340000000011,0.0207488,0.0099656000000004,-0.0222813999999991,0.0516128,0,sub_1
-0.0132064000000001,0.0240612000000011,0.0193978,0.0037502000000004,-0.0244181999999991,0.0562816,0,sub_1
-0.0133206000000001,0.0184500000000011,0.0132688,-0.0001281999999995,-0.0282561999999991,0.0605308,0,sub_1
-0.0150228000000001,0.0138756000000011,0.0071806,0.0009252000000004,-0.0257239999999991,0.0658738,0,sub_1
-0.0217664000000001,0.0091490000000011,0.004717,0.0060868000000005,-0.0146701999999991,0.0678158,0,sub_1
-0.0272876000000002,0.0045494000000011,0.0057496,0.0176846000000004,-0.0051025999999991,0.0625502,0,sub_1
-0.0282896000000002,0.0037112000000012,0.0068238,0.0299528000000004,0.0057632000000008,0.0517324,0,sub_1
-0.0260822000000002,0.0033692000000012,0.010121,0.0366848000000004,0.0162342000000008,0.0378858,0,sub_1
-0.0193590000000002,0.0039466000000012,0.0141162,0.0389134000000005,0.0211840000000008,0.0233746,0,sub_1
-0.0129648000000001,0.0087280000000012,0.0137166,0.0315086000000005,0.0229562000000008,0.0126466000000001,0,sub_1
-0.0084484000000001,0.0145446000000012,0.0120886,0.0208760000000005,0.0238760000000008,0.0050924000000001,0,sub_1
-0.0078980000000001,0.0163910000000012,0.010259,0.0095968000000004,0.0245798000000008,-0.0011839999999998,0,sub_1
-0.0071816000000001,0.0140960000000012,0.0075936,0.0023612000000004,0.0241992000000008,-0.0061491999999998,0,sub_1
-0.0078590000000001,0.0119196000000012,0.003936,-0.0014441999999995,0.0252958000000008,-0.0097981999999998,0,sub_1
-0.0070202000000001,0.0089544000000012,0.0029044,0.0002974000000004,0.0257354000000008,-0.0138347999999998,0,sub_1
-0.0050850000000001,0.0060828000000012,0.003399,0.0035392000000004,0.0272366000000008,-0.0182893999999999,0,sub_1
-0.0013800000000001,0.0049568000000012,0.003896,0.0067762000000004,0.0270360000000008,-0.0233823999999998,0,sub_1
0.0014413999999997,0.0072610000000012,0.002428,0.0063802000000004,0.0262062000000008,-0.0278583999999998,0,sub_1
0.0036913999999997,0.0089256000000012,0.0007182,0.0021260000000004,0.0247478000000008,-0.0323725999999999,0,sub_1
0.0051795999999997,0.0086688000000012,-0.0009403999999999,-0.0048911999999995,0.0237328000000008,-0.0388293999999999,0,sub_1
0.0073579999999997,0.0086870000000011,-0.0007875999999999,-0.0157461999999995,0.0206118000000008,-0.0480873999999999,0,sub_1
0.0109251999999997,0.0070920000000011,0.001379,-0.0289445999999994,0.0183512000000008,-0.0573623999999999,0,sub_1
0.0162345999999997,0.0036680000000011,0.007355,-0.0417433999999994,0.0071428000000008,-0.0655449999999999,0,sub_1
0.0227053999999997,0.0054082000000011,0.0119744,-0.0507767999999994,-0.0181507999999991,-0.0711185999999999,0,sub_1
0.0263955999999997,0.0151568000000011,0.0132508,-0.0575247999999994,-0.0475389999999991,-0.0670565999999999,0,sub_1
0.0243747999999998,0.0238074000000011,0.0101644,-0.0581009999999994,-0.0680507999999991,-0.0503581999999999,0,sub_1
0.0153551999999998,0.0297892000000012,0.0070454,-0.0490685999999994,-0.0788289999999991,-0.0252733999999999,0,sub_1
0.0038977999999998,0.0358650000000012,-0.0010485999999999,-0.0288971999999994,-0.0736825999999991,0.0022084,0,sub_1
-0.0076126000000002,0.0369358000000012,-0.0106827999999999,-0.0037073999999994,-0.0465985999999991,0.0271326,0,sub_1
-0.0124242000000002,0.0280630000000012,-0.0160467999999999,0.0239372000000005,-0.0069149999999991,0.0445862,0,sub_1
-0.0086996000000002,0.0160044000000012,-0.0165315999999999,0.0492622000000005,0.0311038000000008,0.054121,0,sub_1
0.0007709999999998,0.0082580000000012,-0.0182219999999999,0.0664342000000005,0.0536202000000008,0.0580638,0,sub_1
0.0085629999999998,0.0039992000000012,-0.0180225999999998,0.0722380000000005,0.0576618000000008,0.0566106,0,sub_1
0.0147503999999997,-7.57999999987712e-05,-0.0145389999999998,0.0686026000000005,0.0466248000000008,0.051265,0,sub_1
0.0176159999999998,-0.0002177999999987,-0.0098097999999998,0.0589608000000004,0.0273124000000008,0.0407544,0,sub_1
0.0163515999999997,0.0019080000000012,-0.0047011999999998,0.0454774000000004,0.0029198000000008,0.0253096,0,sub_1
0.0138347999999997,0.0032494000000012,0.0002084000000001,0.0305416000000004,-0.0146405999999991,0.007496,0,sub_1
0.0131879999999997,0.0047054000000012,0.0068358000000001,0.0171556000000004,-0.0234613999999991,-0.0096709999999999,0,sub_1
0.0126029999999997,0.0077064000000012,0.0127618000000001,0.0054904000000004,-0.0239995999999991,-0.0217087999999999,0,sub_1
0.0103887999999997,0.0079036000000012,0.0151504,-0.0036367999999995,-0.0213833999999991,-0.0256145999999999,0,sub_1
0.0069583999999998,0.0088550000000012,0.0110946,-0.0087201999999995,-0.0145467999999991,-0.0228745999999999,0,sub_1
0.0029561999999998,0.0091738000000012,0.0026522,-0.0095297999999994,-0.0049613999999991,-0.0186129999999999,0,sub_1
0.0001385999999998,0.0092296000000012,-0.0072859999999999,-0.0064773999999994,0.0124856000000008,-0.0154093999999999,0,sub_1
-0.0012884000000002,0.0073404000000012,-0.0157067999999999,-0.0006211999999994,0.0331314000000008,-0.0153953999999999,0,sub_1
-0.0014466000000002,0.0065576000000012,-0.0214705999999998,0.0080282000000005,0.0544204000000008,-0.0187809999999999,0,sub_1
0.0004255999999997,0.0079290000000012,-0.0239473999999999,0.0158456000000005,0.0731794000000008,-0.0249439999999999,0,sub_1
0.0043045999999997,0.0093504000000012,-0.0228587999999999,0.0200142000000005,0.0862030000000008,-0.0321931999999999,0,sub_1
0.0095981999999997,0.0101816000000012,-0.0197713999999999,0.0198688000000005,0.0902880000000008,-0.0381783999999999,0,sub_1
0.0143611999999997,0.0116630000000012,-0.0137865999999999,0.0182090000000005,0.0924506000000008,-0.0416069999999999,0,sub_1
0.0174835999999997,0.0130228000000012,-0.0057155999999999,0.0129016000000004,0.0933356000000008,-0.0420679999999999,0,sub_1
0.0177863999999997,0.0124530000000011,0.0009776,0.0056210000000004,0.0886694000000008,-0.0410423999999999,0,sub_1
0.0167511999999997,0.0132114000000011,0.0047628,-7.599999999500367e-06,0.0756728000000008,-0.0361487999999999,0,sub_1
0.0139959999999998,0.0157830000000011,0.0045754000000001,-0.0020289999999995,0.0611604000000008,-0.0282375999999999,0,sub_1
0.0097579999999997,0.0179112000000011,0.0004936000000001,-0.0019213999999995,0.0442960000000008,-0.0173161999999999,0,sub_1
0.0043157999999997,0.0174544000000011,-0.0073877999999998,0.0018234000000004,0.0295484000000008,-0.0061591999999999,0,sub_1
-0.0002972000000001,0.0162280000000011,-0.0138257999999998,0.0103168000000005,0.0252300000000008,0.0035216,0,sub_1
-0.0028924000000001,0.0137282000000011,-0.0157649999999998,0.0212430000000005,0.0347724000000008,0.0080738,0,sub_1
-0.0028118000000001,0.0103102000000011,-0.0120995999999998,0.0304994000000004,0.0496590000000008,0.0096164,0,sub_1
-0.0001830000000001,0.0077060000000011,-0.0062893999999998,0.0352632000000004,0.0630718000000008,0.0079230000000001,0,sub_1
0.0072319999999998,0.0075274000000011,0.001609,0.0340244000000004,0.0684180000000008,0.0040626000000001,0,sub_1
0.0140911999999997,0.0071132000000012,0.0060808,0.0269720000000004,0.0639772000000008,0.0018846000000001,0,sub_1
0.0166611999999997,0.0081144000000012,0.0065774,0.0162666000000004,0.0523068000000008,0.0020432000000001,0,sub_1
0.0139537999999997,0.0091860000000012,0.00215,0.0063938000000005,0.0367950000000008,0.0030672000000001,0,sub_1
0.0080773999999998,0.0118782000000011,-0.0043791999999999,0.0010176000000004,0.0246762000000008,0.0041178,0,sub_1
-0.0041376000000001,0.0151826000000011,-0.0116621999999999,-0.0002537999999995,0.0238344000000008,0.005395,0,sub_1
-0.0100796000000001,0.0151040000000011,-0.0125629999999999,0.0036212000000004,0.0251188000000008,0.003286,0,sub_1
-0.0108076000000001,0.0146582000000011,-0.0098943999999999,0.0111094000000004,0.0280806000000008,0.002052,0,sub_1
-0.0070230000000002,0.0149636000000011,-0.0020865999999999,0.0160434000000004,0.0344526000000008,0.0027186,0,sub_1
-0.0027404000000002,0.0132150000000012,0.007865,0.0179706000000004,0.0369984000000008,0.0037968,0,sub_1
0.0045473999999998,0.0111068000000012,0.0176454,0.0207078000000004,0.0267680000000008,0.0053262,0,sub_1
0.0044895999999998,0.0109842000000012,0.0213448,0.0217108000000004,0.0124880000000008,0.0087712,0,sub_1
0.0013701999999998,0.0108900000000012,0.0210342,0.0203706000000004,-0.0034779999999991,0.0096382,0,sub_1
-0.0039016000000001,0.0078270000000012,0.015761,0.0196850000000004,-0.0215553999999991,0.0051708,0,sub_1
-0.0085954000000001,0.0044028000000012,0.0083534,0.0188304000000004,-0.0353487999999991,-0.0048583999999999,0,sub_1
-0.0134896000000001,5.780000000120827e-05,-7.479999999990272e-05,0.0139716000000004,-0.0395317999999991,-0.0200573999999999,0,sub_1
-0.0166280000000001,0.0011490000000012,-0.0059697999999999,0.0049238000000004,-0.0315355999999991,-0.0404291999999999,0,sub_1
-0.0178714000000001,0.0040766000000012,-0.0092153999999999,-0.0064267999999994,-0.0169137999999991,-0.0640303999999999,0,sub_1
-0.0171720000000001,0.0093100000000012,-0.0111479999999999,-0.0190349999999994,0.0034588000000008,-0.0837995999999998,0,sub_1
-0.0127294000000001,0.0117944000000011,-0.0133143999999999,-0.0339891999999995,0.0310552000000008,-0.0965437999999998,0,sub_1
-0.0048188000000001,0.0143980000000011,-0.0147737999999999,-0.0476945999999995,0.0601044000000008,-0.1007345999999998,0,sub_1
0.0076913999999998,0.0157504000000011,-0.0148011999999999,-0.0587095999999994,0.0807938000000008,-0.0946391999999998,0,sub_1
0.0184715999999998,0.0155876000000011,-0.0120941999999999,-0.0666159999999995,0.0903556000000008,-0.0791059999999998,0,sub_1
0.0259675999999998,0.0148854000000011,-0.0075461999999999,-0.0654333999999995,0.0896266000000008,-0.0577297999999999,0,sub_1
0.0254823999999998,0.0171406000000012,-0.0033935999999999,-0.0532303999999995,0.0737262000000008,-0.0347617999999999,0,sub_1
0.0226681999999997,0.0213810000000012,-0.0005629999999999,-0.0340207999999995,0.0458872000000008,-0.0160023999999999,0,sub_1
0.0173991999999997,0.0230192000000011,0.001145,-0.0109425999999995,0.0174162000000008,-0.0019123999999999,0,sub_1
0.0153899999999997,0.0201866000000011,0.0032982,0.0123976000000005,-0.0023115999999991,0.0100314,0,sub_1
0.0114663999999997,0.0154850000000011,0.0043684,0.0259826000000004,-0.0124023999999991,0.0180494,0,sub_1
0.0098103999999997,0.0114854000000011,0.0059008,0.0276722000000004,-0.0145523999999991,0.0219148,0,sub_1
0.0046475999999997,0.0073200000000011,0.0064104,0.0189792000000004,-0.0051421999999991,0.020992,0,sub_1
-0.0051538000000001,0.0037062000000012,0.0063332,0.0049870000000004,0.0109034000000008,0.0166002,0,sub_1
-0.0135534000000001,0.0027864000000012,0.0018424000000001,-0.0109049999999995,0.0237906000000008,0.0045064,0,sub_1
-0.0161038000000001,0.0076616000000011,-0.0026155999999998,-0.0248795999999994,0.0328480000000008,-0.0105605999999999,0,sub_1
-0.0166010000000001,0.0144862000000011,-0.0052209999999998,-0.0339509999999994,0.0425080000000008,-0.0221703999999999,0,sub_1
-0.0132202000000001,0.0194030000000011,-0.0048303999999998,-0.0371063999999994,0.0465780000000008,-0.0262537999999999,0,sub_1
-0.0028746000000001,0.0213774000000011,-0.0035291999999998,-0.0358453999999994,0.0429358000000008,-0.0236719999999999,0,sub_1
0.0071023999999998,0.0229942000000011,-0.0010685999999998,-0.0329275999999994,0.0362724000000008,-0.0129547999999999,0,sub_1
0.0150637999999998,0.0194934000000011,0.0003672000000001,-0.0294083999999995,0.0246920000000008,0.0014056000000001,0,sub_1
0.0229815999999997,0.0122740000000011,-0.0009547999999999,-0.0253125999999995,-0.0011515999999991,0.0138602,0,sub_1
0.0311327999999997,0.0081678000000011,-0.0018877999999999,-0.0201765999999994,-0.0372085999999991,0.0220628,0,sub_1
0.0345877999999997,0.0079882000000011,-0.0023505999999999,-0.0145831999999995,-0.0700567999999991,0.0266322,0,sub_1
0.0309989999999997,0.0105138000000011,-0.0004935999999999,-0.0097809999999995,-0.0890535999999991,0.0311782,0,sub_1
0.0180719999999997,0.0116334000000011,0.0050406,-0.0078811999999995,-0.0878047999999991,0.0369592,0,sub_1
0.0024615999999997,0.0125332000000011,0.0114434,-0.0071753999999995,-0.0675889999999991,0.0424938,0,sub_1
-0.0164340000000002,0.0088774000000011,0.0115044,-0.0072841999999995,-0.0394837999999991,0.0471566,0,sub_1
-0.0314614000000002,0.0035682000000012,0.0093106,-0.0136095999999995,-0.0215679999999991,0.0479434,0,sub_1
-0.0362008000000002,-0.0003703999999987,0.0066072,-0.0189187999999995,-0.0200405999999991,0.0436302,0,sub_1
-0.0316258000000002,0.0040654000000012,0.0054312,-0.0150823999999995,-0.0338501999999991,0.0306414000000001,0,sub_1
-0.0266006000000001,0.0115260000000012,0.0070448,-0.0084825999999995,-0.0504373999999991,0.0172482000000001,0,sub_1
-0.0285702000000001,0.0174246000000012,0.0177712,-0.0022689999999995,-0.0546785999999991,0.0070410000000001,0,sub_1
-0.0339258000000001,0.0223284000000011,0.029052,0.0097298000000005,-0.0495819999999991,0.0009214000000001,0,sub_1
-0.0439404000000001,0.0255276000000011,0.0387216,0.0187844000000005,-0.0340385999999991,-0.0043773999999998,0,sub_1
-0.0468010000000001,0.0218534000000011,0.0438666,0.0159030000000005,-0.0110143999999991,-0.0052837999999999,0,sub_1
-0.0440866000000001,0.0139504000000011,0.043886,0.0079054000000004,0.0133050000000008,-0.0060137999999999,0,sub_1
-0.0303976000000001,0.0098198000000012,0.0377160000000001,-0.0003117999999995,0.0350726000000008,-0.0078091999999999,0,sub_1
-0.0136982000000002,0.0059868000000012,0.0303716,-0.0097853999999995,0.0596246000000008,-0.0121805999999999,0,sub_1
0.0020151999999997,0.0006918000000012,0.0216962000000001,-0.0143599999999994,0.0805214000000007,-0.0158619999999999,0,sub_1
0.0109789999999997,-0.0030443999999987,0.0136502,-0.0110879999999994,0.0890394000000007,-0.0209671999999999,0,sub_1
0.0177811999999997,-0.0016227999999987,0.0075746,-0.0048825999999994,0.0832818000000007,-0.0283837999999999,0,sub_1
0.0226689999999997,0.0014848000000012,0.0042956,-0.0015021999999994,0.0653922000000007,-0.0364449999999999,0,sub_1
0.0243487999999997,0.0064812000000012,0.0033358,-0.0007253999999994,0.0413196000000007,-0.0410981999999999,0,sub_1
0.0221225999999997,0.0140228000000012,0.0022212,-0.0036169999999994,0.0142750000000008,-0.0419375999999998,0,sub_1
0.0159203999999997,0.0210128000000012,-0.0021381999999999,-0.0080043999999994,-0.0078863999999991,-0.0372391999999999,0,sub_1
0.0074331999999998,0.0224684000000011,-0.0075423999999999,-0.0115049999999994,-0.0187751999999991,-0.0284901999999999,0,sub_1
-0.0001686000000001,0.0203802000000011,-0.0122817999999998,-0.0094207999999994,-0.0213957999999991,-0.0179943999999999,0,sub_1
-0.0064040000000001,0.0178952000000011,-0.0155835999999998,-0.0047405999999994,-0.0157179999999991,-0.0070637999999999,0,sub_1
-0.0099364000000001,0.0133394000000011,-0.0171577999999998,-0.0006659999999995,-0.0047021999999991,0.0015052,0,sub_1
-0.0108878000000001,0.0088836000000011,-0.0159971999999998,0.0019166000000004,0.0041986000000008,0.0075028,0,sub_1
-0.0093386000000001,0.0087626000000012,-0.0116871999999998,0.0031908000000004,0.0054400000000008,0.0120056,0,sub_1
-0.0088568000000001,0.0113756000000012,-0.0063423999999998,0.0029360000000004,0.0020084000000008,0.0179892,0,sub_1
-0.0100082000000001,0.0140096000000012,-0.0009649999999998,0.0039514000000004,-0.0037705999999991,0.0237706,0,sub_1
-0.0098846000000001,0.0152120000000012,0.008042,0.0083606000000004,-0.0159443999999991,0.0274472,0,sub_1
-0.0070662000000001,0.0150284000000012,0.0193996,0.0163996000000005,-0.0309119999999991,0.0294558,0,sub_1
-0.0057456000000001,0.0144434000000011,0.0278512,0.0255282000000005,-0.0420433999999991,0.0301854,0,sub_1
-0.0078644000000002,0.0131486000000011,0.031181,0.0300198000000004,-0.0433459999999991,0.027879,0,sub_1
-0.0102736000000002,0.0084608000000011,0.0333666,0.0294416000000004,-0.0380059999999991,0.020614,0,sub_1
-0.0129698000000002,0.0054622000000011,0.03207,0.0257100000000004,-0.0247617999999991,0.0107532,0,sub_1
-0.0165714000000001,0.0046300000000011,0.0269274,0.0171028000000004,-0.0046557999999991,-0.0012995999999998,0,sub_1
-0.0205350000000002,0.0053492000000011,0.0181868,0.0063830000000004,0.0205696000000008,-0.0129471999999998,0,sub_1
