userAcceleration.x,userAcceleration.y,userAcceleration.z,rotationRate.x,rotationRate.y,rotationRate.z,label,subject
-0.0041382000000002,0.0011972000000012,0.0143377999999999,0.0380322000000004,-0.0771871999999993,-0.0169954,0,sub_12
-0.0058882000000002,-0.0004783999999987,0.0165728,0.0363060000000004,-0.0815115999999993,-0.0159054,0,sub_12
-0.0083058000000001,-0.0003261999999987,0.0201976,0.0350392000000004,-0.0778877999999993,-0.0152778,0,sub_12
-0.0095432000000001,-0.0003735999999987,0.0226738,0.0350336000000004,-0.0768319999999993,-0.0129292,0,sub_12
-0.0114864000000001,-0.0017469999999987,0.0258812,0.0367578000000004,-0.0704565999999993,-0.0103616,0,sub_12
-0.0139488000000001,-0.0033075999999987,0.0266664,0.0343906000000004,-0.0734369999999993,-0.0088788,0,sub_12
-0.0165098000000001,-0.0051137999999987,0.0268909999999999,0.0328902000000004,-0.0755597999999993,-0.0095274,0,sub_12
-0.0177394000000001,-0.0073473999999987,0.0268948,0.0292466000000004,-0.0812911999999993,-0.011682,0,sub_12
-0.0163096000000001,-0.0070413999999987,0.0265743999999999,0.0226090000000004,-0.0899887999999993,-0.0153492,0,sub_12
-0.0152210000000001,-0.0055653999999987,0.0238698,0.0161896000000004,-0.0969851999999993,-0.018376,0,sub_12
-0.0142550000000001,-0.0034103999999987,0.020568,0.0132042000000004,-0.0986705999999993,-0.0205312,0,sub_12
-0.0113576000000001,-0.0008281999999987,0.0158682,0.0119490000000004,-0.0935511999999993,-0.020974,0,sub_12
-0.0084256000000001,0.0015402000000012,0.0111888,0.0126226000000004,-0.0852475999999993,-0.0201254,0,sub_12
-0.0074820000000002,0.0011068000000012,0.0093224,0.0161122000000004,-0.0667305999999993,-0.0184156,0,sub_12
-0.0059310000000002,0.0015186000000012,0.0090916,0.0189504000000004,-0.0507681999999993,-0.0167072,0,sub_12
-0.0047392000000002,0.0009708000000012,0.0100434,0.0224172000000004,-0.0369403999999993,-0.0145642,0,sub_12
-0.0051946000000002,0.0007464000000012,0.0134442,0.0252226000000004,-0.0277971999999993,-0.0124198,0,sub_12
-0.0050064000000002,0.0009254000000012,0.0167474,0.0280292000000004,-0.0186533999999993,-0.0104892,0,sub_12
-0.0055528000000002,0.0014498000000012,0.0186442,0.0291038000000004,-0.0146185999999993,-0.0081366,0,sub_12
-0.0062388000000002,0.0007434000000012,0.0204621999999999,0.0306040000000004,-0.0110103999999993,-0.0059942,0,sub_12
-0.0061148000000002,-0.0001929999999987,0.0233211999999999,0.0293390000000004,-0.0065359999999993,-0.0049406,0,sub_12
-0.0050124000000002,-0.0008159999999987,0.0246267999999999,0.0252926000000004,-0.0046051999999993,-0.0047576,0,sub_12
-0.0059678000000002,-0.0012593999999987,0.0241747999999999,0.0203764000000004,-0.0058689999999993,-0.0041492,0,sub_12
-0.0060584000000002,-0.0009683999999987,0.0224737999999999,0.0171954000000004,-0.0060629999999993,-0.0050066,0,sub_12
-0.0052394000000002,0.0002072000000012,0.0201454,0.0150910000000004,-0.0045545999999993,-0.0062858,0,sub_12
-0.0037876000000002,0.0016530000000012,0.0170051999999999,0.0134228000000004,-6.839999999935578e-05,-0.0067112,0,sub_12
-0.0029570000000002,0.0026474000000012,0.0155436,0.0143198000000004,0.0061106000000006,-0.00648,0,sub_12
-0.0022220000000002,0.0030116000000012,0.0145639999999999,0.0152120000000004,0.0103758000000006,-0.007101,0,sub_12
-0.0020436000000002,0.0024638000000012,0.0146719999999999,0.0158646000000004,0.0120822000000006,-0.0081668,0,sub_12
-0.0019988000000002,0.0015380000000012,0.0162171999999999,0.0156618000000004,0.0133656000000006,-0.0092382,0,sub_12
-0.0020424000000002,0.0011688000000012,0.0181537999999999,0.0146046000000004,0.0144390000000006,-0.0103152,0,sub_12
-0.0031722000000002,0.0005062000000012,0.0172167999999999,0.0124814000000004,0.0150926000000006,-0.01204,0,sub_12
-0.0029886000000002,8.000000012060805e-07,0.0175673999999999,0.0114434000000004,0.0187292000000006,-0.0148294,0,sub_12
-0.0017680000000002,0.0004612000000012,0.0189541999999999,0.0095366000000004,0.0195968000000006,-0.0169804,0,sub_12
-0.0004696000000002,0.0015616000000012,0.0184598,0.0048270000000004,0.0136578000000006,-0.0195694,0,sub_12
0.0004439999999997,0.0024130000000012,0.0170104,0.0020406000000004,0.0079270000000006,-0.0225724,0,sub_12
0.0028531999999997,0.0031854000000012,0.0161194,0.0003212000000004,0.0024046000000006,-0.0253548,0,sub_12
0.0049163999999997,0.0043174000000012,0.0135466,-0.0024727999999995,-0.0029085999999993,-0.026222,0,sub_12
0.0059397999999997,0.0049072000000012,0.01065,-0.0028957999999995,-0.0018427999999993,-0.0260126,0,sub_12
0.0067695999999997,0.0042694000000012,0.0089846,-0.0015895999999995,0.0051784000000006,-0.0247306,0,sub_12
0.0067043999999997,0.0037002000000012,0.0079138,-0.0026401999999995,0.0102894000000006,-0.023249,0,sub_12
0.0062675999999997,0.0039288000000012,0.0078594,-0.0041231999999995,0.0136992000000006,-0.0221954,0,sub_12
0.0070425999999997,0.0036052000000012,0.0086312,-0.0036897999999995,0.0156136000000006,-0.0217676,0,sub_12
0.0072171999999997,0.0033394000000012,0.009432,-0.0052035999999995,0.0111448000000006,-0.0217724,0,sub_12
0.0068481999999997,0.0036012000000012,0.0091922,-0.0058649999999995,0.0056112000000006,-0.0226246,0,sub_12
0.0082891999999997,0.0036462000000012,0.009716,-0.0046047999999995,-0.0001405999999993,-0.0238904,0,sub_12
0.0096813999999997,0.0045628000000012,0.0097154,-0.0041961999999995,-0.0041901999999993,-0.0238824,0,sub_12
0.0080239999999997,0.0043390000000012,0.0103942,-0.0046583999999995,-0.0112229999999993,-0.023022,0,sub_12
0.0065147999999997,0.0036974000000012,0.0098286,-0.0042469999999995,-0.0144211999999993,-0.0228014,0,sub_12
0.0056565999999997,0.0032760000000012,0.0079114,-0.0053425999999995,-0.0203847999999993,-0.022374,0,sub_12
0.0040921999999997,0.0029072000000012,0.0064209999999999,-0.0062247999999995,-0.0261367999999993,-0.0217318,0,sub_12
0.0028931999999997,0.0014876000000012,0.0054074,-0.0071109999999995,-0.0331653999999993,-0.0215154,0,sub_12
0.0029403999999997,0.0017256000000012,0.0036138,-0.0096943999999995,-0.0378451999999993,-0.0211002,0,sub_12
0.0020825999999997,0.0024980000000012,0.0016512,-0.0124997999999995,-0.0429563999999993,-0.0191904,0,sub_12
0.0003303999999997,0.0036706000000012,0.001706,-0.0114443999999995,-0.0416969999999993,-0.015339,0,sub_12
-0.0023116000000002,0.0047102000000012,7.040000000001941e-05,-0.0095403999999995,-0.0395961999999993,-0.00956,0,sub_12
-0.0053740000000002,0.0057000000000011,-0.0006819999999999,-0.0039965999999995,-0.0332529999999993,-0.0022654,0,sub_12
-0.0078144000000002,0.0060728000000011,-0.0002037999999999,0.0058444000000004,-0.0194711999999993,0.0059041999999999,0,sub_12
-0.0088240000000001,0.0060120000000011,0.0015741999999999,0.0169848000000004,-0.0014329999999993,0.0140771999999999,0,sub_12
-0.0099060000000001,0.0023294000000012,0.0062423999999999,0.0240942000000004,0.0196106000000006,0.0200817999999998,0,sub_12
-0.0101522000000001,-0.0012291999999987,0.0116305999999999,0.0297512000000004,0.0474866000000006,0.0237175999999998,0,sub_12
-0.0120750000000001,-0.0037559999999987,0.0188129999999999,0.0319560000000004,0.0653672000000006,0.0258463999999998,0,sub_12
-0.0151228000000001,-0.0069177999999987,0.0251413999999999,0.0268234000000004,0.0619796000000006,0.0249603999999998,0,sub_12
-0.0169786000000002,-0.0102869999999987,0.0309453999999999,0.0223464000000004,0.0596646000000006,0.0217275999999998,0,sub_12
-0.0175538000000002,-0.0101433999999987,0.0335625999999999,0.0159788000000004,0.0643852000000006,0.0188997999999998,0,sub_12
-0.0190890000000002,-0.0081307999999987,0.0367468,0.0077032000000004,0.0725188000000006,0.0166949999999998,0,sub_12
-0.0203122000000001,-0.0079179999999987,0.0367218,-0.0044849999999995,0.0642624000000006,0.0140567999999999,0,sub_12
-0.0204422000000001,-0.0071717999999987,0.0317868,-0.0141037999999995,0.0477430000000006,0.0082649999999999,0,sub_12
-0.0153706000000001,-0.0038489999999987,0.027703,-0.0185537999999995,0.0446168000000006,0.0052693999999999,0,sub_12
-0.0147948000000001,-0.0032075999999987,0.0264476,-0.0265041999999995,0.0238134000000006,0.0037675999999999,0,sub_12
-0.0140440000000001,-0.0036931999999987,0.0212158,-0.0334163999999995,-0.0044463999999993,0.0012143999999998,0,sub_12
-0.0123840000000001,-0.0030901999999987,0.0140728,-0.0334315999999995,-0.0182389999999993,-0.0021638000000001,0,sub_12
-0.0092056000000001,-0.0022041999999987,0.0160944,-0.0291517999999995,-0.0152719999999993,-0.0019242000000001,0,sub_12
-0.0128494000000001,-0.0022419999999987,0.0161262,-0.0380217999999995,-0.0431477999999993,-0.0028050000000001,0,sub_12
-0.0105176000000002,0.0005238000000012,0.0105045999999999,-0.0363357999999995,-0.0499629999999993,-0.0049210000000001,0,sub_12
-0.0090554000000002,0.0026674000000012,0.0082087999999999,-0.0297585999999995,-0.0589317999999993,-0.0055044,0,sub_12
-0.0072448000000002,0.0026764000000012,0.0117179999999999,-0.0275253999999995,-0.0630679999999993,-0.0057874,0,sub_12
-0.0057840000000002,0.0034966000000012,0.0107272,-0.0265243999999995,-0.0554861999999993,-0.0050258,0,sub_12
-0.0039820000000002,0.0038846000000012,0.0111832,-0.0203949999999995,-0.0460055999999993,-0.0040172,0,sub_12
-0.0042768000000002,0.0037982000000012,0.0120684,-0.0175629999999995,-0.0584563999999993,-0.0034308,0,sub_12
-0.0024646000000002,0.0042144000000012,0.0127534,-0.0147069999999995,-0.0653687999999993,-0.0026378,0,sub_12
-0.0007688000000002,0.0049504000000012,0.01185,-0.0094197999999995,-0.0734927999999993,-0.0002404,0,sub_12
-0.0006102000000002,0.0053576000000012,0.0134456,-0.0048377999999995,-0.0961019999999993,0.0021705999999999,0,sub_12
0.0001281999999997,0.0055696000000012,0.0151549999999999,0.0025372000000004,-0.1136111999999993,0.0054491999999999,0,sub_12
0.0002691999999997,0.0052226000000012,0.0173514,0.0072688000000004,-0.1367329999999993,0.0099149999999999,0,sub_12
-8.280000000020267e-05,0.0050674000000012,0.0178571999999999,0.0111202000000004,-0.1656049999999993,0.0145955999999999,0,sub_12
0.0003091999999997,0.0049690000000012,0.0174429999999999,0.0165648000000004,-0.1716881999999993,0.0198989999999999,0,sub_12
-0.0020926000000002,0.0019596000000012,0.0183164,0.0214804000000004,-0.1545403999999993,0.0236735999999999,0,sub_12
-0.0051576000000002,0.0002334000000012,0.016704,0.0182526000000004,-0.1494911999999993,0.0231337999999998,0,sub_12
-0.0026448000000002,0.0021570000000012,0.0146617999999999,0.0196488000000004,-0.1249893999999993,0.0218301999999998,0,sub_12
-0.0013508000000002,0.0040922000000012,0.0137791999999999,0.0212728000000004,-0.0947461999999993,0.0230847999999998,0,sub_12
-0.0030042000000002,0.0041314000000012,0.0120401999999999,0.0187080000000004,-0.0844089999999993,0.0229183999999998,0,sub_12
0.0005813999999997,0.0052716000000012,0.0079127999999999,0.0173878000000004,-0.0832323999999993,0.0214903999999998,0,sub_12
0.0056703999999997,0.0046232000000012,0.0064963999999999,0.0205914000000004,-0.0701499999999993,0.0224289999999998,0,sub_12
0.0057683999999997,0.0024230000000012,0.0093263999999999,0.0203564000000004,-0.0628071999999993,0.0231371999999998,0,sub_12
0.0051881999999997,-0.0008223999999987,0.0112465999999999,0.0153878000000004,-0.0675781999999993,0.0204093999999999,0,sub_12
0.0063221999999997,-0.0014029999999987,0.0123038,0.0132550000000004,-0.0709649999999993,0.0167667999999999,0,sub_12
0.0060751999999997,0.0008872000000012,0.0138079999999999,0.0106774000000004,-0.0760641999999993,0.0154735999999999,0,sub_12
0.0038031999999997,0.0029288000000012,0.0157987999999999,0.0081342000000004,-0.0705225999999993,0.0171577999999999,0,sub_12
-0.0007314000000002,0.0033472000000012,0.0134617999999999,0.0055420000000004,-0.0654521999999993,0.0197155999999998,0,sub_12
-0.0035130000000002,0.0040058000000012,0.0113485999999999,0.0096094000000004,-0.0510281999999993,0.0216669999999998,0,sub_12
-0.0044258000000002,0.0049418000000012,0.0113484,0.0145150000000004,-0.0393793999999993,0.0242687999999998,0,sub_12
-0.0044294000000002,0.0030344000000012,0.0142066,0.0181460000000004,-0.0258111999999993,0.0274999999999998,0,sub_12
-0.0063984000000002,0.0014968000000012,0.014028,0.0183498000000004,-0.0166991999999993,0.0292175999999999,0,sub_12
-0.0064920000000001,0.0010426000000012,0.01547,0.0209554000000004,-0.0069067999999993,0.0290095999999999,0,sub_12
-0.0058710000000001,0.0007124000000012,0.01663,0.0207756000000004,0.0007630000000006,0.0292121999999999,0,sub_12
-0.0057090000000001,-0.0004971999999987,0.0185558,0.0195864000000004,0.0218564000000006,0.0300313999999998,0,sub_12
-0.0072266000000001,0.0006054000000012,0.0152296,0.0162890000000004,0.0395750000000006,0.0304267999999998,0,sub_12
-0.0061896000000001,0.0005016000000012,0.014687,0.0168302000000004,0.0547322000000006,0.0287157999999998,0,sub_12
-0.0045428000000002,-0.0015229999999987,0.0168427999999999,0.0119920000000004,0.0594700000000006,0.0265533999999998,0,sub_12
-0.0026244000000002,-0.0028487999999987,0.0214386,0.0028864000000004,0.0657082000000006,0.0258545999999999,0,sub_12
-0.0039260000000002,-0.0028495999999987,0.0237791999999999,-0.0092821999999995,0.0561866000000006,0.0262229999999998,0,sub_12
-0.0072056000000002,-0.0036465999999987,0.0267521999999999,-0.0180889999999995,0.0432210000000006,0.0261779999999998,0,sub_12
-0.0101386000000002,-0.0021349999999987,0.0263857999999999,-0.0234825999999995,0.0321524000000006,0.0282909999999998,0,sub_12
-0.0129868000000002,-0.0002105999999987,0.0227688,-0.0228577999999995,0.0336220000000006,0.0332071999999998,0,sub_12
-0.0152364000000002,0.0016716000000012,0.0193102,-0.0190027999999995,0.0429582000000006,0.0394179999999998,0,sub_12
-0.0147704000000002,0.0025538000000012,0.0168281999999999,-0.0127535999999995,0.0631502000000006,0.0460587999999998,0,sub_12
-0.0129080000000002,0.0035370000000011,0.013193,-0.0077721999999995,0.0869652000000006,0.0535407999999999,0,sub_12
-0.0113368000000001,0.0023698000000011,0.0122063999999999,-0.0032127999999995,0.1112102000000006,0.0603781999999998,0,sub_12
-0.0102104000000001,0.0009682000000011,0.0141026,-0.0016749999999995,0.1265226000000006,0.0659241999999999,0,sub_12
-0.0117084000000001,-0.0012577999999987,0.0149618,-0.0044793999999995,0.1224732000000006,0.0686871999999999,0,sub_12
-0.0126668000000001,-0.0028063999999987,0.0157222,-0.0079133999999995,0.1184354000000006,0.0690955999999999,0,sub_12
-0.0139476000000001,-0.0043383999999987,0.0181972,-0.0143107999999995,0.1195220000000006,0.0692629999999999,0,sub_12
-0.0157432000000002,-0.0039961999999987,0.0198067999999999,-0.0236675999999995,0.1270100000000006,0.0696153999999999,0,sub_12
-0.0188898000000001,-0.0032347999999987,0.0183385999999999,-0.0323159999999995,0.1426216000000006,0.0699617999999998,0,sub_12
-0.0203394000000001,-0.0035991999999987,0.0168993999999999,-0.0374927999999995,0.1707924000000006,0.0701027999999999,0,sub_12
-0.0218562000000001,-0.0045645999999987,0.0167524,-0.0441631999999995,0.1991806000000006,0.0704467999999998,0,sub_12
-0.0217162000000001,-0.0053629999999987,0.0173122,-0.0514879999999995,0.2228898000000006,0.0692967999999999,0,sub_12
-0.0206972000000001,-0.0062021999999987,0.018218,-0.0611829999999995,0.2404328000000006,0.0670697999999999,0,sub_12
-0.0193040000000001,-0.0073731999999987,0.0188046,-0.0724293999999995,0.2521988000000006,0.0648397999999999,0,sub_12
-0.0191426000000001,-0.0070463999999987,0.017377,-0.0853761999999995,0.2639766000000006,0.0611021999999999,0,sub_12
-0.0184458000000001,-0.0049449999999987,0.0149054,-0.0940189999999995,0.2842598000000006,0.0578111999999999,0,sub_12
-0.0182728000000001,-0.0034737999999987,0.0130789999999999,-0.1007501999999995,0.3045288000000006,0.0564563999999998,0,sub_12
-0.0176110000000001,-0.0035841999999987,0.0103967999999999,-0.1070669999999995,0.3226634000000006,0.0557479999999998,0,sub_12
-0.0155788000000002,-0.0031555999999987,0.0104715999999999,-0.1112357999999994,0.3429252000000006,0.0539837999999998,0,sub_12
-0.0124992000000002,-0.0039977999999987,0.0145773999999999,-0.1160809999999994,0.3540680000000006,0.0524233999999999,0,sub_12
-0.0081584000000002,-0.0058125999999987,0.0191184,-0.1254695999999994,0.3490440000000007,0.0485017999999998,0,sub_12
-0.0041056000000002,-0.0068415999999987,0.0222232,-0.1376721999999995,0.3335960000000006,0.0430783999999999,0,sub_12
-0.0028228000000002,-0.0074397999999987,0.0257361999999999,-0.1492433999999995,0.3166526000000006,0.0380887999999999,0,sub_12
-0.0038074000000002,-0.0085109999999987,0.0279987999999999,-0.1608459999999995,0.2937394000000006,0.0341747999999999,0,sub_12
-0.0047802000000002,-0.0085077999999987,0.0272965999999999,-0.1720247999999994,0.2722718000000007,0.0311331999999999,0,sub_12
-0.0064940000000002,-0.0068939999999987,0.0239271999999999,-0.1793425999999995,0.2561136000000006,0.0289663999999999,0,sub_12
-0.0069966000000001,-0.0039535999999987,0.0191333999999999,-0.1789359999999994,0.2486672000000006,0.0259877999999998,0,sub_12
-0.0045116000000002,0.0020322000000012,0.0136145999999999,-0.1731805999999995,0.2427002000000006,0.0213353999999998,0,sub_12
0.0036119999999997,0.0094164000000012,0.0055279999999999,-0.1644375999999994,0.2475670000000006,0.0174143999999998,0,sub_12
0.0124021999999998,0.0173582000000012,-1.6000000000007328e-06,-0.1494579999999995,0.2666732000000006,0.0169373999999998,0,sub_12
0.0183851999999998,0.0208936000000012,-0.002917,-0.1364389999999995,0.2791720000000006,0.0188049999999998,0,sub_12
0.0243315999999997,0.0210698000000012,-0.0039412,-0.1234639999999994,0.2833558000000006,0.0221783999999998,0,sub_12
0.0276133999999998,0.0176122000000012,-0.0029619999999999,-0.1107877999999994,0.2694274000000006,0.0264275999999998,0,sub_12
0.0234019999999998,0.0136450000000012,0.0013244,-0.1002399999999994,0.2438186000000005,0.0278159999999999,0,sub_12
0.0164545999999998,0.0088106000000012,0.003935,-0.0916565999999994,0.2022622000000006,0.0230151999999999,0,sub_12
0.0105587999999997,0.0064742000000012,0.0067888,-0.0830435999999994,0.1637032000000006,0.0145789999999999,0,sub_12
0.0038577999999997,0.0042202000000012,0.0113167999999999,-0.0799483999999995,0.1292218000000006,0.0035353999999999,0,sub_12
0.0016621999999997,0.0039902000000012,0.0164501999999999,-0.0825365999999995,0.1113812000000006,-0.0082102,0,sub_12
0.0068677999999997,0.0054042000000012,0.0201613999999999,-0.0855497999999995,0.0984244000000006,-0.0154786,0,sub_12
0.0118247999999997,0.0094620000000012,0.0217443999999999,-0.0892249999999995,0.0867234000000006,-0.0165574,0,sub_12
0.0143151999999998,0.0136798000000012,0.0182647999999999,-0.0864921999999995,0.0811598000000006,-0.0128992000000001,0,sub_12
0.0172587999999998,0.0215364000000012,0.0094933999999999,-0.0735167999999995,0.0810784000000006,-0.0038354000000001,0,sub_12
0.0200699999999998,0.0271880000000012,-0.0032414,-0.0520419999999995,0.0762674000000006,0.0084983999999998,0,sub_12
0.0206959999999998,0.0296476000000012,-0.0139215999999999,-0.0228597999999995,0.0752722000000006,0.0189585999999999,0,sub_12
0.0236909999999998,0.0287136000000012,-0.0195551999999999,0.0103784000000004,0.0736280000000006,0.0283795999999999,0,sub_12
0.0238957999999997,0.0234352000000012,-0.0166785999999999,0.0341562000000004,0.0547642000000006,0.0364747999999999,0,sub_12
0.0222539999999997,0.0145670000000012,-0.0110354,0.0451240000000004,0.0297846000000006,0.0400017999999999,0,sub_12
0.0169189999999998,0.0057648000000012,-0.0029672,0.0521290000000004,0.0199664000000006,0.0383541999999999,0,sub_12
0.0105013999999997,-0.0013513999999987,0.0051441999999999,0.0507846000000004,0.0012402000000006,0.0338821999999999,0,sub_12
0.0013913999999997,-0.0054259999999987,0.0103887999999999,0.0415424000000004,-0.0208563999999993,0.0265819999999998,0,sub_12
-0.0051440000000002,-0.0084885999999987,0.0077121999999999,0.0332362000000004,-0.0246331999999993,0.0192647999999998,0,sub_12
-0.0138294000000002,-0.0123271999999987,0.0033633999999999,0.0275384000000004,-0.0167053999999993,0.0130189999999998,0,sub_12
-0.0233170000000002,-0.0108901999999987,-0.0013424,0.0169158000000004,-0.0121709999999993,0.0071705999999998,0,sub_12
-0.0313176000000002,-0.0102725999999987,-0.0053446,0.0099972000000004,0.0085460000000006,0.0004727999999998,0,sub_12
-0.0350630000000002,-0.0093587999999987,-0.0064134,0.0062754000000004,0.0279754000000006,-0.0066284,0,sub_12
-0.0307588000000002,-0.0051519999999987,-0.0042424,0.0033744000000004,0.0416434000000006,-0.012221,0,sub_12
-0.0215086000000002,-0.0003353999999987,0.0010301999999999,0.0047362000000004,0.0584752000000006,-0.0135148,0,sub_12
-0.0101432000000002,5.260000000124661e-05,0.0082631999999999,0.0094544000000004,0.0663316000000006,-0.0109282,0,sub_12
-0.0021434000000002,0.0017048000000012,0.0131413999999999,0.0059858000000004,0.0620510000000006,-0.0030422,0,sub_12
-0.0010934000000002,-0.0007415999999987,0.0136764,-0.0012119999999995,0.0756808000000006,0.0058431999999999,0,sub_12
-0.0076272000000002,-0.0033499999999987,0.0138749999999999,-0.0075341999999995,0.0878418000000006,0.0083271999999999,0,sub_12
-0.0129830000000002,-0.0036009999999987,0.0128543999999999,-0.0153921999999995,0.0846922000000005,0.0048379999999999,0,sub_12
-0.0159398000000002,-0.0023903999999987,0.0090581999999999,-0.0240923999999995,0.0832532000000006,0.0004861999999999,0,sub_12
-0.0174462000000002,-0.0014113999999987,0.0040235999999999,-0.0284703999999995,0.0941556000000005,-0.0036376,0,sub_12
-0.0151876000000002,0.0011312000000012,-0.0007408,-0.0294729999999995,0.1050386000000005,-0.007077,0,sub_12
-0.0077568000000002,0.0037878000000012,-0.0035432,-0.0262023999999995,0.1214290000000006,-0.0062206,0,sub_12
-0.0017884000000002,0.0065872000000012,-0.0054349999999999,-0.0242025999999994,0.1444106000000006,-0.000895,0,sub_12
0.0013427999999997,0.0049650000000012,-0.0045339999999999,-0.0196171999999994,0.1739838000000006,0.0055083999999998,0,sub_12
0.0034475999999997,0.0026554000000012,-0.0029227999999999,-0.0159657999999994,0.1835414000000006,0.0097945999999998,0,sub_12
0.0076591999999997,-0.0008299999999987,-0.0009721999999999,-0.0106477999999995,0.1852060000000006,0.0151707999999998,0,sub_12
0.0063085999999997,-0.0023995999999987,-0.0012525999999999,-0.0099429999999995,0.1579092000000005,0.0209791999999998,0,sub_12
0.0045427999999997,0.0003532000000012,-0.0001706,-0.0082199999999995,0.1161356000000005,0.0231811999999998,0,sub_12
0.0007909999999997,0.0053492000000012,-0.0065683999999999,-0.0060463999999995,0.0779892000000006,0.0236725999999998,0,sub_12
-0.0010904000000002,0.0076472000000012,-0.0103515999999999,0.0026118000000004,0.0575074000000006,0.0233319999999998,0,sub_12
-0.0028606000000002,0.0110778000000011,-0.0119251999999999,0.0116716000000004,0.0306358000000006,0.0221477999999998,0,sub_12
0.0020397999999997,0.0130232000000011,-0.0120069999999999,0.0229266000000004,0.0199386000000006,0.0235219999999999,0,sub_12
0.0056763999999997,0.0094806000000011,-0.0138069999999999,0.0352964000000004,0.0239220000000006,0.0289443999999999,0,sub_12
0.0057945999999998,0.0074382000000011,-0.0065445999999999,0.0420964000000004,0.0204782000000006,0.0317735999999999,0,sub_12
0.0031403999999998,0.0049316000000012,-0.0036399999999999,0.0403184000000004,0.0053548000000006,0.0324213999999999,0,sub_12
0.0019297999999998,0.0022884000000012,-6.299999999998199e-05,0.0392094000000004,-0.0063499999999993,0.0300785999999999,0,sub_12
-0.0009036000000001,0.0011418000000012,0.0039324,0.0361954000000004,-0.0178221999999993,0.0245173999999999,0,sub_12
-0.0054202000000001,0.0007644000000012,0.0079252,0.0282900000000004,-0.0275651999999993,0.0169971999999999,0,sub_12
-0.0071920000000002,-0.0029117999999987,0.0057444,0.0214650000000004,-0.0317827999999993,0.0120411999999999,0,sub_12
-0.0067150000000002,-0.0032461999999987,0.0086548,0.0199964000000004,-0.0334529999999993,0.0047691999999999,0,sub_12
