userAcceleration.x,userAcceleration.y,userAcceleration.z,rotationRate.x,rotationRate.y,rotationRate.z,label,subject
-0.0199896000000002,-0.0012745999999987,0.0222345999999999,0.0127426000000004,-0.0264523999999991,-0.0046827999999999,0,sub_17
-0.0183428000000002,-0.0048133999999987,0.0338161999999999,0.0132362000000004,-0.0136077999999991,-0.0057581999999999,0,sub_17
-0.0147382000000001,-0.0070199999999987,0.0408443999999999,0.0100576000000004,-0.0086963999999991,-0.0057865999999999,0,sub_17
-0.0130104000000001,-0.0082901999999986,0.0427433999999999,0.0066188000000005,-0.0142237999999991,-0.0058035999999999,0,sub_17
-0.0105858000000001,-0.0076741999999986,0.0385191999999999,0.0016644000000005,-0.0248583999999991,-0.0060381999999999,0,sub_17
-0.0088948000000001,-0.0056843999999987,0.0308287999999999,-0.0030533999999994,-0.0291655999999991,-0.0049809999999999,0,sub_17
-0.0100042000000001,-0.0020771999999987,0.0218145999999999,-0.0047399999999994,-0.0234705999999991,-0.0037015999999999,0,sub_17
-0.0148000000000001,0.0003692000000012,0.0170071999999999,-0.0017275999999994,-0.0171511999999991,-0.0028175999999999,0,sub_17
-0.0180060000000001,0.0023128000000012,0.0148763999999999,0.0036328000000005,-0.0123245999999991,-0.0036243999999999,0,sub_17
-0.0174878000000001,0.0028468000000012,0.0169177999999999,0.0092056000000005,-0.0081361999999991,-0.0048561999999999,0,sub_17
-0.0161368000000002,0.0032430000000012,0.0200917999999999,0.0173414000000005,-0.0034715999999991,-0.0063007999999999,0,sub_17
-0.0138992000000002,0.0011452000000012,0.0255843999999999,0.0248220000000005,-0.0024255999999991,-0.0079589999999999,0,sub_17
-0.0095684000000002,-0.0037351999999987,0.0316491999999999,0.0256618000000005,-0.0030457999999991,-0.0087899999999999,0,sub_17
-0.0059888000000001,-0.0073377999999987,0.0375319999999999,0.0205186000000005,-0.0040771999999991,-0.0081667999999999,0,sub_17
-0.0061882000000001,-0.0091597999999987,0.0399841999999999,0.0136616000000005,-0.0063817999999991,-0.0073401999999999,0,sub_17
-0.0074422000000001,-0.0091421999999987,0.0380429999999999,0.0059234000000005,-0.0146495999999991,-0.0062985999999999,0,sub_17
-0.0095464000000001,-0.0083547999999987,0.0341287999999999,-0.0015871999999994,-0.0190859999999991,-0.0046193999999999,0,sub_17
-0.0121370000000001,-0.0052031999999987,0.0282355999999999,-0.0056411999999994,-0.0184353999999991,-0.0040075999999999,0,sub_17
-0.0141856000000002,-0.0026261999999987,0.0220291999999999,-0.0054077999999994,-0.0135375999999991,-0.0035847999999999,0,sub_17
-0.0159302000000002,-0.0007705999999987,0.0166485999999999,-0.0034575999999994,-0.0067273999999991,-0.0033663999999999,0,sub_17
-0.0149768000000002,-0.0007813999999987,0.0175645999999999,-0.0008539999999994,0.0026388000000008,-0.0035737999999999,0,sub_17
-0.0132366000000001,-0.0010993999999987,0.0206897999999999,0.0010840000000004,0.0066842000000008,-0.0041869999999999,0,sub_17
-0.0109372000000001,-0.0022583999999987,0.0252237999999999,0.0021348000000004,0.0041246000000008,-0.0039433999999999,0,sub_17
-0.0089892000000001,-0.0033649999999986,0.0282743999999999,0.0018872000000004,-0.0018419999999991,-0.0030636,0,sub_17
-0.0089750000000001,-0.0033485999999986,0.0300823999999999,0.0009926000000004,-0.0086611999999991,-0.0015462,0,sub_17
-0.0113564000000001,-0.0038379999999987,0.0286969999999999,-0.0007455999999995,-0.0144077999999991,-0.0011042,0,sub_17
-0.0133492000000001,-0.0038879999999987,0.0259917999999999,-0.0020363999999994,-0.0169591999999991,-0.0013236,0,sub_17
-0.0145610000000001,-0.0033871999999986,0.0233417999999999,-0.0024467999999994,-0.0139723999999991,-0.0019712,0,sub_17
-0.0152540000000002,-0.0024267999999987,0.0228489999999999,-0.0026379999999994,-0.0103445999999991,-0.0032589999999999,0,sub_17
-0.0143062000000002,-0.0026983999999987,0.0228371999999999,-0.0024237999999994,-0.0084139999999991,-0.0043141999999999,0,sub_17
-0.0128424000000002,-0.0021009999999987,0.0238483999999999,-0.0011581999999994,-0.0092593999999991,-0.0047175999999999,0,sub_17
-0.0118822000000002,-0.0021139999999987,0.0253621999999999,0.0005314000000005,-0.0103209999999991,-0.0046903999999999,0,sub_17
-0.0123720000000002,-0.0029829999999987,0.0275073999999999,0.0017942000000004,-0.0111689999999991,-0.0044527999999999,0,sub_17
-0.0135968000000002,-0.0042693999999987,0.0285199999999999,0.0022084000000004,-0.0103121999999991,-0.0035825999999999,0,sub_17
-0.0154384000000002,-0.0042413999999987,0.0292177999999999,0.0015750000000004,-0.0079697999999991,-0.0027353999999999,0,sub_17
-0.0175376000000002,-0.0049295999999987,0.0290837999999999,-0.0003221999999995,-0.0026375999999991,-0.0025419999999999,0,sub_17
-0.0180134000000002,-0.0053917999999987,0.0285947999999999,-0.0020155999999994,0.0045996000000007,-0.0025439999999999,0,sub_17
-0.0178440000000002,-0.0045987999999987,0.0266099999999999,-0.0039183999999994,0.0124776000000007,-0.0027619999999999,0,sub_17
-0.0166946000000001,-0.0037865999999987,0.0253273999999999,-0.0049763999999994,0.0184352000000007,-0.0029713999999999,0,sub_17
-0.0145816000000001,-0.0032935999999987,0.0243399999999999,-0.0047617999999994,0.0226838000000008,-0.0031697999999999,0,sub_17
-0.0115890000000001,-0.0020211999999987,0.0236221999999999,-0.0041435999999994,0.0230908000000008,-0.0020785999999999,0,sub_17
-0.0100658000000001,-0.0007309999999987,0.0224753999999999,-0.0028871999999995,0.0194576000000008,-0.0003559999999999,0,sub_17
-0.0092344000000001,-0.0010329999999987,0.0229231999999999,-0.0014251999999995,0.0139070000000008,0.001157,0,sub_17
-0.0088018000000001,-0.0011959999999987,0.0233739999999999,4.720000000049459e-05,0.0102756000000008,0.0022402,0,sub_17
-0.0086588000000002,-0.0020099999999987,0.0242925999999999,0.0002414000000004,0.0068626000000007,0.0031004,0,sub_17
-0.0094834000000002,-0.0028277999999987,0.0250845999999999,0.0001838000000005,0.0027532000000007,0.0033454,0,sub_17
-0.0108302000000001,-0.0037073999999987,0.0265643999999999,-0.0002899999999994,0.0003522000000007,0.0029444,0,sub_17
-0.0110606000000001,-0.0034427999999987,0.0271595999999999,0.0007316000000005,-0.0016277999999991,0.0025532,0,sub_17
-0.0117922000000001,-0.0033115999999987,0.0270175999999999,0.0019610000000005,-0.0048869999999991,0.002165,0,sub_17
-0.0126920000000001,-0.0025757999999987,0.0267019999999999,0.0036162000000005,-0.0081483999999991,0.0019936,0,sub_17
-0.0142750000000001,-0.0026467999999987,0.0265803999999999,0.0053310000000005,-0.0062377999999991,0.0022167999999999,0,sub_17
-0.0145018000000001,-0.0028979999999987,0.0266651999999999,0.0070524000000005,-0.0034721999999991,0.0017979999999999,0,sub_17
-0.0148850000000001,-0.0032657999999987,0.0263299999999999,0.0072744000000005,-0.0015555999999991,0.0017969999999999,0,sub_17
-0.0145100000000001,-0.0032479999999986,0.0269025999999999,0.0070420000000004,0.0009010000000008,0.0022461999999999,0,sub_17
-0.0144326000000001,-0.0029485999999986,0.0273535999999999,0.0068154000000004,0.0044238000000008,0.0024804,0,sub_17
-0.0135558000000001,-0.0031457999999986,0.0271599999999999,0.0067868000000004,0.0041126000000008,0.0022936,0,sub_17
-0.0131688000000001,-0.0028709999999986,0.0262691999999999,0.0065410000000004,0.0035864000000008,0.0027464,0,sub_17
-0.0134290000000001,-0.0024425999999987,0.0258293999999999,0.0065202000000004,0.0058284000000008,0.003411,0,sub_17
-0.0139124000000001,-0.0027577999999987,0.0248959999999999,0.0065356000000005,0.0094494000000007,0.0036202,0,sub_17
-0.0135208000000001,-0.0032645999999987,0.0242813999999999,0.0067548000000005,0.0107268000000008,0.0036202,0,sub_17
-0.0130206000000001,-0.0035521999999987,0.0242677999999999,0.0067466000000005,0.0129486000000008,0.0038548,0,sub_17
-0.0136284000000001,-0.0034003999999987,0.0245445999999999,0.0065240000000005,0.0151704000000008,0.0043013999999999,0,sub_17
-0.0140732000000001,-0.0035715999999986,0.0245649999999999,0.0065168000000005,0.0171810000000008,0.004109,0,sub_17
-0.0131974000000002,-0.0031875999999986,0.0245409999999999,0.0065096000000005,0.0191916000000008,0.0039163999999999,0,sub_17
-0.0119720000000001,-0.0031725999999986,0.0242777999999999,0.0071368000000005,0.0201340000000008,0.0039431999999999,0,sub_17
-0.0122600000000001,-0.0021785999999986,0.0239371999999999,0.0082008000000005,0.0199156000000008,0.0043782,0,sub_17
-0.0119412000000001,-0.0024307999999986,0.0234507999999999,0.0084076000000005,0.0182114000000007,0.0041681999999999,0,sub_17
-0.0117538000000001,-0.0026745999999987,0.0230831999999999,0.0084008000000005,0.0160836000000007,0.0035297999999999,0,sub_17
-0.0116522000000001,-0.0029801999999987,0.0231417999999999,0.0083882000000004,0.0144422000000008,0.0027,0,sub_17
-0.0121092000000001,-0.0024255999999987,0.0234753999999999,0.0077382000000004,0.0140788000000008,0.002505,0,sub_17
-0.0121472000000001,-0.0023413999999987,0.0238147999999999,0.0066644000000004,0.0137194000000008,0.0016659999999999,0,sub_17
-0.0112996000000001,-0.0032231999999987,0.0234219999999999,0.0060088000000004,0.0114410000000008,0.0008325999999999,0,sub_17
-0.0099782000000001,-0.0032917999999987,0.0230971999999999,0.0055666000000004,0.0097984000000008,0.0006408,0,sub_17
-0.0113044000000002,-0.0027687999999987,0.0221425999999999,0.0047074000000005,0.0091598000000008,0.0012766,0,sub_17
-0.0129910000000002,-0.0025589999999987,0.0210515999999999,0.0040702000000005,0.0089522000000008,0.0004178,0,sub_17
-0.0124562000000002,-0.0032027999999987,0.0197893999999999,0.0045046000000005,0.0089576000000008,-0.0012883999999999,0,sub_17
-0.0119288000000002,-0.0024945999999987,0.0195357999999999,0.0051648000000005,0.0121562000000008,-0.0025697999999999,0,sub_17
-0.0113068000000002,-0.0014125999999987,0.0197589999999999,0.0051796000000005,0.0151538000000008,-0.0032011999999999,0,sub_17
-0.0098192000000002,-0.0016027999999987,0.0205217999999999,0.0041112000000005,0.0143208000000008,-0.0040489999999999,0,sub_17
-0.0069854000000002,-0.0018493999999987,0.0208509999999999,0.0032456000000005,0.0115682000000008,-0.0044653999999999,0,sub_17
-0.0054386000000002,-0.0005955999999987,0.0204385999999999,0.0017286000000005,0.0085952000000008,-0.0025359999999999,0,sub_17
-0.0060656000000001,0.0002380000000012,0.0194115999999999,0.0002000000000005,0.0032778000000008,-0.0003901999999999,0,sub_17
-0.0079930000000001,0.0003164000000012,0.0183925999999999,-0.0006783999999994,-0.0009853999999991,0.000891,0,sub_17
-0.0092606000000001,6.100000000131539e-05,0.0175929999999999,0.0003856000000005,-0.0009915999999991,0.0015394,0,sub_17
-0.0108836000000001,-0.0006355999999987,0.0173881999999999,0.0005894000000005,7.940000000081267e-05,0.0023975999999999,0,sub_17
-0.0112956000000001,-0.0017779999999987,0.0181503999999999,0.0007930000000005,8.960000000081265e-05,0.0021889999999999,0,sub_17
-0.0102920000000002,-0.0015203999999987,0.0198833999999999,0.0014292000000004,0.0018010000000008,0.0024086,0,sub_17
-0.0093634000000002,-0.0016683999999987,0.0204623999999999,0.0009804000000004,-0.0009563999999991,0.0021988,0,sub_17
-0.0082432000000002,-0.0015711999999987,0.0202797999999999,-0.0001237999999995,-0.0071203999999991,0.001989,0,sub_17
-0.0079696000000002,-0.0009165999999987,0.0195097999999999,0.0004992000000004,-0.0105331999999991,0.0024249999999999,0,sub_17
-0.0080288000000002,-0.0005145999999987,0.0191177999999999,0.0004916000000004,-0.0118133999999991,0.0028537999999999,0,sub_17
-0.0077824000000002,-0.0004747999999987,0.0180943999999999,0.0009002000000004,-0.0156505999999991,0.0030751999999999,0,sub_17
-0.0067646000000002,0.0002576000000012,0.0175913999999999,0.0029830000000004,-0.0199441999999991,0.0054399999999999,0,sub_17
-0.0080126000000002,0.0016162000000012,0.0168761999999999,0.0076128000000004,-0.0265927999999991,0.0084663999999999,0,sub_17
-0.0099184000000002,0.0029886000000012,0.0164023999999999,0.0118062000000004,-0.0366437999999991,0.0102121999999999,0,sub_17
-0.0133714000000002,0.0045714000000012,0.0149693999999999,0.0209016000000005,-0.0490511999999991,0.0109272,0,sub_17
-0.0166856000000002,0.0036736000000012,0.0154641999999999,0.0334376000000005,-0.0565661999999991,0.0105916,0,sub_17
-0.0198906000000002,0.0009966000000012,0.0190277999999999,0.0445492000000005,-0.0551049999999991,0.0085308,0,sub_17
-0.0212554000000002,-0.0034851999999987,0.0244055999999999,0.0503544000000005,-0.0491443999999991,0.0047182,0,sub_17
-0.0202820000000002,-0.0097891999999987,0.0320135999999999,0.0506378000000005,-0.0371995999999991,0.001073,0,sub_17
-0.0165092000000002,-0.0155977999999987,0.0403157999999999,0.0404784000000005,-0.0209631999999991,-0.0011551999999999,0,sub_17
-0.0134172000000002,-0.0179455999999987,0.0449385999999999,0.0208704000000005,-0.0098603999999991,-0.0019585999999999,0,sub_17
-0.0107146000000002,-0.0159429999999987,0.0448325999999999,0.0005754000000005,-0.0087705999999991,-0.0023265999999999,0,sub_17
-0.0085038000000002,-0.0123693999999987,0.0401253999999999,-0.0163173999999994,-0.0089759999999991,-0.0013873999999999,0,sub_17
-0.0072772000000002,-0.0059173999999987,0.0307917999999999,-0.0272481999999994,-0.0098499999999991,0.0017308,0,sub_17
-0.0110960000000002,-0.0004177999999987,0.0222449999999999,-0.0302535999999994,-0.0030851999999991,0.0057489999999999,0,sub_17
-0.0156468000000001,0.0026218000000012,0.0160373999999999,-0.0246599999999994,0.0092440000000008,0.0079087999999999,0,sub_17
-0.0200184000000001,0.0020388000000012,0.0129719999999999,-0.0158581999999994,0.0205078000000008,0.0073149999999999,0,sub_17
-0.0187232000000001,0.0010760000000012,0.0146405999999999,-0.0073045999999994,0.0295904000000008,0.005434,0,sub_17
-0.0167372000000001,-0.0016463999999987,0.0190123999999999,-0.0015411999999994,0.0337876000000008,0.002258,0,sub_17
-0.0113868000000001,-0.0040549999999987,0.0224817999999999,-9.979999999948364e-05,0.0252192000000008,-0.0015725999999999,0,sub_17
-0.0057402000000001,-0.0045483999999987,0.0249443999999999,-0.0025317999999994,0.0117546000000008,-0.0030739999999999,0,sub_17
-0.0021084000000001,-0.0036707999999987,0.0244449999999999,-0.0073203999999994,-0.0004371999999991,-0.0011751999999999,0,sub_17
-0.0051122000000002,-0.0027445999999987,0.0205841999999999,-0.0120835999999994,-0.0134263999999991,0.0011584,0,sub_17
-0.0098972000000002,-0.0016581999999987,0.0162793999999999,-0.0142623999999994,-0.0223713999999991,0.0022228,0,sub_17
-0.0154820000000002,-0.0005127999999987,0.0143057999999999,-0.0133965999999994,-0.0196047999999991,0.0022252,0,sub_17
-0.0193356000000002,-0.0005201999999987,0.0147487999999999,-0.0116435999999994,-0.0102329999999991,0.0013708,0,sub_17
-0.0195562000000002,-0.0016975999999987,0.0184555999999999,-0.0103187999999994,0.0027220000000008,-0.0007773999999999,0,sub_17
-0.0175944000000002,-0.0021985999999987,0.0235127999999999,-0.0098561999999994,0.0146112000000008,-0.0020755999999999,0,sub_17
-0.0132452000000002,-0.0024371999999987,0.0277555999999999,-0.0102851999999994,0.0192546000000008,-0.0020887999999999,0,sub_17
-0.0096616000000002,-0.0020825999999987,0.0297035999999999,-0.0118087999999994,0.0187842000000008,-0.0010349999999999,0,sub_17
-0.0081884000000002,-0.0013475999999987,0.0295613999999999,-0.0141887999999994,0.0170410000000008,-0.0006263999999999,0,sub_17
-0.0081544000000002,-0.0016285999999987,0.0278925999999999,-0.0152671999999994,0.0142758000000008,-0.0008439999999999,0,sub_17
-0.0071410000000002,-0.0017295999999987,0.0267945999999999,-0.0161053999999994,0.0174754000000008,-0.0010675999999999,0,sub_17
-0.0090830000000002,-0.0012127999999987,0.0263773999999999,-0.0173559999999994,0.0240844000000008,-0.0010847999999999,0,sub_17
-0.0110202000000002,-0.0013491999999987,0.0256233999999999,-0.0167305999999994,0.0247336000000008,-0.0025891999999999,0,sub_17
-0.0116586000000002,-0.0013689999999987,0.0245831999999999,-0.0137809999999994,0.0198368000000008,-0.0044975999999999,0,sub_17
-0.0115932000000002,0.0001918000000012,0.0224997999999999,-0.0108283999999994,0.0170646000000008,-0.0049131999999999,0,sub_17
-0.0121500000000002,0.0009966000000012,0.0213745999999999,-0.0074337999999994,0.0181242000000008,-0.0049033999999999,0,sub_17
-0.0111764000000002,0.0003906000000012,0.0226979999999999,-0.0029559999999994,0.0225898000000007,-0.0051039999999999,0,sub_17
-0.0091564000000002,-0.0002613999999987,0.0242581999999999,4.560000000051623e-05,0.0264118000000008,-0.0044469999999999,0,sub_17
-0.0073818000000002,-0.0014739999999987,0.0267363999999999,4.7400000000536335e-05,0.0278988000000008,-0.0033807999999999,0,sub_17
-0.0057978000000002,-0.0015135999999987,0.0287771999999999,-0.0015317999999994,0.0260658000000008,-0.0031925999999999,0,sub_17
-0.0050100000000002,-0.0011275999999987,0.0299087999999999,-0.0016403999999994,0.0189022000000008,-0.0032007999999999,0,sub_17
-0.0030878000000002,9.720000000129426e-05,0.0278573999999999,-0.0011251999999994,0.0083264000000008,-0.0029865999999999,0,sub_17
-0.0031272000000002,0.0003722000000012,0.0263483999999999,0.0002416000000005,-0.0026783999999991,-0.0027659999999999,0,sub_17
-0.0045458000000002,0.0006812000000012,0.0241841999999999,0.0024744000000005,-0.0111285999999991,-0.0027561999999999,0,sub_17
-0.0074424000000002,-0.0012883999999987,0.0232351999999999,0.0048042000000004,-0.0151839999999991,-0.0029481999999999,0,sub_17
-0.0101264000000002,-0.0034717999999987,0.0230315999999999,0.0048090000000004,-0.0145431999999991,-0.0033763999999999,0,sub_17
-0.0140914000000002,-0.0050415999999987,0.0242203999999999,0.0037786000000004,-0.0075043999999991,-0.0044609999999999,0,sub_17
-0.0163934000000002,-0.0048327999999987,0.0243067999999999,0.0010556000000004,0.0025238000000008,-0.0057745999999999,0,sub_17
-0.0158630000000002,-0.0046691999999987,0.0251019999999999,-0.0019025999999994,0.0136542000000008,-0.0068949999999999,0,sub_17
-0.0133728000000002,-0.0037235999999987,0.0256257999999999,-0.0035883999999994,0.0239246000000008,-0.0071509999999999,0,sub_17
-0.0112170000000002,-0.0022437999999987,0.0242525999999999,-0.0046549999999994,0.0297178000000008,-0.0071831999999999,0,sub_17
-0.0104848000000002,-0.0007207999999987,0.0214597999999999,-0.0066001999999994,0.0297624000000008,-0.0074277999999999,0,sub_17
-0.0082198000000002,-0.0005165999999987,0.0191027999999999,-0.0074773999999994,0.0293796000000008,-0.0083053999999999,0,sub_17
-0.0061784000000002,0.0007592000000012,0.0168011999999999,-0.0066209999999994,0.0306524000000008,-0.0076601999999999,0,sub_17
-0.0055324000000002,0.0016972000000012,0.0151471999999999,-0.0055731999999994,0.0272364000000008,-0.0067939999999999,0,sub_17
-0.0057722000000001,0.0026828000000012,0.0142637999999999,-0.0036949999999994,0.0184918000000008,-0.0061285999999999,0,sub_17
-0.0052752000000001,0.0020840000000012,0.0147401999999999,-0.0016009999999994,0.0095590000000008,-0.0052603999999999,0,sub_17
-0.0061418000000001,0.0017546000000012,0.0168799999999999,0.0009332000000005,0.0042442000000008,-0.0037529999999999,0,sub_17
-0.0081906000000001,0.0002662000000012,0.0188807999999999,0.0019756000000005,-0.0017003999999991,-0.0033231999999999,0,sub_17
-0.0110394000000001,-0.0018205999999987,0.0198387999999999,0.0011112000000005,-0.0050799999999991,-0.0033373999999999,0,sub_17
-0.0130048000000002,-0.0040999999999987,0.0208343999999999,0.0004696000000005,-0.0065419999999991,-0.0035661999999999,0,sub_17
-0.0152122000000002,-0.0047591999999987,0.0219075999999999,-0.0003683999999994,-0.0031301999999991,-0.0035763999999999,0,sub_17
-0.0148406000000002,-0.0049113999999987,0.0225043999999999,-0.0022639999999994,0.0015670000000008,-0.0044501999999999,0,sub_17
-0.0139232000000002,-0.0043051999999987,0.0226731999999999,-0.0022505999999994,0.0043376000000008,-0.0046673999999999,0,sub_17
-0.0124354000000001,-0.0024969999999987,0.0236179999999999,-0.0020119999999994,0.0034610000000008,-0.0036009999999999,0,sub_17
-0.0120394000000001,-0.0009501999999987,0.0235755999999999,-0.0026171999999994,0.0045056000000008,-0.0027565999999999,0,sub_17
-0.0102164000000001,-0.0008705999999987,0.0229951999999999,-0.0021719999999994,0.0012880000000008,-0.0025403999999999,0,sub_17
-0.0108232000000001,-0.0006757999999987,0.0211439999999999,-0.0008827999999994,-0.0030021999999991,-0.0012485999999999,0,sub_17
-0.0122206000000001,-0.0007291999999987,0.0204235999999999,-0.0006469999999994,-0.0049425999999991,-0.0006079999999999,0,sub_17
-0.0132180000000002,-0.0011549999999987,0.0196797999999999,0.0008514000000005,-0.0043069999999991,-0.0010255999999999,0,sub_17
-0.0131252000000002,-0.0015477999999987,0.0203405999999999,0.0019154000000005,-0.0049497999999991,-0.0010173999999999,0,sub_17
-0.0138146000000002,-0.0018047999999987,0.0208201999999999,0.0025516000000005,-0.0047433999999991,5.500000000001979e-05,0,sub_17
-0.0151002000000002,-0.0023285999999987,0.0221331999999999,0.0032206000000005,-0.0048067999999991,0.0009198,0,sub_17
-0.0163414000000002,-0.0026559999999987,0.0227407999999999,0.0036828000000005,-0.0035901999999991,0.0015678,0,sub_17
-0.0161768000000002,-0.0025609999999987,0.0229937999999999,0.0030838000000005,-0.0019403999999991,0.0013534,0,sub_17
-0.0154698000000002,-0.0031219999999987,0.0233601999999999,0.0031308000000005,0.0011976000000008,0.0013552,0,sub_17
-0.0151946000000002,-0.0024997999999987,0.0237515999999999,0.0031770000000005,0.0041226000000008,0.0013574,0,sub_17
-0.0152428000000002,-0.0019709999999987,0.0238447999999999,0.0029654000000005,0.0045496000000008,0.0013554,0,sub_17
-0.0151832000000002,-0.0023005999999987,0.0230859999999999,0.0027454000000005,0.0028468000000007,0.0011424,0,sub_17
-0.0153358000000002,-0.0025403999999987,0.0227861999999999,0.0038094000000005,0.0026282000000007,0.0015774,0,sub_17
-0.0159550000000002,-0.0023601999999987,0.0220959999999999,0.0046916000000005,0.0051366000000007,0.002235,0,sub_17
-0.0163618000000002,-0.0027451999999987,0.0215559999999999,0.0051442000000005,0.0065830000000007,0.0024636,0,sub_17
-0.0156734000000001,-0.0033273999999987,0.0208581999999999,0.0055950000000005,0.0071788000000007,0.002266,0,sub_17
-0.0149342000000001,-0.0031129999999987,0.0204407999999999,0.0058332000000005,0.0079884000000008,0.0020666,0,sub_17
-0.0133980000000001,-0.0027035999999987,0.0197841999999999,0.0056448000000005,0.0090118000000008,0.0020776,0,sub_17
-0.0123352000000001,-0.0019671999999987,0.0194539999999999,0.0050018000000005,0.0077382000000008,0.0014338,0,sub_17
-0.0100190000000001,-0.0015097999999987,0.0191441999999999,0.0052084000000005,0.0058216000000008,0.0010104,0,sub_17
-0.0074758000000001,-0.0008535999999987,0.0187233999999999,0.0056424000000005,0.0027632000000008,0.0012544,0,sub_17
-0.0049308000000001,-0.0004145999999987,0.0184953999999999,0.0056410000000005,-0.0017867999999991,0.0019245999999999,0,sub_17
-0.0054604000000001,-0.0004961999999986,0.0180203999999999,0.0060692000000005,-0.0063355999999991,0.0019568,0,sub_17
-0.0056312000000002,-0.0005119999999986,0.0186429999999999,0.0071414000000004,-0.0098221999999991,0.0022058,0,sub_17
-0.0067438000000002,-0.0004843999999987,0.0193857999999999,0.0077868000000004,-0.0126705999999991,0.0030918,0,sub_17
-0.0096164000000001,-0.0011993999999987,0.0204399999999999,0.0077752000000004,-0.0143783999999991,0.0039483999999999,0,sub_17
-0.0133508000000001,-0.0016337999999987,0.0210321999999999,0.0079886000000004,-0.0139545999999991,0.0043766,0,sub_17
-0.0157690000000001,-0.0019705999999987,0.0226519999999999,0.0082144000000004,-0.0101245999999991,0.0054416,0,sub_17
-0.0177620000000001,-0.0027137999999987,0.0227593999999999,0.0078010000000004,-0.0058669999999991,0.0067152,0,sub_17
-0.0192784000000001,-0.0034247999999987,0.0229147999999999,0.0067760000000004,-0.0001603999999991,0.0067246,0,sub_17
-0.0188904000000001,-0.0039083999999987,0.0224223999999999,0.0055404000000004,0.0057616000000008,0.0063049999999999,0,sub_17
-0.0171910000000001,-0.0038801999999987,0.0221439999999999,0.0051554000000005,0.0114658000000007,0.0063187999999999,0,sub_17
-0.0134618000000001,-0.0030815999999987,0.0198595999999999,0.0053886000000005,0.0122676000000007,0.0063429999999999,0,sub_17
-0.0098426000000001,-0.0010529999999987,0.0173295999999999,0.0066704000000004,0.0094420000000008,0.0068063999999999,0,sub_17
-0.0070274000000001,0.0013518000000012,0.0141245999999999,0.0102546000000004,0.0009028000000008,0.0079105999999999,0,sub_17
-0.0059022000000001,0.0044038000000012,0.0113065999999999,0.0161754000000005,-0.0095635999999991,0.0094608,0,sub_17
-0.0062184000000001,0.0063674000000012,0.0088853999999999,0.0231640000000004,-0.0213059999999991,0.0095246,0,sub_17
-0.0081308000000001,0.0056702000000012,0.0085185999999999,0.0297494000000005,-0.0309387999999991,0.0083186,0,sub_17
-0.0098566000000001,0.0036034000000012,0.0102095999999999,0.0361436000000005,-0.0363069999999991,0.006465,0,sub_17
-0.0107950000000001,5.140000000127404e-05,0.0151885999999999,0.0402194000000004,-0.0352753999999991,0.0045868,0,sub_17
