userAcceleration.x,userAcceleration.y,userAcceleration.z,rotationRate.x,rotationRate.y,rotationRate.z,label,subject
-0.0030756000000004,0.0080496000000013,0.0484807999999999,0.0071046000000005,0.0075372000000006,-0.0054126,0,sub_11
-0.0027226000000004,0.0089070000000013,0.0475769999999999,0.0055706000000005,0.0061996000000006,-0.0069134,0,sub_11
-0.0024574000000004,0.0092630000000013,0.0470517999999999,0.0029716000000005,0.0052920000000006,-0.0084222,0,sub_11
-0.0021278000000004,0.0093222000000013,0.0469595999999999,0.0010186000000005,0.0058726000000006,-0.0097146,0,sub_11
-0.0010442000000004,0.0083822000000013,0.0465957999999999,0.0005900000000005,0.0052358000000006,-0.0099306,0,sub_11
-0.0007500000000003,0.0072954000000013,0.0471099999999999,0.0018560000000004,0.0026722000000006,-0.0092774,0,sub_11
-0.0010572000000003,0.0063968000000013,0.0486299999999999,0.0048280000000004,0.0009504000000006,-0.0075454,0,sub_11
-0.0012570000000003,0.0059212000000012,0.0496451999999999,0.0092502000000004,0.0008350000000006,-0.0058041999999999,0,sub_11
-0.0004716000000003,0.0057074000000012,0.0495653999999999,0.0134610000000004,0.0011464000000006,-0.0040649999999999,0,sub_11
0.0003245999999996,0.0062534000000012,0.0496613999999999,0.0159638000000005,0.0014632000000006,-0.0021239999999999,0,sub_11
0.0006625999999995,0.0067642000000012,0.0488377999999999,0.0169796000000005,0.0037008000000006,0.0002311999999999,0,sub_11
-0.0002824000000004,0.0073280000000012,0.0470193999999999,0.0171506000000005,0.0070102000000006,0.0017247999999999,0,sub_11
-0.0006552000000004,0.0077572000000012,0.0465701999999999,0.0178032000000005,0.0106266000000006,0.0025793999999999,0,sub_11
-0.0017264000000004,0.0083562000000012,0.0474501999999999,0.0182346000000005,0.0123270000000006,0.0032211999999999,0,sub_11
-0.0034232000000004,0.0088190000000012,0.0474519999999999,0.0171726000000005,0.0138204000000006,0.0036391999999999,0,sub_11
-0.0056198000000004,0.0092476000000012,0.0488585999999999,0.0145952000000005,0.0156546000000006,0.0025569999999999,0,sub_11
-0.0075660000000004,0.0099030000000012,0.0505941999999999,0.0113738000000005,0.0162144000000006,0.0010445999999999,0,sub_11
-0.0102960000000003,0.0095596000000012,0.0506969999999999,0.0072894000000005,0.0142222000000006,-0.0008978,0,sub_11
-0.0115788000000003,0.0088106000000013,0.0506305999999999,0.0036194000000005,0.0100956000000006,-0.0021936,0,sub_11
-0.0122758000000003,0.0084282000000013,0.0507067999999999,0.0014456000000005,0.0068150000000006,-0.0032664,0,sub_11
-0.0112590000000003,0.0081480000000013,0.0494527999999999,0.0007950000000005,0.0042616000000006,-0.0034812,0,sub_11
-0.0076750000000003,0.0076690000000013,0.0482051999999999,-6.119999999946715e-05,0.0038376000000006,-0.003273,0,sub_11
-0.0031110000000003,0.0083218000000013,0.0460671999999999,-0.0013327999999994,0.0066084000000006,-0.0024308,0,sub_11
0.0006965999999995,0.0088948000000013,0.0437665999999999,-0.0026071999999994,0.0143280000000006,-0.0017894,0,sub_11
0.0037361999999995,0.0092364000000012,0.0423353999999999,-0.0047213999999994,0.0243966000000006,-0.0017978,0,sub_11
0.0061137999999995,0.0095314000000012,0.0417049999999999,-0.0070471999999994,0.0351042000000006,-0.0015948,0,sub_11
0.0058109999999995,0.0092410000000012,0.0421263999999999,-0.0095941999999994,0.0443206000000006,-0.0011776,0,sub_11
0.0035261999999995,0.0087616000000012,0.0430943999999999,-0.0119381999999994,0.0511924000000006,-0.0007562,0,sub_11
3.679999999957884e-05,0.0078520000000012,0.0438783999999999,-0.0144957999999994,0.0520526000000006,-0.0005614,0,sub_11
-0.0036308000000004,0.0069076000000013,0.0460361999999999,-0.0140873999999994,0.0486398000000006,8.679999999994664e-05,0,sub_11
-0.0069920000000004,0.0055494000000012,0.0483887999999999,-0.0119947999999994,0.0405320000000006,0.0011799999999999,0,sub_11
-0.0103402000000004,0.0048408000000012,0.0497077999999999,-0.0080175999999994,0.0303546000000006,0.0027457999999999,0,sub_11
-0.0125464000000004,0.0049854000000012,0.0516533999999999,-0.0036203999999994,0.0186844000000006,0.0043165999999999,0,sub_11
-0.0137796000000004,0.0050186000000012,0.0544847999999999,0.0007940000000005,0.0100004000000006,0.0050289999999999,0,sub_11
-0.0138476000000004,0.0052254000000012,0.0554519999999999,0.0028728000000005,0.0030324000000006,0.0048683999999999,0,sub_11
-0.0135598000000004,0.0063442000000013,0.0558763999999999,0.0026064000000005,-0.0037133999999993,0.0044773999999999,0,sub_11
-0.0137142000000004,0.0072556000000012,0.0557571999999999,0.0006716000000005,-0.0086001999999993,0.0027609999999999,0,sub_11
-0.0129120000000003,0.0067130000000012,0.0544419999999999,-0.0006135999999994,-0.0115707999999993,0.0008329999999999,0,sub_11
-0.0102236000000003,0.0071810000000012,0.0525435999999999,-0.0010479999999994,-0.0147591999999993,-0.0006616,0,sub_11
-0.0070692000000003,0.0079010000000012,0.0508265999999999,-0.0019447999999994,-0.0186925999999993,-0.001485,0,sub_11
-0.0041020000000004,0.0080654000000012,0.0489083999999999,-0.0028175999999994,-0.0177239999999993,-0.0027416,0,sub_11
-0.0013406000000004,0.0079406000000013,0.0481767999999999,-0.0030435999999994,-0.0148417999999993,-0.003569,0,sub_11
-0.0001322000000004,0.0078554000000013,0.0480899999999999,-0.0037039999999994,-0.0130257999999993,-0.003757,0,sub_11
-0.0014050000000004,0.0076786000000013,0.0481853999999999,-0.0048045999999994,-0.0133423999999993,-0.0030908,0,sub_11
-0.0048080000000004,0.0068022000000013,0.0487185999999999,-0.0037481999999994,-0.0150529999999993,-0.0024402,0,sub_11
-0.0082858000000003,0.0062094000000013,0.0504389999999999,-0.0010059999999994,-0.0214567999999993,-0.0017718,0,sub_11
-0.0106452000000003,0.0063604000000013,0.0517219999999999,0.0017132000000005,-0.0327615999999993,-0.0008836,0,sub_11
-0.0122484000000003,0.0060540000000013,0.0527171999999999,0.0043798000000005,-0.0447943999999993,-0.0001884,0,sub_11
-0.0121688000000003,0.0058074000000013,0.0533903999999999,0.0072704000000005,-0.0555451999999993,-0.0005614,0,sub_11
-0.0107086000000003,0.0063638000000013,0.0534061999999999,0.0084616000000005,-0.0650099999999993,-0.0013752,0,sub_11
-0.0083706000000004,0.0065788000000013,0.0517887999999999,0.0088108000000005,-0.0719151999999993,-0.0021982,0,sub_11
-0.0055476000000004,0.0064428000000013,0.0496447999999999,0.0083190000000005,-0.0756233999999993,-0.002604,0,sub_11
-0.0023492000000004,0.0070628000000013,0.0470643999999999,0.0074666000000005,-0.0764681999999993,-0.003677,0,sub_11
0.0004515999999995,0.0082448000000013,0.0444763999999999,0.0061958000000005,-0.0747575999999993,-0.0041152,0,sub_11
0.0045401999999995,0.0092514000000013,0.0422729999999999,0.0042994000000005,-0.0696367999999993,-0.0043486,0,sub_11
0.0079785999999995,0.0101612000000013,0.0408445999999999,0.0017810000000005,-0.0604657999999993,-0.0045916,0,sub_11
0.0113729999999995,0.0102336000000013,0.0395467999999999,-0.0011773999999994,-0.0471199999999993,-0.0048246,0,sub_11
0.0133729999999995,0.0105572000000013,0.0394329999999999,-0.0037041999999994,-0.0318615999999993,-0.0042026,0,sub_11
0.0135307999999995,0.0099112000000012,0.0394671999999999,-0.0062299999999994,-0.0159655999999993,-0.003154,0,sub_11
0.0112469999999996,0.0086048000000012,0.0401553999999999,-0.0068383999999994,-0.0007155999999993,-0.0020912,0,sub_11
0.0075185999999995,0.0074964000000012,0.0414347999999999,-0.0063951999999994,0.0115464000000006,-0.00059,0,sub_11
0.0021855999999995,0.0074536000000012,0.0439775999999999,-0.0053091999999994,0.0175014000000006,0.0011191999999999,0,sub_11
-0.0028218000000004,0.0071852000000012,0.0464909999999999,-0.0050863999999994,0.0200556000000006,0.0015447999999999,0,sub_11
-0.0062650000000004,0.0064272000000013,0.0483597999999999,-0.0046519999999994,0.0213340000000006,0.0011187999999999,0,sub_11
-0.0071666000000004,0.0064086000000013,0.0501413999999999,-0.0048653999999994,0.0214172000000006,0.0006997999999999,0,sub_11
-0.0069630000000004,0.0068596000000013,0.0506841999999999,-0.0065789999999994,0.0198018000000006,5.899999999996676e-05,0,sub_11
-0.0058768000000004,0.0066270000000012,0.0494739999999999,-0.0087039999999994,0.0211726000000006,-0.0010158,0,sub_11
-0.0049316000000004,0.0065470000000012,0.0480991999999999,-0.0099735999999994,0.0233908000000006,-0.0016584,0,sub_11
-0.0045194000000003,0.0075490000000012,0.0464597999999999,-0.0112527999999994,0.0234786000000006,-0.0022984,0,sub_11
-0.0049842000000003,0.0074304000000012,0.0444195999999999,-0.0127501999999994,0.0222072000000006,-0.0027344,0,sub_11
-0.0059428000000003,0.0069404000000012,0.0432777999999999,-0.0125377999999994,0.0215690000000006,-0.0031594,0,sub_11
-0.0056182000000003,0.0066716000000012,0.0439931999999999,-0.0116917999999994,0.0195756000000006,-0.0031472,0,sub_11
-0.0043992000000003,0.0066330000000012,0.0446801999999999,-0.0110695999999994,0.0163004000000006,-0.0020666,0,sub_11
-0.0037900000000003,0.0060434000000012,0.0461113999999999,-0.0106579999999994,0.0143018000000006,-0.0003482,0,sub_11
-0.0044156000000003,0.0059664000000012,0.0474727999999999,-0.0091765999999994,0.0127264000000006,0.0011633999999999,0,sub_11
-0.0048682000000004,0.0059918000000012,0.0483133999999999,-0.0076999999999994,0.0094492000000006,0.0020363999999999,0,sub_11
-0.0055470000000004,0.0062816000000012,0.0480425999999999,-0.0066569999999994,0.0041192000000006,0.0020505999999999,0,sub_11
-0.0069988000000004,0.0062204000000013,0.0484843999999999,-0.0058149999999994,0.0002864000000006,0.0007795999999999,0,sub_11
-0.0068956000000004,0.0055766000000013,0.0488265999999999,-0.0047585999999994,-0.0033341999999993,-0.0004902,0,sub_11
-0.0057372000000004,0.0055708000000013,0.0490713999999999,-0.0041357999999994,-0.0075957999999993,-0.0009076,0,sub_11
-0.0047416000000004,0.0051706000000013,0.0502377999999999,-0.0041503999999994,-0.0103463999999993,-0.0004708,0,sub_11
-0.0040858000000003,0.0051882000000013,0.0501905999999999,-0.0035083999999994,-0.0094773999999993,-3.400000000003353e-05,0,sub_11
-0.0027726000000003,0.0052222000000012,0.0497607999999999,-0.0026577999999994,-0.0086133999999993,0.0014723999999999,0,sub_11
-0.0031188000000003,0.0062248000000012,0.0492129999999999,-0.0024483999999994,-0.0079601999999993,0.0029747999999999,0,sub_11
-0.0042772000000003,0.0071140000000012,0.0479973999999999,-0.0032941999999994,-0.0058077999999993,0.0033995999999999,0,sub_11
-0.0040298000000003,0.0073262000000012,0.0460981999999999,-0.0032749999999994,-0.0019711999999993,0.0029675999999999,0,sub_11
-0.0044798000000004,0.0072998000000012,0.0466009999999999,-0.0024089999999994,0.0014322000000006,0.0036101999999999,0,sub_11
-0.0050978000000004,0.0076186000000013,0.0471411999999999,-0.0017651999999994,0.0033432000000006,0.0046805999999999,0,sub_11
-0.0058770000000004,0.0080708000000013,0.0470451999999999,-0.0011197999999994,0.0062592000000006,0.0044797999999999,0,sub_11
-0.0054002000000004,0.0073640000000013,0.0484967999999999,0.0003878000000005,0.0104530000000006,0.0036423999999999,0,sub_11
-0.0048936000000004,0.0081086000000013,0.0498313999999999,0.0006066000000005,0.0135826000000006,0.0036519999999999,0,sub_11
-0.0035852000000004,0.0077716000000013,0.0489285999999999,-0.0010961999999994,0.0154448000000006,0.0025815999999999,0,sub_11
-0.0033354000000004,0.0069094000000013,0.0477013999999999,-0.0027881999999994,0.0190140000000006,0.0008679999999999,0,sub_11
-0.0025342000000004,0.0061914000000013,0.0478745999999999,-0.0031975999999994,0.0217894000000006,-0.0002068,0,sub_11
-0.0031256000000004,0.0064362000000013,0.0479947999999999,-0.0040617999999994,0.0200854000000006,0.0004301999999999,0,sub_11
-0.0041062000000004,0.0061650000000013,0.0473777999999999,-0.0040713999999994,0.0171930000000006,0.0008693999999999,0,sub_11
-0.0038418000000004,0.0068584000000013,0.0466845999999999,-0.0019405999999994,0.0153600000000006,0.0008949999999999,0,sub_11
-0.0012260000000004,0.0080088000000013,0.0462151999999999,-1.7399999999447026e-05,0.0133208000000006,-0.000576,0,sub_11
0.0009749999999995,0.0080798000000013,0.0451287999999999,-0.0008679999999994,0.0123522000000006,-0.0009996,0,sub_11
0.0018927999999995,0.0065606000000013,0.0436009999999999,-0.0021347999999994,0.0141530000000006,-0.0010022,0,sub_11
0.0010643999999995,0.0057082000000013,0.0426863999999999,-0.0006411999999994,0.0149964000000006,-0.0001382,0,sub_11
-0.0012768000000004,0.0055236000000013,0.0431067999999999,0.0023174000000005,0.0105042000000006,0.0018109999999999,0,sub_11
-0.0034276000000003,0.0061006000000013,0.0429283999999999,0.0052700000000005,0.0049458000000006,0.0039751999999999,0,sub_11
-0.0028392000000003,0.0073258000000013,0.0442265999999999,0.0080490000000005,0.0011166000000006,0.0046487999999999,0,sub_11
-0.0009512000000004,0.0082706000000012,0.0450389999999999,0.0097832000000005,0.0011306000000006,0.0042417999999999,0,sub_11
0.0011987999999995,0.0079396000000012,0.0462265999999999,0.0093922000000005,0.0032816000000006,0.0040307999999999,0,sub_11
0.0025329999999995,0.0082650000000012,0.0474729999999999,0.0077450000000005,0.0107632000000006,0.0038041999999999,0,sub_11
0.0035673999999995,0.0076884000000012,0.0481887999999999,0.0061162000000005,0.0210198000000006,0.0022923999999999,0,sub_11
0.0029555999999995,0.0085306000000012,0.0481151999999999,0.0042398000000005,0.0291294000000006,0.0005597999999999,0,sub_11
0.0014989999999995,0.0097854000000013,0.0480789999999999,0.0006442000000005,0.0334142000000006,-0.0022482,0,sub_11
-0.0002420000000004,0.0109684000000013,0.0474339999999999,-0.0055157999999994,0.0360070000000006,-0.0059264,0,sub_11
-0.0032764000000003,0.0097554000000013,0.0446601999999999,-0.0116643999999994,0.0343442000000006,-0.0095948,0,sub_11
-0.0079634000000003,0.0081798000000013,0.0424811999999999,-0.0153043999999994,0.0247750000000006,-0.0096036,0,sub_11
-0.0145802000000003,0.0046966000000013,0.0405595999999999,-0.0142921999999994,0.0083614000000006,-0.0070074,0,sub_11
-0.0182266000000003,0.0036756000000013,0.0384201999999999,-0.0077573999999994,-0.0119133999999993,-0.0026586,0,sub_11
-0.0186136000000003,0.0044852000000013,0.0377953999999999,0.0013484000000005,-0.0317631999999993,-0.0002152,0,sub_11
-0.0150264000000004,0.0068626000000013,0.0400087999999999,0.0081120000000005,-0.0452127999999993,0.0007039999999999,0,sub_11
-0.0110110000000004,0.0073982000000013,0.0434969999999999,0.0119354000000005,-0.0486367999999993,0.0011623999999999,0,sub_11
-0.0061598000000004,0.0086552000000012,0.0452007999999999,0.0134510000000005,-0.0439539999999993,0.0009531999999999,0,sub_11
-0.0033494000000004,0.0087282000000012,0.0467663999999999,0.0132750000000005,-0.0367051999999993,-0.0001254,0,sub_11
-0.0025556000000004,0.0081722000000012,0.0480745999999999,0.0118398000000005,-0.0290273999999993,6.619999999992734e-05,0,sub_11
-0.0032588000000003,0.0067932000000012,0.0478847999999999,0.0108178000000005,-0.0236971999999993,0.0009043999999999,0,sub_11
-0.0024470000000003,0.0077104000000012,0.0466471999999999,0.0097834000000005,-0.0226221999999993,0.0002523999999999,0,sub_11
3.859999999961845e-05,0.0087264000000013,0.0461653999999999,0.0070382000000005,-0.0234543999999993,-0.0014772,0,sub_11
0.0030977999999996,0.0093922000000013,0.0458975999999999,0.0011068000000005,-0.0212917999999993,-0.0034466,0,sub_11
0.0043479999999996,0.0091916000000013,0.0447561999999999,-0.0052809999999994,-0.0193477999999993,-0.004562,0,sub_11
0.0030911999999995,0.0090694000000013,0.0436957999999999,-0.0101923999999994,-0.0206071999999993,-0.005022,0,sub_11
-0.0021276000000004,0.0085666000000013,0.0417203999999999,-0.0125623999999994,-0.0257121999999993,-0.005032,0,sub_11
-0.0068814000000003,0.0076886000000013,0.0403213999999999,-0.0110711999999994,-0.0317121999999993,-0.0058726,0,sub_11
-0.0081412000000003,0.0067186000000013,0.0406757999999999,-0.0057373999999994,-0.0370873999999993,-0.0064736,0,sub_11
-0.0052814000000004,0.0059094000000013,0.0419837999999999,-0.0003785999999994,-0.0364987999999993,-0.0066548,0,sub_11
-0.0026280000000004,0.0056996000000013,0.0426253999999999,0.0026638000000005,-0.0278111999999993,-0.0055806,0,sub_11
0.0012523999999995,0.0056042000000013,0.0436187999999999,0.0033858000000005,-0.0123011999999993,-0.0036768,0,sub_11
0.0026689999999995,0.0055362000000013,0.0436467999999999,0.0023824000000005,0.0038860000000006,-0.001568,0,sub_11
0.0001051999999995,0.0066232000000013,0.0422001999999999,0.0003006000000005,0.0162472000000006,-0.0007438,0,sub_11
-0.0041100000000004,0.0078120000000013,0.0399315999999999,-0.0024363999999994,0.0211194000000006,-0.0022712,0,sub_11
-0.0050664000000004,0.0086644000000013,0.0394459999999999,-0.0062631999999994,0.0198212000000006,-0.0048666,0,sub_11
-0.0063876000000004,0.0081096000000013,0.0392279999999999,-0.0103215999999994,0.0140514000000006,-0.007885,0,sub_11
-0.0070968000000004,0.0074948000000013,0.0392395999999999,-0.0137669999999994,0.0035868000000006,-0.0096114,0,sub_11
-0.0085802000000004,0.0061808000000012,0.0407963999999999,-0.0142489999999994,-0.0103045999999993,-0.0093898,0,sub_11
-0.0085714000000004,0.0047156000000012,0.0444405999999999,-0.0106877999999994,-0.0231079999999993,-0.0074256,0,sub_11
-0.0076048000000004,0.0034498000000012,0.0480333999999999,-0.0032743999999994,-0.0335805999999993,-0.0056512,0,sub_11
-0.0043728000000004,0.0034954000000012,0.0515729999999999,0.0043696000000005,-0.0395823999999992,-0.00324,0,sub_11
-0.0014432000000004,0.0038170000000012,0.0555291999999999,0.0107776000000005,-0.0377677999999992,-0.0012746,0,sub_11
0.0003783999999995,0.0044704000000012,0.0569269999999999,0.0138040000000005,-0.0295463999999992,-0.0001956,0,sub_11
-0.0006888000000004,0.0050982000000012,0.0555673999999999,0.0151264000000005,-0.0213165999999992,0.0002303999999999,0,sub_11
-0.0032214000000004,0.0049136000000012,0.0532887999999999,0.0160076000000005,-0.0171297999999992,-0.000196,0,sub_11
-0.0061684000000004,0.0051328000000012,0.0525797999999999,0.0185738000000005,-0.0193345999999992,-0.002098,0,sub_11
-0.0084858000000004,0.0053834000000012,0.0517509999999999,0.0206768000000005,-0.0276451999999993,-0.0035682,0,sub_11
-0.0090716000000004,0.0057460000000012,0.0507315999999999,0.0206308000000005,-0.0389327999999992,-0.0046224,0,sub_11
-0.0081104000000004,0.0062790000000012,0.0498831999999999,0.0188760000000005,-0.0504281999999992,-0.0054744,0,sub_11
-0.0060478000000004,0.0075254000000013,0.0486833999999999,0.0167036000000005,-0.0582885999999993,-0.0065442,0,sub_11
-0.0025420000000004,0.0089784000000013,0.0455627999999999,0.0130674000000004,-0.0599633999999992,-0.0080594,0,sub_11
0.0032669999999995,0.0098944000000013,0.0415581999999999,0.0088360000000005,-0.0526835999999992,-0.0106586,0,sub_11
0.0099965999999995,0.0099700000000013,0.0389861999999999,0.0059262000000005,-0.0358225999999993,-0.0128334,0,sub_11
0.0161681999999995,0.0106722000000013,0.0365165999999999,0.0026144000000005,-0.0119353999999993,-0.0135246,0,sub_11
0.0188407999999995,0.0098950000000012,0.0334973999999999,-0.0006689999999994,0.0172640000000006,-0.0133712,0,sub_11
0.0193695999999995,0.0097330000000012,0.0318831999999999,-0.0020321999999994,0.0468810000000006,-0.0127778,0,sub_11
0.0169915999999995,0.0098968000000012,0.0321419999999999,-0.0025581999999994,0.0722366000000006,-0.012814,0,sub_11
0.0143745999999995,0.0096876000000012,0.0343823999999999,-0.0033313999999994,0.0897784000000006,-0.0138992,0,sub_11
0.0074799999999995,0.0081932000000012,0.0382127999999999,-0.0043561999999994,0.0998598000000006,-0.0139084,0,sub_11
-0.0003636000000004,0.0071838000000013,0.0438539999999999,-0.0054339999999994,0.0999208000000006,-0.0121959999999999,0,sub_11
-0.0096548000000004,0.0052580000000013,0.0470359999999999,-0.0059223999999994,0.0891122000000006,-0.0100381999999999,0,sub_11
-0.0175682000000004,0.0036366000000012,0.0489491999999999,-0.0038923999999994,0.0699812000000006,-0.0067837999999999,0,sub_11
-0.0243292000000004,0.0035030000000012,0.0491077999999999,0.0006972000000005,0.0495006000000006,-0.003948,0,sub_11
-0.0231394000000004,0.0039554000000012,0.0490589999999999,0.0065948000000005,0.0322232000000006,-0.0040982,0,sub_11
-0.0185148000000003,0.0058182000000012,0.0485111999999999,0.0112478000000005,0.0211358000000006,-0.0059742,0,sub_11
-0.0119722000000003,0.0078238000000012,0.0485403999999999,0.0116784000000005,0.0207134000000006,-0.0072524,0,sub_11
-0.0058090000000003,0.0087108000000013,0.0469173999999999,0.0087418000000005,0.0299422000000006,-0.0083362,0,sub_11
-0.0019378000000003,0.0089098000000013,0.0440453999999999,0.0051786000000005,0.0427926000000006,-0.0087882,0,sub_11
-0.0019752000000003,0.0088402000000013,0.0392657999999999,0.0020258000000005,0.0530806000000006,-0.0081658,0,sub_11
-0.0003470000000003,0.0086112000000013,0.0339269999999999,-0.0019891999999994,0.0618784000000006,-0.0071202,0,sub_11
0.0028391999999996,0.0083864000000013,0.0304729999999999,-0.0051467999999994,0.0711010000000006,-0.0064964,0,sub_11
0.0046659999999996,0.0081450000000013,0.0310673999999999,-0.0070353999999994,0.0794118000000006,-0.0052384,0,sub_11
0.0024971999999996,0.0084976000000013,0.0319835999999999,-0.0089479999999994,0.0838814000000006,-0.00248,0,sub_11
-0.0011772000000003,0.0086206000000013,0.0326635999999999,-0.0093717999999994,0.0874930000000006,0.0005035999999999,0,sub_11
-0.0041212000000003,0.0070238000000013,0.0348865999999999,-0.0063847999999994,0.0888288000000006,0.0026813999999999,0,sub_11
-0.0080874000000003,0.0052660000000013,0.0380025999999999,-0.0006537999999994,0.0837624000000006,0.0051001999999999,0,sub_11
-0.0117458000000003,0.0058976000000013,0.0401779999999999,0.0046332000000005,0.0748624000000006,0.0075207999999999,0,sub_11
-0.0131006000000003,0.0051474000000013,0.0426459999999999,0.0080152000000005,0.0670440000000006,0.0075765999999999,0,sub_11
-0.0131838000000004,0.0049314000000013,0.0465949999999999,0.0090558000000005,0.0594510000000006,0.0065473999999999,0,sub_11
-0.0172570000000004,0.0055002000000013,0.0489235999999999,0.0079400000000005,0.0481646000000006,0.0061267999999999,0,sub_11
-0.0219354000000004,0.0062484000000013,0.0480311999999999,0.0044694000000005,0.0347576000000006,0.0052651999999999,0,sub_11
-0.0244864000000004,0.0054706000000013,0.0459227999999999,0.0014178000000005,0.0183716000000006,0.0031285999999999,0,sub_11
-0.0239914000000004,0.0059260000000013,0.0440135999999999,-0.0008311999999994,-0.0006605999999993,0.0025217999999999,0,sub_11
-0.0219884000000004,0.0058144000000013,0.0410893999999999,-0.0022313999999994,-0.0201243999999993,0.0025623999999999,0,sub_11
-0.0189076000000004,0.0060788000000013,0.0377989999999999,-0.0023359999999994,-0.0357593999999993,0.0030343999999999,0,sub_11
-0.0156762000000004,0.0061058000000013,0.0366727999999999,-7.239999999946873e-05,-0.0467153999999993,0.0035169999999999,0,sub_11
-0.0114580000000004,0.0067380000000013,0.0357997999999999,0.0024276000000005,-0.0519223999999993,0.0046347999999999,0,sub_11
-0.0065856000000004,0.0073464000000012,0.0348455999999999,0.0043460000000005,-0.0521429999999993,0.0048621999999999,0,sub_11
-0.0013292000000004,0.0080874000000012,0.0348231999999999,0.0045824000000005,-0.0468183999999992,0.0050707999999999,0,sub_11
0.0030767999999995,0.0087840000000012,0.0365465999999999,0.0033282000000005,-0.0361459999999992,0.0048767999999999,0,sub_11
0.0066509999999995,0.0097546000000012,0.0374063999999999,0.0001634000000005,-0.0229119999999992,0.0050933999999999,0,sub_11
0.0065347999999995,0.0087224000000012,0.0378437999999999,-0.0040701999999994,-0.0103125999999993,0.0050895999999999,0,sub_11
0.0024857999999996,0.0079428000000012,0.0390439999999999,-0.0070445999999994,-0.0019803999999993,0.0055273999999999,0,sub_11
-0.0037876000000003,0.0078354000000013,0.0402501999999999,-0.0091981999999994,-0.0011071999999993,0.0057667999999999,0,sub_11
-0.0091274000000003,0.0075118000000012,0.0407043999999999,-0.0109377999999994,-0.0083449999999993,0.0057637999999999,0,sub_11
-0.0118260000000003,0.0068966000000012,0.0413351999999999,-0.0116211999999994,-0.0185667999999993,0.0051309999999999,0,sub_11
-0.0115846000000003,0.0075558000000012,0.0421913999999999,-0.0110223999999994,-0.0290033999999993,0.0038665999999999,0,sub_11
-0.0075688000000004,0.0081378000000012,0.0425851999999999,-0.0106187999999994,-0.0353913999999993,0.0025955999999999,0,sub_11
