userAcceleration.x,userAcceleration.y,userAcceleration.z,rotationRate.x,rotationRate.y,rotationRate.z,label,subject
0.0069181999999996,0.0060980000000012,0.0710486,-0.0686249999999994,0.0156094000000008,-0.0345654,0,sub_18
0.0061183999999996,0.0084710000000012,0.0692584,-0.0686497999999994,0.0077358000000008,-0.0369056,0,sub_18
0.0073165999999996,0.0109560000000012,0.0686056,-0.0624575999999994,0.0013056000000008,-0.0387622,0,sub_18
0.0077905999999996,0.0136284000000012,0.0669735999999999,-0.0579627999999994,-0.0019271999999991,-0.0395666,0,sub_18
0.0087567999999996,0.0157030000000012,0.0655021999999999,-0.0502617999999994,-0.0019829999999991,-0.03843,0,sub_18
0.0091931999999996,0.0165614000000012,0.0659895999999999,-0.0378551999999994,0.0024112000000008,-0.0353434,0,sub_18
0.0101673999999996,0.0160008000000012,0.0669133999999999,-0.0254695999999994,0.0033914000000008,-0.0309706,0,sub_18
0.0103759999999996,0.0158196000000012,0.0661201999999999,-0.0129151999999994,0.0020434000000008,-0.024472,0,sub_18
0.0110375999999996,0.0169348000000012,0.0673735999999999,0.0026168000000005,-0.0012333999999991,-0.0177364,0,sub_18
0.0106099999999996,0.0166326000000012,0.0689214,0.0147282000000005,-0.0064137999999991,-0.0114494,0,sub_18
0.0106313999999996,0.0164954000000012,0.0686753999999999,0.0262024000000005,-0.0118015999999991,-0.0060212,0,sub_18
0.0094187999999996,0.0145522000000012,0.0705763999999999,0.0347210000000005,-0.0112091999999991,-0.0016896,0,sub_18
0.0080389999999996,0.0131054000000012,0.0729511999999999,0.0392000000000005,-0.0099533999999991,4.939999999993617e-05,0,sub_18
0.0059099999999996,0.0111060000000012,0.0738653999999999,0.0432570000000005,-0.0080551999999991,0.0013571999999999,0,sub_18
0.0052277999999996,0.0094354000000012,0.0758712,0.0458280000000005,-0.0052961999999991,0.0017987999999999,0,sub_18
0.0043963999999996,0.0083618000000012,0.076986,0.0447602000000005,-0.0052933999999991,0.0020049999999999,0,sub_18
0.0053061999999996,0.0090530000000012,0.0764152,0.0441154000000005,-0.0072051999999991,0.0011483999999999,0,sub_18
0.0053907999999996,0.0081694000000012,0.0768474,0.0409118000000005,-0.0093183999999991,-0.0003668,0,sub_18
0.0057017999999996,0.0067328000000012,0.0768404,0.0325732000000005,-0.0137365999999991,-0.0038404,0,sub_18
0.0061285999999996,0.0063596000000012,0.0753232,0.0248806000000005,-0.0168787999999991,-0.0073108,0,sub_18
0.0066323999999996,0.0061800000000012,0.0743128,0.0178416000000005,-0.0170403999999991,-0.0107806,0,sub_18
0.0053169999999996,0.0059744000000012,0.0735886,0.0093030000000005,-0.0176263999999991,-0.0134058,0,sub_18
0.0045109999999996,0.0075060000000012,0.0726752,0.0041738000000005,-0.0199261999999991,-0.016646,0,sub_18
0.0047007999999996,0.0094090000000012,0.0727636,0.0039854000000005,-0.0162957999999991,-0.0185746,0,sub_18
0.0032465999999996,0.0112208000000012,0.0730528,0.0042370000000005,-0.0084109999999991,-0.019224,0,sub_18
0.0024233999999996,0.0121190000000012,0.074444,0.0042648000000005,-0.0026569999999991,-0.0196586,0,sub_18
0.0031941999999996,0.0128390000000012,0.0752674,0.0070684000000005,0.0041502000000008,-0.0194342,0,sub_18
0.0038807999999996,0.0130624000000012,0.0747962,0.0097436000000005,0.0127544000000008,-0.017111,0,sub_18
0.0036705999999996,0.0125190000000012,0.074178,0.0113414000000005,0.0181700000000008,-0.0156458,0,sub_18
0.0040147999999996,0.0110930000000012,0.07432,0.0137766000000005,0.0188998000000008,-0.015237,0,sub_18
0.0040619999999996,0.0099884000000012,0.074714,0.0153542000000005,0.0194170000000008,-0.0141928,0,sub_18
0.0038305999999996,0.0102088000000012,0.0744684,0.0152258000000005,0.0203654000000008,-0.0129476,0,sub_18
0.0034279999999996,0.0102884000000012,0.0740266,0.0171606000000005,0.0233424000000008,-0.0131516,0,sub_18
0.0024969999999995,0.0093838000000012,0.0749706,0.0167464000000005,0.0265380000000008,-0.0127314,0,sub_18
0.0026763999999995,0.0095226000000012,0.075551,0.0135476000000005,0.0282484000000008,-0.011474,0,sub_18
0.0026657999999995,0.0097806000000012,0.0741784,0.0131528000000005,0.0304214000000008,-0.0105814,0,sub_18
0.0029219999999995,0.0091672000000012,0.0746054,0.0123284000000005,0.0308956000000008,-0.0107576,0,sub_18
0.0030743999999995,0.0081784000000012,0.0758516,0.0085080000000005,0.0300994000000008,-0.0103122,0,sub_18
0.0039349999999996,0.0092554000000012,0.0749478,0.0074654000000005,0.0303580000000008,-0.0096352,0,sub_18
0.0038319999999996,0.0093746000000012,0.0747024,0.0068524000000005,0.0301934000000008,-0.0100228,0,sub_18
0.0042235999999996,0.0092096000000012,0.0752548,0.0040748000000005,0.0282900000000008,-0.0111078,0,sub_18
0.0037301999999996,0.0091604000000012,0.0740188,0.0032184000000005,0.0276538000000008,-0.011113,0,sub_18
0.0040349999999996,0.0091132000000012,0.0732549999999999,0.0036500000000005,0.0291420000000008,-0.0106846,0,sub_18
0.0040457999999996,0.0090238000000012,0.073679,0.0023752000000005,0.0259856000000008,-0.0101916,0,sub_18
0.0048581999999995,0.0094094000000012,0.0731638,0.0036580000000005,0.0223932000000008,-0.0094668,0,sub_18
0.0049139999999995,0.0098490000000012,0.0726184,0.0053664000000005,0.0194350000000008,-0.0078852,0,sub_18
0.0058225999999995,0.0100442000000012,0.0717304,0.0062206000000005,0.0160548000000008,-0.0065226,0,sub_18
0.0064513999999995,0.0100488000000012,0.0702426,0.0064326000000005,0.0118262000000008,-0.0055906,0,sub_18
0.0070907999999995,0.0093624000000012,0.0696306,0.0062076000000005,0.0099070000000008,-0.0049488,0,sub_18
0.0073437999999996,0.0089470000000012,0.0688668,0.0034204000000005,0.0079950000000008,-0.0038976,0,sub_18
0.0081275999999996,0.0097834000000012,0.0674705999999999,0.0020690000000005,0.0074000000000008,-0.0023562,0,sub_18
0.0086797999999996,0.0104454000000012,0.0677916,0.0030656000000005,0.0067976000000008,-0.0010118,0,sub_18
0.0091955999999996,0.0107204000000012,0.0683295999999999,0.0031982000000005,0.0038546000000008,0.0003293999999999,0,sub_18
0.0094897999999996,0.0117676000000012,0.0689891999999999,0.0037528000000005,0.0009058000000008,0.0027417999999999,0,sub_18
0.0094025999999996,0.0130050000000012,0.0695829999999999,0.0064458000000005,-0.0011973999999991,0.0049543999999999,0,sub_18
0.0093061999999996,0.0128414000000012,0.0714671999999999,0.0089880000000005,-0.0037689999999991,0.0064709999999999,0,sub_18
0.0089253999999996,0.0117618000000012,0.0718741999999999,0.0068418000000005,-0.0044091999999991,0.0085931999999999,0,sub_18
0.0081819999999996,0.0114282000000012,0.0730325999999999,0.0032194000000005,-0.0009969999999991,0.0109135999999999,0,sub_18
0.0071863999999996,0.0110796000000012,0.0731868,-0.0003953999999994,0.0030586000000008,0.0121649999999999,0,sub_18
0.0067109999999996,0.0114208000000012,0.0737558,-0.0047017999999994,0.0097112000000008,0.0139085999999999,0,sub_18
0.0053817999999996,0.0119652000000012,0.0753584,-0.0098499999999994,0.0193478000000008,0.0160697999999999,0,sub_18
0.0040971999999996,0.0132394000000012,0.077936,-0.0154135999999994,0.0321790000000008,0.0188649999999999,0,sub_18
0.0029957999999996,0.0142892000000012,0.0808384,-0.0190607999999994,0.0452124000000008,0.0227413999999999,0,sub_18
0.0023409999999996,0.0127778000000012,0.0854964,-0.0205645999999994,0.0603688000000008,0.0266301999999999,0,sub_18
0.0013701999999996,0.0105122000000012,0.0902314,-0.0198659999999994,0.0748482000000008,0.0281121999999999,0,sub_18
8.379999999963486e-05,0.0083544000000012,0.0930912,-0.0210935999999994,0.0840242000000008,0.0255281999999999,0,sub_18
-0.0005992000000003,0.0057226000000012,0.093964,-0.0224113999999994,0.0848834000000008,0.0187571999999999,0,sub_18
-0.0012016000000003,0.0032000000000012,0.093289,-0.0271545999999993,0.0804392000000008,0.0091917999999999,0,sub_18
-0.0008712000000003,0.0016752000000012,0.0882564,-0.0357645999999994,0.0691950000000008,-0.0014602,0,sub_18
0.0014229999999996,0.0017420000000012,0.0820924,-0.0475979999999994,0.0532732000000008,-0.0117014,0,sub_18
0.0051163999999996,0.0018956000000012,0.0762582,-0.0583741999999994,0.0390366000000008,-0.0180918,0,sub_18
0.0078861999999996,0.0034148000000012,0.0720234,-0.0665177999999994,0.0282112000000008,-0.0211258,0,sub_18
0.0097011999999996,0.0058760000000012,0.0670364,-0.0695415999999994,0.0192768000000008,-0.02199,0,sub_18
0.0108537999999996,0.0094160000000012,0.0652478,-0.0665791999999994,0.0143636000000008,-0.0213222,0,sub_18
0.0098301999999996,0.0122138000000012,0.0649324,-0.0582835999999994,0.0113406000000008,-0.018483,0,sub_18
0.0081251999999996,0.0173866000000012,0.0655612,-0.0445109999999994,0.0082108000000008,-0.0136106,0,sub_18
0.0066683999999996,0.0215084000000012,0.0662476,-0.0262719999999994,0.0027182000000008,-0.0078494,0,sub_18
0.0063347999999996,0.0233568000000012,0.0700808,-0.0048293999999994,-0.0017217999999991,-0.0016398,0,sub_18
0.0045809999999996,0.0230948000000012,0.0740254,0.0151224000000005,-0.0046687999999991,0.0054121999999999,0,sub_18
0.0020867999999996,0.0213660000000012,0.0786282,0.0286960000000005,-0.0026921999999991,0.0121993999999999,0,sub_18
-0.0002806000000003,0.0166742000000012,0.0819204,0.0372378000000005,0.0019524000000008,0.0154577999999999,0,sub_18
-0.0014498000000003,0.0109592000000012,0.08512,0.0400606000000005,0.0138694000000008,0.0165303999999999,0,sub_18
-0.0026054000000003,0.0064916000000012,0.0854154,0.0371368000000005,0.0270924000000008,0.0156383999999999,0,sub_18
-0.0028652000000003,0.0029524000000012,0.0849671999999999,0.0275562000000005,0.0385694000000008,0.0111269999999999,0,sub_18
-0.0017994000000003,0.0004238000000012,0.0815354,0.0139034000000005,0.0428294000000008,0.0033919999999999,0,sub_18
-0.0001498000000003,-0.0009101999999987,0.0775095999999999,-0.0012555999999994,0.0432640000000008,-0.0054168,0,sub_18
0.0028121999999996,0.0011206000000012,0.0726455999999999,-0.0151591999999994,0.0385792000000008,-0.013783,0,sub_18
0.0055135999999996,0.0023876000000012,0.0691915999999999,-0.0292887999999994,0.0332474000000008,-0.0200136,0,sub_18
0.0087867999999996,0.0050400000000012,0.0654643999999999,-0.0384751999999993,0.0279642000000008,-0.0228482,0,sub_18
0.0115611999999996,0.0096436000000012,0.0635433999999999,-0.0367797999999993,0.0268870000000008,-0.0213394,0,sub_18
0.0132569999999996,0.0142382000000012,0.0628461999999999,-0.0259179999999993,0.0289530000000008,-0.0146432,0,sub_18
0.0116573999999996,0.0178404000000012,0.0643753999999999,-0.0065601999999994,0.0343186000000008,-0.0036008,0,sub_18
0.0096723999999996,0.0221990000000012,0.0655541999999999,0.0213162000000005,0.0375180000000008,0.0089993999999998,0,sub_18
0.0069189999999996,0.0246352000000012,0.0674816,0.0521654000000005,0.0383600000000008,0.0224777999999998,0,sub_18
0.0051449999999996,0.0224166000000012,0.0699966,0.0778794000000005,0.0345386000000008,0.0344307999999998,0,sub_18
0.0036293999999996,0.0189428000000012,0.0723496,0.0965482000000005,0.0254336000000008,0.0418547999999998,0,sub_18
0.0033521999999996,0.0147918000000012,0.0735952,0.1058666000000005,0.0117578000000008,0.0438601999999998,0,sub_18
0.0034863999999996,0.0107728000000012,0.0749018,0.1073114000000005,-0.0014471999999991,0.0415371999999999,0,sub_18
0.0041487999999996,0.0068846000000012,0.0760628,0.1015534000000005,-0.0120135999999991,0.0361415999999998,0,sub_18
0.0043575999999996,0.0044458000000012,0.0765586,0.0904774000000005,-0.0206367999999991,0.0289971999999998,0,sub_18
0.0044695999999996,0.0030648000000012,0.0768286,0.0757836000000005,-0.0271169999999991,0.0218247999999998,0,sub_18
0.0042093999999996,0.0019630000000012,0.0765178,0.0591608000000005,-0.0346589999999991,0.0154947999999999,0,sub_18
0.0037963999999996,0.0009752000000012,0.0761436,0.0419018000000005,-0.0402857999999991,0.0102259999999999,0,sub_18
0.0031741999999996,0.0010566000000012,0.0762344,0.0254654000000005,-0.0461757999999991,0.0056321999999999,0,sub_18
0.0021045999999996,0.0025204000000012,0.0773156,0.0122276000000005,-0.0516545999999991,0.0019147999999999,0,sub_18
0.0022035999999996,0.0051914000000012,0.0783456,0.0011140000000005,-0.0579979999999991,-0.0005048,0,sub_18
0.0027335999999996,0.0074582000000012,0.079893,-0.0059473999999994,-0.0645695999999991,-0.0026822,0,sub_18
0.0032801999999996,0.0100882000000012,0.0792554,-0.0086105999999994,-0.0704763999999991,-0.0048226,0,sub_18
0.0026085999999996,0.0115584000000012,0.0794272,-0.0072111999999994,-0.0732067999999991,-0.0056568,0,sub_18
0.0022095999999996,0.0116592000000012,0.079176,-0.0043093999999994,-0.0727515999999991,-0.0052028,0,sub_18
0.0012619999999996,0.0100994000000012,0.079286,-0.0022513999999994,-0.0695263999999991,-0.0041172,0,sub_18
0.0007615999999996,0.0093690000000012,0.078364,-0.0031673999999994,-0.0628835999999991,-0.0026296,0,sub_18
0.0004137999999996,0.0085292000000012,0.0789028,-0.0069811999999994,-0.0545705999999991,-0.0003168,0,sub_18
0.0011035999999996,0.0094292000000012,0.0782052,-0.0090879999999994,-0.0469001999999991,0.0013677999999999,0,sub_18
0.0013419999999996,0.0100186000000012,0.0779054,-0.0094293999999994,-0.0391647999999991,0.0024147999999999,0,sub_18
0.0012651999999996,0.0106070000000012,0.0775204,-0.0089183999999994,-0.0310087999999991,0.0041079999999999,0,sub_18
0.0005469999999996,0.0102734000000012,0.0784962,-0.0077679999999994,-0.0241289999999991,0.0047391999999999,0,sub_18
0.0004567999999996,0.0105078000000012,0.0787786,-0.0062073999999994,-0.0219335999999991,0.0043109999999999,0,sub_18
0.0007739999999996,0.0102782000000012,0.0787218,-0.0076337999999994,-0.0199399999999991,0.0036485999999999,0,sub_18
0.0020657999999996,0.0097426000000012,0.0782224,-0.0099673999999994,-0.0177977999999991,0.0027749999999999,0,sub_18
0.0030839999999996,0.0098500000000012,0.077772,-0.0123085999999994,-0.0179967999999991,0.0012633999999999,0,sub_18
0.0030571999999996,0.0099602000000012,0.0762326,-0.0150863999999994,-0.0192637999999991,0.0008183999999999,0,sub_18
0.0025319999999996,0.0086478000000012,0.0749178,-0.0182725999999994,-0.0154201999999991,0.0014321999999999,0,sub_18
0.0020209999999996,0.0075174000000012,0.0736204,-0.0216097999999994,-0.0100405999999991,0.0020537999999999,0,sub_18
0.0014843999999996,0.0084138000000012,0.0721436,-0.0245241999999993,-0.0050903999999991,0.0031061999999999,0,sub_18
0.0015957999999996,0.0086718000000012,0.0710384,-0.0263629999999993,0.0013492000000008,0.0037369999999999,0,sub_18
0.0026659999999995,0.0080830000000012,0.0707252,-0.0264927999999993,0.0075722000000008,0.0037389999999999,0,sub_18
0.0028889999999995,0.0082040000000012,0.0706706,-0.0272799999999993,0.0089016000000008,0.0026745999999999,0,sub_18
0.0023917999999996,0.0090574000000012,0.0700568,-0.0274877999999993,0.0084830000000008,0.0009645999999999,0,sub_18
0.0025981999999996,0.0094302000000012,0.0698198,-0.0272705999999994,0.0076368000000008,-0.000742,0,sub_18
0.0025623999999996,0.0096562000000012,0.0688641999999999,-0.0259875999999994,0.0074226000000008,-0.0015874,0,sub_18
0.0028195999999996,0.0100562000000012,0.0687467999999999,-0.0237609999999994,0.0089908000000008,-0.0018406,0,sub_18
0.0030763999999996,0.0102470000000012,0.0693509999999999,-0.0215401999999994,0.0097050000000008,-0.0016656,0,sub_18
0.0031835999999996,0.0099126000000012,0.0698053999999999,-0.0206127999999994,0.0080774000000008,-0.0008558,0,sub_18
0.0027781999999996,0.0098776000000012,0.0695996,-0.0201121999999994,0.0060270000000008,-0.0004756,0,sub_18
0.0025283999999996,0.0094896000000012,0.0700582,-0.0189637999999994,0.0050422000000008,-0.0007332,0,sub_18
0.0019035999999996,0.0098670000000012,0.0700434,-0.0178929999999994,0.0058906000000008,-0.0007268,0,sub_18
0.0020461999999996,0.0099898000000012,0.0695632,-0.0161773999999994,0.0084386000000008,-7.720000000004546e-05,0,sub_18
0.0039593999999996,0.0100504000000012,0.0698454,-0.0138265999999994,0.0099194000000008,0.0005783999999999,0,sub_18
0.0049297999999996,0.0107908000000012,0.0702338,-0.0109833999999994,0.0095080000000008,0.0007651999999999,0,sub_18
0.0057003999999996,0.0118108000000012,0.0707308,-0.0075087999999994,0.0067526000000008,0.0005319999999999,0,sub_18
0.0065371999999996,0.0119280000000012,0.0711422,-0.0034017999999994,0.0020782000000008,9.199999999995448e-05,0,sub_18
0.0069813999999996,0.0115732000000012,0.0717808,-0.0010043999999994,-0.0030171999999991,-0.0001458,0,sub_18
0.0060931999999996,0.0128658000000012,0.0708144,0.0005442000000005,-0.0066199999999991,3.5799999999954446e-05,0,sub_18
0.0062191999999995,0.0140398000000012,0.0696612,0.0041676000000005,-0.0066361999999991,0.0009155999999999,0,sub_18
0.0064661999999996,0.0141420000000012,0.0681698,0.0086522000000005,-0.0043143999999991,0.0024395999999999,0,sub_18
0.0073697999999995,0.0127924000000012,0.067809,0.0106956000000005,-0.0037693999999991,0.0045577999999999,0,sub_18
0.0080009999999995,0.0126468000000012,0.0669624,0.0114548000000005,-0.0044965999999991,0.0062415999999999,0,sub_18
0.0081391999999995,0.0112456000000012,0.067326,0.0115780000000005,-0.0052181999999991,0.0070661999999999,0,sub_18
0.0074805999999995,0.0088682000000012,0.0676216,0.0097730000000005,-0.0082739999999991,0.0072393999999999,0,sub_18
0.0068703999999995,0.0070518000000012,0.0686702,0.0054028000000005,-0.0130225999999991,0.0067557999999999,0,sub_18
0.0057723999999995,0.0070660000000012,0.0696114,0.0015506000000005,-0.0166267999999991,0.0056653999999999,0,sub_18
0.0047531999999995,0.0072954000000012,0.0702998,-0.0029329999999994,-0.0176745999999991,0.0052079999999998,0,sub_18
0.0042405999999995,0.0071114000000012,0.070646,-0.0095513999999994,-0.0182913999999991,0.0053761999999998,0,sub_18
0.0046759999999995,0.0073872000000012,0.0712701999999999,-0.0176537999999994,-0.0165603999999991,0.0057447999999998,0,sub_18
0.0040305999999996,0.0078436000000012,0.0718224,-0.0234285999999994,-0.0136415999999991,0.0063153999999998,0,sub_18
0.0030791999999996,0.0080466000000012,0.0719278,-0.0279155999999994,-0.0083861999999991,0.0075325999999999,0,sub_18
0.0029653999999996,0.0071300000000012,0.0731434,-0.0311251999999994,-0.0046231999999991,0.0079061999999999,0,sub_18
0.0032133999999996,0.0065832000000012,0.0741986,-0.0332737999999994,-0.0027789999999991,0.0076487999999999,0,sub_18
0.0017945999999996,0.0067234000000012,0.075206,-0.0358565999999994,-0.0032741999999991,0.0067503999999999,0,sub_18
0.0005587999999996,0.0064908000000012,0.0751272,-0.0396857999999994,-0.0021895999999991,0.0052265999999999,0,sub_18
-0.0006774000000003,0.0061662000000012,0.0759934,-0.0449989999999994,-3.0199999999127453e-05,0.0026229999999999,0,sub_18
-0.0017854000000003,0.0056578000000012,0.0769282,-0.0504765999999993,0.0037000000000008,-3.000000000065624e-06,0,sub_18
-0.0040880000000003,0.0047052000000012,0.0775672,-0.0557273999999994,0.0099880000000008,-0.003058,0,sub_18
-0.0050942000000003,0.0032966000000012,0.0792804,-0.0590395999999993,0.0198928000000008,-0.0065316,0,sub_18
-0.0056530000000003,0.0025448000000012,0.0814774,-0.0634157999999994,0.0302284000000008,-0.0102266,0,sub_18
-0.0062450000000003,0.0023202000000012,0.0820036,-0.0678053999999993,0.0373690000000008,-0.0141312,0,sub_18
-0.0069004000000003,0.0048742000000012,0.079934,-0.0707495999999994,0.0435716000000008,-0.017578,0,sub_18
-0.0056160000000003,0.0085500000000012,0.079249,-0.0713417999999994,0.0527410000000008,-0.0190894,0,sub_18
-0.0049098000000003,0.0115726000000012,0.077368,-0.0715111999999994,0.0629666000000008,-0.0186764,0,sub_18
-0.0034230000000003,0.0149424000000012,0.0758176,-0.0719083999999994,0.0704214000000008,-0.0178342,0,sub_18
-0.0016528000000003,0.0174302000000012,0.0747794,-0.0701077999999994,0.0762056000000008,-0.0180544,0,sub_18
-0.0005732000000003,0.0173882000000012,0.0755986,-0.0640445999999994,0.0794244000000008,-0.019737,0,sub_18
-0.0007884000000003,0.0146982000000012,0.075858,-0.0571441999999994,0.0777450000000008,-0.0226894,0,sub_18
-0.0009316000000003,0.0123450000000012,0.07583,-0.0521737999999994,0.0730930000000008,-0.0265058,0,sub_18
-0.0013508000000003,0.0101432000000012,0.0752472,-0.0474147999999994,0.0699288000000008,-0.0292576,0,sub_18
-0.0014278000000003,0.0088182000000012,0.0739,-0.0427225999999994,0.0684252000000008,-0.030291,0,sub_18
-0.0004260000000003,0.0088296000000012,0.072799,-0.0384569999999994,0.0681962000000008,-0.0300472,0,sub_18
0.0002087999999996,0.0099942000000012,0.0717346,-0.0341895999999994,0.0692422000000008,-0.0289504,0,sub_18
0.0018723999999996,0.0108386000000012,0.0729754,-0.0277689999999994,0.0664714000000008,-0.0272058,0,sub_18
0.0041223999999996,0.0116364000000012,0.0737294,-0.0213991999999994,0.0532578000000008,-0.0245934,0,sub_18
0.0064169999999996,0.0131548000000012,0.0745546,-0.0165421999999994,0.0368494000000008,-0.0209194,0,sub_18
0.0070569999999996,0.0124184000000012,0.075629,-0.0133969999999994,0.0200182000000008,-0.016616,0,sub_18
0.0083079999999996,0.0116372000000012,0.0769782,-0.0096125999999994,0.0025474000000008,-0.0127346,0,sub_18
0.0082617999999995,0.0104670000000012,0.076614,-0.0071317999999994,-0.0115373999999991,-0.0090674,0,sub_18
0.0073145999999995,0.0095472000000012,0.0759594,-0.0056659999999994,-0.0155991999999991,-0.0069156,0,sub_18
0.0057247999999995,0.0079160000000012,0.0765414,-0.0032771999999994,-0.0142879999999991,-0.006281,0,sub_18
0.0050313999999995,0.0068484000000012,0.0772814,-0.0010873999999994,-0.0108411999999991,-0.0067186,0,sub_18
0.0044719999999996,0.0064246000000012,0.0778196,-0.0016781999999994,-0.0090881999999991,-0.007387,0,sub_18
0.0048921999999996,0.0076020000000012,0.077236,-0.0048379999999994,-0.0100925999999991,-0.0089244,0,sub_18
0.0051691999999996,0.0085488000000012,0.0775568,-0.0065051999999994,-0.0115273999999991,-0.0106644,0,sub_18
0.0054425999999996,0.0092310000000012,0.0764872,-0.0050155999999994,-0.0128091999999991,-0.0110796,0,sub_18
0.0047737999999996,0.0093416000000012,0.0750308,-0.0018111999999994,-0.0106947999999991,-0.009778,0,sub_18
0.0040865999999996,0.0094258000000012,0.073645,0.0031136000000005,-0.0045427999999991,-0.0074014,0,sub_18
0.0031479999999996,0.0096908000000012,0.0730652,0.0093158000000005,0.0022388000000008,-0.0037348,0,sub_18
0.0030367999999996,0.0093192000000012,0.0727228,0.0146462000000005,0.0064608000000008,0.0014243999999999,0,sub_18
0.0032693999999996,0.0090140000000012,0.0712106,0.0144090000000005,0.0051670000000008,0.0054835999999999,0,sub_18
0.0038147999999996,0.0105750000000012,0.069553,0.0115986000000005,-0.0005851999999991,0.0078213999999999,0,sub_18
0.0035303999999996,0.0107320000000012,0.0679718,0.0109250000000005,-0.0071909999999991,0.0086797999999999,0,sub_18
0.0026337999999996,0.0085900000000012,0.068132,0.0143708000000005,-0.0097671999999991,0.0074281999999999,0,sub_18
