userAcceleration.x,userAcceleration.y,userAcceleration.z,rotationRate.x,rotationRate.y,rotationRate.z,label,subject
-0.0159848000000002,0.0009636000000012,0.0693107999999999,0.0015358000000005,-0.0093101999999992,0.0001884,0,sub_19
-0.0210902000000002,-0.0026095999999987,0.0716765999999999,0.0042866000000005,-0.0127355999999991,0.0019212,0,sub_19
-0.0268542000000002,-0.0054449999999987,0.0739947999999999,0.0091710000000005,-0.0117121999999991,0.0081496,0,sub_19
-0.0315828000000002,-0.0051549999999987,0.0752003999999999,0.0149156000000005,-0.0058051999999992,0.0177962,0,sub_19
-0.0331920000000002,-0.0014503999999987,0.0765217999999999,0.0202500000000005,0.0030886000000007,0.026795,0,sub_19
-0.0338516000000002,0.0030812000000012,0.0768155999999999,0.0240946000000005,0.0105056000000007,0.0334352,0,sub_19
-0.0312498000000002,0.0062900000000012,0.0759457999999999,0.0240964000000005,0.0130538000000007,0.0355684,0,sub_19
-0.0289156000000002,0.0100306000000012,0.0752365999999999,0.0191890000000005,0.0103124000000007,0.0327602,0,sub_19
-0.0266356000000002,0.0135718000000012,0.0740961999999999,0.0112990000000005,0.0056760000000008,0.0269426,0,sub_19
-0.0250382000000002,0.0154158000000012,0.0722273999999999,0.0036358000000005,0.0021116000000007,0.0192026,0,sub_19
-0.0229736000000002,0.0154710000000012,0.0702183999999999,-0.0020887999999994,0.0011032000000007,0.0099772,0,sub_19
-0.0215448000000002,0.0146672000000012,0.0685635999999999,-0.0050365999999994,0.0011486000000007,0.001197,0,sub_19
-0.0207868000000002,0.0124220000000012,0.0678009999999999,-0.0047867999999994,0.0011802000000007,-0.0069197999999999,0,sub_19
-0.0205430000000002,0.0106078000000012,0.0676389999999999,-0.0039043999999994,0.0009906000000007,-0.0135363999999999,0,sub_19
-0.0206568000000002,0.0085366000000012,0.0678935999999999,-0.0045233999999994,0.0024970000000007,-0.0167473999999999,0,sub_19
-0.0201970000000002,0.0082252000000012,0.0671995999999999,-0.0077969999999994,0.0049882000000007,-0.0180795999999999,0,sub_19
-0.0183146000000002,0.0080066000000012,0.0664757999999999,-0.0119221999999994,0.0091816000000007,-0.0181379999999999,0,sub_19
-0.0158212000000002,0.0057930000000012,0.0655725999999999,-0.0147815999999993,0.0118724000000007,-0.0164763999999999,0,sub_19
-0.0138394000000002,0.0032622000000013,0.0651721999999999,-0.0155311999999994,0.0109270000000007,-0.0130863999999999,0,sub_19
-0.0135234000000002,0.0013106000000013,0.0655835999999999,-0.0156655999999993,0.0055010000000008,-0.0086181999999999,0,sub_19
-0.0155500000000002,-0.0008741999999986,0.0678083999999999,-0.0144439999999993,-0.0007093999999991,-0.0017649999999999,0,sub_19
-0.0187712000000002,-0.0013107999999986,0.0702043999999999,-0.0123599999999993,-0.0037319999999991,0.006372,0,sub_19
-0.0218994000000002,0.0005628000000013,0.0712089999999999,-0.0087459999999994,0.0004874000000008,0.0136558,0,sub_19
-0.0241426000000002,0.0029022000000012,0.0706557999999999,-0.0025341999999994,0.0102482000000008,0.0181732,0,sub_19
-0.0249204000000002,0.0055520000000012,0.0683721999999999,0.0045560000000005,0.0225746000000008,0.0197026,0,sub_19
-0.0244544000000002,0.0084784000000012,0.0662489999999999,0.0090906000000005,0.0338534000000007,0.0190788,0,sub_19
-0.0233340000000002,0.0105518000000012,0.0645735999999999,0.0099938000000005,0.0419584000000007,0.0160836,0,sub_19
-0.0218454000000002,0.0123124000000012,0.0638085999999999,0.0057636000000005,0.0458262000000007,0.0115624,0,sub_19
-0.0212110000000002,0.0132572000000012,0.0649497999999999,-0.0046685999999993,0.0460954000000007,0.0065754,0,sub_19
-0.0211400000000002,0.0134400000000012,0.0661409999999999,-0.0191653999999993,0.0442474000000007,0.0017762,0,sub_19
-0.0216370000000002,0.0126322000000012,0.0669553999999999,-0.0351615999999993,0.0415506000000007,-0.0026049999999999,0,sub_19
-0.0223942000000002,0.0115494000000012,0.0668749999999999,-0.0496717999999994,0.0386296000000007,-0.0054799999999999,0,sub_19
-0.0233912000000002,0.0100470000000012,0.0658307999999999,-0.0609929999999994,0.0344140000000007,-0.0070491999999999,0,sub_19
-0.0241318000000002,0.0080058000000012,0.0629709999999999,-0.0674191999999994,0.0280482000000007,-0.0079403999999999,0,sub_19
-0.0248234000000002,0.0062510000000012,0.0609573999999999,-0.0668155999999994,0.0195256000000007,-0.0083523999999999,0,sub_19
-0.0250536000000002,0.0064118000000012,0.0593357999999999,-0.0589649999999994,0.0090610000000007,-0.0089249999999999,0,sub_19
-0.0254838000000002,0.0065660000000012,0.0581439999999999,-0.0457829999999994,-0.0024857999999991,-0.0098863999999999,0,sub_19
-0.0243514000000002,0.0072602000000012,0.0587311999999999,-0.0306775999999994,-0.0138245999999991,-0.0112617999999999,0,sub_19
-0.0228866000000002,0.0081902000000012,0.0603409999999999,-0.0181287999999994,-0.0234533999999991,-0.0118027999999999,0,sub_19
-0.0210076000000002,0.0080810000000012,0.0630425999999999,-0.0109115999999994,-0.0307267999999991,-0.0106749999999999,0,sub_19
-0.0192904000000002,0.0062720000000012,0.0664077999999999,-0.0079559999999993,-0.0347971999999991,-0.0076581999999999,0,sub_19
-0.0175640000000002,0.0047370000000012,0.0699249999999999,-0.0086141999999994,-0.0345989999999992,-0.0033899999999999,0,sub_19
-0.0179328000000002,0.0030620000000012,0.0715715999999999,-0.0107583999999994,-0.0316299999999992,0.0019324,0,sub_19
-0.0201820000000002,0.0021522000000012,0.0716419999999999,-0.0116167999999994,-0.0280237999999992,0.006622,0,sub_19
-0.0223940000000002,0.0028658000000012,0.0700667999999999,-0.0105489999999994,-0.0248435999999992,0.0096164,0,sub_19
-0.0254026000000002,0.0049200000000012,0.0660869999999999,-0.0086209999999994,-0.0227213999999992,0.0100546,0,sub_19
-0.0276236000000002,0.0072886000000012,0.0622749999999999,-0.0058433999999994,-0.0227275999999992,0.0092194,0,sub_19
-0.0277088000000002,0.0100384000000012,0.0591803999999999,-0.0030667999999994,-0.0240079999999992,0.0073176,0,sub_19
-0.0253244000000002,0.0121650000000012,0.0580789999999999,-0.0002919999999994,-0.0263511999999991,0.0047762,0,sub_19
-0.0218520000000002,0.0127892000000012,0.0572137999999999,0.0009874000000005,-0.0301761999999991,0.0011582,0,sub_19
-0.0174116000000002,0.0127780000000012,0.0572301999999999,-0.0003089999999994,-0.0369765999999991,-0.0020467999999999,0,sub_19
-0.0134380000000002,0.0135636000000012,0.0561025999999999,-0.0063111999999994,-0.0456807999999991,-0.0046413999999999,0,sub_19
-0.0113034000000002,0.0153210000000012,0.0544587999999999,-0.0174351999999994,-0.0547921999999991,-0.0074847999999999,0,sub_19
-0.0107562000000002,0.0171096000000012,0.0520419999999999,-0.0347259999999994,-0.0591947999999991,-0.0103771999999999,0,sub_19
-0.0123208000000002,0.0204480000000012,0.0493083999999999,-0.0545811999999994,-0.0574457999999991,-0.0090321999999999,0,sub_19
-0.0117338000000002,0.0217556000000012,0.0458853999999999,-0.0701343999999994,-0.0450709999999991,-0.0046797999999999,0,sub_19
-0.0103682000000002,0.0200334000000012,0.0457881999999999,-0.0831203999999994,-0.0337599999999991,-0.0028717999999999,0,sub_19
-0.0086706000000002,0.0156252000000012,0.0503391999999999,-0.0907845999999994,-0.0260863999999991,-0.0018765999999999,0,sub_19
-0.0051988000000002,0.0104650000000012,0.0564093999999999,-0.0890669999999994,-0.0203611999999991,-0.0012407999999999,0,sub_19
-0.0010246000000002,0.0043994000000012,0.0621457999999999,-0.0766509999999994,-0.0150635999999991,-0.0047929999999999,0,sub_19
-0.0008200000000002,-9.679999999871284e-05,0.0675239999999999,-0.0601915999999994,-0.0144579999999991,-0.0106609999999999,0,sub_19
-0.0027288000000002,-0.0010857999999987,0.0696139999999999,-0.0414161999999994,-0.0099687999999991,-0.0129515999999999,0,sub_19
-0.0051990000000002,0.0001946000000012,0.0678553999999999,-0.0230531999999994,0.0006886000000007,-0.0122619999999999,0,sub_19
-0.0091202000000002,0.0024862000000012,0.0649855999999999,-0.0070419999999994,0.0119864000000007,-0.0098803999999999,0,sub_19
-0.0122332000000002,0.0041894000000012,0.0636419999999999,0.0040480000000005,0.0222284000000007,-0.0056089999999999,0,sub_19
-0.0138706000000002,0.0059828000000012,0.0642179999999999,0.0108688000000005,0.0314228000000007,-0.0020069999999999,0,sub_19
-0.0143188000000002,0.0064260000000012,0.0658249999999999,0.0179380000000005,0.0394866000000007,-4.519999999993834e-05,0,sub_19
-0.0145860000000002,0.0063872000000012,0.0675165999999999,0.0247918000000005,0.0458518000000007,0.0006356,0,sub_19
-0.0143502000000002,0.0065966000000012,0.0693113999999999,0.0284460000000005,0.0515924000000007,0.0004402,0,sub_19
-0.0146218000000002,0.0082258000000012,0.0702387999999999,0.0274826000000005,0.0563832000000007,-0.0013101999999999,0,sub_19
-0.0150140000000001,0.0092876000000012,0.0714535999999999,0.0222410000000005,0.0592696000000007,-0.0026607999999999,0,sub_19
-0.0156480000000002,0.0092640000000012,0.0724863999999999,0.0137902000000005,0.0604620000000007,-0.0038179999999999,0,sub_19
-0.0161384000000002,0.0081996000000012,0.0730845999999999,0.0040536000000005,0.0599562000000007,-0.0054093999999999,0,sub_19
-0.0175850000000002,0.0069436000000012,0.0733897999999999,-0.0052669999999994,0.0568932000000007,-0.0072081999999999,0,sub_19
-0.0199104000000002,0.0055034000000012,0.0734193999999999,-0.0131875999999994,0.0505318000000007,-0.0078963999999999,0,sub_19
-0.0219646000000002,0.0046716000000012,0.0728325999999999,-0.0183313999999994,0.0450120000000007,-0.0083525999999998,0,sub_19
-0.0239234000000002,0.0048194000000012,0.0716445999999999,-0.0217693999999994,0.0403342000000008,-0.0077295999999998,0,sub_19
-0.0254186000000002,0.0052012000000012,0.0710445999999999,-0.0238523999999994,0.0364800000000007,-0.0066919999999999,0,sub_19
-0.0258756000000002,0.0054562000000012,0.0705091999999999,-0.0250789999999994,0.0338984000000007,-0.0050089999999998,0,sub_19
-0.0256878000000002,0.0054440000000012,0.0711247999999999,-0.0252243999999994,0.0345090000000007,-0.0033225999999999,0,sub_19
-0.0251654000000002,0.0049518000000012,0.0714517999999999,-0.0255755999999994,0.0364004000000007,-0.0020665999999999,0,sub_19
-0.0245076000000002,0.0049940000000012,0.0717333999999999,-0.0261255999999994,0.0402150000000007,-0.0020963999999999,0,sub_19
-0.0247258000000002,0.0047652000000012,0.0713285999999999,-0.0267437999999994,0.0442686000000007,-0.0029603999999999,0,sub_19
-0.0249312000000002,0.0044274000000012,0.0708239999999999,-0.0269379999999994,0.0476816000000007,-0.0038207999999999,0,sub_19
-0.0256424000000002,0.0032556000000012,0.0699919999999999,-0.0271359999999994,0.0504546000000007,-0.0044665999999999,0,sub_19
-0.0270432000000002,0.0019796000000012,0.0694031999999999,-0.0253311999999993,0.0526508000000007,-0.0042519999999999,0,sub_19
-0.0290534000000002,4.200000001267252e-06,0.0696943999999999,-0.0222549999999993,0.0548350000000007,-0.0021055999999999,0,sub_19
-0.0298148000000002,-0.0009083999999987,0.0708773999999999,-0.0179021999999993,0.0578600000000007,0.0017576,0,sub_19
-0.0301378000000002,-0.0015949999999986,0.0710841999999999,-0.0120491999999994,0.0623712000000007,0.0056294,0,sub_19
-0.0292246000000002,-0.0015191999999986,0.0711823999999999,-0.0049189999999994,0.0658144000000007,0.0090842,0,sub_19
-0.0283572000000002,-0.0007333999999986,0.0705793999999999,0.0010448000000005,0.0664208000000007,0.0121162,0,sub_19
-0.0278796000000002,0.0011820000000013,0.0697011999999999,0.0057180000000005,0.0638392000000007,0.0142886,0,sub_19
-0.0281962000000002,0.0022230000000012,0.0681999999999999,0.0082554000000005,0.0597780000000007,0.0153798,0,sub_19
-0.0290890000000002,0.0030792000000012,0.0680053999999999,0.0090612000000005,0.0543346000000007,0.0151868,0,sub_19
-0.0305618000000002,0.0034250000000012,0.0680275999999999,0.0087974000000005,0.0476190000000007,0.014347,0,sub_19
-0.0315594000000002,0.0033984000000012,0.0682913999999999,0.0091794000000005,0.0413306000000007,0.0126564,0,sub_19
-0.0317148000000002,0.0023116000000012,0.0682897999999999,0.0104246000000005,0.0363210000000007,0.0101156,0,sub_19
-0.0313046000000002,0.0016090000000012,0.0685727999999999,0.0129510000000005,0.0315200000000007,0.0075836,0,sub_19
-0.0308094000000002,0.0010528000000012,0.0682957999999999,0.0165678000000005,0.0274660000000007,0.0059048,0,sub_19
-0.0299844000000002,0.0015174000000012,0.0669215999999999,0.0204038000000005,0.0249018000000007,0.0044392,0,sub_19
-0.0287220000000002,0.0024480000000012,0.0656415999999999,0.0229644000000005,0.0238320000000007,0.0033902,0,sub_19
-0.0271138000000002,0.0038958000000012,0.0644727999999999,0.0252040000000005,0.0238122000000007,0.0029926,0,sub_19
-0.0253980000000002,0.0056848000000012,0.0628171999999999,0.0263806000000005,0.0246484000000007,0.0025864,0,sub_19
-0.0235138000000002,0.0075022000000012,0.0614979999999999,0.0256302000000005,0.0242122000000007,0.002382,0,sub_19
-0.0222080000000002,0.0082702000000012,0.0611375999999999,0.0229566000000005,0.0235678000000007,0.0025918,0,sub_19
-0.0211840000000002,0.0085008000000012,0.0614027999999999,0.0196380000000005,0.0220726000000007,0.0030118,0,sub_19
-0.0201418000000002,0.0085020000000012,0.0615885999999999,0.0159964000000005,0.0193138000000007,0.0034172,0,sub_19
-0.0201672000000002,0.0075934000000012,0.0625019999999999,0.0138436000000005,0.0154846000000007,0.0038342,0,sub_19
-0.0201086000000002,0.0071304000000012,0.0634209999999999,0.0121166000000005,0.0114408000000007,0.0042546,0,sub_19
-0.0195940000000002,0.0068922000000012,0.0636015999999999,0.0117584000000005,0.0077040000000007,0.0051337999999999,0,sub_19
-0.0194276000000002,0.0071282000000012,0.0637687999999999,0.0118346000000005,0.0054578000000007,0.0058004,0,sub_19
-0.0189628000000002,0.0075316000000012,0.0641969999999999,0.0129900000000005,0.0055532000000007,0.0060442,0,sub_19
-0.0176610000000002,0.0091898000000012,0.0644965999999999,0.0135120000000005,0.0071422000000007,0.0062817999999999,0,sub_19
-0.0160808000000002,0.0107874000000012,0.0642987999999999,0.0133998000000005,0.0097996000000007,0.0062998,0,sub_19
-0.0145680000000002,0.0123372000000012,0.0649991999999999,0.0119214000000005,0.0119404000000007,0.0050048,0,sub_19
-0.0131190000000002,0.0131028000000012,0.0651663999999999,0.0100164000000005,0.0138704000000007,0.0034936,0,sub_19
-0.0124900000000002,0.0133752000000012,0.0654675999999999,0.0066158000000005,0.0149554000000007,0.0015456,0,sub_19
-0.0124200000000002,0.0125880000000012,0.0657583999999999,0.0022572000000005,0.0154420000000007,-0.0006021999999999,0,sub_19
-0.0132878000000002,0.0106122000000012,0.0660951999999999,-0.0027367999999994,0.0163596000000007,-0.0033957999999999,0,sub_19
-0.0150738000000002,0.0091674000000012,0.0662857999999999,-0.0070933999999994,0.0174848000000007,-0.0053307999999999,0,sub_19
-0.0169678000000002,0.0078344000000012,0.0668095999999999,-0.0108185999999994,0.0171146000000007,-0.0068321999999999,0,sub_19
-0.0183676000000002,0.0062332000000012,0.0674151999999999,-0.0128453999999994,0.0160940000000007,-0.0070389999999999,0,sub_19
-0.0193370000000002,0.0049580000000012,0.0679067999999999,-0.0122119999999994,0.0154492000000007,-0.0061791999999999,0,sub_19
-0.0206090000000002,0.0045492000000012,0.0688529999999999,-0.0085971999999994,0.0147888000000007,-0.0040165999999999,0,sub_19
-0.0212830000000002,0.0035486000000012,0.0696169999999999,-0.0041241999999994,0.0156150000000007,-0.0014225999999999,0,sub_19
-0.0220800000000002,0.0037698000000012,0.0693887999999999,0.0005680000000005,0.0179312000000007,0.0013846,0,sub_19
-0.0225646000000002,0.0044180000000012,0.0683827999999999,0.0052642000000005,0.0196142000000007,0.0026972,0,sub_19
-0.0234146000000002,0.0050598000000012,0.0675385999999999,0.0080332000000005,0.0183272000000007,0.0025046,0,sub_19
-0.0234658000000002,0.0060224000000012,0.0667981999999999,0.0084504000000005,0.0151342000000007,0.0014434,0,sub_19
-0.0234290000000002,0.0079426000000012,0.0676773999999999,0.0090878000000005,0.0119464000000007,-0.0011117999999999,0,sub_19
-0.0228958000000002,0.0088008000000012,0.0689553999999999,0.0086668000000005,0.0089822000000007,-0.0053837999999999,0,sub_19
-0.0227536000000002,0.0091020000000012,0.0708563999999999,0.0052632000000005,0.0066692000000007,-0.0101047999999999,0,sub_19
-0.0222926000000002,0.0096386000000012,0.0725823999999999,0.0010092000000005,0.0052106000000007,-0.0146191999999999,0,sub_19
-0.0236810000000002,0.0088178000000012,0.0736585999999999,-0.0021769999999994,0.0037492000000007,-0.0193397999999999,0,sub_19
-0.0247464000000002,0.0067346000000012,0.0732671999999999,-0.0075123999999994,-0.0002647999999992,-0.0232175999999999,0,sub_19
-0.0256036000000002,0.0058944000000012,0.0732721999999999,-0.0135011999999994,-0.0057739999999992,-0.0256025999999999,0,sub_19
-0.0261832000000002,0.0053610000000012,0.0727061999999999,-0.0158691999999994,-0.0113017999999992,-0.0264665999999999,0,sub_19
-0.0270684000000002,0.0041946000000012,0.0718137999999999,-0.0178115999999994,-0.0164075999999992,-0.0266871999999999,0,sub_19
-0.0260090000000002,0.0044134000000012,0.0714445999999999,-0.0231737999999994,-0.0212943999999992,-0.0254365999999999,0,sub_19
-0.0252156000000002,0.0059456000000012,0.0715133999999999,-0.0285309999999994,-0.0246913999999992,-0.0237603999999999,0,sub_19
-0.0246534000000002,0.0063440000000012,0.0722711999999999,-0.0323907999999994,-0.0268169999999991,-0.0216481999999999,0,sub_19
-0.0240254000000002,0.0061196000000012,0.0739057999999999,-0.0377375999999994,-0.0278703999999991,-0.0199751999999999,0,sub_19
-0.0228632000000002,0.0056412000000012,0.0757215999999999,-0.0415747999999994,-0.0260183999999991,-0.0187237999999999,0,sub_19
-0.0226556000000002,0.0042758000000012,0.0775469999999999,-0.0400671999999994,-0.0220535999999991,-0.0176511999999999,0,sub_19
-0.0220038000000002,0.0027360000000012,0.0786983999999999,-0.0338673999999993,-0.0174703999999991,-0.0154785999999999,0,sub_19
-0.0221246000000002,0.0015056000000012,0.0787023999999999,-0.0257453999999994,-0.0126799999999992,-0.0135061999999999,0,sub_19
-0.0228570000000002,0.0013870000000012,0.0778289999999999,-0.0171975999999993,-0.0078919999999992,-0.0113171999999999,0,sub_19
-0.0239406000000002,0.0024060000000012,0.0760871999999999,-0.0097285999999993,-0.0049463999999992,-0.0084913999999999,0,sub_19
-0.0236596000000002,0.0037760000000012,0.0745959999999999,-0.0041855999999993,-0.0032725999999992,-0.0056773999999999,0,sub_19
-0.0236696000000002,0.0046760000000012,0.0735075999999999,-0.0022691999999993,-0.0030705999999992,-0.0045959999999999,0,sub_19
-0.0233326000000002,0.0048692000000012,0.0733035999999999,-0.0018807999999993,-0.0034557999999992,-0.0041863999999999,0,sub_19
-0.0231854000000002,0.0042800000000012,0.0738201999999999,-0.0010637999999994,-0.0034163999999992,-0.0037741999999999,0,sub_19
-0.0227982000000002,0.0035804000000012,0.0752295999999999,0.0012496000000005,-0.0027431999999992,-0.0033523999999999,0,sub_19
-0.0229474000000002,0.0032136000000012,0.0763799999999999,0.0039946000000005,-0.0020669999999992,-0.0039957999999999,0,sub_19
-0.0235508000000002,0.0026072000000012,0.0765669999999999,0.0073750000000005,-0.0020339999999992,-0.0042065999999999,0,sub_19
-0.0242622000000002,0.0025468000000012,0.0762347999999999,0.0103488000000005,-0.0041783999999992,-0.0033283999999999,0,sub_19
-0.0244610000000002,0.0033544000000012,0.0753503999999999,0.0124566000000005,-0.0088771999999992,-0.0022393999999999,0,sub_19
-0.0247742000000002,0.0030096000000012,0.0746113999999999,0.0137014000000005,-0.0150669999999992,-0.0005135999999999,0,sub_19
-0.0248114000000002,0.0027972000000012,0.0734109999999999,0.0160008000000005,-0.0192839999999992,0.002275,0,sub_19
-0.0241866000000002,0.0033196000000012,0.0724977999999999,0.0193700000000005,-0.0220165999999992,0.0059238,0,sub_19
-0.0227436000000002,0.0036550000000012,0.0717841999999999,0.0236042000000005,-0.0226199999999992,0.0091486,0,sub_19
-0.0213532000000002,0.0040566000000012,0.0710355999999999,0.0280740000000005,-0.0195971999999992,0.0110886,0,sub_19
-0.0200094000000002,0.0064182000000012,0.0701263999999999,0.0319246000000005,-0.0140069999999992,0.0108846,0,sub_19
-0.0198350000000002,0.0083408000000012,0.0700391999999999,0.0334450000000005,-0.0097441999999992,0.0091806,0,sub_19
-0.0197236000000002,0.0100162000000012,0.0697203999999999,0.0328414000000005,-0.0054655999999992,0.0053254,0,sub_19
-0.0202798000000002,0.0112948000000012,0.0695703999999999,0.0299002000000005,-0.0009581999999992,-0.0004691999999999,0,sub_19
-0.0213396000000002,0.0117020000000012,0.0698527999999999,0.0248046000000005,0.0011028000000007,-0.0064701999999999,0,sub_19
-0.0228194000000002,0.0106222000000012,0.0697153999999999,0.0186278000000005,0.0008206000000007,-0.0116209999999999,0,sub_19
-0.0235260000000002,0.0093442000000012,0.0699609999999999,0.0124502000000005,0.0011740000000007,-0.0159179999999999,0,sub_19
-0.0241542000000002,0.0074518000000012,0.0708243999999999,0.0064782000000005,0.0010954000000007,-0.0189311999999999,0,sub_19
-0.0243354000000002,0.0057818000000012,0.0718575999999999,0.0011386000000005,0.0010078000000007,-0.0202309999999999,0,sub_19
-0.0240036000000002,0.0046350000000012,0.0731311999999999,-0.0018447999999994,0.0016582000000007,-0.0204661999999999,0,sub_19
-0.0229742000000002,0.0037330000000012,0.0746257999999999,-0.0031173999999994,0.0035792000000007,-0.0202639999999999,0,sub_19
-0.0222898000000002,0.0023396000000012,0.0751931999999999,-0.0031145999999994,0.0052792000000007,-0.0191979999999999,0,sub_19
-0.0217180000000002,0.0016980000000012,0.0754839999999999,-0.0013507999999994,0.0084298000000007,-0.0167793999999999,0,sub_19
-0.0217114000000002,0.0014926000000012,0.0751017999999999,0.0010512000000005,0.0126374000000007,-0.0128619999999999,0,sub_19
-0.0213446000000002,0.0013926000000012,0.0746835999999999,0.0021692000000005,0.0170582000000007,-0.0078855999999999,0,sub_19
-0.0215302000000002,0.0015550000000012,0.0740883999999999,0.0026462000000005,0.0216926000000007,-0.0024865999999999,0,sub_19
-0.0211082000000002,0.0026710000000012,0.0733437999999999,0.0031250000000005,0.0263288000000007,0.002485,0,sub_19
-0.0199610000000002,0.0039832000000012,0.0727125999999999,0.0033384000000005,0.0295110000000007,0.0056872,0,sub_19
-0.0186776000000002,0.0057076000000012,0.0725759999999999,0.0035462000000005,0.0303540000000007,0.007824,0,sub_19
-0.0182608000000002,0.0075974000000012,0.0721035999999999,0.0046006000000005,0.0290660000000007,0.0093284,0,sub_19
-0.0178348000000002,0.0093644000000012,0.0719921999999999,0.0052234000000005,0.0262898000000007,0.0104046,0,sub_19
-0.0175110000000002,0.0106108000000012,0.0725635999999999,0.0044154000000005,0.0220324000000007,0.010464,0,sub_19
-0.0177918000000002,0.0112896000000012,0.0728799999999999,0.0023262000000005,0.0175664000000007,0.0105148,0,sub_19
-0.0184464000000002,0.0115668000000012,0.0728635999999999,-0.0008319999999994,0.0120414000000007,0.0099186,0,sub_19
-0.0185252000000002,0.0102610000000012,0.0727071999999999,-0.0044061999999994,0.0075884000000007,0.0080362,0,sub_19
-0.0191920000000002,0.0089908000000012,0.0727887999999999,-0.0081851999999994,0.0042048000000007,0.0052962,0,sub_19
-0.0198498000000002,0.0079230000000012,0.0724993999999999,-0.0111695999999994,0.0025202000000007,0.0029274,0,sub_19
-0.0209166000000002,0.0062402000000012,0.0723167999999999,-0.0126497999999994,0.0031740000000007,0.000566,0,sub_19
-0.0214626000000002,0.0058310000000012,0.0725983999999999,-0.0130265999999994,0.0072578000000007,-0.0019639999999999,0,sub_19
-0.0217062000000002,0.0061798000000012,0.0733683999999999,-0.0136197999999994,0.0115518000000007,-0.0036411999999999,0,sub_19
-0.0215474000000002,0.0070328000000012,0.0734775999999998,-0.0146519999999994,0.0130778000000007,-0.0053177999999999,0,sub_19
-0.0220702000000002,0.0078484000000012,0.0733963999999998,-0.0154851999999994,0.0116194000000007,-0.0067755999999999,0,sub_19
-0.0229478000000002,0.0083082000000012,0.0732781999999999,-0.0167663999999994,0.0061120000000007,-0.0075903999999999,0,sub_19
-0.0236508000000002,0.0069356000000012,0.0727337999999999,-0.0167999999999994,-0.0015569999999991,-0.0077943999999999,0,sub_19
-0.0247372000000002,0.0056746000000012,0.0716759999999999,-0.0157693999999994,-0.0098687999999991,-0.0079901999999999,0,sub_19
-0.0253128000000002,0.0038312000000012,0.0710345999999999,-0.0117421999999994,-0.0158483999999991,-0.0079543999999999,0,sub_19
-0.0255212000000002,0.0025378000000012,0.0709579999999999,-0.0068929999999994,-0.0194495999999991,-0.0081053999999999,0,sub_19
-0.0251122000000002,0.0015708000000012,0.0705839999999999,-0.0005405999999994,-0.0209255999999991,-0.0082485999999999,0,sub_19
