userAcceleration.x,userAcceleration.y,userAcceleration.z,rotationRate.x,rotationRate.y,rotationRate.z,label,subject
-0.0019244000000004,0.0025702000000012,0.0052823999999999,0.0013156000000005,0.0164124000000006,-0.0397322,0,sub_10
-0.0027342000000004,0.0017058000000012,0.0057565999999999,0.0012492000000005,0.0192686000000006,-0.0444936,0,sub_10
-0.0023216000000003,0.0018492000000012,0.0046635999999999,0.0020162000000004,0.0176478000000006,-0.0492436,0,sub_10
-0.0013812000000003,0.0030644000000012,0.0012069999999999,0.0038598000000004,0.0196392000000006,-0.052495,0,sub_10
0.0012629999999996,0.0051584000000012,-0.0012588,0.0051812000000004,0.0300692000000006,-0.0512172,0,sub_10
0.0044999999999996,0.0083874000000012,-0.003231,0.0056348000000004,0.0430358000000006,-0.0441804,0,sub_10
0.0059525999999996,0.0115294000000012,-0.00354,0.0069198000000004,0.0519480000000006,-0.036278,0,sub_10
0.0065257999999995,0.0112210000000013,-0.0023474,0.0085388000000005,0.0569568000000006,-0.0286138,0,sub_10
0.0072241999999995,0.0099686000000013,-0.0014894,0.0101490000000005,0.0596236000000005,-0.0213742,0,sub_10
0.0061091999999995,0.0091990000000013,-0.0022084,0.0119660000000005,0.0601618000000005,-0.0147712,0,sub_10
0.0065551999999995,0.0075794000000013,-0.0021498,0.0118836000000005,0.0653938000000005,-0.0081876,0,sub_10
0.0086155999999995,0.0053442000000013,-0.0016314,0.0086218000000005,0.0776584000000005,0.0007149999999999,0,sub_10
0.0098301999999995,0.0053310000000013,-0.0004486,0.0060594000000005,0.0867902000000006,0.0102993999999999,0,sub_10
0.0086325999999995,0.0054284000000013,-0.0009684,0.0053982000000004,0.0891078000000005,0.0173421999999999,0,sub_10
0.0084989999999995,0.0055562000000013,-0.0010046,0.0056000000000004,0.0901578000000005,0.0209741999999999,0,sub_10
0.0083153999999995,0.0065134000000013,-0.0007818,0.0058210000000004,0.0922858000000005,0.0214003999999999,0,sub_10
0.0090299999999995,0.0080258000000013,-0.0009474,0.0051688000000004,0.0936710000000005,0.0205579999999999,0,sub_10
0.0084695999999995,0.0081448000000013,-0.00144,0.0032440000000004,0.0940064000000006,0.0169307999999999,0,sub_10
0.0080519999999995,0.0076604000000013,0.0008623999999999,0.0004628000000005,0.0913716000000006,0.0109511999999999,0,sub_10
0.0087063999999995,0.0068112000000013,0.0018123999999999,-0.0025441999999994,0.0855434000000005,0.0045469999999999,0,sub_10
0.0103933999999995,0.0058888000000012,0.0004707999999999,-0.0047109999999994,0.0782148000000006,-0.000354,0,sub_10
0.0099441999999995,0.0051556000000012,-0.0002444,-0.0077173999999994,0.0714178000000006,-0.00293,0,sub_10
0.0094985999999995,0.0051710000000012,-0.000962,-0.0111553999999994,0.0661034000000005,-0.0029472,0,sub_10
0.0090847999999995,0.0066496000000012,-0.003578,-0.0126679999999994,0.0639696000000005,-0.0008184,0,sub_10
0.0089353999999995,0.0077380000000012,-0.0058874,-0.0122457999999994,0.0645974000000005,0.0022525999999999,0,sub_10
0.0078721999999995,0.0084274000000012,-0.0079788,-0.0098983999999994,0.0664960000000005,0.0055489999999999,0,sub_10
0.0082171999999995,0.0084024000000012,-0.0087584,-0.0054095999999994,0.0681816000000005,0.0069379999999999,0,sub_10
0.0104039999999995,0.0075590000000012,-0.0081492,-0.0030639999999994,0.0696542000000005,0.0102349999999999,0,sub_10
0.0121469999999995,0.0060810000000012,-0.0060498,-0.0030743999999994,0.0707028000000005,0.0150115999999999,0,sub_10
0.0107667999999995,0.0051154000000012,-0.0058586,-0.0037277999999994,0.0717540000000005,0.0190649999999999,0,sub_10
0.0093079999999995,0.0052122000000012,-0.00607,-0.0054463999999994,0.0704766000000005,0.0203365999999999,0,sub_10
0.0091535999999995,0.0037928000000012,-0.0063102,-0.0090653999999994,0.0728038000000005,0.0206547999999999,0,sub_10
0.0091255999999995,0.0033606000000012,-0.0048968,-0.0109735999999994,0.0744916000000005,0.0194901999999999,0,sub_10
0.0094341999999995,0.0035430000000012,-0.0026314,-0.0128931999999994,0.0727740000000005,0.0174751999999999,0,sub_10
0.0105001999999995,0.0031940000000012,0.0013455999999999,-0.0156797999999994,0.0676524000000005,0.0150311999999999,0,sub_10
0.0121451999999995,0.0031946000000013,0.0026893999999999,-0.0186739999999994,0.0640220000000005,0.0127975999999999,0,sub_10
0.0124735999999995,0.0052112000000013,0.0011565999999999,-0.0191169999999995,0.0593406000000005,0.0117321999999999,0,sub_10
0.0143257999999995,0.0076936000000013,-0.0010246,-0.0180721999999994,0.0546490000000005,0.0119591999999999,0,sub_10
0.0167707999999995,0.0085792000000012,-0.002494,-0.0180989999999994,0.0488958000000006,0.0121799999999999,0,sub_10
0.0188951999999995,0.0091494000000012,-0.0038162,-0.0189869999999994,0.0405924000000005,0.0115435999999999,0,sub_10
0.0189659999999995,0.0080984000000012,-0.0042644,-0.0184037999999994,0.0296174000000005,0.0104479999999999,0,sub_10
0.0198199999999995,0.0079410000000012,-0.0048846,-0.0165405999999994,0.0175770000000005,0.0082943999999999,0,sub_10
0.0197811999999995,0.0079622000000012,-0.0072172,-0.0153039999999994,0.0095826000000005,0.0071993999999999,0,sub_10
0.0204369999999995,0.0092986000000012,-0.00796,-0.0134283999999994,0.0051924000000005,0.0099499999999999,0,sub_10
0.0204019999999995,0.0104554000000012,-0.007471,-0.0092217999999994,-0.0002813999999994,0.0152819999999999,0,sub_10
0.0188971999999995,0.0108522000000012,-0.0075206,-0.0041651999999994,-0.0086321999999994,0.0213101999999999,0,sub_10
0.0166811999999995,0.0109184000000012,-0.0088466,0.0017566000000005,-0.0148537999999993,0.0269143999999999,0,sub_10
0.0151241999999995,0.0112990000000012,-0.0097008,0.0083308000000005,-0.0187323999999993,0.0320927999999999,0,sub_10
0.0139211999999995,0.0108976000000012,-0.009599,0.0155404000000005,-0.0232539999999993,0.0377037999999999,0,sub_10
0.0133357999999995,0.0097366000000012,-0.0078912,0.0233642000000005,-0.0280411999999993,0.0442671999999999,0,sub_10
0.0132807999999995,0.0077604000000012,-0.0042876,0.0318022000000005,-0.0390073999999993,0.0504153999999999,0,sub_10
0.0130167999999995,0.0051834000000012,0.0008417999999999,0.0397886000000005,-0.0569969999999993,0.0550739999999999,0,sub_10
0.0124395999999995,0.0021962000000012,0.0028271999999999,0.0445936000000005,-0.0730483999999993,0.0573579999999999,0,sub_10
0.0115011999999995,-0.0005985999999986,0.0022351999999999,0.0436674000000005,-0.0860825999999993,0.0559659999999999,0,sub_10
0.0121005999999995,-0.0014065999999986,0.0034841999999999,0.0370126000000005,-0.0975541999999993,0.0533703999999999,0,sub_10
0.0135519999999995,-2.599999998698956e-06,0.0058733999999999,0.0229090000000005,-0.1052853999999993,0.0499151999999999,0,sub_10
0.0150585999999995,0.0021484000000013,0.0068525999999999,0.0032740000000005,-0.1114971999999993,0.0442829999999999,0,sub_10
0.0132075999999995,0.0046670000000013,0.0081615999999999,-0.0131479999999994,-0.1196189999999993,0.0339753999999999,0,sub_10
0.0089209999999996,0.0072496000000012,0.0070263999999999,-0.0239771999999994,-0.1209295999999993,0.0204935999999999,0,sub_10
0.0038867999999996,0.0074564000000013,0.0035865999999999,-0.0289945999999994,-0.1133027999999994,0.0046907999999999,0,sub_10
-0.0029316000000003,0.0065780000000013,-0.0006036,-0.0275723999999994,-0.0962051999999994,-0.009849,0,sub_10
-0.0098756000000003,0.0053336000000013,-0.0037192,-0.0244251999999994,-0.0706091999999993,-0.019901,0,sub_10
-0.0116394000000003,0.0037130000000013,-0.0057656,-0.0225685999999994,-0.0403497999999993,-0.0229178,0,sub_10
-0.0090474000000003,0.0027532000000013,-0.0053124,-0.0201097999999994,-0.0144273999999994,-0.0186654,0,sub_10
-0.0049542000000003,0.0048806000000013,-0.0057324,-0.0176949999999994,0.0067874000000005,-0.0092798,0,sub_10
0.0005319999999995,0.0066276000000013,-0.0045682,-0.0176627999999995,0.0222494000000005,0.0022329999999999,0,sub_10
0.0047191999999995,0.0068858000000013,-0.0024096,-0.0153111999999994,0.0291904000000005,0.0114227999999999,0,sub_10
0.0051535999999995,0.0063424000000013,0.0006293999999999,-0.0123299999999994,0.0280562000000005,0.0148589999999999,0,sub_10
0.0035761999999995,0.0048616000000013,0.0006077999999999,-0.0099857999999994,0.0257112000000006,0.0131691999999999,0,sub_10
0.0011651999999995,0.0024816000000013,-0.0006418,-0.0101751999999994,0.0263698000000006,0.0084669999999999,0,sub_10
0.0011627999999995,0.0016188000000012,-0.0023344,-0.0111969999999994,0.0302332000000006,0.0022591999999999,0,sub_10
0.0034379999999995,0.0014076000000012,-0.0027196,-0.0152031999999994,0.0362316000000006,-0.0024766,0,sub_10
0.0058579999999995,0.0022878000000012,-0.0030946,-0.0198715999999994,0.0413638000000006,-0.0031568,0,sub_10
0.0067877999999995,0.0032086000000012,-0.0038778,-0.0232805999999994,0.0420166000000006,-0.0036088,0,sub_10
0.0081509999999995,0.0039758000000012,-0.0055412,-0.0253909999999994,0.0382856000000006,-0.0055574,0,sub_10
0.0083153999999995,0.0048658000000013,-0.0076256,-0.0270669999999994,0.0371066000000006,-0.0066516,0,sub_10
0.0086367999999995,0.0061748000000013,-0.0096618,-0.0270359999999994,0.0374068000000006,-0.0062404,0,sub_10
0.0089165999999995,0.0064154000000013,-0.0105444,-0.0274299999999994,0.0383470000000006,-0.0056192,0,sub_10
0.0098801999999995,0.0070900000000013,-0.0091843999999999,-0.0286765999999994,0.0390786000000006,-0.0054308,0,sub_10
0.0097491999999995,0.0075674000000013,-0.0061891999999999,-0.0310247999999994,0.0386616000000006,-0.0056604,0,sub_10
0.0093867999999995,0.0072484000000012,-0.0053291999999999,-0.0325213999999994,0.0369666000000006,-0.0067368,0,sub_10
0.0089537999999995,0.0066264000000012,-0.006,-0.0333663999999994,0.0386750000000006,-0.0069584,0,sub_10
0.0096261999999995,0.0064270000000012,-0.0073719999999999,-0.0331375999999994,0.0429318000000006,-0.0061076,0,sub_10
0.0092051999999995,0.0057270000000012,-0.006451,-0.0337721999999994,0.0470228000000006,-0.003451,0,sub_10
0.0087357999999995,0.0048364000000012,-0.0054954,-0.0335657999999994,0.0500386000000006,0.0009221999999999,0,sub_10
0.0083811999999995,0.0043704000000012,-0.0045304,-0.0329335999999994,0.0524154000000006,0.0048717999999999,0,sub_10
0.0083781999999995,0.0054304000000012,-0.0052668,-0.0331491999999994,0.0550124000000006,0.0077467999999999,0,sub_10
0.0093029999999995,0.0060896000000013,-0.006319,-0.0342163999999994,0.0578264000000006,0.0104019999999999,0,sub_10
0.0113503999999995,0.0063572000000013,-0.0067242,-0.0338001999999994,0.0578154000000006,0.0127549999999999,0,sub_10
0.0116679999999995,0.0064982000000013,-0.0080728,-0.0321257999999994,0.0507778000000006,0.0129893999999999,0,sub_10
0.0114271999999995,0.0062752000000013,-0.0094112,-0.0294047999999995,0.0386258000000006,0.0125965999999999,0,sub_10
0.0098499999999995,0.0048892000000013,-0.0106436,-0.0258353999999995,0.0267910000000006,0.0112109999999999,0,sub_10
0.0075485999999995,0.0037906000000013,-0.0108543999999999,-0.0222439999999994,0.0200686000000005,0.0100325999999999,0,sub_10
0.0089329999999995,0.0056668000000012,-0.011883,-0.0194955999999995,0.0178148000000005,0.0109789999999999,0,sub_10
0.0112693999999995,0.0069292000000012,-0.011325,-0.0195113999999995,0.0200354000000005,0.0142503999999999,0,sub_10
0.0118347999999995,0.0073640000000012,-0.009809,-0.0171981999999994,0.0167144000000005,0.0160495999999999,0,sub_10
0.0124457999999995,0.0075072000000012,-0.0087672,-0.0142473999999994,0.0081836000000005,0.0156537999999999,0,sub_10
0.0134367999999995,0.0076848000000012,-0.0083288,-0.0121539999999994,-0.0018329999999993,0.0146129999999999,0,sub_10
0.0118345999999995,0.0062266000000013,-0.0083288,-0.0104417999999994,-0.0081305999999993,0.0141135999999999,0,sub_10
0.0107993999999995,0.0055810000000013,-0.0093684,-0.0078713999999994,-0.0116681999999993,0.0153257999999999,0,sub_10
0.0114053999999995,0.0056792000000013,-0.0091546,-0.0072193999999994,-0.0124389999999993,0.0188713999999999,0,sub_10
0.0116969999999995,0.0057402000000013,-0.0075996,-0.0061577999999994,-0.0170461999999993,0.0224245999999999,0,sub_10
0.0119377999999995,0.0056880000000013,-0.0066858,-0.0048857999999994,-0.0244153999999993,0.0238463999999999,0,sub_10
0.0120981999999995,0.0048648000000013,-0.0069516,-0.0061881999999994,-0.0305843999999993,0.0225633999999999,0,sub_10
0.0125757999999995,0.0043540000000013,-0.0057114,-0.0087495999999994,-0.0346081999999993,0.0187051999999999,0,sub_10
0.0125503999999995,0.0037322000000013,-0.0056162,-0.0140741999999994,-0.0373395999999993,0.0137575999999999,0,sub_10
0.0120843999999995,0.0033132000000013,-0.005574,-0.0223689999999994,-0.0366499999999993,0.0083575999999999,0,sub_10
0.0111341999999995,0.0040222000000013,-0.0055958,-0.0299515999999994,-0.0342683999999993,0.0029013999999999,0,sub_10
0.0099125999999995,0.0056772000000013,-0.0061624,-0.0343383999999994,-0.0323265999999993,-0.001891,0,sub_10
0.0090707999999995,0.0061346000000013,-0.0067736,-0.0355245999999995,-0.0303961999999993,-0.0066612,0,sub_10
0.0099829999999995,0.0061600000000012,-0.0059992,-0.0362793999999995,-0.0254921999999993,-0.0095092,0,sub_10
0.0116481999999995,0.0066226000000012,-0.004658,-0.0366169999999994,-0.0210225999999993,-0.0106446,0,sub_10
0.0113509999999995,0.0066898000000012,-0.0044462,-0.0374695999999994,-0.0212309999999993,-0.0110776,0,sub_10
0.0106671999999995,0.0067946000000012,-0.004464,-0.0374695999999994,-0.0218675999999993,-0.0117178,0,sub_10
0.0102031999999995,0.0076724000000012,-0.0054724,-0.0359731999999994,-0.0197481999999993,-0.0102146,0,sub_10
0.0102433999999995,0.0084524000000013,-0.0075488,-0.0318081999999994,-0.0173107999999993,-0.007653,0,sub_10
0.0104913999999995,0.0097462000000013,-0.0088086,-0.0242539999999994,-0.0168173999999993,-0.0014332,0,sub_10
0.0105093999999995,0.0095336000000013,-0.0087108,-0.0154367999999994,-0.0180413999999993,0.0069337999999999,0,sub_10
0.0102845999999995,0.0074762000000013,-0.0077466,-0.0091809999999994,-0.0213793999999993,0.0133629999999999,0,sub_10
0.0089187999999995,0.0053800000000013,-0.0072874,-0.0071831999999994,-0.0266037999999993,0.0157055999999999,0,sub_10
0.0061553999999995,0.0048300000000013,-0.0061704,-0.0074089999999994,-0.0314947999999993,0.0135737999999999,0,sub_10
0.0050105999999995,0.0039336000000013,-0.006246,-0.0093063999999994,-0.0312553999999993,0.0086463999999999,0,sub_10
0.0056007999999995,0.0057332000000012,-0.0062466,-0.0118361999999994,-0.0297337999999993,0.0032857999999999,0,sub_10
0.0071577999999995,0.0083882000000012,-0.0059664,-0.0120525999999994,-0.0322819999999993,0.0013647999999999,0,sub_10
0.0094703999999995,0.0088244000000012,-0.0055713999999999,-0.0078905999999994,-0.0386431999999993,0.0024337999999999,0,sub_10
0.0104041999999995,0.0082022000000012,-0.0062995999999999,-0.0014063999999994,-0.0486421999999993,0.0054463999999999,0,sub_10
0.0100425999999995,0.0077078000000012,-0.0064745999999999,0.0044282000000005,-0.0603451999999993,0.0088837999999999,0,sub_10
0.0094403999999995,0.0066976000000012,-0.0078306,0.0100666000000005,-0.0680001999999994,0.0125283999999999,0,sub_10
0.0080343999999995,0.0054754000000012,-0.0087803999999999,0.0146506000000005,-0.0735183999999994,0.0155219999999999,0,sub_10
0.0060509999999995,0.0058514000000013,-0.0093874,0.0180444000000005,-0.0758823999999993,0.0176851999999999,0,sub_10
0.0050611999999995,0.0063770000000013,-0.0093204,0.0197418000000005,-0.0767455999999993,0.0189799999999999,0,sub_10
0.0018583999999995,0.0048050000000013,-0.0090038,0.0188960000000004,-0.0763113999999993,0.0176917999999999,0,sub_10
-0.0002396000000003,0.0026406000000013,-0.0075064,0.0157270000000004,-0.0724523999999993,0.0144599999999999,0,sub_10
-0.0027616000000003,0.0011634000000013,-0.0072766,0.0121620000000004,-0.0628353999999993,0.0101497999999999,0,sub_10
-0.0029862000000003,0.0013888000000013,-0.0078356,0.0064690000000004,-0.0521445999999993,0.0056097999999999,0,sub_10
-0.0027168000000003,0.0017068000000013,-0.0075444,-0.0009145999999995,-0.0367651999999993,0.0021201999999999,0,sub_10
-0.0008030000000003,0.0035242000000013,-0.0076994,-0.0059675999999994,-0.0233179999999993,0.0003583999999999,0,sub_10
0.0006423999999995,0.0046184000000013,-0.0076462,-0.0084963999999994,-0.0186125999999993,-0.0020154,0,sub_10
0.0032811999999995,0.0056316000000012,-0.0081896,-0.0105975999999994,-0.0136953999999993,-0.0043864,0,sub_10
0.0037283999999995,0.0062254000000012,-0.008462,-0.0109955999999994,-0.0066657999999993,-0.0037572,0,sub_10
0.0048519999999995,0.0063444000000012,-0.0086236,-0.0095049999999994,-0.0045513999999994,-0.0009722,0,sub_10
0.0063787999999995,0.0059290000000012,-0.0087244,-0.0073845999999994,-0.0030853999999994,0.0035273999999999,0,sub_10
0.0079099999999995,0.0061162000000012,-0.008701,-0.0046173999999995,0.0005064000000005,0.0086695999999999,0,sub_10
0.0092661999999995,0.0055998000000013,-0.0075816,-0.0033657999999995,-0.0018579999999994,0.0127405999999999,0,sub_10
0.0102615999999995,0.0047676000000013,-0.0067316,-0.0037409999999995,-0.0063673999999993,0.0133677999999999,0,sub_10
0.0097343999999995,0.0046524000000013,-0.0064968,-0.0032209999999995,-0.0089459999999993,0.0114317999999999,0,sub_10
0.0082213999999995,0.0039712000000012,-0.006318,-0.0035411999999995,-0.0117219999999993,0.0062853999999999,0,sub_10
0.0069323999999995,0.0026458000000012,-0.0064356,-0.0063989999999994,-0.0110731999999993,-0.0005922,0,sub_10
0.0052115999999995,0.0025358000000012,-0.0065498,-0.0088097999999994,-0.0061639999999993,-0.0076858,0,sub_10
0.0058569999999995,0.0032966000000012,-0.0055556,-0.0113131999999994,-0.0031465999999993,-0.0126244,0,sub_10
0.0073031999999995,0.0044952000000012,-0.0054272,-0.0147061999999994,-0.0005695999999993,-0.0147878,0,sub_10
0.0088523999999995,0.0064674000000013,-0.0058172,-0.0172513999999994,0.0039092000000006,-0.0137432,0,sub_10
0.0102361999999995,0.0079488000000013,-0.0062382,-0.0172523999999994,0.0068790000000005,-0.0105424,0,sub_10
0.0119761999999995,0.0082230000000013,-0.0060754,-0.0159865999999994,0.0070740000000005,-0.0071156,0,sub_10
0.0124943999999995,0.0072146000000013,-0.0051496,-0.0150655999999994,0.0058304000000005,-0.0062718,0,sub_10
0.0116393999999995,0.0062102000000013,-0.0047206,-0.0147731999999994,0.0037506000000005,-0.0088496,0,sub_10
0.0114947999999995,0.0055052000000013,-0.0042102,-0.0157637999999995,-0.0023591999999994,-0.0148494,0,sub_10
0.0116197999999995,0.0058874000000013,-0.004644,-0.0188785999999994,-0.0073919999999993,-0.0219338,0,sub_10
0.0111177999999995,0.0066288000000013,-0.0061554,-0.0224123999999994,-0.0098699999999993,-0.0281698,0,sub_10
0.0094805999999995,0.0073240000000013,-0.0086782,-0.0243193999999994,-0.0107001999999993,-0.0320276,0,sub_10
0.0080103999999995,0.0072288000000013,-0.009916,-0.0245249999999994,-0.0115413999999993,-0.0345918,0,sub_10
0.0083421999999995,0.0078176000000012,-0.0114622,-0.0219607999999994,-0.0111223999999993,-0.0350018,0,sub_10
0.0085927999999995,0.0080572000000012,-0.0125418,-0.0169923999999994,-0.0124475999999993,-0.0328804,0,sub_10
0.0092293999999995,0.0081282000000012,-0.0130326,-0.0113963999999994,-0.0142105999999993,-0.028404,0,sub_10
0.0105103999999995,0.0083368000000012,-0.0126802,-0.0053879999999994,-0.0174731999999993,-0.0222138,0,sub_10
0.0120807999999995,0.0083254000000012,-0.012697,0.0006214000000005,-0.0196739999999993,-0.0151702,0,sub_10
0.0101865999999995,0.0074008000000013,-0.0130512,0.0057850000000005,-0.0203795999999993,-0.0083482,0,sub_10
0.0097265999999995,0.0085114000000013,-0.0127656,0.0119336000000004,-0.0236191999999993,-0.0027464,0,sub_10
0.0093247999999995,0.0087502000000013,-0.0130162,0.0172458000000004,-0.0259915999999993,-0.0001426,0,sub_10
0.0093075999999995,0.0086180000000013,-0.0128624,0.0204866000000004,-0.0272831999999993,0.0002647999999999,0,sub_10
0.0097665999999995,0.0080332000000013,-0.0115544,0.0222366000000004,-0.0277181999999993,0.0008741999999999,0,sub_10
0.0107281999999995,0.0075674000000013,-0.0106014,0.0222758000000004,-0.0296359999999993,0.0008327999999999,0,sub_10
0.0089467999999995,0.0062680000000013,-0.0109892,0.0201976000000005,-0.0298341999999993,-0.0011484,0,sub_10
0.0076033999999995,0.0054746000000013,-0.0105974,0.0179060000000005,-0.0302439999999993,-0.0033444,0,sub_10
0.0064519999999995,0.0049834000000013,-0.0106348,0.0155924000000005,-0.0265983999999993,-0.0072108,0,sub_10
0.0057157999999995,0.0042138000000013,-0.0112676,0.0117910000000005,-0.0231547999999993,-0.0125828,0,sub_10
0.0060645999999995,0.0048316000000013,-0.0106188,0.0084106000000005,-0.0212031999999993,-0.0181636,0,sub_10
0.0080471999999995,0.0048158000000013,-0.0093428,0.0056550000000005,-0.0205407999999993,-0.021602,0,sub_10
0.0095303999999995,0.0059766000000013,-0.008843,0.0044224000000004,-0.0212249999999993,-0.0233594,0,sub_10
0.0111757999999995,0.0074382000000013,-0.0096682,0.0048700000000004,-0.0253343999999993,-0.0225368,0,sub_10
0.0128995999999995,0.0098432000000013,-0.0108382,0.0093572000000004,-0.0301071999999993,-0.0191214,0,sub_10
0.0140191999999995,0.0101002000000012,-0.0109694,0.0159772000000004,-0.0334029999999993,-0.013984,0,sub_10
0.0148447999999995,0.0095272000000012,-0.0093844,0.0219608000000004,-0.0369051999999993,-0.009919,0,sub_10
0.0153423999999995,0.0085896000000012,-0.0075448,0.0259804000000005,-0.0418307999999993,-0.0071072,0,sub_10
0.0151807999999995,0.0076234000000012,-0.0069212,0.0280912000000005,-0.0465269999999993,-0.0066592,0,sub_10
0.0141323999999995,0.0066830000000012,-0.0063232,0.0268580000000005,-0.0500373999999993,-0.0079516,0,sub_10
0.0133725999999995,0.0069106000000012,-0.0059916,0.0237236000000005,-0.0503407999999993,-0.0103296,0,sub_10
0.0117155999999995,0.0063550000000012,-0.0068252,0.0212304000000005,-0.0493723999999993,-0.0116364,0,sub_10
0.0101883999999995,0.0058528000000012,-0.0073008,0.0198040000000005,-0.0481955999999993,-0.0127224,0,sub_10
0.0079731999999995,0.0055612000000012,-0.0070668,0.0185918000000005,-0.0470187999999993,-0.0140206,0,sub_10
0.0061681999999995,0.0054424000000012,-0.0078656,0.0181862000000005,-0.0448763999999993,-0.01659,0,sub_10
0.0054043999999995,0.0047058000000012,-0.0095808,0.0188522000000004,-0.0406115999999993,-0.0180862,0,sub_10
0.0045911999999995,0.0043136000000012,-0.0105444,0.0197362000000004,-0.0337969999999993,-0.0180888,0,sub_10
0.0031883999999995,0.0029694000000012,-0.011602,0.0212528000000004,-0.0276277999999993,-0.0170179999999999,0,sub_10
0.0021037999999995,0.0018954000000012,-0.0124688,0.0230438000000004,-0.0243609999999993,-0.015248,0,sub_10
0.0014247999999995,0.0010932000000012,-0.0126092,0.0248262000000004,-0.0227995999999993,-0.0132622,0,sub_10
0.0007545999999995,0.0008996000000012,-0.0121484,0.0253254000000004,-0.0227215999999993,-0.0121382,0,sub_10
0.0005523999999995,0.0021840000000012,-0.0113044,0.0258218000000005,-0.0237069999999993,-0.01144,0,sub_10
0.0001001999999995,0.0044274000000012,-0.0105142,0.0254676000000005,-0.0225649999999993,-0.009255,0,sub_10
0.0001153999999995,0.0053148000000012,-0.0090074,0.0239788000000005,-0.0176747999999993,-0.0054262,0,sub_10
