userAcceleration.x,userAcceleration.y,userAcceleration.z,rotationRate.x,rotationRate.y,rotationRate.z,label,subject
0.0068543999999995,0.0040740000000012,0.002281,-0.0049077999999994,-0.0080177999999991,0.0079283999999999,0,sub_17
0.0050267999999995,0.0051642000000012,0.0014682,-0.0040375999999994,-0.0046399999999991,0.0064401999999999,0,sub_17
0.0049235999999996,0.0057002000000012,0.0009856,-0.0029447999999994,-0.0003765999999991,0.0049467999999999,0,sub_17
0.0077337999999996,0.0062314000000012,0.0013794,-0.0025007999999994,0.0030326000000008,0.0045181999999999,0,sub_17
0.0094523999999996,0.0060068000000012,0.0015554,-0.0014289999999994,0.0055794000000008,0.0060179999999999,0,sub_17
0.0107735999999996,0.0050818000000012,0.0024346,-0.0001429999999994,0.0079144000000008,0.0070921999999999,0,sub_17
0.0105413999999996,0.0040416000000012,0.0050113999999999,0.0005216000000005,0.0084986000000008,0.0077359999999999,0,sub_17
0.0105333999999996,0.0035148000000012,0.0063975999999999,0.0007468000000005,0.0065266000000008,0.0085937999999999,0,sub_17
0.0091299999999996,0.0036018000000012,0.0067445999999999,0.0011902000000005,0.0060436000000008,0.0098783999999999,0,sub_17
0.0080049999999996,0.0042448000000012,0.0063547999999999,0.0018536000000005,0.0059904000000008,0.0100957999999999,0,sub_17
0.0084231999999996,0.0051856000000012,0.0058423999999999,0.0029488000000005,0.0065764000000008,0.0098881999999999,0,sub_17
0.0096601999999996,0.0053940000000012,0.0047441999999999,0.0050920000000005,0.0078506000000008,0.0090469999999999,0,sub_17
0.0102713999999995,0.0051902000000012,0.0049435999999999,0.0072324000000005,0.0080614000000008,0.0077797999999999,0,sub_17
0.0115095999999995,0.0040984000000012,0.0060969999999999,0.0083402000000005,0.0064882000000008,0.0064939999999999,0,sub_17
0.0123105999999996,0.0032114000000012,0.0062767999999999,0.0081544000000005,0.0027856000000008,0.0060563999999999,0,sub_17
0.0123359999999996,0.0027314000000012,0.0055371999999999,0.0081790000000005,-0.0007081999999991,0.0064745999999999,0,sub_17
0.0114401999999995,0.0034870000000012,0.0045115999999999,0.0079990000000005,-0.0016469999999991,0.0075289999999999,0,sub_17
0.0110417999999996,0.0050538000000012,0.002919,0.0078248000000005,-0.0023685999999991,0.0075149999999999,0,sub_17
0.0102229999999996,0.0065802000000012,0.0012748,0.0091050000000005,-0.0034339999999991,0.0064569999999999,0,sub_17
0.0101103999999996,0.0074800000000012,2.640000000001157e-05,0.0108140000000005,-0.0038627999999991,0.0056149999999999,0,sub_17
0.0103515999999996,0.0080622000000012,-0.0014845999999999,0.0135888000000005,-0.0053569999999991,0.0039271999999999,0,sub_17
0.0117509999999996,0.0083120000000012,-0.0024929999999999,0.0166008000000005,-0.0084277999999991,0.0017927999999999,0,sub_17
0.0128399999999996,0.0079474000000012,-0.0027377999999999,0.0187620000000005,-0.0100075999999991,0.0005049999999999,0,sub_17
0.0142533999999996,0.0071428000000012,-0.0027811999999999,0.0204898000000005,-0.0124407999999991,-0.0001438,0,sub_17
0.0155073999999996,0.0062994000000012,-0.0020353999999999,0.0220062000000005,-0.0144469999999991,-0.0007948,0,sub_17
0.0162943999999996,0.0057852000000012,-0.0006999999999999,0.0228758000000005,-0.0175179999999991,-0.0010216,0,sub_17
0.0163755999999996,0.0058546000000012,-0.0004151999999999,0.0228498000000005,-0.0232703999999991,-0.0010144,0,sub_17
0.0160243999999996,0.0059390000000012,-0.0005131999999999,0.0234622000000005,-0.0292389999999991,-0.0007888,0,sub_17
0.0152423999999996,0.0061224000000012,-0.0019757999999999,0.0242976000000005,-0.0332899999999991,-0.0007778,0,sub_17
0.0146439999999996,0.0068730000000012,-0.0028401999999999,0.0260196000000005,-0.0350523999999991,-0.0010062,0,sub_17
0.0134457999999996,0.0080560000000012,-0.0033087999999999,0.0281750000000005,-0.0355371999999991,-0.0014468,0,sub_17
0.0134059999999996,0.0079024000000012,-0.0029145999999999,0.0303400000000005,-0.0345279999999991,-0.0025304,0,sub_17
0.0146307999999995,0.0073668000000012,-0.0028733999999999,0.0318610000000005,-0.0350053999999991,-0.0042574,0,sub_17
0.0148701999999995,0.0065858000000012,-0.0011013999999999,0.0331552000000005,-0.0376159999999991,-0.0051286,0,sub_17
0.0154631999999996,0.0059656000000012,-0.0004399999999999,0.0316568000000005,-0.0388881999999991,-0.005351,0,sub_17
0.0170017999999996,0.0054098000000012,0.0003374,0.0303622000000005,-0.0420793999999991,-0.005356,0,sub_17
0.0174745999999995,0.0056232000000012,0.0012844,0.0273502000000005,-0.0465473999999991,-0.004303,0,sub_17
0.0160929999999996,0.0058698000000012,0.0011472,0.0241454000000005,-0.0499859999999991,-0.00286,0,sub_17
0.0161541999999996,0.0066404000000012,0.001339,0.0220314000000005,-0.0504361999999991,-0.0037632,0,sub_17
0.0158615999999996,0.0066968000000012,0.002411,0.0214022000000005,-0.0538701999999991,-0.0057206,0,sub_17
0.0137079999999996,0.0057072000000012,0.002947,0.0182328000000005,-0.0511235999999991,-0.0059944,0,sub_17
0.0114321999999996,0.0050588000000012,0.0025158,0.0165598000000005,-0.0471063999999991,-0.0056186,0,sub_17
0.0106897999999996,0.0048214000000012,0.0029908,0.0159350000000005,-0.0430587999999991,-0.0049874,0,sub_17
0.0081311999999996,0.0046776000000012,0.0023572,0.0131718000000005,-0.0387957999999991,-0.0030894,0,sub_17
0.0054587999999996,0.0045860000000012,0.0009506,0.0108382000000005,-0.0338949999999991,-0.0011892,0,sub_17
0.0049803999999996,0.0049946000000012,0.0003908,0.0108584000000005,-0.0298819999999991,-0.0012352,0,sub_17
0.0047739999999996,0.0044124000000012,0.0010324,0.0106768000000005,-0.0235237999999991,-0.001499,0,sub_17
0.0043167999999996,0.0032590000000012,0.0021282,0.0090082000000005,-0.0158811999999991,-0.0019886,0,sub_17
0.0051835999999996,0.0025990000000012,0.0036794,0.0081854000000005,-0.0095215999999991,-0.0020434,0,sub_17
0.0062779999999996,0.0029206000000012,0.0044148,0.0071502000000005,-0.0025239999999991,-0.0016732,0,sub_17
0.0067467999999996,0.0034448000000012,0.0044669999999999,0.0054470000000005,-0.0012413999999991,-0.0012594,0,sub_17
0.0073823999999996,0.0044766000000012,0.0041261999999999,0.0039562000000005,-0.0010213999999991,-0.0016974,0,sub_17
0.0067199999999996,0.0050000000000012,0.0038223999999999,0.0039620000000005,0.0002568000000008,-0.001699,0,sub_17
0.0064165999999996,0.0053022000000012,0.0027261999999999,0.0041878000000005,0.0021770000000008,-0.0025544,0,sub_17
0.0057389999999996,0.0053762000000012,0.0027955999999999,0.0045954000000005,0.0030154000000008,-0.0030164,0,sub_17
0.0057599999999996,0.0050450000000012,0.0033117999999999,0.0041696000000005,0.0089674000000008,-0.0028498,0,sub_17
0.0058987999999996,0.0042716000000012,0.0035641999999999,0.0037486000000005,0.0161970000000008,-0.0024714,0,sub_17
0.0067853999999996,0.0049476000000012,0.0036807999999999,0.0024644000000005,0.0210870000000008,-0.0023094,0,sub_17
0.0085569999999996,0.0053052000000012,0.0043793999999999,0.0011572000000005,0.0210758000000008,-0.0019278,0,sub_17
0.0103187999999996,0.0046164000000012,0.0048512,-0.0005421999999994,0.0223618000000008,-0.0023686,0,sub_17
0.0115161999999995,0.0041918000000012,0.004391,-0.0026731999999993,0.0225842000000008,-0.0028112,0,sub_17
0.0118179999999995,0.0039914000000012,0.0040017999999999,-0.0046707999999993,0.0198680000000008,-0.003698,0,sub_17
0.0127531999999996,0.0045748000000012,0.0036225999999999,-0.0062405999999993,0.0173632000000008,-0.0045822,0,sub_17
0.0126409999999996,0.0052004000000012,0.0031545999999999,-0.0077881999999993,0.0203952000000008,-0.0048324,0,sub_17
0.0130113999999996,0.0057510000000012,0.0025497999999999,-0.0080709999999993,0.0198018000000008,-0.0052828,0,sub_17
0.0130069999999996,0.0058816000000012,0.0019851999999999,-0.0083613999999993,0.0168674000000008,-0.006371,0,sub_17
0.0144181999999996,0.0054722000000012,0.0012804,-0.0085785999999993,0.0160158000000008,-0.0063714,0,sub_17
0.0150457999999996,0.0048642000000012,0.0002586,-0.0087909999999994,0.0164418000000008,-0.0061598,0,sub_17
0.0159035999999995,0.0045144000000012,-0.0015601999999999,-0.0094425999999994,0.0147362000000008,-0.0053076,0,sub_17
0.0159607999999995,0.0050366000000012,-0.0033169999999999,-0.0100951999999994,0.0128176000000008,-0.0044552,0,sub_17
0.0162973999999996,0.0058246000000012,-0.0043875999999999,-0.0093529999999994,0.0129330000000008,-0.0035998,0,sub_17
0.0158835999999996,0.0067510000000012,-0.0049145999999999,-0.0079715999999994,0.0128332000000008,-0.0027396,0,sub_17
0.0155131999999996,0.0066990000000012,-0.0050001999999999,-0.0070303999999994,0.0095400000000008,-0.002092,0,sub_17
0.0145987999999996,0.0067102000000012,-0.0048145999999999,-0.0060891999999994,0.0056102000000008,-0.0020846,0,sub_17
0.0137011999999996,0.0064628000000012,-0.0042809999999999,-0.0055689999999994,0.0033846000000008,-0.0016548,0,sub_17
0.0125777999999996,0.0062836000000012,-0.0043463999999999,-0.0060099999999994,0.0008270000000008,-0.0010136,0,sub_17
0.0113825999999996,0.0067144000000012,-0.0046523999999999,-0.0070977999999994,-0.0040685999999991,-0.0012286,0,sub_17
0.0115767999999996,0.0067164000000012,-0.0050707999999999,-0.0076393999999994,-0.0062447999999991,-0.0012228,0,sub_17
0.0112975999999996,0.0063394000000012,-0.0050253999999999,-0.0085905999999994,-0.0043723999999991,-0.0010114,0,sub_17
0.0105543999999996,0.0059178000000012,-0.0051287999999999,-0.0099721999999994,-0.0029261999999991,-0.0003752,0,sub_17
0.0100189999999996,0.0057864000000012,-0.0052387999999999,-0.0098641999999994,-0.0027619999999991,-0.0001542,0,sub_17
0.0101315999999996,0.0050274000000012,-0.0048645999999999,-0.0088911999999994,0.0005926000000008,0.0007097999999999,0,sub_17
0.0088077999999996,0.0048126000000012,-0.0029663999999999,-0.0078097999999994,0.0048456000000008,0.0017801999999999,0,sub_17
0.0083095999999996,0.0042980000000012,-0.0009017999999999,-0.0071629999999994,0.0073958000000008,0.0028497999999999,0,sub_17
0.0082783999999996,0.0040794000000012,0.001371,-0.0069477999999994,0.0084576000000008,0.0034909999999999,0,sub_17
0.0087271999999996,0.0033194000000012,0.0023047999999999,-0.0081015999999994,0.0081524000000008,0.0041343999999999,0,sub_17
0.0084797999999996,0.0035058000000012,0.0024579999999999,-0.0096811999999994,0.0076374000000008,0.0043477999999999,0,sub_17
0.0092341999999996,0.0032506000000012,0.0018234,-0.0108301999999994,0.0075488000000007,0.0041363999999999,0,sub_17
0.0083637999999996,0.0023460000000012,0.002906,-0.0107025999999994,0.0063912000000007,0.0037215999999999,0,sub_17
0.0084861999999996,0.0017990000000012,0.0033941999999999,-0.0109959999999994,0.0060892000000007,0.0028753999999999,0,sub_17
0.0083807999999996,0.0016356000000012,0.0050703999999999,-0.0116263999999994,0.0084342000000007,0.0030815999999999,0,sub_17
0.0077443999999996,0.0016636000000012,0.0058341999999999,-0.0124769999999994,0.0095008000000008,0.0035015999999999,0,sub_17
0.0067611999999996,0.0026560000000012,0.0056807999999999,-0.0135477999999994,0.0090768000000008,0.0039219999999999,0,sub_17
0.0077243999999996,0.0047348000000012,0.0036787999999999,-0.0142333999999994,0.0104004000000008,0.0037153999999999,0,sub_17
0.0079925999999996,0.0046724000000012,0.0029124,-0.0136283999999994,0.0146996000000008,0.0041549999999999,0,sub_17
0.0075225999999996,0.0048844000000012,0.0034214,-0.0130223999999994,0.0187874000000008,0.0041675999999999,0,sub_17
0.0080467999999995,0.0045762000000012,0.0042974,-0.0126333999999994,0.0213872000000008,0.0035393999999998,0,sub_17
0.0083473999999996,0.0036248000000012,0.0053912,-0.0116051999999994,0.0237716000000008,0.0029159999999998,0,sub_17
0.0089093999999996,0.0026248000000012,0.0053932,-0.0120253999999994,0.0250522000000008,0.0026977999999999,0,sub_17
0.0097443999999996,0.0032126000000012,0.0043406,-0.0130949999999993,0.0250534000000008,0.0033311999999999,0,sub_17
0.0102187999999996,0.0031842000000012,0.0026626,-0.0133015999999993,0.0271822000000008,0.0039677999999999,0,sub_17
0.0112185999999996,0.0033622000000012,0.001695,-0.0130777999999993,0.0305860000000008,0.0050331999999999,0,sub_17
0.0121335999999996,0.0040018000000012,0.0010584,-0.0137269999999994,0.0333410000000008,0.0067549999999999,0,sub_17
0.0120905999999996,0.0046614000000012,0.001033,-0.0135273999999994,0.0350278000000008,0.0084841999999999,0,sub_17
0.0116329999999996,0.0056770000000012,0.0005628,-0.0122649999999994,0.0341608000000007,0.0085147999999999,0,sub_17
0.0126989999999996,0.0062224000000012,0.0003042,-0.0103717999999994,0.0309490000000007,0.0083393999999999,0,sub_17
0.0122691999999996,0.0061264000000012,0.000326,-0.0086871999999994,0.0290154000000007,0.0083745999999999,0,sub_17
0.0128787999999996,0.0055178000000012,0.0005582,-0.0065631999999994,0.0262408000000008,0.0077521999999999,0,sub_17
0.0130313999999996,0.0048368000000012,0.0014535999999999,-0.0044427999999994,0.0224018000000008,0.0069171999999999,0,sub_17
0.0126791999999996,0.0035696000000012,0.0026117999999999,-0.0038015999999994,0.0206786000000008,0.0069409999999999,0,sub_17
0.0121839999999996,0.0029906000000012,0.0033437999999999,-0.0038025999999994,0.0185314000000008,0.0069605999999999,0,sub_17
0.0125121999999996,0.0031612000000012,0.0039303999999999,-0.0037987999999994,0.0170250000000008,0.0065521999999999,0,sub_17
0.0114807999999996,0.0034310000000012,0.0039037999999999,-0.0044291999999994,0.0170114000000008,0.0063509999999999,0,sub_17
0.0114409999999996,0.0032166000000012,0.0037669999999999,-0.0052741999999994,0.0169978000000008,0.0063621999999999,0,sub_17
0.0118969999999996,0.0032178000000012,0.0038371999999999,-0.0054865999999994,0.0165750000000008,0.0057201999999999,0,sub_17
0.0121727999999996,0.0038380000000012,0.0033107999999999,-0.0057047999999993,0.0152984000000008,0.0055067999999999,0,sub_17
0.0121785999999996,0.0036646000000012,0.0024597999999999,-0.0057229999999994,0.0112504000000007,0.0055117999999999,0,sub_17
0.0127791999999996,0.0039298000000012,0.0020524,-0.0055259999999994,0.0069912000000008,0.0048777999999999,0,sub_17
0.0127921999999996,0.0046728000000012,0.0021427999999999,-0.0048701999999994,0.0046260000000008,0.0046777999999999,0,sub_17
0.0129971999999996,0.0053176000000012,0.0015097999999999,-0.0046439999999994,0.0016234000000008,0.0044757999999999,0,sub_17
0.0128593999999996,0.0054062000000012,0.0008615999999999,-0.0046291999999994,-0.0015891999999991,0.0036315999999999,0,sub_17
0.0126463999999996,0.0057182000000012,0.0004583999999999,-0.0048219999999994,-0.0030981999999991,0.0032109999999999,0,sub_17
0.0124495999999996,0.0057078000000012,-1.5400000000008506e-05,-0.0050109999999994,-0.0033305999999991,0.0032159999999998,0,sub_17
0.0125621999999996,0.0058284000000012,-0.0011929999999999,-0.0058653999999994,-0.0035405999999991,0.0032103999999998,0,sub_17
0.0126193999999996,0.0069628000000012,-0.0024505999999999,-0.0060835999999994,-0.0046051999999991,0.0032101999999998,0,sub_17
0.0124823999999996,0.0079458000000012,-0.0035583999999999,-0.0050205999999994,-0.0054609999999991,0.0032185999999998,0,sub_17
0.0121103999999996,0.0090840000000012,-0.0044705999999999,-0.0041159999999994,-0.0031583999999991,0.0038593999999999,0,sub_17
0.0105803999999996,0.0082074000000012,-0.0042553999999999,-0.0023617999999994,-0.0021353999999991,0.0040803999999999,0,sub_17
0.0097709999999996,0.0070442000000012,-0.0031757999999999,3.54000000005834e-05,-0.0021729999999991,0.0025979999999999,0,sub_17
0.0096189999999996,0.0053566000000012,-0.0009525999999999,0.0020068000000005,-0.0015717999999991,0.0015391999999999,0,sub_17
0.0095235999999996,0.0037250000000012,0.0015972,0.0016378000000005,0.0018022000000008,0.0017423999999999,0,sub_17
0.0097435999999996,0.0018072000000012,0.0037832,0.0016348000000005,0.0001022000000008,0.0006761999999999,0,sub_17
0.0111535999999996,0.0014866000000012,0.0046532,-0.0002883999999994,-0.0015911999999991,-0.0004032,0,sub_17
0.0114637999999996,0.0016566000000012,0.0041438,-0.0023751999999994,-0.0035805999999991,-8.000000000693705e-07,0,sub_17
0.0109341999999996,0.0019506000000012,0.0029708,-0.0042343999999994,-0.0019503999999991,0.0008257999999999,0,sub_17
0.0107409999999996,0.0026434000000012,0.0012242,-0.0046027999999994,-0.0018133999999991,0.0008101999999999,0,sub_17
0.0111355999999996,0.0041422000000012,-0.0001801999999999,-0.0051835999999994,-0.0014625999999991,0.0007929999999999,0,sub_17
0.0113917999999996,0.0052616000000012,-0.0009099999999999,-0.0044813999999994,-0.0002647999999991,0.0009971999999999,0,sub_17
0.0124363999999996,0.0060436000000012,-0.0010919999999999,-0.0034107999999994,0.0005838000000008,0.0010035999999999,0,sub_17
0.0142407999999996,0.0064368000000012,-0.0011881999999999,-0.0021505999999994,-0.0045313999999991,0.0003779999999999,0,sub_17
0.0152989999999996,0.0060874000000012,-0.0010327999999999,-0.0013181999999994,-0.0096459999999991,-3.700000000004939e-05,0,sub_17
0.0154991999999996,0.0053446000000012,-0.0012371999999999,-0.0002085999999994,-0.0125309999999991,0.0001631999999999,0,sub_17
0.0147447999999996,0.0048618000000012,-0.0012331999999999,5.040000000056328e-05,-0.0147739999999991,0.0003565999999999,0,sub_17
0.0133325999999996,0.0044336000000012,-0.0012317999999999,-0.0007497999999994,-0.0157331999999991,0.0001137999999999,0,sub_17
0.0115443999999996,0.0043910000000012,-0.0008485999999999,-0.0015355999999994,-0.0134963999999991,-0.000133,0,sub_17
0.0105919999999996,0.0054110000000012,-0.0018771999999999,-0.0016783999999994,-0.0101981999999991,5.059999999993061e-05,0,sub_17
0.0095283999999996,0.0055510000000012,-0.0020039999999999,-0.0016621999999994,-0.0061519999999991,0.0004727999999999,0,sub_17
0.0092447999999996,0.0051178000000012,-0.0017337999999999,-0.0005799999999994,-0.0018979999999992,0.0013295999999999,0,sub_17
0.0089357999999996,0.0044452000000012,-0.0007983999999999,0.0007136000000005,0.0019292000000007,0.0021883999999999,0,sub_17
0.0093963999999996,0.0036408000000012,0.0002718,0.0016276000000005,0.0056564000000007,0.0030147999999999,0,sub_17
0.0096161999999996,0.0026052000000012,0.0028524,0.0016814000000005,0.0072586000000007,0.0031969999999999,0,sub_17
0.0099099999999996,0.0024300000000012,0.0036148,2.0600000000543276e-05,0.0071624000000008,0.0033691999999999,0,sub_17
0.0103339999999996,0.0033106000000012,0.0026968,-0.0018593999999994,0.0049398000000008,0.0026879999999999,0,sub_17
0.0117527999999995,0.0041122000000012,0.0005734,-0.0035297999999994,0.0020764000000008,0.0022227999999999,0,sub_17
0.0122601999999996,0.0047686000000012,-0.0022585999999999,-0.0054655999999994,-0.0004769999999991,0.0030669999999999,0,sub_17
0.0117959999999996,0.0060834000000012,-0.0056733999999999,-0.0078155999999994,-0.0002591999999991,0.0039047999999999,0,sub_17
0.0092097999999996,0.0089618000000012,-0.0072821999999999,-0.0076031999999994,-0.0013217999999991,0.0030531999999999,0,sub_17
0.0083391999999996,0.0101708000000012,-0.0087143999999999,-0.0060805999999994,-0.0060677999999991,0.0009057999999999,0,sub_17
0.0112505999999996,0.0096736000000012,-0.0089785999999999,0.0016010000000005,-0.0151049999999991,0.0009433999999999,0,sub_17
0.0101551999999996,0.0110348000000012,-0.0012781999999999,0.0144736000000005,-0.0020289999999991,0.0076119999999999,0,sub_17
0.0031649999999996,0.0037922000000012,0.0142296,0.0287096000000005,0.0308512000000007,0.0155465999999999,0,sub_17
0.0032237999999996,-0.0057951999999987,0.0298236,0.0384438000000005,0.0533306000000008,0.0176945999999999,0,sub_17
0.0065523999999996,-0.0138453999999987,0.0433092,0.0354998000000005,0.0595332000000007,0.0142477999999999,0,sub_17
0.0103347999999996,-0.0151069999999987,0.048555,0.0173890000000005,0.0583464000000007,0.0070723999999999,0,sub_17
0.0173109999999996,-0.0137587999999987,0.0327412,-0.0142783999999994,0.0237896000000008,-0.0082732,0,sub_17
0.0301801999999995,-0.0042069999999987,0.0070096,-0.0441729999999994,-0.0444327999999991,-0.024418,0,sub_17
0.0350889999999996,0.0064544000000012,-0.0215423999999999,-0.0656697999999994,-0.0929425999999991,-0.031365,0,sub_17
0.0290357999999996,0.0159948000000012,-0.0457551999999999,-0.0714715999999994,-0.1036295999999991,-0.026714,0,sub_17
0.0171231999999996,0.0194954000000012,-0.0594507999999999,-0.0611639999999994,-0.0881771999999991,-0.0194202,0,sub_17
0.0057213999999996,0.0202370000000012,-0.0521245999999999,-0.0349977999999994,-0.0572277999999991,-0.011822,0,sub_17
-0.0027968000000003,0.0200706000000012,-0.0389969999999999,-0.0098311999999994,-0.0126341999999991,-0.00553,0,sub_17
-0.0053350000000003,0.0186882000000012,-0.0229217999999999,0.0116048000000005,0.0119942000000008,-0.0026344,0,sub_17
0.0007365999999996,0.0143092000000012,-0.0043629999999999,0.0306026000000005,0.0136324000000008,-0.0025038,0,sub_17
0.0056735999999996,0.0097136000000012,0.0133236,0.0427668000000005,0.0129260000000008,0.0016257999999999,0,sub_17
0.0088099999999996,0.0021714000000012,0.0251034,0.0468390000000005,0.0184162000000007,0.0082545999999999,0,sub_17
0.0082631999999996,-0.0071207999999987,0.0362494,0.0466456000000005,0.0222256000000008,0.0127191999999999,0,sub_17
0.0070601999999996,-0.0152051999999987,0.0461584,0.0404856000000005,0.0226674000000008,0.0120189999999999,0,sub_17
0.0089515999999996,-0.0160863999999987,0.0460247999999999,0.0223728000000005,0.0184792000000008,0.0073957999999999,0,sub_17
0.0118121999999996,-0.0135495999999987,0.0314689999999999,-0.0035037999999994,-0.0037635999999991,-0.0021568,0,sub_17
0.0162037999999996,-0.0082445999999987,0.0124729999999999,-0.0298683999999994,-0.0413377999999991,-0.0134024,0,sub_17
0.0214051999999995,0.0001348000000012,-0.0100956,-0.0506957999999994,-0.0755457999999991,-0.018845,0,sub_17
0.0211409999999995,0.0101404000000012,-0.0345642,-0.0628751999999994,-0.0795579999999991,-0.0157334,0,sub_17
0.0138889999999995,0.0170480000000012,-0.0501101999999999,-0.0574985999999994,-0.0685123999999991,-0.0105958,0,sub_17
0.0089179999999996,0.0212976000000012,-0.0484185999999999,-0.0362787999999994,-0.0462275999999991,-0.0060028,0,sub_17
0.0046789999999995,0.0218380000000012,-0.0382007999999999,-0.0088193999999994,-0.0118229999999991,-0.0007406,0,sub_17
0.0010237999999995,0.0186458000000012,-0.0218597999999999,0.0173596000000005,0.0217374000000008,0.0036589999999998,0,sub_17
0.0018249999999995,0.0114796000000012,0.0011465999999999,0.0396116000000005,0.0367806000000008,0.0052905999999998,0,sub_17
0.0050001999999995,0.0030156000000012,0.0225963999999999,0.0520102000000005,0.0431238000000008,0.0066509999999998,0,sub_17
0.0075503999999995,-0.0047897999999987,0.0378183999999999,0.0505060000000005,0.0422708000000008,0.0081369999999998,0,sub_17
0.0099091999999995,-0.0098171999999987,0.0436834,0.0395760000000005,0.0286824000000008,0.0074215999999998,0,sub_17
0.0142015999999996,-0.0119267999999987,0.0408113999999999,0.0222228000000005,0.0059722000000008,0.0024001999999999,0,sub_17
0.0175163999999996,-0.0105547999999987,0.0282136,0.0008146000000005,-0.0163003999999991,-0.0020092,0,sub_17
0.0176323999999996,-0.0061773999999987,0.0106156,-0.0205771999999994,-0.0317679999999991,-0.0032226,0,sub_17
0.0153061999999996,0.0002422000000012,-0.0075511999999999,-0.0357467999999994,-0.0374651999999991,-0.0022684,0,sub_17
0.0113633999999996,0.0070552000000012,-0.0235693999999999,-0.0440471999999994,-0.0302025999999991,0.0002279999999999,0,sub_17
0.0074585999999996,0.0144854000000012,-0.0341231999999999,-0.0403717999999994,-0.0168041999999991,0.0030137999999999,0,sub_17
0.0046673999999996,0.0188616000000012,-0.0352687999999999,-0.0276945999999994,0.0046626000000008,0.0049977999999999,0,sub_17
0.0046421999999996,0.0196438000000012,-0.0301189999999999,-0.0103137999999994,0.0229214000000008,0.0042333999999999,0,sub_17
0.0067563999999996,0.0176194000000012,-0.0189043999999999,0.0078632000000005,0.0271208000000008,0.0022105999999999,0,sub_17
0.0092735999999996,0.0131494000000012,-0.0047151999999999,0.0234480000000005,0.0257838000000008,0.0016723999999999,0,sub_17
