userAcceleration.x,userAcceleration.y,userAcceleration.z,rotationRate.x,rotationRate.y,rotationRate.z,label,subject
-0.0018470000000003,0.0014928000000012,0.0172175999999999,0.0452582000000004,0.000535800000001,-0.0118532,0,sub_4
-0.0071648000000003,-0.0021359999999987,0.0235239999999999,0.0538814000000004,0.019057000000001,-0.007984,0,sub_4
-0.0122556000000003,-0.0043425999999987,0.0274579999999998,0.0526760000000004,0.033144400000001,-0.0056734,0,sub_4
-0.0137092000000003,-0.0061387999999987,0.0279659999999998,0.0437614000000004,0.039382400000001,-0.0051158,0,sub_4
-0.0123626000000003,-0.0050869999999987,0.0248943999999998,0.0303938000000004,0.050117000000001,-0.0063042,0,sub_4
-0.0089562000000003,-0.0043145999999987,0.0193467999999998,0.0142198000000005,0.058911400000001,-0.0070694,0,sub_4
-0.0065074000000002,-0.0006109999999987,0.0110993999999999,-0.0007057999999994,0.061731600000001,-0.00675,0,sub_4
-0.0043886000000002,0.0051066000000012,0.0030303999999999,-0.0126469999999994,0.066024200000001,-0.0042752,0,sub_4
-0.0038796000000002,0.0107926000000012,-0.0058884,-0.0211779999999994,0.069877200000001,-0.0013488,0,sub_4
-0.0036378000000002,0.0146446000000012,-0.0149344,-0.0245939999999994,0.067978600000001,-0.0007478,0,sub_4
-0.0025326000000002,0.0177078000000012,-0.022391,-0.0192483999999995,0.0658492000000009,-0.00329,0,sub_4
0.0020155999999997,0.0182860000000012,-0.0261026,-0.0053303999999995,0.0688160000000009,-0.0089836,0,sub_4
0.0074689999999997,0.0167780000000012,-0.0258716,0.0147850000000004,0.0715574000000009,-0.0169836,0,sub_4
0.0135331999999996,0.0148352000000012,-0.0215218,0.0365958000000004,0.0715240000000009,-0.025182,0,sub_4
0.0184457999999997,0.0120518000000012,-0.0139902,0.0536742000000004,0.0685012000000009,-0.0299728,0,sub_4
0.0215691999999997,0.0076894000000012,-0.004481,0.0594008000000004,0.061447600000001,-0.029283,0,sub_4
0.0197857999999996,0.0037354000000012,0.0016647999999999,0.0548614000000004,0.056134800000001,-0.023127,0,sub_4
0.0142499999999996,0.0021688000000012,0.0033243999999999,0.0436960000000004,0.050410400000001,-0.0148804,0,sub_4
0.0062811999999996,0.0025148000000012,0.0018671999999999,0.0286964000000004,0.0461908000000009,-0.0066624,0,sub_4
-0.0002248000000003,0.0024132000000012,-0.0024656,0.0147974000000004,0.0462414000000009,-0.0016468,0,sub_4
-0.0039024000000003,0.0035938000000012,-0.0063706,0.0056164000000004,0.0460848000000009,-0.0021528,0,sub_4
-0.0020872000000003,0.0058360000000011,-0.0069164,0.0013470000000004,0.0418540000000009,-0.0060228,0,sub_4
0.0019355999999996,0.0073204000000012,-0.0054156,-0.0001513999999995,0.0386720000000009,-0.0081656,0,sub_4
0.0054083999999996,0.0074936000000012,-0.003663,0.0013336000000004,0.037173800000001,-0.007726,0,sub_4
0.0060545999999996,0.0080798000000012,-0.0010246,0.0025828000000004,0.033739000000001,-0.004529,0,sub_4
0.0042715999999997,0.0074656000000012,5.5799999999919845e-05,0.0032046000000004,0.0328638000000009,-0.0015534,0,sub_4
0.0011787999999996,0.0053508000000012,0.0013197999999999,0.0031890000000004,0.0302958000000009,-0.0009302,0,sub_4
-0.0001598000000003,0.0036244000000012,0.0031061999999999,0.0033828000000004,0.0226310000000009,-0.004572,0,sub_4
0.0010381999999996,0.0020444000000012,0.0060363999999999,0.0020832000000004,0.0134858000000009,-0.0097176,0,sub_4
0.0019231999999996,0.0012484000000012,0.0079255999999999,-0.0007125999999995,0.0043512000000009,-0.0139984,0,sub_4
0.0024023999999996,0.0009832000000012,0.0081693999999999,-0.0056623999999995,-0.006066999999999,-0.0150878,0,sub_4
0.0018957999999996,0.0021996000000012,0.0070423999999999,-0.0110465999999995,-0.016278399999999,-0.0142578,0,sub_4
0.0006375999999996,0.0039304000000012,0.0046157999999999,-0.0147605999999995,-0.0237563999999989,-0.0123502,0,sub_4
-0.0012232000000003,0.0059290000000012,0.0024789999999999,-0.0163285999999995,-0.0280475999999989,-0.0100046,0,sub_4
-0.0023502000000003,0.0067438000000012,0.0018149999999999,-0.0146757999999995,-0.0280879999999989,-0.0078554,0,sub_4
-0.0042144000000002,0.0081844000000012,0.0021447999999999,-0.0121589999999995,-0.026212199999999,-0.00613,0,sub_4
-0.0057036000000002,0.0083828000000012,0.0026927999999999,-0.0094229999999995,-0.0236953999999989,-0.0050448,0,sub_4
-0.0063348000000002,0.0068430000000012,0.0039253999999999,-0.0072873999999994,-0.0222155999999989,-0.0039636,0,sub_4
-0.0057676000000002,0.0051876000000012,0.0051839999999999,-0.0057927999999995,-0.0217955999999989,-0.00374,0,sub_4
-0.0044160000000002,0.0043244000000012,0.0063793999999998,-0.0047373999999995,-0.0232949999999989,-0.0026626,0,sub_4
-0.0032110000000003,0.0043406000000012,0.0081499999999998,-0.0041563999999995,-0.0238701999999989,-0.0005068,0,sub_4
-0.0026064000000003,0.0044798000000012,0.0098171999999998,-0.0070083999999995,-0.0274213999999989,0.0029105999999999,0,sub_4
-0.0027158000000003,0.0048350000000012,0.0104587999999998,-0.0124323999999995,-0.0328835999999989,0.0069535999999999,0,sub_4
-0.0039524000000003,0.0065404000000012,0.0097753999999998,-0.0172191999999994,-0.0387747999999989,0.0112149999999998,0,sub_4
-0.0055256000000003,0.0080954000000012,0.0088291999999999,-0.0198635999999994,-0.0438171999999989,0.0144221999999998,0,sub_4
-0.0069886000000003,0.0089236000000012,0.0069941999999999,-0.0181823999999994,-0.047877999999999,0.0161481999999998,0,sub_4
-0.0090954000000002,0.0080622000000012,0.0069055999999999,-0.0107067999999994,-0.0457751999999989,0.0166249999999998,0,sub_4
-0.0109782000000002,0.0069844000000012,0.0072911999999999,-0.0010705999999995,-0.0394119999999989,0.0154021999999998,0,sub_4
-0.0112670000000002,0.0034840000000012,0.0102745999999999,0.0071976000000004,-0.032632799999999,0.0137893999999999,0,sub_4
-0.0107820000000002,-1.7999999987514115e-06,0.0143379999999999,0.0118538000000004,-0.0226441999999989,0.0119333999999999,0,sub_4
-0.0094344000000002,-0.0024953999999987,0.0183585999999999,0.0122368000000004,-0.0132823999999989,0.0106893999999999,0,sub_4
-0.0073196000000002,-0.0030915999999987,0.0196157999999999,0.0085360000000004,-0.0098743999999989,0.0100653999999999,0,sub_4
-0.0054436000000003,-0.0023269999999987,0.0180657999999998,-0.0010187999999995,-0.0283857999999989,0.0081467999999999,0,sub_4
-0.0045268000000003,-0.0029331999999987,0.0243547999999998,-0.0046623999999995,-0.026689999999999,0.0134601999999999,0,sub_4
-0.0059188000000003,-0.0001747999999987,0.0159333999999998,-0.0124709999999995,-0.0051533999999989,0.0157281999999999,0,sub_4
-0.0063622000000003,0.0019988000000012,0.0118541999999999,-0.0127447999999995,-0.0200603999999989,0.0142499999999999,0,sub_4
-0.0051716000000003,0.0033536000000012,0.0097703999999999,-0.0118681999999994,-0.0168599999999989,0.0123291999999999,0,sub_4
-0.0036636000000003,0.0033278000000012,0.0109133999999999,-0.0052263999999994,0.008440200000001,0.0138845999999999,0,sub_4
-0.0015564000000003,0.0050860000000012,0.0034825999999999,-0.0048671999999994,0.005030600000001,0.0077419999999999,0,sub_4
0.0027727999999996,0.0035128000000012,0.0102959999999999,0.0009274000000005,-0.019718199999999,0.0052965999999998,0,sub_4
0.0040355999999996,0.0018058000000012,0.0127549999999999,0.0009020000000005,-0.0054761999999989,0.0074605999999998,0,sub_4
0.0030201999999996,0.0011600000000012,0.0141321999999999,0.0016552000000004,-0.0080673999999989,0.0094381999999998,0,sub_4
0.0002435999999996,0.0014810000000012,0.0148545999999999,0.0007730000000004,-0.0138193999999989,0.0100803999999998,0,sub_4
-0.0025506000000003,0.0019620000000012,0.0137019999999999,-0.0004967999999995,-0.0101981999999989,0.0113485999999998,0,sub_4
-0.0054096000000003,0.0025504000000012,0.0118037999999999,-0.0013387999999995,-0.0070019999999989,0.0119795999999999,0,sub_4
-0.0056870000000003,0.0031304000000012,0.0107097999999999,-8.919999999950253e-05,-0.0056633999999989,0.0109707999999999,0,sub_4
-0.0047504000000003,0.0033594000000012,0.0099405999999999,0.0015998000000004,-0.0015567999999989,0.0099613999999999,0,sub_4
-0.0023804000000003,0.0036708000000012,0.0089857999999999,0.0030744000000004,0.002125600000001,0.0087375999999999,0,sub_4
0.0008343999999996,0.0029500000000012,0.0085783999999998,0.0043232000000004,0.002402400000001,0.0068755999999999,0,sub_4
0.0041505999999996,0.0033666000000012,0.0080359999999998,0.0042832000000004,0.001402800000001,0.0056469999999998,0,sub_4
0.0053315999999996,0.0040362000000012,0.0074911999999998,0.0023600000000004,0.0014070000000009,0.0062745999999998,0,sub_4
0.0050781999999996,0.0045050000000012,0.0066497999999999,0.0008568000000004,0.0001306000000009,0.0071203999999999,0,sub_4
0.0040487999999997,0.0047120000000012,0.0060027999999999,0.0012692000000004,-0.001829599999999,0.0071651999999998,0,sub_4
0.0022203999999997,0.0059760000000012,0.0057057999999999,0.0025360000000004,-0.003367399999999,0.0074291999999998,0,sub_4
0.0003707999999997,0.0045956000000012,0.0066731999999999,0.0040210000000004,-0.004901799999999,0.0066265999999998,0,sub_4
0.0006321999999997,0.0030774000000012,0.0075203999999999,0.0055146000000004,-0.0060039999999989,0.0043277999999998,0,sub_4
0.0018675999999996,0.0022800000000012,0.0083943999999999,0.0055050000000004,-0.0083827999999989,0.0028747999999998,0,sub_4
0.0024591999999996,0.0019170000000012,0.0084109999999999,0.0033646000000004,-0.0088055999999989,0.0039285999999999,0,sub_4
0.0007159999999996,0.0026366000000012,0.0072137999999999,0.0007888000000004,-0.0109323999999989,0.0051951999999999,0,sub_4
-0.0013084000000003,0.0045796000000012,0.0049557999999999,-0.0005105999999995,-0.0145523999999989,0.0058315999999999,0,sub_4
-0.0025430000000002,0.0054180000000012,0.0038559999999999,-0.0005119999999995,-0.0164211999999989,0.0062601999999999,0,sub_4
-0.0031076000000002,0.0055104000000012,0.0032239999999999,0.0010022000000004,-0.0133949999999989,0.0066929999999999,0,sub_4
-0.0035448000000002,0.0050724000000012,0.0036719999999999,0.0027278000000004,-0.0118567999999989,0.0060611999999999,0,sub_4
-0.0028076000000002,0.0042148000000012,0.0055723999999999,0.0051002000000004,-0.0094659999999989,0.0047917999999999,0,sub_4
-0.0024508000000002,0.0033146000000012,0.0067697999999999,0.0064000000000004,-0.0077129999999989,0.0041565999999999,0,sub_4
-0.0017894000000003,0.0024492000000012,0.0087531999999999,0.0063952000000004,-0.0096271999999989,0.0033043999999999,0,sub_4
-0.0018984000000003,0.0019488000000012,0.0106511999999999,0.0048910000000004,-0.0128143999999989,0.0024433999999999,0,sub_4
-0.0010816000000003,0.0019394000000012,0.0131453999999999,0.0031810000000004,-0.0134475999999989,0.0024321999999999,0,sub_4
-0.0017380000000003,0.0028246000000012,0.0121453999999998,0.0014912000000004,-0.0127295999999989,0.0030347999999999,0,sub_4
-0.0027646000000003,0.0041434000000012,0.0105485999999999,0.0010796000000004,-0.0130789999999989,0.0030069999999999,0,sub_4
-0.0052670000000003,0.0059314000000012,0.0070949999999999,0.0030258000000004,-0.0113049999999989,0.0027791999999999,0,sub_4
-0.0056370000000003,0.0053706000000012,0.0068393999999999,0.0054064000000004,-0.0074035999999989,0.0029789999999999,0,sub_4
-0.0056466000000003,0.0044816000000012,0.0071729999999999,0.0088558000000004,-0.0032921999999989,0.0029723999999999,0,sub_4
-0.0042920000000002,0.0025248000000012,0.0108285999999999,0.0110002000000004,-0.0001071999999989,0.0038379999999999,0,sub_4
-0.0035218000000002,-0.0001885999999987,0.0146429999999999,0.0112262000000004,0.003935000000001,0.0051161999999999,0,sub_4
-0.0027210000000002,-0.0015137999999987,0.0179801999999999,0.0084484000000004,0.004153400000001,0.0061647999999999,0,sub_4
-0.0035760000000002,-0.0003475999999987,0.0174473999999999,0.0060868000000004,0.000541400000001,0.0057255999999999,0,sub_4
-0.0043446000000002,0.0012854000000012,0.0134501999999999,0.0037486000000004,-0.0019335999999989,0.0039633999999999,0,sub_4
-0.0048988000000002,0.0029906000000012,0.0091655999999999,0.0037670000000004,-0.0027107999999989,0.0017881999999999,0,sub_4
-0.0043520000000002,0.0053194000000012,0.0062611999999999,0.0054934000000004,-0.0028563999999989,5.139999999990924e-05,0,sub_4
-0.0034898000000002,0.0061440000000012,0.0037545999999999,0.0078696000000004,-0.0006615999999989,-0.0014704,0,sub_4
-0.0029976000000002,0.0061400000000012,0.0017287999999999,0.0095990000000004,0.000468400000001,-0.0025678,0,sub_4
-0.0016276000000002,0.0054022000000012,0.0026373999999999,0.0102364000000004,0.000675800000001,-0.0017092,0,sub_4
-0.0016660000000003,0.0051614000000012,0.0034363999999999,0.0091696000000004,0.002589200000001,0.0002035999999999,0,sub_4
-0.0025358000000003,0.0049480000000012,0.0035661999999999,0.0078866000000004,0.004076400000001,0.0023291999999999,0,sub_4
-0.0043018000000003,0.0053468000000012,0.0024773999999999,0.0074590000000004,0.004971800000001,0.0037785999999999,0,sub_4
-0.0049380000000003,0.0058210000000012,0.0016263999999999,0.0083124000000004,0.005014800000001,0.0041697999999999,0,sub_4
-0.0065010000000002,0.0062104000000012,0.0009087999999999,0.0098136000000004,0.005486800000001,0.0032831999999999,0,sub_4
-0.0061268000000002,0.0048396000000012,0.0015549999999999,0.0100404000000004,0.007029400000001,0.0021725999999999,0,sub_4
-0.0044254000000002,0.0040264000000012,0.0027249999999999,0.0094106000000004,0.007087000000001,0.0002031999999999,0,sub_4
-0.0017444000000003,0.0034100000000012,0.0050279999999999,0.0074786000000004,0.003264000000001,-0.0010872,0,sub_4
-0.0013452000000003,0.0039456000000012,0.0054695999999998,0.0044800000000004,0.000930000000001,-0.0008916,0,sub_4
-0.0016282000000003,0.0047900000000012,0.0051481999999998,0.0025414000000004,-0.0033235999999989,-0.0011134,0,sub_4
-0.0024036000000003,0.0064072000000012,0.0035373999999998,0.0033672000000004,-0.0098735999999989,-0.0026336,0,sub_4
-0.0041350000000003,0.0063714000000012,0.0039067999999998,0.0044198000000004,-0.0123805999999989,-0.0030892,0,sub_4
-0.0065402000000003,0.0059296000000012,0.0040805999999999,0.0059202000000004,-0.0095653999999989,-0.0029076,0,sub_4
-0.0077186000000003,0.0054736000000012,0.0044605999999999,0.0076310000000004,-0.008238799999999,-0.003577,0,sub_4
-0.0076638000000003,0.0049920000000012,0.0043231999999999,0.0089112000000004,-0.007975199999999,-0.0044618,0,sub_4
-0.0071992000000002,0.0036212000000012,0.0057929999999999,0.0093408000000004,-0.007761999999999,-0.0048864,0,sub_4
-0.0050464000000002,0.0024746000000012,0.0064981999999999,0.0084892000000004,-0.007120799999999,-0.0046794,0,sub_4
-0.0028862000000002,0.0019006000000012,0.0073615999999999,0.0065544000000004,-0.006419999999999,-0.0036582,0,sub_4
-0.0023286000000002,0.0022100000000012,0.0085481999999999,0.0037640000000004,-0.004869199999999,-0.0013624,0,sub_4
-0.0039996000000002,0.0024186000000012,0.0076033999999999,0.0003356000000004,-0.002889999999999,0.0009283999999999,0,sub_4
-0.0054370000000003,0.0039972000000012,0.0049647999999999,-0.0020299999999995,-0.003676599999999,0.0013073999999999,0,sub_4
-0.0062684000000003,0.0056950000000012,0.0024421999999999,-0.0016215999999995,-0.0059581999999989,0.0002121999999999,0,sub_4
-0.0060572000000003,0.0053820000000012,0.0022287999999999,8.920000000045749e-05,-0.0065973999999989,-0.0012706,0,sub_4
-0.0046366000000003,0.0039004000000012,0.0036307999999999,0.0011676000000004,-0.0053177999999989,-0.0025466,0,sub_4
-0.0023628000000003,0.0032938000000012,0.0067825999999999,0.0009504000000004,-0.0068057999999989,-0.003187,0,sub_4
-0.0013666000000003,0.0025962000000012,0.0087539999999999,-0.0011975999999995,-0.0089329999999989,-0.002131,0,sub_4
-0.0031236000000003,0.0022784000000012,0.0081391999999999,-0.0037913999999995,-0.009737399999999,-0.0011078,0,sub_4
-0.0045060000000003,0.0033086000000012,0.0066557999999999,-0.0053173999999994,-0.010969199999999,-0.0007176,0,sub_4
-0.0053642000000003,0.0031826000000012,0.0057335999999999,-0.0064107999999994,-0.0115605999999989,-0.000966,0,sub_4
-0.0057894000000003,0.0025870000000012,0.0068721999999999,-0.0079203999999994,-0.0089581999999989,-0.000367,0,sub_4
-0.0065870000000003,0.0033478000000012,0.0060393999999999,-0.0094329999999994,-0.0065705999999989,0.0006597999999999,0,sub_4
-0.0067252000000003,0.0043332000000012,0.0052489999999999,-0.0113581999999994,-0.0065681999999989,0.0017145999999999,0,sub_4
-0.0080734000000003,0.0055756000000012,0.0019265999999999,-0.0120049999999994,-0.0076327999999989,0.0021387999999999,0,sub_4
-0.0071698000000003,0.0060862000000012,0.0004259999999999,-0.0107547999999995,-0.0067603999999989,0.0021271999999999,0,sub_4
-0.0056664000000003,0.0055824000000012,-0.0013682,-0.0073613999999995,-0.0046137999999989,0.0012745999999999,0,sub_4
-0.0024626000000003,0.0044878000000012,0.0010279999999999,-0.0052443999999995,-0.0016103999999989,0.0004117999999999,0,sub_4
-0.0014896000000003,0.0032626000000012,0.0030405999999999,-0.0050571999999995,-9.419999999899664e-05,0.0001783999999999,0,sub_4
-0.0010274000000003,0.0023828000000012,0.0055171999999999,-0.0078775999999994,-0.0026173999999989,0.0003563999999999,0,sub_4
-0.0035916000000003,0.0027998000000012,0.0046909999999999,-0.0108839999999994,-0.0066557999999989,0.0005541999999999,0,sub_4
-0.0053904000000003,0.0036554000000012,0.0050217999999999,-0.0138769999999994,-0.0072869999999989,0.0011749999999998,0,sub_4
-0.0065518000000003,0.0039494000000012,0.0048709999999999,-0.0145103999999994,-0.005793399999999,0.0011685999999999,0,sub_4
-0.0050898000000003,0.0044120000000012,0.0069805999999999,-0.0153513999999994,-0.002596399999999,0.0015857999999999,0,sub_4
-0.0055858000000003,0.0051744000000012,0.0067869999999999,-0.0153723999999995,0.0018864000000009,0.0026361999999999,0,sub_4
-0.0059392000000003,0.0054854000000012,0.0064307999999999,-0.0147611999999995,0.0038136000000009,0.0028397999999999,0,sub_4
-0.0058524000000003,0.0048944000000012,0.0051709999999998,-0.0124525999999995,0.0014824000000009,0.0009239999999999,0,sub_4
-0.0046540000000003,0.0040334000000012,0.0049741999999998,-0.0107801999999994,0.000217800000001,-0.0007838,0,sub_4
-0.0036840000000003,0.0036152000000012,0.0048085999999998,-0.0088945999999994,1.3600000001003262e-05,-0.0014232,0,sub_4
-0.0024920000000003,0.0032006000000012,0.0065631999999998,-0.0080343999999994,0.001077600000001,-0.0018458,0,sub_4
-0.0020188000000003,0.0031980000000012,0.0077653999999998,-0.0073913999999994,0.001714600000001,-0.0018422,0,sub_4
-0.0032544000000003,0.0040936000000012,0.0078761999999999,-0.0076191999999994,-0.0010559999999989,-0.0014128,0,sub_4
-0.0049896000000003,0.0041898000000012,0.0083705999999999,-0.0083093999999995,-0.0040145999999989,-0.0012004,0,sub_4
-0.0055140000000003,0.0037166000000012,0.0090719999999999,-0.0087735999999995,-0.0054775999999989,-0.0022702,0,sub_4
-0.0043518000000003,0.0032164000000012,0.0102249999999999,-0.0096657999999995,-0.0063031999999989,-0.0024892,0,sub_4
-0.0039588000000003,0.0041590000000012,0.0094987999999999,-0.0097033999999995,-0.0064943999999989,-0.0022758,0,sub_4
-0.0036656000000002,0.0044394000000012,0.0088635999999999,-0.0090911999999995,-0.0049817999999989,-0.0024874,0,sub_4
-0.0042690000000002,0.0049980000000012,0.0064249999999999,-0.0078099999999995,-0.0064707999999989,-0.0041858,0,sub_4
-0.0036010000000002,0.0036552000000012,0.0061667999999999,-0.0071833999999995,-0.0111533999999989,-0.0058846,0,sub_4
-0.0032750000000002,0.0028334000000012,0.0057841999999999,-0.0071871999999995,-0.0126421999999989,-0.0065236,0,sub_4
-0.0036004000000002,0.0018776000000012,0.0068333999999999,-0.0091339999999995,-0.0134573999999989,-0.0063182,0,sub_4
-0.0043454000000002,0.0017962000000012,0.0065813999999999,-0.0113019999999995,-0.0153397999999989,-0.0054722,0,sub_4
-0.0059154000000002,0.0022772000000012,0.0072357999999999,-0.0117619999999995,-0.0161661999999989,-0.003761,0,sub_4
-0.0088568000000002,0.0036700000000012,0.0070109999999998,-0.0109195999999994,-0.0123089999999989,-0.0022604,0,sub_4
-0.0093242000000002,0.0039004000000012,0.0083721999999999,-0.0079329999999994,-0.0076011999999989,-0.0022416,0,sub_4
-0.0079032000000002,0.0037490000000012,0.0108083999999998,-0.0055715999999994,-0.0039891999999989,-0.0018026,0,sub_4
-0.0067660000000002,0.0035298000000012,0.0121031999999998,-0.0044911999999994,0.000687400000001,-9.180000000007116e-05,0,sub_4
-0.0064838000000002,0.0032150000000012,0.0117285999999998,-0.0048993999999994,0.005615600000001,0.0016109999999999,0,sub_4
-0.0052732000000002,0.0035584000000012,0.0101079999999999,-0.0042543999999995,0.006496400000001,0.0022581999999999,0,sub_4
-0.0036390000000003,0.0033862000000012,0.0085129999999999,-0.0036131999999995,0.006100600000001,0.0024797999999999,0,sub_4
-0.0027156000000003,0.0028994000000012,0.0068469999999998,-0.0027537999999995,0.006557000000001,0.0024881999999999,0,sub_4
-0.0031234000000003,0.0036914000000012,0.0068375999999998,-0.0023221999999994,0.007014200000001,0.0027069999999999,0,sub_4
-0.0031052000000003,0.0042308000000012,0.0060535999999998,-0.0012573999999994,0.005947800000001,0.0020749999999999,0,sub_4
-0.0034670000000003,0.0044040000000012,0.0059275999999998,1.3400000000516645e-05,0.002751800000001,0.0010197999999999,0,sub_4
-0.0043240000000002,0.0038822000000012,0.0066539999999998,0.0008622000000005,0.000834600000001,0.0001735999999999,0,sub_4
-0.0034136000000002,0.0033400000000012,0.0086243999999999,0.0015072000000005,0.001685400000001,-3.6800000000050856e-05,0,sub_4
-0.0031318000000002,0.0025572000000012,0.0104195999999999,0.0013228000000005,0.0017164000000009,-3.860000000005092e-05,0,sub_4
-0.0035764000000002,0.0024104000000012,0.0110767999999999,-0.0007895999999994,0.0013228000000009,0.0012283999999999,0,sub_4
-0.0053424000000002,0.0038782000000012,0.0085873999999999,-0.0020457999999994,0.0017776000000009,0.0027139999999999,0,sub_4
-0.0070648000000002,0.0054996000000012,0.0057651999999999,-0.0009577999999994,9.980000000098184e-05,0.0027231999999999,0,sub_4
-0.0073188000000002,0.0053128000000012,0.0044625999999999,0.0014192000000005,-0.000513799999999,0.0018855999999999,0,sub_4
-0.0050508000000003,0.0044890000000012,0.0047721999999999,0.0037768000000004,0.0009728000000009,0.0010455999999999,0,sub_4
-0.0033190000000003,0.0042128000000012,0.0065597999999999,0.0054876000000004,0.001607000000001,0.0008431999999999,0,sub_4
-0.0024914000000003,0.0034514000000012,0.0079055999999999,0.0055224000000004,0.000137400000001,0.0006333999999999,0,sub_4
-0.0030902000000003,0.0041788000000012,0.0068793999999999,0.0042646000000004,-0.0038851999999989,0.0006313999999999,0,sub_4
-0.0050548000000003,0.0054180000000012,0.0052969999999999,0.0030096000000004,-0.0081173999999989,-0.0002248,0,sub_4
-0.0065588000000003,0.0060484000000012,0.0045949999999999,0.0034750000000004,-0.0093727999999989,-0.0010728,0,sub_4
-0.0064664000000003,0.0058330000000012,0.0063151999999999,0.0058694000000004,-0.0089297999999989,-0.0021232,0,sub_4
-0.0062214000000003,0.0052948000000012,0.0096859999999999,0.0090872000000004,-0.0046815999999989,-0.001679,0,sub_4
-0.0066520000000003,0.0038954000000011,0.0113455999999999,0.0112334000000004,-0.0012827999999989,-0.0010274,0,sub_4
-0.0063738000000002,0.0028910000000011,0.0114499999999999,0.0114410000000004,-0.0025619999999989,-0.0010244,0,sub_4
-0.0041906000000002,0.0019128000000011,0.0101651999999999,0.0088720000000004,-0.0053193999999989,-0.0018934,0,sub_4
-0.0022802000000002,0.0021386000000012,0.0080417999999999,0.0059352000000004,-0.004638399999999,-0.0019056,0,sub_4
-0.0003838000000002,0.0028666000000012,0.0069609999999999,0.0025650000000004,-0.004810599999999,-0.0012788,0,sub_4
-0.0004538000000002,0.0057218000000012,0.0077937999999999,0.0011210000000004,-0.003711199999999,-0.0006402,0,sub_4
-0.0020452000000003,0.0096542000000012,0.0086005999999999,0.0020384000000005,0.0003636000000009,-0.0002024,0,sub_4
-0.0047182000000003,0.0102706000000012,0.0088365999999999,0.0081016000000005,0.0088988000000009,-0.0008028,0,sub_4
-0.0063174000000003,0.0090680000000012,0.0093959999999999,0.0196918000000005,0.0203780000000009,-0.0043686,0,sub_4
-0.0074876000000003,0.0088922000000012,0.0123325999999999,0.0325718000000005,0.0318612000000009,-0.0100616,0,sub_4
