userAcceleration.x,userAcceleration.y,userAcceleration.z,rotationRate.x,rotationRate.y,rotationRate.z,label,subject
-0.0171358000000002,0.0095030000000012,0.0378621999999999,0.0457726000000004,-0.0804613999999992,0.0009326,0,sub_16
-0.0196340000000002,0.0091676000000012,0.0372285999999999,0.0492202000000004,-0.0732285999999992,0.0007338,0,sub_16
-0.0209978000000002,0.0101976000000012,0.0356925999999999,0.0528916000000004,-0.0640773999999992,0.0001067999999999,0,sub_16
-0.0217922000000002,0.0093564000000012,0.0343555999999999,0.0565688000000004,-0.0551331999999992,-0.0020154,0,sub_16
-0.0217522000000002,0.0082756000000012,0.0326325999999999,0.0606640000000004,-0.0487445999999992,-0.0047724,0,sub_16
-0.0195864000000002,0.0090210000000012,0.0312735999999999,0.0628284000000004,-0.0449051999999992,-0.0077532,0,sub_16
-0.0168014000000002,0.0099286000000012,0.0283409999999999,0.0654032000000004,-0.0442647999999992,-0.0102998,0,sub_16
-0.0140630000000002,0.0094710000000012,0.0263485999999999,0.0681780000000004,-0.0457591999999992,-0.0119875999999999,0,sub_16
-0.0123652000000002,0.0094806000000012,0.0244815999999999,0.0703078000000004,-0.0468311999999992,-0.0121849999999999,0,sub_16
-0.0115484000000002,0.0088234000000012,0.0221659999999999,0.0713746000000004,-0.0466227999999992,-0.0119641999999999,0,sub_16
-0.0102352000000002,0.0080366000000012,0.0200979999999999,0.0730750000000004,-0.0464223999999992,-0.0102433999999999,0,sub_16
-0.0099754000000002,0.0075186000000012,0.0195493999999999,0.0737066000000004,-0.0464323999999992,-0.0083161999999999,0,sub_16
-0.0111816000000002,0.0071754000000012,0.0201349999999999,0.0734904000000004,-0.0453731999999992,-0.00661,0,sub_16
-0.0116058000000002,0.0076428000000012,0.0201861999999999,0.0726302000000004,-0.0460127999999992,-0.0057606,0,sub_16
-0.0134432000000002,0.0089390000000012,0.0203611999999999,0.0702688000000004,-0.0477149999999992,-0.0042794,0,sub_16
-0.0160750000000002,0.0100548000000012,0.0206907999999999,0.0674728000000004,-0.0521811999999992,-0.003866,0,sub_16
-0.0188922000000002,0.0111534000000012,0.0212465999999999,0.0653112000000004,-0.0585643999999992,-0.0040866,0,sub_16
-0.0220480000000002,0.0099660000000012,0.0215381999999999,0.0637956000000004,-0.0643081999999992,-0.0049444,0,sub_16
-0.0247250000000002,0.0088262000000012,0.0226647999999999,0.0631508000000004,-0.0660077999999992,-0.0055876,0,sub_16
-0.0256466000000002,0.0078608000000012,0.0238065999999999,0.0646512000000004,-0.0638849999999992,-0.0049388,0,sub_16
-0.0255776000000002,0.0065944000000012,0.0248129999999999,0.0672386000000004,-0.0566551999999992,-0.0036482,0,sub_16
-0.0248442000000002,0.0060490000000012,0.0253401999999999,0.0704728000000004,-0.0479363999999992,-0.0023548,0,sub_16
-0.0232120000000002,0.0066262000000012,0.0250261999999999,0.0724286000000004,-0.0381501999999992,-0.0004308,0,sub_16
-0.0218282000000002,0.0076128000000012,0.0237151999999999,0.0747986000000004,-0.0315595999999992,0.0010727999999999,0,sub_16
-0.0193456000000002,0.0081806000000012,0.0223887999999999,0.0758904000000005,-0.0262361999999992,0.0008599999999999,0,sub_16
-0.0174422000000002,0.0085980000000012,0.0211695999999999,0.0761258000000005,-0.0223977999999992,-0.0002113999999999,0,sub_16
-0.0156570000000002,0.0081756000000012,0.0203287999999999,0.0750666000000005,-0.0217505999999992,-0.0012877999999999,0,sub_16
-0.0142852000000002,0.0087632000000012,0.0201241999999999,0.0733424000000004,-0.0262161999999992,-0.0019349999999999,0,sub_16
-0.0133224000000002,0.0094414000000012,0.0192659999999999,0.0686176000000004,-0.0317443999999992,-0.0006789999999999,0,sub_16
-0.0131260000000002,0.0115934000000012,0.0195981999999999,0.0636706000000004,-0.0385525999999992,0.0012177999999999,0,sub_16
-0.0146968000000002,0.0114626000000012,0.0204167999999999,0.0591486000000004,-0.0453639999999992,0.0035449999999999,0,sub_16
-0.0164038000000002,0.0111032000000012,0.0205941999999999,0.0544266000000004,-0.0489795999999992,0.0060801999999999,0,sub_16
-0.0180172000000002,0.0124522000000012,0.0194247999999999,0.0503572000000004,-0.0500401999999992,0.0084031999999999,0,sub_16
-0.0207380000000002,0.0132914000000012,0.0192331999999999,0.0484272000000004,-0.0502541999999991,0.0103127999999999,0,sub_16
-0.0244532000000002,0.0125950000000012,0.0181123999999999,0.0479966000000004,-0.0515291999999992,0.0098841999999999,0,sub_16
-0.0281214000000002,0.0128148000000012,0.0166701999999999,0.0471840000000004,-0.0512959999999991,0.0073145999999999,0,sub_16
-0.0313688000000002,0.0126596000000012,0.0154327999999999,0.0474556000000004,-0.0491413999999992,0.0028273999999999,0,sub_16
-0.0335914000000002,0.0105010000000012,0.0142255999999999,0.0481664000000004,-0.0446429999999992,-0.0020872,0,sub_16
-0.0336906000000002,0.0100142000000012,0.0130869999999999,0.0484602000000004,-0.0397101999999992,-0.0087143999999999,0,sub_16
-0.0322892000000002,0.0105944000000012,0.0129691999999999,0.0470450000000004,-0.0347731999999992,-0.0149261999999999,0,sub_16
-0.0295822000000002,0.0114680000000012,0.0125119999999999,0.0445278000000004,-0.0306939999999992,-0.0205037999999999,0,sub_16
-0.0277050000000002,0.0127048000000012,0.0116873999999999,0.0407196000000005,-0.0270441999999992,-0.0241672,0,sub_16
-0.0273468000000002,0.0144152000000012,0.0114611999999999,0.0366866000000005,-0.0255257999999992,-0.0274019999999999,0,sub_16
-0.0271484000000002,0.0148746000000012,0.0108605999999999,0.0337118000000004,-0.0238065999999992,-0.0284931999999999,0,sub_16
-0.0280928000000002,0.0147064000000012,0.0097883999999999,0.0315810000000004,-0.0223111999999992,-0.0276555999999999,0,sub_16
-0.0293576000000002,0.0149030000000012,0.0085849999999999,0.0298662000000004,-0.0208265999999992,-0.0244647999999999,0,sub_16
-0.0299656000000002,0.0150738000000012,0.0083279999999999,0.0285812000000004,-0.0184921999999992,-0.0210583999999999,0,sub_16
-0.0296474000000002,0.0148516000000012,0.0087443999999999,0.0279430000000004,-0.0148807999999992,-0.0178628,0,sub_16
-0.0293092000000002,0.0127120000000012,0.0077369999999999,0.0271000000000005,-0.0101999999999992,-0.0155246,0,sub_16
-0.0285736000000002,0.0124398000000012,0.0062713999999999,0.0256208000000005,-0.0050889999999992,-0.0136185999999999,0,sub_16
-0.0272814000000002,0.0127600000000012,0.0053429999999999,0.0245664000000004,-0.0018911999999992,-0.0132027999999999,0,sub_16
-0.0269510000000002,0.0111416000000012,0.0046543999999999,0.0224328000000005,-0.0018837999999992,-0.0132175999999999,0,sub_16
-0.0265128000000002,0.0100436000000012,0.0038241999999999,0.0194418000000005,-0.0029377999999992,-0.0134507999999999,0,sub_16
-0.0271486000000002,0.0101958000000012,0.0052065999999999,0.0151724000000004,-0.0035611999999992,-0.0136935999999999,0,sub_16
-0.0273714000000002,0.0100968000000012,0.0060249999999999,0.0117584000000005,-0.0029127999999992,-0.0130774,0,sub_16
-0.0270310000000002,0.0106208000000012,0.0063867999999999,0.0092018000000005,-0.0009905999999992,-0.0120295999999999,0,sub_16
-0.0263456000000002,0.0121274000000012,0.0065215999999999,0.0075120000000005,0.0034870000000007,-0.0114063999999999,0,sub_16
-0.0254742000000002,0.0115668000000012,0.0062695999999999,0.0051868000000005,0.0088198000000007,-0.0110021999999999,0,sub_16
-0.0250562000000002,0.0114910000000012,0.0057949999999999,0.0024264000000005,0.0120244000000007,-0.0108119999999999,0,sub_16
-0.0255026000000002,0.0087256000000012,0.0055479999999999,-0.0007645999999994,0.0145906000000007,-0.0104101999999999,0,sub_16
-0.0269560000000002,0.0051160000000012,0.0056063999999999,-0.0037517999999994,0.0169352000000007,-0.008084,0,sub_16
-0.0273696000000002,0.0016704000000012,0.0050187999999999,-0.0054741999999994,0.0196862000000007,-0.0019038,0,sub_16
-0.0261490000000002,0.0037298000000012,0.0046269999999999,-0.0059237999999994,0.0236990000000007,0.0072745999999999,0,sub_16
-0.0240304000000002,0.0074588000000012,0.0039321999999999,-0.0050999999999995,0.0283380000000007,0.0185975999999999,0,sub_16
-0.0226528000000002,0.0103736000000012,0.0054755999999999,-0.0032217999999995,0.0293548000000007,0.0290779999999999,0,sub_16
-0.0237548000000002,0.0124914000000012,0.0076151999999999,-0.0026305999999995,0.0276114000000007,0.0382711999999999,0,sub_16
-0.0262390000000002,0.0159398000000012,0.0100547999999999,-0.0024659999999995,0.0239596000000007,0.045541,0,sub_16
-0.0310624000000002,0.0172538000000012,0.0125597999999999,-0.0025033999999995,0.0203190000000007,0.0502455999999999,0,sub_16
-0.0358742000000002,0.0178352000000012,0.0152063999999999,-0.0035749999999995,0.0186210000000007,0.0495993999999999,0,sub_16
-0.0387962000000002,0.0180802000000012,0.0151207999999999,-0.0065237999999994,0.0220606000000007,0.044447,0,sub_16
-0.0382022000000002,0.0175558000000012,0.0144625999999999,-0.0094351999999995,0.0299898000000007,0.0354433999999999,0,sub_16
-0.0375526000000002,0.0151128000000012,0.0135983999999999,-0.0129713999999994,0.0389960000000007,0.0240839999999999,0,sub_16
-0.0371616000000002,0.0113924000000012,0.0133813999999999,-0.0169421999999994,0.0475724000000007,0.0140039999999999,0,sub_16
-0.0367100000000002,0.0076820000000012,0.0133877999999999,-0.0205071999999994,0.0561284000000007,0.0086269999999999,0,sub_16
-0.0370610000000002,0.0068012000000012,0.0148079999999999,-0.0225987999999994,0.0655102000000007,0.0086001999999999,0,sub_16
-0.0374196000000002,0.0079354000000012,0.0162999999999999,-0.0238569999999994,0.0750834000000007,0.0132793999999999,0,sub_16
-0.0366692000000002,0.0101656000000012,0.0190531999999999,-0.0229901999999994,0.0850658000000007,0.0203229999999999,0,sub_16
-0.0347322000000002,0.0125598000000012,0.0205635999999999,-0.0206295999999994,0.0941942000000007,0.0265233999999999,0,sub_16
-0.0315880000000002,0.0144680000000012,0.0205439999999999,-0.0180527999999994,0.1014146000000007,0.0301641999999999,0,sub_16
-0.0278320000000002,0.0146620000000012,0.0188279999999999,-0.0176125999999994,0.1041838000000007,0.0299501999999999,0,sub_16
-0.0238032000000002,0.0147914000000012,0.0166347999999999,-0.0201625999999994,0.1025044000000007,0.0258751999999999,0,sub_16
-0.0196628000000002,0.0131688000000012,0.0132831999999999,-0.0272009999999994,0.0963776000000007,0.0189971999999999,0,sub_16
-0.0162740000000002,0.0110034000000012,0.0108897999999999,-0.0359617999999994,0.0862114000000007,0.0114713999999999,0,sub_16
-0.0136346000000002,0.0088612000000012,0.0105331999999999,-0.0428165999999995,0.0739038000000007,0.0050298,0,sub_16
-0.0119342000000002,0.0076218000000012,0.0117073999999999,-0.0464765999999994,0.0634896000000007,0.0018128,0,sub_16
-0.0116052000000002,0.0058742000000012,0.0135177999999999,-0.0475807999999994,0.0562454000000007,0.0028826,0,sub_16
-0.0119760000000002,0.0070086000000012,0.0151765999999999,-0.0467337999999995,0.0530364000000007,0.0071654,0,sub_16
-0.0134994000000002,0.0095564000000012,0.0168791999999999,-0.0460951999999994,0.0523786000000007,0.0129392,0,sub_16
-0.0156572000000002,0.0113950000000012,0.0168849999999999,-0.0471551999999994,0.0532198000000007,0.0182719999999999,0,sub_16
-0.0175610000000002,0.0137456000000012,0.0172107999999999,-0.0490685999999995,0.0523664000000007,0.0218917999999999,0,sub_16
-0.0177972000000002,0.0172468000000012,0.0183495999999999,-0.0514105999999994,0.0479054000000007,0.0223083999999999,0,sub_16
-0.0175370000000002,0.0183302000000012,0.0199847999999999,-0.0535643999999994,0.0413166000000007,0.0201653999999999,0,sub_16
-0.0161182000000002,0.0176696000000012,0.0200859999999999,-0.0548551999999994,0.0353702000000007,0.0165319999999999,0,sub_16
-0.0132532000000002,0.0160068000000012,0.0211309999999999,-0.0546703999999994,0.0296468000000007,0.0124869999999999,0,sub_16
-0.0110162000000002,0.0134982000000012,0.0211439999999999,-0.0534177999999994,0.0249814000000007,0.0093025999999999,0,sub_16
-0.0099646000000002,0.0100432000000012,0.0207275999999999,-0.0506629999999994,0.0232892000000007,0.0071931999999999,0,sub_16
-0.0089890000000002,0.0076540000000012,0.0213825999999999,-0.0466307999999994,0.0230756000000007,0.0072271999999999,0,sub_16
-0.0080500000000002,0.0057788000000012,0.0239745999999999,-0.0428167999999994,0.0234948000000007,0.0089681999999999,0,sub_16
-0.0087884000000002,0.0049050000000012,0.0263019999999999,-0.0421813999999994,0.0251858000000007,0.0117477999999999,0,sub_16
-0.0093492000000002,0.0063760000000012,0.0286677999999999,-0.0434653999999994,0.0270968000000007,0.0145137999999999,0,sub_16
-0.0106912000000002,0.0079072000000012,0.0305383999999999,-0.0459679999999994,0.0277932000000007,0.0161853999999999,0,sub_16
-0.0128984000000002,0.0089080000000012,0.0310963999999999,-0.0501785999999994,0.0265848000000007,0.0161383999999999,0,sub_16
-0.0153776000000002,0.0103858000000012,0.0302685999999999,-0.0543921999999994,0.0232520000000007,0.0145983999999999,0,sub_16
-0.0173648000000002,0.0122260000000012,0.0291165999999999,-0.0569005999999995,0.0194870000000007,0.0130707999999999,0,sub_16
-0.0195420000000002,0.0109392000000012,0.0295261999999999,-0.0583325999999995,0.0174244000000007,0.0111213999999999,0,sub_16
-0.0212226000000002,0.0096100000000012,0.0300523999999999,-0.0583249999999994,0.0187044000000007,0.0106923999999999,0,sub_16
-0.0210132000000002,0.0100272000000012,0.0298311999999999,-0.0559635999999995,0.0235896000000007,0.0124117999999999,0,sub_16
-0.0198938000000002,0.0105388000000012,0.0303355999999999,-0.0510299999999995,0.0316590000000007,0.0147859999999999,0,sub_16
-0.0194694000000002,0.0100718000000012,0.0314363999999999,-0.0445943999999994,0.0410042000000007,0.0165281999999999,0,sub_16
-0.0178724000000002,0.0114138000000012,0.0311737999999999,-0.0384431999999995,0.0485438000000007,0.0179981999999999,0,sub_16
-0.0164210000000002,0.0130222000000012,0.0319271999999999,-0.0329425999999995,0.0526812000000007,0.0183999999999999,0,sub_16
-0.0165934000000002,0.0133166000000012,0.0338903999999999,-0.0282887999999995,0.0544932000000007,0.0149531999999999,0,sub_16
-0.0171672000000002,0.0130750000000012,0.0348415999999999,-0.0253467999999995,0.0537606000000007,0.0100021999999999,0,sub_16
-0.0163998000000002,0.0127980000000012,0.0356563999999999,-0.0228449999999994,0.0508956000000007,0.0059053999999999,0,sub_16
-0.0159258000000002,0.0112652000000012,0.0368881999999999,-0.0200653999999995,0.0498302000000007,0.0035761999999999,0,sub_16
-0.0147798000000002,0.0093978000000012,0.0370789999999999,-0.0170695999999994,0.0515250000000007,0.0033811999999999,0,sub_16
-0.0128908000000002,0.0080912000000012,0.0365115999999999,-0.0140833999999995,0.0542724000000007,0.0063895999999999,0,sub_16
-0.0104942000000002,0.0068936000000012,0.0371553999999999,-0.0113171999999995,0.0574390000000007,0.0113185999999999,0,sub_16
-0.0076362000000002,0.0078712000000012,0.0383253999999999,-0.0091967999999995,0.0593294000000007,0.0162447999999999,0,sub_16
-0.0052368000000002,0.0088706000000012,0.0388897999999999,-0.0070859999999994,0.0582404000000007,0.0203201999999999,0,sub_16
-0.0032362000000002,0.0100650000000012,0.0382279999999999,-0.0049887999999994,0.0543810000000007,0.0246127999999999,0,sub_16
-0.0012578000000002,0.0118766000000012,0.0377373999999999,-0.0024693999999994,0.0496670000000007,0.0291227999999999,0,sub_16
0.0004039999999997,0.0127578000000012,0.0372215999999999,0.0017520000000005,0.0434574000000007,0.0332195999999999,0,sub_16
0.0006009999999997,0.0107684000000012,0.0367257999999999,0.0053380000000005,0.0366176000000007,0.0356035999999999,0,sub_16
-0.0001120000000002,0.0091642000000012,0.0364769999999999,0.0059330000000004,0.0282994000000007,0.0373275999999999,0,sub_16
-0.0005098000000002,0.0080234000000012,0.0362507999999999,0.0039638000000005,0.0170160000000007,0.0369009999999999,0,sub_16
-0.0012844000000002,0.0075092000000012,0.0356961999999999,0.0015640000000004,0.0029720000000007,0.0345521999999999,0,sub_16
-0.0018242000000002,0.0080944000000012,0.0339563999999999,0.0002424000000004,-0.0095801999999992,0.0311405999999999,0,sub_16
-0.0025312000000002,0.0099488000000012,0.0322357999999999,0.0023350000000004,-0.0195977999999992,0.0303133999999999,0,sub_16
0.0003165999999997,0.0097290000000012,0.0316405999999999,0.0076386000000004,-0.0277071999999992,0.0290789999999999,0,sub_16
0.0027719999999997,0.0092406000000012,0.0320859999999999,0.0131796000000005,-0.0311277999999992,0.0271991999999999,0,sub_16
0.0063367999999997,0.0078122000000012,0.0321953999999999,0.0157352000000004,-0.0336873999999992,0.0257247999999999,0,sub_16
0.0085111999999997,0.0061054000000012,0.0328799999999999,0.0137948000000004,-0.0392157999999992,0.0246501999999999,0,sub_16
0.0098009999999997,0.0052410000000012,0.0336405999999999,0.0092928000000005,-0.0481311999999992,0.0203573999999999,0,sub_16
0.0076193999999997,0.0058072000000012,0.0338147999999999,0.0043604000000005,-0.0585339999999992,0.0154223999999999,0,sub_16
0.0018939999999997,0.0070954000000012,0.0361763999999999,0.0015502000000004,-0.0691665999999992,0.0128527999999999,0,sub_16
-0.0047810000000002,0.0070242000000012,0.0394511999999999,0.0036590000000004,-0.0738645999999992,0.0137281999999999,0,sub_16
-0.0096706000000002,0.0073576000000012,0.0421725999999999,0.0098468000000004,-0.0700665999999992,0.0176121999999999,0,sub_16
-0.0134400000000002,0.0077554000000012,0.0439909999999999,0.0173680000000004,-0.0594605999999992,0.0246411999999999,0,sub_16
-0.0157616000000002,0.0091408000000012,0.0449193999999999,0.0244746000000004,-0.0452347999999992,0.0325171999999999,0,sub_16
-0.0136432000000002,0.0092062000000012,0.0426835999999999,0.0311564000000004,-0.0327033999999992,0.0382559999999999,0,sub_16
-0.0095852000000002,0.0103602000000012,0.0403395999999999,0.0367658000000004,-0.0271757999999992,0.0382277999999999,0,sub_16
-0.0045946000000002,0.0117276000000012,0.0380363999999999,0.0378934000000005,-0.0279993999999992,0.0319807999999999,0,sub_16
0.0005307999999997,0.0122226000000012,0.0359855999999999,0.0349234000000005,-0.0351885999999992,0.0208597999999999,0,sub_16
0.0044145999999997,0.0112636000000012,0.0348999999999999,0.0289586000000005,-0.0470423999999992,0.0067327999999999,0,sub_16
0.0070283999999997,0.0098886000000012,0.0339283999999999,0.0212830000000005,-0.0605911999999992,-0.0082586,0,sub_16
0.0060511999999997,0.0078586000000012,0.0334225999999999,0.0125356000000004,-0.0726551999999992,-0.0206956,0,sub_16
0.0030799999999997,0.0059610000000012,0.0338119999999999,0.0084662000000005,-0.0839013999999992,-0.0286144,0,sub_16
-0.0007568000000002,0.0038700000000012,0.0350227999999999,0.0095138000000004,-0.0902881999999992,-0.0307354,0,sub_16
-0.0040426000000002,0.0038060000000012,0.0358723999999999,0.0150548000000004,-0.0879793999999992,-0.026854,0,sub_16
-0.0070266000000002,0.0050580000000012,0.0376599999999999,0.0231746000000004,-0.0773875999999992,-0.0186924,0,sub_16
-0.0080944000000002,0.0074986000000012,0.0385513999999999,0.0313078000000004,-0.0631763999999992,-0.0098944,0,sub_16
-0.0090484000000002,0.0089756000000012,0.0388061999999999,0.0358202000000004,-0.0487341999999992,-0.0024038,0,sub_16
-0.0091284000000002,0.0104472000000012,0.0389327999999999,0.0377732000000005,-0.0368285999999992,0.0022947999999999,0,sub_16
-0.0076994000000002,0.0103274000000012,0.0389779999999999,0.0386440000000005,-0.0291769999999992,0.0061365999999999,0,sub_16
-0.0062018000000002,0.0098910000000012,0.0375619999999999,0.0382210000000005,-0.0251401999999992,0.0093331999999999,0,sub_16
-0.0056854000000002,0.0084728000000012,0.0359429999999999,0.0367244000000005,-0.0230155999999992,0.0120973999999999,0,sub_16
-0.0050894000000002,0.0072206000000012,0.0346633999999999,0.0350164000000004,-0.0240715999999992,0.0112321999999999,0,sub_16
-0.0043820000000002,0.0064324000000012,0.0325285999999999,0.0307528000000004,-0.0280851999999992,0.0062935999999999,0,sub_16
-0.0047078000000002,0.0061436000000012,0.0309107999999999,0.0247908000000005,-0.0361167999999992,-0.0046336,0,sub_16
-0.0051722000000002,0.0058832000000012,0.0306639999999999,0.0179840000000005,-0.0468963999999992,-0.0202634,0,sub_16
-0.0064028000000002,0.0076288000000012,0.0293911999999999,0.0116126000000004,-0.0563965999999992,-0.0365325999999999,0,sub_16
-0.0078706000000002,0.0094550000000012,0.0277107999999999,0.0073768000000004,-0.0612339999999992,-0.0485201999999999,0,sub_16
-0.0096922000000002,0.0112868000000012,0.0268083999999999,0.0080428000000004,-0.0626985999999991,-0.0557775999999999,0,sub_16
-0.0119380000000002,0.0132118000000012,0.0256065999999999,0.0123342000000004,-0.0597213999999991,-0.0581013999999999,0,sub_16
-0.0139752000000002,0.0147862000000012,0.0248789999999999,0.0191832000000005,-0.0529361999999991,-0.0559257999999999,0,sub_16
-0.0137458000000002,0.0151440000000012,0.0247613999999999,0.0264542000000004,-0.0444589999999991,-0.0509719999999999,0,sub_16
-0.0134156000000002,0.0152030000000012,0.0246609999999999,0.0322240000000004,-0.0364079999999992,-0.0447461999999999,0,sub_16
-0.0123522000000002,0.0142566000000012,0.0245301999999999,0.0354140000000004,-0.0317599999999992,-0.0376796,0,sub_16
-0.0106754000000002,0.0134188000000012,0.0241441999999999,0.0373298000000004,-0.0319959999999992,-0.0308458,0,sub_16
-0.0094510000000002,0.0117468000000012,0.0219415999999999,0.0379548000000004,-0.0358441999999992,-0.025298,0,sub_16
-0.0098360000000002,0.0091806000000012,0.0196957999999999,0.0387864000000005,-0.0422455999999992,-0.0208138,0,sub_16
-0.0098630000000002,0.0068806000000012,0.0177883999999999,0.0406772000000005,-0.0501427999999992,-0.0161066,0,sub_16
-0.0113932000000002,0.0074832000000012,0.0162007999999999,0.0425796000000004,-0.0559079999999992,-0.0118292,0,sub_16
-0.0150584000000002,0.0082412000000012,0.0160353999999999,0.0451054000000004,-0.0584939999999992,-0.0066806,0,sub_16
-0.0208132000000002,0.0092298000000012,0.0170475999999999,0.0484838000000005,-0.0600227999999992,-0.0002458,0,sub_16
-0.0260148000000002,0.0103762000000012,0.0192813999999999,0.0529332000000005,-0.0587261999999991,0.0075463999999999,0,sub_16
-0.0304534000000002,0.0122286000000012,0.0211073999999999,0.0601786000000005,-0.0523269999999991,0.0155651999999999,0,sub_16
-0.0314926000000002,0.0121932000000012,0.0215617999999999,0.0691472000000004,-0.0429483999999991,0.0229511999999999,0,sub_16
-0.0294026000000002,0.0115026000000012,0.0205247999999999,0.0742878000000004,-0.0348185999999991,0.0262527999999999,0,sub_16
-0.0221968000000002,0.0105160000000012,0.0207759999999999,0.0741016000000004,-0.0328171999999992,0.0216203999999999,0,sub_16
-0.0144204000000002,0.0093672000000012,0.0213747999999999,0.0685732000000004,-0.0399955999999992,0.0100541999999999,0,sub_16
-0.0087468000000002,0.0070174000000012,0.0227391999999999,0.0555746000000004,-0.0535155999999992,-0.0075382,0,sub_16
-0.0069704000000002,0.0043146000000012,0.0238197999999999,0.0383040000000005,-0.0687225999999992,-0.0257989999999999,0,sub_16
-0.0065942000000002,0.0044884000000012,0.0235979999999999,0.0241740000000005,-0.0810037999999992,-0.0402655999999999,0,sub_16
-0.0092722000000002,0.0069426000000012,0.0212639999999999,0.0172978000000004,-0.0852475999999992,-0.0463597999999999,0,sub_16
-0.0119188000000002,0.0109314000000012,0.0184331999999999,0.0172562000000005,-0.0805969999999991,-0.0449399999999999,0,sub_16
-0.0137234000000002,0.0145966000000012,0.0163007999999999,0.0240340000000005,-0.0717337999999992,-0.0372821999999999,0,sub_16
-0.0157786000000002,0.0164070000000012,0.0144343999999999,0.0359336000000004,-0.0594923999999992,-0.0263884,0,sub_16
-0.0192576000000002,0.0154278000000012,0.0135595999999999,0.0474638000000004,-0.0450975999999992,-0.0130792,0,sub_16
-0.0225782000000002,0.0154420000000012,0.0140475999999999,0.0572792000000004,-0.0304913999999992,0.0021405999999999,0,sub_16
-0.0268856000000002,0.0136088000000012,0.0153281999999999,0.0653772000000004,-0.0184349999999992,0.0171377999999999,0,sub_16
-0.0316004000000002,0.0109948000000012,0.0159211999999999,0.0711224000000004,-0.0104073999999992,0.0293463999999999,0,sub_16
-0.0341230000000002,0.0096522000000012,0.0172249999999999,0.0730238000000004,-0.0072495999999992,0.0372615999999999,0,sub_16
-0.0332266000000002,0.0104082000000012,0.0191175999999999,0.0717350000000004,-0.0076771999999992,0.0387485999999999,0,sub_16
-0.0315024000000002,0.0089098000000012,0.0194107999999999,0.0662038000000004,-0.0093409999999992,0.033371,0,sub_16
-0.0279924000000002,0.0078314000000012,0.0173351999999999,0.0583520000000004,-0.0107603999999992,0.0222085999999999,0,sub_16
-0.0223408000000002,0.0088598000000012,0.0146515999999999,0.0485972000000004,-0.0104601999999992,0.0088942,0,sub_16
-0.0175008000000002,0.0092208000000012,0.0113077999999999,0.0392636000000004,-0.0103787999999991,-0.0033487999999999,0,sub_16
-0.0144628000000002,0.0081644000000012,0.0081045999999999,0.0328960000000004,-0.0120241999999992,-0.0125777999999999,0,sub_16
