userAcceleration.x,userAcceleration.y,userAcceleration.z,rotationRate.x,rotationRate.y,rotationRate.z,label,subject
-0.0489991999999999,-0.5715621999999998,-0.3016459999999999,0.1215831999999989,0.0783738000000005,-0.2445618000000003,1,sub_18
0.0670844,-0.6191387999999998,-0.2487587999999999,0.3374711999999989,0.4334558000000005,-0.3048248000000003,1,sub_18
0.2270864000000001,-0.7609261999999998,-0.2550469999999999,0.2071975999999989,0.3931300000000005,-0.1774964000000003,1,sub_18
0.2642550000000001,-0.8630911999999998,-0.2980251999999999,0.2652603999999989,0.4664368000000005,0.0343231999999996,1,sub_18
0.3624498000000001,-0.7593511999999998,-0.2561457999999999,-0.143539800000001,0.2350190000000004,0.0789795999999996,1,sub_18
0.4296576000000001,-0.6571353999999998,-0.2191713999999999,-0.687004800000001,-0.1828573999999995,0.0361947999999996,1,sub_18
0.3199634000000001,-0.6346849999999997,-0.2723727999999999,-1.020193800000001,-0.5772879999999996,0.2345575999999996,1,sub_18
0.1571558000000001,-0.4839829999999997,-0.313737,-1.001259200000001,-0.6461567999999995,0.1779485999999996,1,sub_18
0.1010226000000001,-0.3701067999999997,-0.2565563999999999,-1.214901000000001,-0.5812939999999995,-0.0329984000000003,1,sub_18
-0.0290497999999998,-0.5011819999999998,-0.2442769999999999,-0.932216000000001,-0.3539241999999995,-0.1280960000000003,1,sub_18
-0.1170073999999998,-0.6585499999999997,-0.280985,-0.427261200000001,-0.0073265999999995,-0.1820562000000003,1,sub_18
-0.0644383999999998,-0.6663421999999999,-0.2637092,0.137659399999999,0.2842992000000005,-0.3402126000000003,1,sub_18
0.0354572000000001,-0.6469161999999998,-0.1561213999999999,0.635881799999999,0.6165978000000004,-0.3822372000000004,1,sub_18
0.1649496,-0.7046079999999998,-0.1867305999999999,0.672673799999999,0.6645108000000004,-0.3542690000000004,1,sub_18
0.2827504000000001,-0.7853679999999998,-0.2185687999999999,0.3402845999999991,0.5291886000000006,-0.2175498000000003,1,sub_18
0.3141442,-0.910044,-0.2479277999999999,0.229302599999999,0.5841544000000004,-0.0139390000000003,1,sub_18
0.3495706000000001,-0.7341801999999997,-0.2968619999999999,-0.3487352000000009,0.2478586000000004,-0.0213926000000003,1,sub_18
0.2958104000000001,-0.5724831999999997,-0.3768736,-1.0136824000000009,-0.1572833999999995,0.1069401999999996,1,sub_18
0.1851984,-0.4788577999999998,-0.4088686,-1.0731110000000008,-0.3190403999999995,0.0640033999999996,1,sub_18
0.0957042000000001,-0.4205687999999998,-0.3866889999999999,-0.8012266000000009,-0.2720777999999996,-0.0875542000000003,1,sub_18
0.0650872000000001,-0.3031291999999997,-0.380899,-0.7407028000000009,-0.4177561999999996,-0.3123394000000004,1,sub_18
0.0474396000000001,-0.4906709999999997,-0.3354879999999999,-0.171776200000001,-0.2050169999999995,-0.3003058000000004,1,sub_18
0.0954080000000001,-0.7045505999999998,-0.3585054,0.4591091999999989,0.1015172000000004,-0.3546168000000003,1,sub_18
0.1968786000000001,-0.8562683999999997,-0.3388383999999999,0.346901599999999,0.1785592000000004,-0.2364994000000004,1,sub_18
0.2023694000000001,-0.6380611999999999,-0.3871555999999999,-0.027882800000001,-0.0278795999999995,-0.2341526000000003,1,sub_18
0.1853908000000001,-0.3456079999999998,-0.3554041999999999,-0.524614400000001,-0.2004423999999995,-0.1263062000000004,1,sub_18
0.1275888000000001,-0.2943709999999998,-0.3818935999999999,-1.0014220000000011,-0.3371847999999995,-0.0957058000000003,1,sub_18
0.0763488000000001,-0.2777261999999998,-0.3446363999999999,-1.3201674000000012,-0.4213241999999996,-0.1433306000000003,1,sub_18
0.0055072000000001,-0.1878569999999998,-0.2945197999999999,-1.083764600000001,-0.4516805999999995,-0.2159886000000003,1,sub_18
0.0042320000000001,-0.3720781999999997,-0.2622145999999999,-0.541384200000001,-0.1875963999999996,-0.1807054000000003,1,sub_18
0.0150544000000001,-0.6444947999999998,-0.3145275999999999,0.058097199999999,0.0295082000000003,-0.2212342000000003,1,sub_18
0.052086,-0.5919955999999997,-0.0896431999999999,0.590359799999999,0.3993490000000004,-0.2506778000000004,1,sub_18
-0.0193055999999999,-0.1971999999999997,-0.0659111999999999,0.9568317999999992,0.5249984000000004,-0.2886578000000003,1,sub_18
0.0473426,-0.2576605999999997,-0.1045309999999999,0.782847399999999,0.5849678000000005,-0.1632588000000004,1,sub_18
0.0353316,-0.3484011999999997,-0.1356705999999999,0.7397823999999991,0.6304146000000005,0.0171251999999996,1,sub_18
0.0112928000000001,-0.4353973999999997,-0.1072715999999999,0.598491999999999,0.6445210000000003,0.1814809999999996,1,sub_18
0.0537034000000001,-0.5796259999999998,-0.3055801999999999,0.429851399999999,0.5044840000000004,0.3424249999999996,1,sub_18
0.1081334000000001,-0.9679821999999998,-0.3380423999999999,-0.0936928000000009,0.2692900000000004,0.4185449999999996,1,sub_18
0.0091240000000001,-0.9174923999999998,-0.2791722,0.004484999999999,0.1179054000000004,0.3091841999999997,1,sub_18
-0.0279975999999998,-0.8260297999999999,-0.2401633999999999,-0.0609088000000009,-0.0063499999999996,0.1108383999999996,1,sub_18
-0.0242677999999999,-0.7494903999999998,-0.2508849999999999,0.0324569999999989,-0.0507703999999995,-0.1033788000000003,1,sub_18
-0.0717255999999999,-0.6834405999999997,-0.2537221999999999,0.169357999999999,-0.0789753999999996,-0.2547148000000003,1,sub_18
-0.0816115999999999,-0.5783409999999998,-0.0734935999999999,0.728968799999999,0.2242150000000004,-0.2635858000000003,1,sub_18
-0.1458951999999999,-0.1993437999999997,-0.1501437999999999,1.096528599999999,0.4584826000000004,-0.2925106000000003,1,sub_18
-0.0522195999999998,-0.2363629999999997,-0.1592799999999999,0.981851799999999,0.7262750000000004,-0.2417398000000003,1,sub_18
0.0556362000000001,-0.3628535999999998,-0.1356345999999999,0.474831599999999,0.6956042000000003,-0.1241062000000003,1,sub_18
0.0825354,-0.4601605999999997,-0.1301125999999999,0.283122399999999,0.7891290000000005,-0.0095568000000003,1,sub_18
0.1950840000000001,-0.4659185999999998,-0.3681825999999999,-0.417573200000001,0.4392614000000003,-0.0866424000000003,1,sub_18
0.2625714,-0.5872495999999998,-0.3698685999999999,-1.0284480000000011,0.0545922000000003,0.0428971999999996,1,sub_18
0.1258658,-0.5235571999999997,-0.4423736,-1.273515200000001,-0.2840013999999996,0.1076353999999996,1,sub_18
-0.0112321999999999,-0.3605347999999997,-0.469391,-1.117888800000001,-0.1612961999999995,-0.0234670000000003,1,sub_18
-0.0515127999999998,-0.2528211999999997,-0.4160705999999999,-1.203073800000001,-0.2228583999999996,-0.2183996000000004,1,sub_18
-0.1086893999999999,-0.3982349999999998,-0.3507269999999999,-0.7485366000000009,-0.0099729999999996,-0.2503214000000004,1,sub_18
-0.0768279999999998,-0.6466017999999998,-0.3646651999999998,-0.3046892000000009,0.2964242000000004,-0.3745186000000003,1,sub_18
-0.0099147999999999,-0.6661445999999998,-0.3532837999999999,0.160505599999999,0.5940776000000004,-0.4618084000000003,1,sub_18
0.1287408000000001,-0.7820569999999998,-0.3032487999999999,0.217946399999999,0.6412584000000005,-0.3757962000000003,1,sub_18
0.107911,-0.8766013999999999,-0.3839211999999999,0.407828799999999,0.7255016000000004,-0.1893480000000003,1,sub_18
0.0884370000000001,-0.9267359999999996,-0.4054557999999998,0.4092383999999989,0.6765342000000004,0.0666705999999996,1,sub_18
0.1844218000000001,-0.7333899999999998,-0.3618255999999998,-0.032465200000001,0.3401964000000005,0.1108043999999996,1,sub_18
0.1805620000000001,-0.6934071999999999,-0.3467165999999998,-0.373400800000001,-0.0723891999999995,0.1145059999999996,1,sub_18
0.0096280000000001,-0.6000315999999998,-0.3698507999999998,-0.309676800000001,-0.1970055999999995,0.0542217999999996,1,sub_18
0.0049804000000001,-0.5520871999999998,-0.2904815999999998,-0.405844600000001,-0.3551263999999995,-0.1199406000000003,1,sub_18
-0.0111785999999998,-0.4930161999999997,-0.2633825999999998,-0.326785000000001,-0.3606945999999995,-0.3407172000000003,1,sub_18
-0.0926051999999999,-0.6587491999999997,-0.2925619999999999,0.1612093999999989,-0.0204743999999995,-0.3302672000000003,1,sub_18
0.0031612,-0.6589645999999997,-0.2484263999999998,0.3767459999999989,0.4596188000000004,-0.3772332000000003,1,sub_18
0.1842054000000001,-0.7271307999999996,-0.2573561999999999,0.1931163999999989,0.4419394000000004,-0.2725256000000003,1,sub_18
0.322007,-0.5075665999999998,-0.3348109999999998,-0.222973200000001,0.2771034000000004,-0.2487288000000003,1,sub_18
0.2885224,-0.4507473999999997,-0.3562625999999999,-0.704040600000001,-0.0345303999999995,-0.0615462000000003,1,sub_18
0.2057192000000001,-0.4697145999999997,-0.3403553999999998,-1.1011274000000009,-0.3186345999999996,-0.0648104000000003,1,sub_18
0.1095798,-0.5063931999999998,-0.3517155999999999,-1.239498400000001,-0.5632281999999995,-0.0498674000000003,1,sub_18
-0.0058695999999999,-0.4470009999999997,-0.3423889999999999,-0.9309974000000012,-0.4982185999999995,-0.1642320000000003,1,sub_18
-0.0942973999999999,-0.6659073999999997,-0.3062677999999999,-0.357034800000001,-0.2497327999999996,-0.1449452000000002,1,sub_18
-0.0089719999999999,-0.7354347999999997,-0.3353731999999999,0.2016723999999989,0.1309944000000004,-0.2556166000000003,1,sub_18
0.0628448,-0.6881439999999996,-0.2475631999999999,0.6891835999999989,0.4529164000000004,-0.2509146000000002,1,sub_18
0.1665472,-0.7444215999999997,-0.2154697999999998,0.636578799999999,0.5832464000000004,-0.1901338000000003,1,sub_18
0.1804136,-0.8407623999999997,-0.2318469999999999,0.6231329999999989,0.4978838000000005,-0.0367224000000003,1,sub_18
0.2664028,-0.6409961999999997,-0.2499739999999999,0.033539999999999,0.3000998000000004,-0.0408016000000003,1,sub_18
0.2106302,-0.5725595999999997,-0.2793929999999999,-0.477032600000001,-0.0705615999999996,-0.0908954000000003,1,sub_18
0.1639256,-0.5935749999999997,-0.3711205999999999,-0.8124984000000011,-0.1761643999999996,-0.1907396000000003,1,sub_18
0.103042,-0.5641717999999998,-0.4089705999999998,-0.468236400000001,-0.3242967999999996,-0.2612116000000003,1,sub_18
0.0813088,-0.4882797999999997,-0.4571763999999999,-0.3242284000000009,-0.2964687999999996,-0.4185518000000003,1,sub_18
0.083379,-0.7341555999999997,-0.4052171999999999,-0.029007400000001,-0.0237137999999996,-0.3127944000000003,1,sub_18
0.1520836,-0.8010685999999996,-0.3513051999999999,0.302944399999999,0.1348636000000004,-0.1374134000000003,1,sub_18
0.1919556,-0.6158145999999997,-0.3404617999999998,-0.008941200000001,-0.1601713999999995,0.1210049999999996,1,sub_18
0.121947,-0.5745925999999997,-0.3643073999999998,-0.4110336000000011,-0.2998803999999996,0.1893053999999996,1,sub_18
0.1032106,-0.5431307999999997,-0.2798705999999998,-0.7283898000000011,-0.3648071999999995,0.1843941999999997,1,sub_18
-0.0222501999999999,-0.4587969999999998,-0.2734481999999999,-0.618410800000001,-0.5638973999999995,0.0602215999999996,1,sub_18
-0.0720443999999999,-0.4262419999999997,-0.2595041999999999,-0.513090000000001,-0.4259265999999996,-0.1150490000000003,1,sub_18
-0.0574127999999999,-0.6255055999999998,-0.2941321999999999,0.1163287999999989,-0.0831415999999995,-0.2822210000000003,1,sub_18
0.0078832,-0.6433675999999997,-0.2819315999999999,0.669524599999999,0.2883662000000004,-0.2670828000000003,1,sub_18
0.047575,-0.3359287999999997,-0.2746323999999999,1.137867599999999,0.5878936000000003,-0.2930372000000003,1,sub_18
0.0816804,-0.3015369999999997,-0.2765133999999999,1.092028199999999,0.8048458000000004,-0.3220500000000003,1,sub_18
0.1466652,-0.3711259999999997,-0.2755109999999999,0.6510431999999989,0.6925720000000004,-0.2611068000000002,1,sub_18
0.176878,-0.5068509999999996,-0.2747347999999999,0.412567799999999,0.6373264000000004,-0.1449838000000003,1,sub_18
0.1577754,-0.3052111999999997,-0.3356807999999999,-0.286457600000001,0.1816402000000004,-0.0815572000000003,1,sub_18
0.1991452,-0.5608023999999997,-0.4310645999999999,-0.9627278000000012,-0.3007181999999995,-0.0277652000000003,1,sub_18
0.141016,-0.3287909999999996,-0.4278543999999999,-1.2732212000000012,-0.6189999999999996,0.1821953999999996,1,sub_18
0.0216836,-0.2405181999999997,-0.4817829999999999,-1.407901600000001,-0.7551153999999995,0.2920967999999996,1,sub_18
-0.1141491999999999,-0.0851121999999997,-0.4954191999999999,-1.6906740000000011,-0.9945333999999996,0.2036887999999996,1,sub_18
-0.1717617999999999,-0.2706279999999997,-0.4320977999999999,-1.515316400000001,-0.6985043999999995,0.0812613999999996,1,sub_18
-0.2384263999999999,-0.3350997999999997,-0.3466019999999999,-1.185937800000001,-0.3873193999999995,0.0310341999999996,1,sub_18
-0.1976393999999999,-0.6212937999999998,-0.3524105999999999,-0.7146034000000011,-0.1358217999999995,-0.1873314000000003,1,sub_18
-0.1251319999999999,-0.6558813999999997,-0.3289313999999998,-0.1482704000000009,0.1652540000000004,-0.3655726000000003,1,sub_18
-0.0292555999999999,-0.6445453999999997,-0.1786141999999999,0.324669399999999,0.5772914000000005,-0.3997576000000003,1,sub_18
0.0901854,-0.7188905999999997,-0.1460625999999999,0.275696399999999,0.6664662000000006,-0.3335568000000003,1,sub_18
0.104729,-0.8153369999999998,-0.1946763999999999,0.352820999999999,0.6394654000000004,-0.0951978000000003,1,sub_18
0.1628702,-0.6828233999999997,-0.2583799999999999,-0.0779052000000009,0.3383786000000004,-0.0845752000000003,1,sub_18
0.1575754,-0.4374933999999997,-0.2607239999999999,-0.5975032000000009,0.0292512000000003,-0.0108970000000003,1,sub_18
0.0587996,-0.4380777999999997,-0.4188455999999999,-1.177679200000001,-0.4599083999999996,0.1153589999999996,1,sub_18
-0.0928187999999999,-0.3582625999999997,-0.4790237999999999,-1.1774566000000009,-0.7456253999999995,0.0646651999999996,1,sub_18
-0.1170591999999999,-0.2436465999999997,-0.4578561999999999,-1.374228400000001,-0.7730731999999996,-0.1464728000000003,1,sub_18
-0.1809265999999999,-0.3617961999999997,-0.4050081999999999,-1.023833200000001,-0.5131539999999996,-0.1285486000000003,1,sub_18
-0.1979659999999999,-0.6003245999999998,-0.3537585999999998,-0.512108800000001,-0.2003719999999995,-0.2033552000000003,1,sub_18
-0.1281139999999999,-0.6702765999999997,-0.3371523999999998,0.064678199999999,0.1935880000000004,-0.3354954000000003,1,sub_18
-0.0544479999999999,-0.7256007999999998,-0.3225925999999998,0.535331999999999,0.5208730000000005,-0.3253634000000003,1,sub_18
0.0214922,-0.7368875999999996,-0.3036161999999999,0.4634771999999991,0.6279072000000004,-0.2300762000000003,1,sub_18
0.0650716,-0.8736485999999998,-0.3143109999999999,0.445685399999999,0.6722680000000004,-0.1195896000000003,1,sub_18
0.1140816,-0.7080463999999997,-0.3179685999999999,-0.024281800000001,0.3885014000000004,-0.1440868000000003,1,sub_18
0.0941274,-0.6473131999999998,-0.3493859999999998,-0.426245000000001,0.0624482000000004,-0.1488268000000003,1,sub_18
0.0575998,-0.6059039999999997,-0.3198557999999999,-0.755405800000001,-0.0300855999999995,-0.1661762000000003,1,sub_18
-0.0241463999999999,-0.6222815999999998,-0.3133651999999999,-0.548662600000001,-0.1759447999999996,-0.2596170000000003,1,sub_18
-0.0665463999999999,-0.5198145999999998,-0.2973371999999999,-0.4241630000000009,-0.2484357999999996,-0.3543670000000003,1,sub_18
-0.0875353999999999,-0.7111167999999998,-0.3238883999999999,0.127535399999999,8.420000000042283e-05,-0.2711424000000003,1,sub_18
-0.0594527999999999,-0.7680209999999997,-0.2720253999999998,0.613920399999999,0.2729826000000004,-0.2069926000000003,1,sub_18
-0.0050709999999999,-0.6896723999999997,-0.2538389999999998,0.5994977999999991,0.3482082000000004,-0.1986442000000003,1,sub_18
0.07415,-0.7655547999999996,-0.2491485999999999,0.249792399999999,0.2896664000000004,-0.1206818000000003,1,sub_18
0.0981426,-0.8573783999999997,-0.2862125999999999,0.094188199999999,0.3958370000000005,-0.0031188000000003,1,sub_18
0.044435,-0.8908665999999996,-0.3060583999999998,-0.0863142000000009,0.4506324000000005,0.1431781999999996,1,sub_18
0.1096624,-0.5970957999999997,-0.2816353999999999,-0.724548000000001,0.2334800000000004,0.0695639999999996,1,sub_18
0.077416,-0.4545641999999997,-0.2701741999999998,-1.017124200000001,-0.1230879999999995,0.1948819999999996,1,sub_18
-0.0379325999999999,-0.3456827999999997,-0.3104123999999998,-0.836609400000001,-0.1545297999999995,0.0692783999999996,1,sub_18
-0.0855125999999999,-0.2164823999999997,-0.2645397999999999,-0.908861200000001,-0.2081471999999996,-0.0990820000000003,1,sub_18
-0.0705309999999999,-0.1581653999999997,-0.2078547999999999,-0.8621818000000008,-0.2602181999999995,-0.3309208000000003,1,sub_18
-0.1231395999999999,-0.4364697999999997,-0.2320223999999998,-0.3097574000000009,-0.0088873999999995,-0.3117882000000003,1,sub_18
-0.0998575999999999,-0.6892275999999997,-0.3160283999999999,0.320480199999999,0.2817272000000004,-0.3803974000000003,1,sub_18
0.0064484,-0.7347293999999998,-0.2732333999999999,0.2622139999999991,0.5160992000000004,-0.3328210000000003,1,sub_18
0.1253516,-0.8498779999999997,-0.3066487999999999,-0.0532524000000009,0.3540374000000004,-0.2376088000000003,1,sub_18
0.1822544,-0.9705503999999998,-0.3744353999999999,-0.1250552000000009,0.3659270000000004,-0.0586642000000003,1,sub_18
0.2332697999999999,-0.8469437999999998,-0.4111121999999999,-0.665755000000001,0.2568450000000004,-0.1231898000000003,1,sub_18
0.3015728,-0.6539091999999997,-0.3807661999999999,-1.281442000000001,-0.0838629999999996,-0.1140216000000003,1,sub_18
0.2625024,-0.3530255999999997,-0.4018409999999999,-1.4176746000000011,-0.4484563999999996,0.0179533999999996,1,sub_18
0.0860277999999999,-0.2461725999999996,-0.442821,-1.248066200000001,-0.3006379999999996,-0.0652272000000003,1,sub_18
0.051937,-0.0861057999999997,-0.3857567999999999,-1.352692800000001,-0.2066765999999995,-0.2416942000000003,1,sub_18
0.0058586,-0.1780725999999997,-0.3114233999999999,-0.8706970000000009,-0.1021031999999995,-0.2241474000000003,1,sub_18
-0.0511101999999999,-0.3551063999999996,-0.2634059999999999,-0.233285000000001,0.2242548000000004,-0.2865566000000002,1,sub_18
-0.0408537999999999,-0.6401189999999997,-0.3135181999999999,0.334218599999999,0.5492288000000005,-0.3684666000000003,1,sub_18
0.0776506,-0.5850307999999997,-0.2267241999999999,0.4085737999999989,0.6507038000000005,-0.2883878000000003,1,sub_18
0.1158462,-0.7111289999999997,-0.3001207999999999,0.559638599999999,0.5002998000000004,-0.1031920000000003,1,sub_18
0.175375,-0.6342665999999996,-0.3711655999999999,0.0267201999999989,0.4276096000000004,-0.0578966000000003,1,sub_18
0.2103334,-0.4824447999999997,-0.3479837999999999,-0.489852200000001,0.0733064000000004,-0.0381908000000003,1,sub_18
0.1639006,-0.4152187999999996,-0.3334885999999999,-0.9048118000000008,0.0058360000000004,-0.1215468000000003,1,sub_18
0.1440162,-0.4665819999999996,-0.3511975999999999,-0.8042300000000011,0.0210058000000004,-0.2193538000000003,1,sub_18
0.1318978,-0.3890581999999996,-0.2793251999999999,-0.7642770000000011,0.1043892000000004,-0.4332532000000004,1,sub_18
0.091194,-0.5181489999999996,-0.2664285999999999,-0.200775400000001,0.1952850000000004,-0.4757944000000004,1,sub_18
0.0694382,-0.6977897999999996,-0.3534049999999999,0.254917399999999,0.5885508000000005,-0.4893524000000003,1,sub_18
0.1325506,-0.7132833999999997,-0.3428351999999999,0.3163089999999989,0.7200178000000005,-0.4386730000000003,1,sub_18
0.2455604,-0.8512475999999995,-0.3510083999999999,0.053697599999999,0.5327222000000005,-0.2590978000000004,1,sub_18
0.2808946,-0.9641445999999996,-0.3908645999999999,-0.0272340000000009,0.3307070000000004,-0.0192690000000003,1,sub_18
0.2867482,-0.8333459999999995,-0.3702817999999998,-0.5409684000000009,0.0472842000000004,-0.0380914000000003,1,sub_18
0.2209498,-0.4276819999999996,-0.2680363999999998,-1.095724000000001,-0.3187141999999995,0.0625463999999996,1,sub_18
0.1395076,-0.4706359999999996,-0.3042017999999998,-1.362136000000001,-0.7191151999999995,0.2575377999999996,1,sub_18
-0.0382767999999999,-0.3405035999999996,-0.3686979999999999,-1.418177000000001,-0.9638123999999996,0.2803197999999997,1,sub_18
-0.1716079999999999,-0.1858055999999996,-0.3459173999999999,-1.701144600000001,-0.8106261999999995,0.1529513999999996,1,sub_18
-0.2661759999999999,-0.2898331999999996,-0.2718601999999999,-1.3675796000000011,-0.5086307999999995,0.1593809999999997,1,sub_18
-0.2677168,-0.6903255999999998,-0.2910071999999999,-0.9259064000000012,-0.1590165999999995,-0.0078290000000003,1,sub_18
-0.1891515999999999,-0.7068621999999997,-0.2495323999999999,-0.3825552000000011,0.3029558000000004,-0.2293796000000003,1,sub_18
-0.1058275999999999,-0.6921165999999996,-0.2015211999999999,0.1640905999999989,0.7767152000000005,-0.3646098000000003,1,sub_18
0.041153,-0.7379559999999996,-0.1964063999999999,0.274464999999999,0.8591204000000005,-0.3419390000000003,1,sub_18
0.1172302,-0.6107601999999996,-0.2923851999999999,0.1125847999999989,0.5391182000000005,-0.2035770000000003,1,sub_18
0.0950168,-0.4141921999999995,-0.2492119999999999,-0.3596364000000011,0.5247248000000004,0.0219561999999996,1,sub_18
-0.0321025999999999,-0.4183031999999996,-0.2849757999999999,-0.830747400000001,0.1177136000000004,0.1294277999999996,1,sub_18
-0.1440175999999999,-0.4373391999999996,-0.3157845999999999,-1.1848342000000012,-0.2016665999999995,0.0660479999999995,1,sub_18
-0.2367562,-0.4141919999999996,-0.2879833999999999,-1.075736200000001,-0.2346913999999996,-0.0282192000000004,1,sub_18
-0.2731213999999999,-0.5494151999999997,-0.2268453999999999,-0.7563846000000011,0.0595322000000004,-0.1436564000000003,1,sub_18
-0.2066941999999999,-0.7576021999999997,-0.3287597999999999,-0.114703400000001,0.0585602000000004,-0.2968424000000004,1,sub_18
-0.1111145999999999,-0.7122223999999997,-0.2344767999999998,0.436958999999999,0.4079466000000004,-0.3427886000000003,1,sub_18
0.048632,-0.7354715999999997,-0.1881499999999999,0.390485999999999,0.5706488000000004,-0.2845696000000003,1,sub_18
0.1380956,-0.4106201999999997,-0.1600785999999999,0.042846599999999,0.2008712000000004,-0.2179442000000003,1,sub_18
0.06814,-0.1560473999999997,-0.1620721999999998,-0.482006200000001,-0.0375047999999995,-0.0909816000000003,1,sub_18
0.0636424,-0.1415331999999996,-0.0817081999999998,-0.645034800000001,-0.0588241999999995,-0.1591774000000003,1,sub_18
0.090945,-0.1941311999999996,-0.0980151999999998,-0.6824988000000011,-0.1500499999999995,-0.2236292000000003,1,sub_18
0.0504708,-0.1827411999999996,-0.1472163999999999,-0.291518600000001,-0.1559897999999995,-0.1961078000000003,1,sub_18
0.0099746,-0.6200227999999997,-0.2265963999999999,0.0349855999999989,0.1521888000000004,-0.1314108000000003,1,sub_18
0.0611384,-0.7399663999999997,-0.1428123999999999,0.610991999999999,0.2400388000000004,-0.0625524000000003,1,sub_18
0.1570284,-0.5510165999999997,-0.1797711999999999,0.2955861999999989,-0.0337549999999995,0.0022519999999996,1,sub_18
0.0859574,-0.5003255999999997,-0.2407071999999999,-0.274380600000001,-0.2045973999999995,0.1696185999999996,1,sub_18
0.0255782,-0.4423485999999997,-0.2140957999999999,-0.731602800000001,-0.2428397999999995,0.1662599999999996,1,sub_18
-0.0389449999999999,-0.3209429999999996,-0.1724359999999999,-0.7509522000000011,-0.1895149999999995,0.0613705999999996,1,sub_18
-0.0191315999999999,-0.4557509999999996,-0.2638781999999999,-0.8404280000000011,-0.0782265999999995,-0.1455638000000003,1,sub_18
-0.1144885999999999,-0.6439525999999995,-0.2846939999999999,-0.4100782000000011,0.1736986000000004,-0.1691588000000003,1,sub_18
-0.0492501999999999,-0.6813135999999996,-0.3041867999999999,0.1733357999999989,0.3869388000000003,-0.2948254000000004,1,sub_18
0.0265332,-0.7341393999999997,-0.2644337999999999,0.3675045999999989,0.5603896000000004,-0.3092874000000004,1,sub_18
0.1812748,-0.8687675999999996,-0.2712837999999998,0.1404801999999989,0.4613272000000005,-0.2212292000000003,1,sub_18
0.2496412,-0.9592091999999998,-0.3067153999999998,0.0833697999999989,0.4716312000000003,-0.0846952000000003,1,sub_18
0.3034656,-0.7512541999999997,-0.2447095999999998,-0.496344600000001,0.2603306000000004,-0.0209622000000003,1,sub_18
0.312793,-0.7638591999999996,-0.1670285999999999,-0.663724200000001,0.2635688000000004,-0.0458510000000003,1,sub_18
0.3171584,-0.7692117999999997,-0.2109371999999999,-0.411989200000001,0.0991098000000004,-0.0554196000000003,1,sub_18
0.2422328,-0.6567297999999997,-0.2618371999999999,0.0487511999999989,0.2392478000000004,-0.0684052000000003,1,sub_18
0.0666504,-0.1490941999999996,-0.2279689999999999,0.288394199999999,0.2734046000000004,-0.1327922000000003,1,sub_18
0.0411344,-0.2892935999999996,-0.2633073999999998,0.838759799999999,0.6388662000000005,-0.2543990000000004,1,sub_18
