userAcceleration.x,userAcceleration.y,userAcceleration.z,rotationRate.x,rotationRate.y,rotationRate.z,label,subject
0.0840345999999998,0.2077696000000011,-0.0812007999999998,0.1117826000000004,0.4145832000000008,0.1757612,1,sub_8
0.2292665999999998,0.4148594000000011,-0.1043995999999998,-0.2722849999999995,0.4031522000000009,0.0641346,1,sub_8
0.3229847999999998,0.515443000000001,-0.1035507999999999,-0.8239227999999995,0.2649650000000009,-0.0649508,1,sub_8
0.2943255999999998,0.1255162000000011,-0.0243211999999999,-0.6888045999999995,0.0560562000000008,-0.0468614,1,sub_8
0.2851795999999998,-0.1483121999999989,0.0396774000000001,-0.5997049999999995,0.0666988000000008,-0.0150606,1,sub_8
0.1786869999999998,-0.4164795999999989,0.0276142,-0.3528147999999995,-0.0054033999999991,0.0064115999999999,1,sub_8
0.0248469999999998,-0.735053599999999,0.0203978,0.0756954000000004,-0.2579419999999991,0.0780943999999999,1,sub_8
-0.1209688000000001,-0.8429621999999988,0.1168380000000001,0.6094280000000005,-0.3453487999999991,0.2148213999999999,1,sub_8
-0.1294594000000002,-0.4410179999999989,0.0212848000000001,0.6991462000000004,-0.5351915999999991,0.1930449999999999,1,sub_8
-0.0501508000000002,0.014502000000001,-0.1187289999999999,0.8429314000000006,-0.6028179999999991,0.0373209999999999,1,sub_8
-0.0216794000000001,0.391066600000001,-0.2055789999999999,0.7883104000000004,-0.6979249999999991,-0.1071486,1,sub_8
-0.0072532000000002,0.578909600000001,-0.2561835999999998,0.6776342000000004,-0.5023871999999991,-0.2124306,1,sub_8
0.0886449999999997,0.4888842000000011,-0.2449905999999999,0.4017398000000004,-0.1007753999999991,-0.240296,1,sub_8
0.0191183999999998,0.048198400000001,-0.0825203999999999,0.0694254000000004,0.0647362000000008,-0.104174,1,sub_8
-0.1210986000000002,-0.1790945999999989,0.0807396000000001,-0.0846463999999995,0.1786414000000009,0.1556766,1,sub_8
-0.2225314000000002,-0.3358171999999989,0.1209452000000001,0.0216316000000004,0.3760368000000008,0.3033662,1,sub_8
-0.1473960000000002,-0.3727063999999989,0.1564978000000001,0.0865778000000004,0.5090582000000009,0.2286594,1,sub_8
-0.0577562000000001,-0.2133265999999989,0.1244566000000001,0.1912420000000004,0.3520422000000008,0.1900668,1,sub_8
0.0946229999999998,0.1559056000000011,0.0859288000000001,0.1477540000000004,0.4317626000000009,0.1653048,1,sub_8
0.3222047999999998,0.2875230000000011,-0.0193695999999999,-0.3247355999999995,0.4054760000000009,0.0092824,1,sub_8
0.4498593999999998,0.3368388000000011,-0.0252665999999999,-0.7944307999999995,0.2544896000000008,-0.1335283999999999,1,sub_8
0.4194491999999997,0.0627914000000011,0.05787,-0.6418455999999997,0.0319560000000008,-0.0268505999999999,1,sub_8
0.3065423999999998,-0.1402661999999988,0.0725252000000001,-0.4649105999999996,-0.1879031999999991,0.02936,1,sub_8
0.1485267999999998,0.0028772000000011,-0.0147079999999998,-0.0116867999999995,-0.3052647999999991,0.0546814,1,sub_8
0.0188285999999998,0.0736848000000011,0.0074098000000001,0.6131922000000004,-0.2061613999999991,0.0375546,1,sub_8
0.0694835999999998,0.2154046000000011,0.0021756000000001,1.1744092000000004,-0.0723373999999991,0.0242118,1,sub_8
0.1839243999999998,0.6906234000000011,-0.1615523999999998,1.2132642000000005,-0.2901285999999992,-0.1036379999999999,1,sub_8
0.0994495999999997,0.940696600000001,-0.2540049999999998,0.8749328000000004,-0.1035445999999991,-0.2233175999999999,1,sub_8
0.1044913999999997,0.6520188000000011,-0.2125007999999998,0.4167758000000005,0.1981048000000008,-0.2963387999999999,1,sub_8
0.0850597999999997,0.211608400000001,-0.1032855999999998,0.0865242000000004,0.2279498000000008,-0.2807375999999999,1,sub_8
-0.0344398000000001,-0.2391075999999988,0.0080434000000001,-0.2438325999999995,0.3393768000000008,-0.2073441999999999,1,sub_8
-0.2441396000000001,-0.6407451999999989,0.1972552000000001,-0.5820837999999996,0.7595184000000008,0.0330956,1,sub_8
-0.1685176000000002,-0.7649927999999988,0.2243686000000001,-0.5515865999999996,0.9356718000000008,0.0706844,1,sub_8
-0.0749186000000002,-0.6931113999999988,0.2208052000000001,-0.3687989999999995,0.8041276000000008,0.1475462,1,sub_8
0.0285677999999998,-0.3074143999999988,0.1693048000000001,-0.5004071999999995,0.8040108000000009,0.1842284,1,sub_8
0.1441939999999997,0.0258244000000011,0.0355206000000001,-0.7717873999999996,0.6707278000000008,0.183999,1,sub_8
0.2316671999999998,0.0184176000000011,-0.0160861999999998,-0.5561183999999996,0.4630126000000009,-0.0590653999999999,1,sub_8
0.2528623999999998,-0.1870065999999989,0.0793882000000001,-0.3137703999999995,0.2275216000000008,-0.0927501999999999,1,sub_8
0.1752477999999998,-0.4809373999999989,0.103886,-0.1448807999999995,0.1054850000000008,-0.1433303999999999,1,sub_8
0.0318073999999998,-0.8274941999999988,0.0630114,0.2460724000000004,-0.1187233999999991,-0.0905337999999999,1,sub_8
-0.0715572000000002,-1.0594825999999988,0.1249502,0.8097426000000004,-0.2647209999999991,0.0206258,1,sub_8
-0.1101560000000002,-0.8603315999999989,0.1320286,1.0177724000000006,-0.3451121999999991,0.2302714,1,sub_8
-0.1274574000000002,-0.4720339999999989,0.0610932,1.1324764000000005,-0.4066421999999991,0.3330598,1,sub_8
-0.0600802000000002,-0.0267163999999989,-0.0364003999999998,1.2164710000000003,-0.5557327999999991,0.2483798,1,sub_8
-0.0467990000000002,0.3305896000000011,-0.0600355999999998,0.8748304000000005,-0.6239781999999992,0.1354132,1,sub_8
-0.0770390000000002,0.5064350000000011,-0.0748641999999998,0.4365534000000005,-0.4129317999999992,0.0588014,1,sub_8
-0.0588548000000002,0.4134038000000011,-0.0996453999999998,-0.0782609999999995,-0.0460619999999991,0.028457,1,sub_8
-0.0614980000000002,0.083145400000001,-0.0565037999999998,-0.4554965999999996,0.1896354000000009,0.0212472,1,sub_8
-0.1389830000000002,-0.1120435999999989,-0.0102529999999999,-0.5480003999999996,0.5539066000000009,0.22096,1,sub_8
-0.0957212000000002,-0.1737495999999989,0.031146,-0.3203493999999995,0.824625200000001,0.3085154,1,sub_8
0.0267217999999998,-0.1156849999999989,0.0885366000000001,-0.2484365999999995,0.8362846000000008,0.3673276,1,sub_8
0.0499821999999998,-0.2583533999999989,0.0980494,0.1201806000000004,0.5133284000000009,0.3053684,1,sub_8
0.0132459999999998,-0.1775617999999989,0.1235598,0.5596056000000005,0.1211964000000009,0.3249636,1,sub_8
0.0848069999999998,0.107065600000001,0.1155250000000001,0.6583802000000004,-0.2389693999999991,0.1586182,1,sub_8
0.0779001999999998,0.240153200000001,0.0176178000000001,0.8843054000000006,-0.4343361999999991,0.0681526,1,sub_8
0.0839049999999998,0.3819262000000011,-0.1443551999999999,1.3168724000000005,-0.6475483999999991,-0.1075863999999999,1,sub_8
0.0646981999999998,0.8241508000000012,-0.2369861999999999,1.1333568000000005,-0.760448399999999,-0.2196047999999999,1,sub_8
0.0645781999999998,1.011564200000001,-0.3503861999999998,0.7633652000000005,-0.545837599999999,-0.3410365999999999,1,sub_8
0.0200857999999998,0.7321674000000011,-0.3035683999999999,0.4758674000000004,-0.2831183999999991,-0.2040853999999999,1,sub_8
-0.0070560000000001,0.3274858000000011,-0.1830927999999999,0.1571108000000004,-0.0471221999999991,-0.0705227999999999,1,sub_8
-0.0534050000000001,-0.1371207999999988,0.0234258000000001,-0.2007407999999995,0.1639718000000008,0.1437698,1,sub_8
-0.1229792000000001,-0.6145491999999988,0.1540514000000001,-0.2467343999999995,0.3524392000000008,0.3115588,1,sub_8
-0.0986572000000001,-0.7570261999999989,0.2314494,0.0487006000000004,0.4779920000000008,0.4123788,1,sub_8
-0.1191302000000001,-0.9246959999999989,0.2978394000000001,0.1610258000000005,0.4217034000000009,0.4320362,1,sub_8
-0.1444670000000002,-0.6712225999999989,0.1949014,0.1375550000000005,0.3231120000000009,0.3326538,1,sub_8
-0.0115638000000002,-0.3971111999999989,0.0980328000000001,0.0868816000000004,0.3435456000000009,0.3282144000000001,1,sub_8
0.0948073999999997,-0.3535695999999989,0.0507094,0.2407778000000004,0.2901750000000009,0.1684836,1,sub_8
0.1079589999999998,-0.5321165999999989,0.0641,0.1279898000000004,0.1054602000000008,0.1055484,1,sub_8
0.1165717999999997,-0.5843529999999989,0.0025262,0.1928172000000004,-0.0049105999999991,0.0514498,1,sub_8
0.1117383999999998,-0.8101419999999988,0.0651118,0.4280278000000004,-0.203943199999999,0.1236368,1,sub_8
-0.0873340000000002,-0.969113799999999,0.131821,0.7858326000000004,-0.4975375999999992,0.0278086,1,sub_8
-0.1660636000000002,-0.7048269999999989,0.2129596000000001,0.9756940000000004,-0.5783615999999991,0.148452,1,sub_8
-0.1397346000000002,-0.2260505999999988,0.1621962000000001,1.1213490000000004,-0.7730171999999991,0.162751,1,sub_8
-0.1318278000000002,0.2083440000000011,0.0837876000000001,1.1861236000000006,-0.9027885999999992,0.0054865999999999,1,sub_8
-0.1154900000000002,0.5572798000000011,0.0216594000000001,1.2772346000000003,-0.7288295999999991,-0.1530512,1,sub_8
-0.0470366000000002,0.930673800000001,-0.1046271999999998,1.3636678000000004,-0.428199599999999,-0.2833693999999999,1,sub_8
0.0190347999999997,1.1119976000000011,-0.2480117999999998,1.2143258000000006,-0.1789237999999991,-0.4203961999999999,1,sub_8
-0.0072076000000002,0.9798752000000012,-0.2687785999999998,0.9205852000000004,0.2431686000000009,-0.4928505999999999,1,sub_8
0.0190697999999997,0.7711346000000012,-0.2280503999999998,0.5688414000000005,0.6886894000000009,-0.4067887999999999,1,sub_8
0.0791065999999997,0.3676440000000011,-0.1199983999999999,0.2123138000000004,0.8724218000000009,-0.2774823999999999,1,sub_8
0.0114593999999997,0.0865852000000011,-0.0156837999999999,-0.0950399999999995,0.893634600000001,-0.0944275999999999,1,sub_8
-0.0297334000000002,-0.1459081999999988,0.010935,-0.1233315999999995,0.888616000000001,0.1194522,1,sub_8
-0.0966432000000002,-0.0731367999999988,0.066473,-0.0169845999999995,0.9456834000000008,0.3015054000000001,1,sub_8
-0.1053720000000002,-0.0929357999999988,0.050093,0.0145058000000004,0.890345000000001,0.3137596000000001,1,sub_8
-0.0678564000000002,0.2766916000000011,-0.0379433999999999,0.0753528000000004,0.665554200000001,0.3189586000000001,1,sub_8
0.1326859999999998,0.5149258000000011,-0.0229555999999999,-0.1941815999999995,0.5119738000000008,0.1717810000000001,1,sub_8
0.2949787999999998,0.6989520000000011,-0.0856265999999998,-0.6943509999999995,0.5214644000000008,-0.0094769999999999,1,sub_8
0.3015023999999998,0.5207448000000011,-0.0380381999999998,-0.4726195999999995,0.1020348000000009,-0.0076043999999999,1,sub_8
0.2778917999999998,0.7053146000000011,-0.0184895999999998,-0.1097681999999995,-0.114168599999999,0.0387908,1,sub_8
0.2337713999999998,0.7062404000000011,-0.0659591999999998,0.1211382000000004,-0.158443399999999,-0.0116689999999999,1,sub_8
0.1071431999999998,0.6918060000000011,-0.1791265999999998,0.2689192000000004,-0.333590599999999,0.0239844,1,sub_8
-0.0488112000000002,0.5417164000000012,-0.1101423999999999,0.5372860000000005,-0.402417199999999,0.1133276,1,sub_8
0.0093637999999998,0.4463420000000012,-0.1104215999999999,0.1007496000000004,-0.090383199999999,0.0353166,1,sub_8
0.0623119999999998,0.1940590000000011,-0.0634245999999999,-0.1335321999999995,0.0939250000000009,0.0746772,1,sub_8
0.1038267999999998,0.2484296000000011,0.0767876000000001,-0.6844069999999995,0.1521304000000009,0.1156202,1,sub_8
0.1751867999999997,0.1679558000000011,0.0507940000000001,-0.9315775999999996,0.5503860000000009,0.1029148000000001,1,sub_8
0.1928549999999997,-0.0432977999999988,0.0652212000000001,-0.7095151999999996,0.4633838000000009,-0.0169867999999998,1,sub_8
0.2030847999999998,-0.1976423999999988,0.0328224000000001,-0.4262157999999995,0.3199774000000009,-0.0972915999999998,1,sub_8
0.1559821999999998,-0.3557067999999989,0.0564858000000001,-0.2676213999999995,0.0959040000000009,-0.1431127999999998,1,sub_8
0.0842917999999997,-0.7200125999999989,0.0445690000000001,0.2387276000000004,-0.023746199999999,-0.0708433999999998,1,sub_8
-0.0432092000000001,-0.750710199999999,0.1846384000000001,0.9483048000000004,-0.421681399999999,-0.0593955999999998,1,sub_8
-0.0574690000000001,-0.3804213999999989,0.2371972,1.0705550000000004,-0.6268059999999991,-0.0706701999999999,1,sub_8
-0.0961612000000001,-0.0318361999999988,0.1847638,0.9453352000000004,-0.6163683999999992,-0.0681397999999999,1,sub_8
-0.0973142000000001,0.2603432000000011,0.1167868,0.7062580000000004,-0.4692905999999991,-0.0913625999999999,1,sub_8
-0.0920030000000001,0.351379200000001,0.1060318,0.4266482000000004,-0.1814405999999991,-0.1184673999999999,1,sub_8
-0.0502552000000001,0.0232242000000011,0.0666604,-0.0330899999999995,0.2067794000000009,0.0583532,1,sub_8
-0.1273116000000001,-0.1145221999999988,-0.0230061999999999,-0.1340173999999995,0.510914400000001,0.1726264000000001,1,sub_8
-0.0976592000000001,-0.3024079999999989,0.0512772,0.0783448000000004,0.6337234000000008,0.2856884,1,sub_8
-0.0383834000000001,-0.1920815999999988,-0.0635125999999999,0.0048862000000004,0.6298960000000009,0.2941532000000001,1,sub_8
0.0763781999999998,0.0059872000000011,-0.0444555999999999,-0.0770495999999995,0.4260882000000009,0.1840288000000001,1,sub_8
0.1845301999999998,0.4371792000000011,-0.0153105999999999,-0.3351349999999995,0.2831814000000009,-0.0314487999999998,1,sub_8
0.3719749999999998,0.5051944000000012,-0.0365755999999999,-0.8315189999999996,0.2578520000000009,-0.1397829999999999,1,sub_8
0.3753001999999998,0.3472166000000011,-0.0758729999999999,-0.8806773999999997,0.2092690000000009,-0.3616133999999998,1,sub_8
0.3932007999999998,-0.0630715999999988,0.0712238,-0.6208697999999996,0.1493196000000009,-0.3535259999999999,1,sub_8
0.2165113999999998,-0.3870095999999988,0.03589,-0.3087901999999995,0.0215572000000008,-0.2689291999999999,1,sub_8
0.0434843999999998,-0.7739999999999989,0.0047212,0.2238454000000004,-0.2179551999999991,-0.1352195999999998,1,sub_8
-0.1060470000000001,-0.9584971999999988,0.0547908,0.8461780000000004,-0.3384961999999991,0.0055870000000001,1,sub_8
-0.1349970000000001,-0.6640949999999989,0.0995642,1.0286420000000005,-0.5187317999999991,0.0581534000000001,1,sub_8
-0.2884444000000001,-0.1499129999999988,0.0427368,1.1979912000000004,-0.5912787999999991,0.0978860000000001,1,sub_8
-0.3690564000000002,0.2953146000000011,-0.0420787999999999,1.2520140000000004,-0.5902041999999991,-0.0047137999999999,1,sub_8
-0.3146558000000002,0.5089428000000011,-0.0536749999999999,0.9451982000000008,-0.359035999999999,-0.1126925999999998,1,sub_8
-0.2694130000000002,0.5703654000000011,-0.0736745999999999,0.5751886000000005,-0.0273075999999989,-0.1122829999999999,1,sub_8
-0.2176470000000002,0.3553138000000011,-0.0542091999999999,0.0826550000000004,0.3235450000000009,0.0600846,1,sub_8
-0.1662514000000002,0.1513366000000011,0.006943,0.0039720000000004,0.5115764000000009,0.0458346,1,sub_8
-0.0347962000000002,-0.1416293999999988,0.0664076,0.1036572000000004,0.7493094000000009,0.1814632000000001,1,sub_8
-0.0474180000000002,-0.2575399999999989,0.1191026,0.4866110000000004,0.762400000000001,0.3052578000000001,1,sub_8
0.0067041999999998,-0.2816239999999989,0.1596406,0.6278700000000004,0.7080784000000009,0.3939082,1,sub_8
-0.0060172000000001,-0.3263861999999988,0.0995806,0.8682988000000004,0.400657800000001,0.2876638000000001,1,sub_8
0.0102165999999997,-0.6464617999999989,0.1138776,0.7879042000000004,0.1506926000000009,0.2637080000000001,1,sub_8
-0.0009072000000002,-0.8409859999999988,0.1494844,0.6663084000000004,-0.104875999999999,0.2381898,1,sub_8
0.0235673999999997,-0.8762731999999989,0.1428286,0.5404512000000004,-0.405579599999999,0.2614104,1,sub_8
-0.1120766000000001,-0.6383173999999989,0.148669,0.6813784000000005,-0.725871199999999,0.1568376,1,sub_8
-0.1389688000000001,-0.2793657999999989,0.1009856,0.8576026000000004,-0.629405399999999,0.0694962,1,sub_8
-0.0574208000000001,0.2438640000000011,0.0339036,1.1291070000000003,-0.4555471999999991,-0.0604349999999999,1,sub_8
-0.0199508000000001,0.6703020000000011,-0.0354863999999999,1.1419648000000004,-0.324489799999999,-0.1318703999999999,1,sub_8
-0.0336576000000001,0.8896270000000011,-0.1008963999999999,0.9857260000000004,-0.114040599999999,-0.1971109999999999,1,sub_8
0.0664511999999998,0.6495940000000011,-0.1205825999999999,0.7387546000000004,0.1206820000000009,-0.1801223999999999,1,sub_8
0.0962745999999998,0.3587224000000011,-0.0579407999999999,0.3892126000000003,0.299672200000001,-0.0430697999999999,1,sub_8
0.0527251999999998,-0.1182569999999988,-0.0159309999999999,-0.1201859999999996,0.3788792000000009,0.1442686,1,sub_8
-0.0532434000000002,-0.3187531999999988,0.0471432,-0.1579471999999996,0.5856362000000009,0.2071912,1,sub_8
0.0493717999999997,-0.3466367999999988,0.081468,-0.1629649999999996,0.7809286000000009,0.284885,1,sub_8
0.1899595999999998,-0.2302219999999988,0.1238776,-0.2744769999999996,0.5686650000000009,0.2905726,1,sub_8
0.3433457999999998,0.0124296000000011,0.0270126,-0.5697137999999996,0.3518752000000009,0.1490636,1,sub_8
0.3236591999999997,-0.0307703999999988,0.053532,-0.3876411999999997,0.056808800000001,-0.0650685999999999,1,sub_8
0.3324153999999998,-0.2796687999999989,0.0749676,-0.4303133999999996,-0.224923999999999,-0.0628691999999999,1,sub_8
0.1715007999999998,-0.5735983999999988,0.0941322,-0.2573111999999996,-0.434072999999999,-0.0707931999999999,1,sub_8
0.0164705999999998,-0.8451757999999989,0.0515788,0.1427538000000003,-0.495063399999999,-0.0305327999999999,1,sub_8
-0.1530396000000001,-1.0406751999999988,0.1347788,0.7733240000000003,-0.5741383999999989,0.1230968,1,sub_8
-0.1474040000000001,-0.7064745999999988,0.1272256,1.0309856000000004,-0.539874399999999,0.2286838,1,sub_8
-0.1072548000000001,-0.2559347999999988,0.0377428,1.3076292000000005,-0.491384799999999,0.064125,1,sub_8
-0.0481612000000001,0.1776540000000011,-0.0134601999999999,1.3166674000000005,-0.2426325999999989,-0.1324697999999999,1,sub_8
0.0070959999999998,0.1942140000000011,0.0145092,0.8995966000000003,0.0889432000000009,-0.1061113999999999,1,sub_8
-0.0483180000000001,0.3253208000000011,-0.0121383999999999,0.7708216000000003,0.2479328000000009,-0.1136239999999999,1,sub_8
-0.0418010000000001,0.2327046000000011,-0.0526273999999999,0.6660998000000004,0.382873400000001,0.0110946,1,sub_8
0.1044165999999998,0.1801612000000011,0.032907,0.2633118000000003,0.6646074000000011,0.1813992,1,sub_8
0.2380599999999998,0.2142068000000011,0.0322048,-0.2811943999999997,0.6226464000000009,0.2244378,1,sub_8
0.1708375999999998,0.3718180000000012,-0.0061937999999999,-0.4290033999999997,0.2826988000000009,0.0112644,1,sub_8
0.2341719999999998,0.0605028000000011,0.048966,-0.4450867999999996,0.0862734000000009,0.0225128,1,sub_8
0.2139845999999998,-0.1443103999999988,0.071307,-0.5279725999999997,-0.178876999999999,0.0154366,1,sub_8
0.1054735999999998,-0.0174759999999988,-0.0142115999999998,-0.1311985999999996,-0.242950199999999,-0.0227297999999999,1,sub_8
0.0383025999999998,0.0141410000000011,-0.0653863999999998,0.5771604000000004,-0.237394799999999,-0.0013389999999999,1,sub_8
0.1183271999999998,0.2102050000000011,-0.1135233999999999,1.0251720000000004,-0.045774199999999,0.0686292,1,sub_8
0.1651421999999998,0.5770442000000011,-0.1661525999999999,0.8351946000000003,0.068686400000001,0.0077624,1,sub_8
0.1949921999999998,0.7895438000000011,-0.1954025999999998,0.5575194000000003,0.372626200000001,-0.1018161999999999,1,sub_8
0.1762431999999998,0.4018840000000011,-0.1237997999999999,0.0350178000000004,0.2306880000000009,-0.1174617999999999,1,sub_8
0.1031635999999998,-0.0982191999999988,-0.0206283999999999,-0.4101243999999996,0.0909412000000009,-0.1088551999999999,1,sub_8
-0.0073952000000001,-0.2991879999999988,0.0845474,-0.4009421999999995,0.0994254000000009,-0.0541089999999999,1,sub_8
-0.0757990000000001,-0.4158367999999988,0.0681178,-0.2022191999999996,0.290391800000001,0.075862,1,sub_8
-0.0378204000000001,-0.4843199999999988,0.0824290000000001,-0.0466025999999996,0.462384200000001,0.1397536,1,sub_8
0.0691915999999998,-0.1013525999999988,0.0779522000000001,-0.2523631999999997,0.478510000000001,0.1216314,1,sub_8
0.0386569999999998,0.1969088000000011,-0.0087749999999999,-0.4291545999999996,0.523752400000001,0.0964104,1,sub_8
0.0950849999999998,0.0394766000000011,-0.0595165999999999,-0.5121899999999997,0.3845968000000009,-0.0368781999999999,1,sub_8
0.0998895999999998,-0.1607841999999989,0.0258656,-0.5574195999999997,0.086895400000001,-0.1946957999999999,1,sub_8
0.0171965999999998,-0.2827659999999989,0.1105118,-0.4391701999999997,-0.269825799999999,-0.2271683999999999,1,sub_8
-0.1005410000000001,-0.724686399999999,0.1675368,0.1463016000000003,-0.435601599999999,-0.1440315999999999,1,sub_8
-0.0619204000000001,-0.9245019999999988,0.23801,0.6967170000000003,-0.6882701999999992,-0.0390229999999999,1,sub_8
-0.0850842000000001,-0.847323399999999,0.2489198,0.9442594000000004,-0.7157799999999991,0.072341,1,sub_8
-0.0938724000000001,-0.5732297999999989,0.2936744000000001,1.2311078000000004,-0.696767999999999,0.0775248,1,sub_8
-0.0846850000000001,-0.1122103999999988,0.2050112000000001,1.2899378000000004,-0.7398709999999991,0.096151,1,sub_8
-0.0114332000000001,0.2770838000000011,0.0704430000000001,1.2891642000000003,-0.662028799999999,-0.0821333999999999,1,sub_8
0.0124101999999998,0.6730084000000012,0.0169508,1.1562838000000004,-0.478308999999999,-0.1965283999999999,1,sub_8
0.0070641999999998,0.8241164000000012,-0.0333967999999998,0.8179794000000005,-0.216750999999999,-0.1513701999999999,1,sub_8
0.0215921999999998,0.7020258000000011,-0.1508049999999999,0.3298976000000004,0.1456886000000009,-0.0563261999999999,1,sub_8
-0.0188750000000001,0.4147468000000012,-0.1542011999999999,0.2697028000000004,0.3114976000000009,-0.1236161999999999,1,sub_8
-0.0492962000000001,0.1106092000000011,-0.0521193999999999,0.2615104000000004,0.3490542000000008,0.0283932,1,sub_8
-0.0194586000000001,-0.1425433999999988,-0.0307793999999999,0.2305474000000004,0.4995476000000008,0.0893,1,sub_8
0.1033873999999998,-0.1225967999999988,0.0558108,0.2450838000000003,0.4168062000000009,0.0957034,1,sub_8
0.2475637999999998,0.0316064000000011,0.1215826000000001,0.1367862000000003,0.1500060000000009,0.0435868,1,sub_8
0.4254935999999999,0.1426426000000011,0.0684968000000001,-0.3105799999999997,0.1550322000000009,0.0269958,1,sub_8
0.3965639999999998,0.0006676000000011,0.0659238,-0.4183053999999996,0.1365038000000009,-0.0944419999999998,1,sub_8
0.2977463999999998,-0.2482371999999988,0.1269068,-0.3911767999999996,-0.017343999999999,-0.1124285999999999,1,sub_8
0.1911323999999999,-0.521357799999999,0.065052,-0.2613825999999997,-0.129717199999999,-0.0951409999999999,1,sub_8
0.0700175999999998,-0.7457773999999989,0.055274,0.1249234000000003,-0.194549399999999,0.011899,1,sub_8
-0.2018296000000001,-0.728786399999999,0.1189872,0.5001288000000004,-0.291155799999999,0.13578,1,sub_8
-0.2295036,-0.3549603999999988,0.0464552000000001,0.6332454000000003,-0.4047049999999991,0.1246776,1,sub_8
-0.0750786000000001,0.1535492000000012,-0.0218275999999999,0.8340218000000004,-0.511703799999999,0.068533,1,sub_8
-0.0473684000000001,0.6257522000000012,-0.0503667999999999,0.8855578000000003,-0.543400799999999,0.0118904,1,sub_8
-0.0978674000000001,0.9176186000000012,-0.1450231999999999,0.7318810000000003,-0.432247399999999,-0.1057617999999999,1,sub_8
0.0096373999999998,0.7949664000000012,-0.1534191999999999,0.6551282000000004,-0.183589799999999,-0.2044655999999999,1,sub_8
0.0183633999999998,0.5848960000000012,-0.0941793999999999,0.4207204000000004,0.2199562000000009,-0.0596325999999999,1,sub_8
